{"condition": 1, "counterbalance": 0, "assignmentId": "a14972406", "workerId": "w63749147", "hitId": "h64224499", "currenttrial": 56, "bonus": 0, "data": [{"uniqueid": "w63749147:a14972406", "current_trial": 0, "dateTime": 1691488488138, "trialdata": {"success": true, "trial_type": "fullscreen", "trial_index": 0, "time_elapsed": 3154, "internal_node_id": "0.0-0.0"}}, {"uniqueid": "w63749147:a14972406", "current_trial": 1, "dateTime": 1691488496152, "trialdata": {"view_history": [{"page_index": 0, "viewing_time": 8007}], "rt": 8008, "trial_id": "exp_instructions_misaligned", "trial_type": "instructions", "trial_index": 1, "time_elapsed": 11168, "internal_node_id": "0.0-1.0"}}, {"uniqueid": "w63749147:a14972406", "current_trial": 2, "dateTime": 1691488499224, "trialdata": {"success": true, "trial_type": "fullscreen", "trial_index": 2, "time_elapsed": 14240, "internal_node_id": "0.0-2.0-0.0"}}, {"uniqueid": "w63749147:a14972406", "current_trial": 3, "dateTime": 1691488704188, "trialdata": {"view_history": [{"page_index": 0, "viewing_time": 64445}, {"page_index": 1, "viewing_time": 60698}, {"page_index": 2, "viewing_time": 35201}, {"page_index": 3, "viewing_time": 44617}], "rt": 204962, "trial_id": "mouselab_instructions_1_misaligned", "trial_type": "instructions", "trial_index": 3, "time_elapsed": 219204, "internal_node_id": "0.0-2.0-1.0"}}, {"uniqueid": "w63749147:a14972406", "current_trial": 4, "dateTime": 1691488723414, "trialdata": {"revealed_states": [], "clicked_states": ["12", "23"], "num_clicks_accrued": [0, 0, 0, 0, 0, 0, 0, 0, 0, 0, 0, 0, 0], "stateRewards": ["", -10, -10, 10, -10, 10, 10, 10, 10, -10, 10, 10, 10, -10, -10, 10, -10, 10, 10, -10, 10, -10, 10, 10, 10, 10, 10, 10, -10, -10, 10, 10, 10, 10], "withholdReward": false, "trial_id": "practice_1", "block": "test", "trialIndex": 0, "score": -7.5, "costs": -1, "simulationMode": [null, null, null, null, null], "rewards": [10, -10, -10, -10, 10], "path": ["0", "0", "12", "13", "14", "19", "20"], "rt": [5956, 527, 439, 983, 542], "actions": ["right", "right", "right", "down", "right"], "actionTimes": [7556, 8591, 9535, 11015, 12055], "queries": {"click": {"state": {"target": ["12", "23"], "time": [2331, 3455]}, "edge": {"target": [], "time": []}}, "mouseover": {"state": {"target": ["12", "13", "0", "23", "1", "0"], "time": [2011, 2778, 3081, 3128, 3894, 5797]}, "edge": {"target": [], "time": []}}, "mouseout": {"state": {"target": ["12", "0", "12", "13", "12", "0", "23", "1", "12", "0"], "time": [null, 1994, 2745, 3044, 3077, 3094, 3827, 4795, 5745, 5911]}, "edge": {"target": [], "time": []}}}, "displayed_time": "12.55", "trialTime": 17664, "trial_type": "mouselab-mdp", "trial_index": 4, "time_elapsed": 238429, "internal_node_id": "0.0-2.0-2.0-0.0"}}, {"uniqueid": "w63749147:a14972406", "current_trial": 5, "dateTime": 1691488753492, "trialdata": {"revealed_states": [], "clicked_states": ["23", "24", "25", "30", "31", "26", "27", "29", "12", "13", "19"], "num_clicks_accrued": [0, 0, 0, 0, 0, 0, 0, 0, 0, 0, 0, 0, 0], "stateRewards": ["", 10, -10, -10, 10, -10, 10, 10, 10, -10, 10, -10, 10, 10, -10, 10, 10, 10, -10, 10, 10, 10, 10, -10, 10, -10, 10, 10, 10, -10, 10, -10, -10, -10], "withholdReward": false, "trial_id": "practice_2", "block": "test", "trialIndex": 1, "score": 8, "costs": -5.5, "simulationMode": [null, null, null, null, null], "rewards": [-10, 10, -10, 10, 10], "path": ["0", "0", "23", "24", "25", "26", "27"], "rt": [18999, 426, 357, 362, 320], "actions": ["left", "left", "left", "up", "up"], "actionTimes": [22015, 22943, 23807, 24679, 25503], "queries": {"click": {"state": {"target": ["23", "24", "25", "30", "31", "26", "27", "29", "12", "13", "19"], "time": [3970, 5144, 6359, 7473, 8543, 10136, 11832, 13104, 15984, 17489, 19472]}, "edge": {"target": [], "time": []}}, "mouseover": {"state": {"target": ["23", "24", "25", "30", "31", "33", "26", "28", "27", "29", "28", "1", "13", "12", "13", "14", "13", "13", "14", "19", "20", "22"], "time": [3578, 4428, 5562, 7279, 7962, 9295, 9946, 10562, 11179, 12829, 13480, 13529, 15651, 15697, 16213, 16763, 16986, 17229, 17799, 18929, 19846, 20629]}, "edge": {"target": [], "time": []}}, "mouseout": {"state": {"target": ["12", "0", "0", "23", "24", "25", "30", "30", "31", "30", "33", "26", "28", "27", "29", "26", "28", "1", "13", "12", "13", "14", "13", "13", "14", "19", "20", "19", "22"], "time": [1827, 2210, 3529, 4395, 5512, 6896, 7482, 7912, 8778, 8945, 9628, 10514, 11096, 12713, 13259, 13463, 13496, 13563, 15662, 16196, 16714, 16983, 17029, 17779, 18813, 19796, 20530, 20596, 20663]}, "edge": {"target": [], "time": []}}}, "displayed_time": "26.02", "trialTime": 29724, "trial_type": "mouselab-mdp", "trial_index": 5, "time_elapsed": 268508, "internal_node_id": "0.0-2.0-2.0-1.0"}}, {"uniqueid": "w63749147:a14972406", "current_trial": 6, "dateTime": 1691488782013, "trialdata": {"view_history": [{"page_index": 0, "viewing_time": 24596}, {"page_index": 1, "viewing_time": 3920}], "rt": 28517, "trial_id": "mouselab_instructions_2_misaligned", "trial_type": "instructions", "trial_index": 6, "time_elapsed": 297029, "internal_node_id": "0.0-2.0-3.0"}}, {"uniqueid": "w63749147:a14972406", "current_trial": 7, "dateTime": 1691488820859, "trialdata": {"rt": 38837, "response": {"Q0": "The cost for clicking on nodes may vary between nodes.", "Q1": "The better I perform the higher my bonus will be.", "Q2": "No, the amount of cash at each node of the web may be different each time.", "Q3": "To get the highest total score.", "Q4": "Only before moving the spider.", "Q5": "3 seconds"}, "question_order": [0, 1, 2, 3, 4, 5], "correct": {"Q0": "The cost for clicking on nodes may vary between nodes.", "Q1": "The better I perform the higher my bonus will be.", "Q2": "No, the amount of cash at each node of the web may be different each time.", "Q3": "To get the highest total score.", "Q4": "Only before moving the spider.", "Q5": "3 seconds"}, "trial_id": "mouselab_quiz_misaligned", "trial_type": "survey-multi-choice", "trial_index": 7, "time_elapsed": 335875, "internal_node_id": "0.0-2.0-4.0"}}, {"uniqueid": "w63749147:a14972406", "current_trial": 8, "dateTime": 1691488836009, "trialdata": {"rt": 15141, "stimulus": "\n<h1> Get ready to start the game! </h1>\n\nThank you for reading the instructions. Get ready start with the 40 rounds of this game.\n<br><br>\nIf you need to take a break, feel free to take one after the end of a round, before continuing to the next one.\n<br><br>\nRemember, the more money the spider gets, the bigger your bonus will be!\n<br><br>\n<div style='text-align: center;'>Press <code>space</code> to begin.</div>\n\n<br><br>\n(If, at any point, the <code>space</code> key does not take you to the next page, click once on the text and try again.)", "response": " ", "trial_id": "mdp_ready", "trial_type": "html-keyboard-response", "trial_index": 8, "time_elapsed": 351025, "internal_node_id": "0.0-4.0-0.0"}}, {"uniqueid": "w63749147:a14972406", "current_trial": 9, "dateTime": 1691488866035, "trialdata": {"revealed_states": [], "clicked_states": ["12", "13", "14", "19", "20"], "num_clicks_accrued": [0, 0, 0, 0, 0, 0, 0, 0, 0, 0, 0, 0, 0], "stateRewards": ["", -1, -1, 4, -16, -75, 81, -51, -7, -84, 73, -30, -2, 1, -3, -16, -77, 33, 14, 1, 45, 87, -66, 2, 2, -5, -7, -19, -17, 79, -3, 8, 49, 47], "withholdReward": false, "trial_id": "mdp_trial_1", "block": "test", "trialIndex": 2, "score": 38.25, "costs": -4.75, "simulationMode": [null, null, null, null, null], "rewards": [2, 2, -5, -3, 47], "path": ["0", "0", "23", "24", "25", "30", "33"], "rt": [5856, 605, 400, 4516, 1562], "actions": ["left", "left", "left", "down", "left"], "actionTimes": [6989, 8116, 9028, 14060, 16140], "queries": {"click": {"state": {"target": ["12", "13", "14", "19", "20"], "time": [1719, 2359, 3037, 3617, 4134]}, "edge": {"target": [], "time": []}}, "mouseover": {"state": {"target": ["12", "13", "14", "19", "20", "21", "22", "15", "18", "12", "0"], "time": [1490, 2057, 2694, 3391, 3858, 4441, 4891, 5408, 5657, 6074, 6141]}, "edge": {"target": [], "time": []}}, "mouseout": {"state": {"target": ["1", "12", "13", "14", "19", "20", "21", "22", "13", "15", "18", "12", "0", "0", "31", "30", "30", "27", "26", "30", "24", "1"], "time": [473, 2024, 2658, 3324, 3825, 4376, 4824, 4942, 5175, 5491, 6008, 6091, 6293, 10841, 11141, 11225, 27259, 28877, 28911, 29177, 29276, 29593]}, "edge": {"target": [], "time": []}}}, "displayed_time": "16.66", "trialTime": 29653, "trial_type": "mouselab-mdp", "trial_index": 9, "time_elapsed": 381050, "internal_node_id": "0.0-4.0-1.0-0.0"}}, {"uniqueid": "w63749147:a14972406", "current_trial": 10, "dateTime": 1691488896733, "trialdata": {"revealed_states": [], "clicked_states": ["12", "13", "14", "19", "20"], "num_clicks_accrued": [0, 0, 0, 0, 0, 0, 0, 0, 0, 0, 0, 0, 0], "stateRewards": ["", 1, -3, -4, -11, -56, 61, -47, -16, -28, -9, 69, -2, -3, -4, -8, 40, -86, 59, -4, 80, 27, 54, -1, 3, -1, 8, 67, 23, 50, 6, 83, -43, -29], "withholdReward": false, "trial_id": "mdp_trial_2", "block": "test", "trialIndex": 3, "score": 62.25, "costs": -4.75, "simulationMode": [null, null, null, null, null], "rewards": [-2, -3, -4, -4, 80], "path": ["0", "0", "12", "13", "14", "19", "20"], "rt": [9352, 205, 273, 1129, 374], "actions": ["right", "right", "right", "down", "right"], "actionTimes": [10712, 11454, 12222, 13862, 14758], "queries": {"click": {"state": {"target": ["12", "13", "14", "19", "20"], "time": [2617, 3222, 3838, 4415, 4912]}, "edge": {"target": [], "time": []}}, "mouseover": {"state": {"target": ["23", "0", "12", "13", "14", "19", "20", "18", "18", "23"], "time": [1795, 2130, 2262, 2995, 3596, 4195, 4746, 5581, 6713, 7063]}, "edge": {"target": [], "time": []}}, "mouseout": {"state": {"target": ["0", "23", "0", "12", "13", "14", "19", "19", "20", "18", "18", "23"], "time": [844, 1912, 2162, 2962, 3546, 4146, 4554, 4679, 5042, 6531, 6729, 28315]}, "edge": {"target": [], "time": []}}}, "displayed_time": "15.37", "trialTime": 30320, "trial_type": "mouselab-mdp", "trial_index": 10, "time_elapsed": 411748, "internal_node_id": "0.0-4.0-1.0-1.0"}}, {"uniqueid": "w63749147:a14972406", "current_trial": 11, "dateTime": 1691488924142, "trialdata": {"revealed_states": [], "clicked_states": ["12", "13", "14", "15", "17"], "num_clicks_accrued": [0, 0, 0, 0, 0, 0, 0, 0, 0, 0, 0, 0, 0], "stateRewards": ["", 1, -3, -2, 14, 49, -40, -39, 2, 26, -61, 73, 1, -4, -8, 12, 79, 29, -65, -13, 55, -26, 27, -1, 3, 3, 9, -17, -60, -18, -8, 35, -88, 69], "withholdReward": false, "trial_id": "mdp_trial_3", "block": "test", "trialIndex": 4, "score": -34.75, "costs": -4.75, "simulationMode": [null, null, null, null, null], "rewards": [1, -3, -2, 14, -40], "path": ["0", "0", "1", "2", "3", "4", "6"], "rt": [7773, 177, 286, 254, 256], "actions": ["up", "up", "up", "right", "right"], "actionTimes": [10844, 11538, 12330, 13098, 13866], "queries": {"click": {"state": {"target": ["12", "13", "14", "15", "17"], "time": [3780, 4334, 4924, 6116, 6716]}, "edge": {"target": [], "time": []}}, "mouseover": {"state": {"target": ["12", "13", "14", "19", "15", "17", "16", "20", "19"], "time": [3473, 4073, 4690, 5541, 5758, 6574, 7158, 7957, 8626]}, "edge": {"target": [], "time": []}}, "mouseout": {"state": {"target": ["32", "0", "0", "0", "12", "13", "14", "19", "14", "15", "15", "17", "16", "15", "20", "19", "22"], "time": [1022, 1072, 2222, 3406, 4023, 4640, 5291, 5674, 5724, 6132, 6407, 7091, 7674, 7741, 8591, 25309, 25575]}, "edge": {"target": [], "time": []}}}, "displayed_time": "17.07", "trialTime": 27003, "trial_type": "mouselab-mdp", "trial_index": 11, "time_elapsed": 439157, "internal_node_id": "0.0-4.0-1.0-2.0"}}, {"uniqueid": "w63749147:a14972406", "current_trial": 12, "dateTime": 1691488951938, "trialdata": {"revealed_states": [], "clicked_states": ["20", "17", "5"], "num_clicks_accrued": [0, 0, 0, 0, 0, 0, 0, 0, 0, 0, 0, 0, 0], "stateRewards": ["", -2, -1, -4, -15, -14, -67, 32, -3, -59, 63, 31, 2, -1, -7, -15, 71, -66, -27, -3, -54, -39, 72, 2, 1, 1, -13, 77, -40, 35, -9, 35, 75, 57], "withholdReward": false, "trial_id": "mdp_trial_4", "block": "test", "trialIndex": 5, "score": -55.45, "costs": -6.449999999999999, "simulationMode": [null, null, null, null, null], "rewards": [2, 1, 1, -13, -40], "path": ["0", "0", "23", "24", "25", "26", "28"], "rt": [11370, 293, 327, 372, 328], "actions": ["left", "left", "left", "up", "right"], "actionTimes": [14204, 15019, 15867, 16763, 17603], "queries": {"click": {"state": {"target": ["20", "17", "5"], "time": [3953, 7851, 10964]}, "edge": {"target": [], "time": []}}, "mouseover": {"state": {"target": ["12", "13", "14", "20", "19", "21", "21", "17", "14", "15", "17", "16", "6", "5", "9", "8", "2", "1"], "time": [3375, 3408, 3441, 3774, 4525, 4742, 4908, 5958, 6692, 7141, 7676, 8308, 9487, 10471, 12022, 13040, 13121, 13176]}, "edge": {"target": [], "time": []}}, "mouseout": {"state": {"target": ["12", "0", "12", "13", "14", "20", "20", "19", "21", "21", "17", "14", "15", "17", "16", "6", "5", "9", "8", "2", "1"], "time": [659, 823, 3391, 3425, 3475, 4148, 4492, 4575, 4791, 5593, 6643, 7025, 7292, 7861, 9438, 10421, 11006, 13006, 13088, 13138, 13187]}, "edge": {"target": [], "time": []}}}, "displayed_time": "18.12", "trialTime": 27348, "trial_type": "mouselab-mdp", "trial_index": 12, "time_elapsed": 466954, "internal_node_id": "0.0-4.0-1.0-3.0"}}, {"uniqueid": "w63749147:a14972406", "current_trial": 13, "dateTime": 1691488976314, "trialdata": {"revealed_states": [], "clicked_states": ["23", "24", "25", "26", "28"], "num_clicks_accrued": [0, 0, 0, 0, 0, 0, 0, 0, 0, 0, 0, 0, 0], "stateRewards": ["", 2, -1, 4, -9, -43, 7, 54, -13, 38, -40, -83, -1, 2, -8, -10, 34, -33, 11, -14, -79, 65, 26, 1, 2, 4, 10, 21, 1, 86, 4, -53, 28, -29], "withholdReward": false, "trial_id": "mdp_trial_5", "block": "test", "trialIndex": 6, "score": -52.75, "costs": -4.75, "simulationMode": [null, null, null, null, null], "rewards": [2, -1, 4, -13, -40], "path": ["0", "0", "1", "2", "3", "8", "10"], "rt": [9249, 475, 500, 635, 741], "actions": ["up", "up", "up", "left", "down"], "actionTimes": [12914, 13889, 14897, 16049, 17305], "queries": {"click": {"state": {"target": ["23", "24", "25", "26", "28"], "time": [4659, 5666, 6579, 7489, 8470]}, "edge": {"target": [], "time": []}}, "mouseover": {"state": {"target": ["23", "24", "25", "26", "28", "29"], "time": [4443, 5427, 6127, 7110, 7994, 9361]}, "edge": {"target": [], "time": []}}, "mouseout": {"state": {"target": ["1", "0", "23", "24", "25", "26", "28", "26"], "time": [25, 4410, 5210, 6093, 7027, 7943, 9228, 9311]}, "edge": {"target": [], "time": []}}}, "displayed_time": "17.81", "trialTime": 23946, "trial_type": "mouselab-mdp", "trial_index": 13, "time_elapsed": 491330, "internal_node_id": "0.0-4.0-1.0-4.0"}}, {"uniqueid": "w63749147:a14972406", "current_trial": 14, "dateTime": 1691489011616, "trialdata": {"revealed_states": [], "clicked_states": ["12", "13", "14", "19", "20", "21", "15", "17"], "num_clicks_accrued": [0, 0, 0, 0, 0, 0, 0, 0, 0, 0, 0, 0, 0], "stateRewards": ["", 1, -2, -8, -3, 31, -84, -55, -14, 15, -58, 17, -2, -3, 7, 7, -12, 48, 67, 4, -44, -68, 46, 2, 3, -5, -7, 76, 27, 5, 11, 57, 52, 59], "withholdReward": false, "trial_id": "mdp_trial_6", "block": "test", "trialIndex": 7, "score": 59.4, "costs": -10.600000000000001, "simulationMode": [null, null, null, null, null], "rewards": [2, 3, -5, 11, 59], "path": ["0", "0", "23", "24", "25", "30", "33"], "rt": [16502, 406, 290, 410, 654], "actions": ["left", "left", "left", "down", "left"], "actionTimes": [20142, 21060, 21860, 22780, 23956], "queries": {"click": {"state": {"target": ["12", "13", "14", "19", "20", "21", "15", "17"], "time": [5088, 6097, 6913, 7905, 8713, 12009, 15168, 16113]}, "edge": {"target": [], "time": []}}, "mouseover": {"state": {"target": ["12", "13", "14", "19", "20", "22", "21", "22", "14", "15", "17", "16", "18"], "time": [4761, 5510, 6594, 7397, 8396, 9397, 10796, 13011, 14545, 14795, 15712, 16984, 18102]}, "edge": {"target": [], "time": []}}, "mouseout": {"state": {"target": ["26", "24", "0", "12", "13", "14", "19", "20", "19", "22", "21", "22", "14", "15", "17", "16"], "time": [28, 92, 4499, 5339, 6562, 7363, 8346, 9232, 9382, 10697, 12678, 14061, 14578, 15661, 16828, 17833]}, "edge": {"target": [], "time": []}}}, "displayed_time": "24.47", "trialTime": 34813, "trial_type": "mouselab-mdp", "trial_index": 14, "time_elapsed": 526632, "internal_node_id": "0.0-4.0-1.0-5.0"}}, {"uniqueid": "w63749147:a14972406", "current_trial": 15, "dateTime": 1691489049106, "trialdata": {"revealed_states": [], "clicked_states": ["23", "24", "25", "26", "28", "29"], "num_clicks_accrued": [0, 0, 0, 0, 0, 0, 0, 0, 0, 0, 0, 0, 0], "stateRewards": ["", -2, 3, 8, -9, 59, 41, -50, -1, 82, 66, 33, 2, -2, 7, 8, 1, -38, 12, -16, 24, -37, 67, 1, 4, -2, 5, 35, -83, 28, 8, -27, 69, -64], "withholdReward": false, "trial_id": "mdp_trial_7", "block": "test", "trialIndex": 8, "score": 34.1, "costs": -6.9, "simulationMode": [null, null, null, null, null], "rewards": [-2, 3, 8, -1, 33], "path": ["0", "0", "1", "2", "3", "8", "11"], "rt": [10043, 504, 269, 311, 448], "actions": ["up", "up", "up", "left", "left"], "actionTimes": [13592, 14614, 15399, 16223, 17175], "queries": {"click": {"state": {"target": ["23", "24", "25", "26", "28", "29"], "time": [4321, 5071, 5718, 6415, 7007, 10367]}, "edge": {"target": [], "time": []}}, "mouseover": {"state": {"target": ["23", "24", "25", "26", "28", "27", "29", "29", "10", "2", "1"], "time": [4091, 4790, 5492, 6107, 6773, 7574, 8360, 10124, 11077, 11191, 11475]}, "edge": {"target": [], "time": []}}, "mouseout": {"state": {"target": ["18", "23", "24", "25", "26", "28", "27", "29", "29", "10", "2", "1", "10", "11", "11"], "time": [889, 4675, 5424, 6007, 6740, 7475, 8274, 9744, 10807, 11157, 11408, 36260, 36293, 36310, 36627]}, "edge": {"target": [], "time": []}}}, "displayed_time": "17.69", "trialTime": 37025, "trial_type": "mouselab-mdp", "trial_index": 15, "time_elapsed": 564121, "internal_node_id": "0.0-4.0-1.0-6.0"}}, {"uniqueid": "w63749147:a14972406", "current_trial": 16, "dateTime": 1691489076658, "trialdata": {"revealed_states": [], "clicked_states": ["12", "13", "14", "15", "16"], "num_clicks_accrued": [0, 0, 0, 0, 0, 0, 0, 0, 0, 0, 0, 0, 0], "stateRewards": ["", 1, -4, -6, -1, -21, 17, -72, 10, 77, 67, -46, -1, 4, -2, 14, -66, -49, -45, -15, -52, 23, -67, 2, -2, -2, 15, -3, 45, -64, 5, -44, 83, 61], "withholdReward": false, "trial_id": "mdp_trial_8", "block": "test", "trialIndex": 9, "score": 2.25, "costs": -4.75, "simulationMode": [null, null, null, null, null], "rewards": [1, -4, -6, -1, 17], "path": ["0", "0", "1", "2", "3", "4", "6"], "rt": [8081, 434, 501, 357, 451], "actions": ["up", "up", "up", "right", "right"], "actionTimes": [9809, 10768, 11768, 12624, 13568], "queries": {"click": {"state": {"target": ["12", "13", "14", "15", "16"], "time": [3308, 4129, 4849, 5741, 6506]}, "edge": {"target": [], "time": []}}, "mouseover": {"state": {"target": ["12", "13", "14", "15", "15", "16", "18", "1"], "time": [3064, 3697, 4564, 5213, 5430, 6131, 7298, 7715]}, "edge": {"target": [], "time": []}}, "mouseout": {"state": {"target": ["0", "12", "13", "14", "15", "15", "16", "18", "1"], "time": [947, 3664, 4531, 5164, 5252, 6063, 7247, 7364, 26932]}, "edge": {"target": [], "time": []}}}, "displayed_time": "15.73", "trialTime": 27114, "trial_type": "mouselab-mdp", "trial_index": 16, "time_elapsed": 591673, "internal_node_id": "0.0-4.0-1.0-7.0"}}, {"uniqueid": "w63749147:a14972406", "current_trial": 17, "dateTime": 1691489095706, "trialdata": {"revealed_states": [], "clicked_states": ["23", "24", "25", "26", "28"], "num_clicks_accrued": [0, 0, 0, 0, 0, 0, 0, 0, 0, 0, 0, 0, 0], "stateRewards": ["", 2, 4, -5, 7, 81, 35, 6, 11, 14, -72, 42, -1, 2, 3, -7, -77, -44, -40, -15, -85, 51, -32, -2, -1, -5, 7, -74, 47, 52, 16, -49, 48, -46], "withholdReward": false, "trial_id": "mdp_trial_9", "block": "test", "trialIndex": 10, "score": -47.75, "costs": -4.75, "simulationMode": [null, null, null, null, null], "rewards": [-1, 2, 3, -15, -32], "path": ["0", "0", "12", "13", "14", "19", "22"], "rt": [7796, 514, 410, 477, 1373], "actions": ["right", "right", "right", "down", "left"], "actionTimes": [9422, 10437, 11349, 12333, 14229], "queries": {"click": {"state": {"target": ["23", "24", "25", "26", "28"], "time": [2542, 3197, 3929, 4575, 5217]}, "edge": {"target": [], "time": []}}, "mouseover": {"state": {"target": ["23", "24", "25", "26", "28", "23", "24", "30", "31", "0"], "time": [2302, 2953, 3769, 4304, 5004, 6289, 6331, 6521, 7404, 8320]}, "edge": {"target": [], "time": []}}, "mouseout": {"state": {"target": ["0", "23", "24", "25", "26", "28", "23", "24", "30", "31", "0"], "time": [2002, 2919, 3586, 4203, 4972, 5987, 6328, 6351, 7272, 8235, 8353]}, "edge": {"target": [], "time": []}}}, "displayed_time": "15.63", "trialTime": 18582, "trial_type": "mouselab-mdp", "trial_index": 17, "time_elapsed": 610721, "internal_node_id": "0.0-4.0-1.0-8.0"}}, {"uniqueid": "w63749147:a14972406", "current_trial": 18, "dateTime": 1691489125830, "trialdata": {"revealed_states": [], "clicked_states": ["12", "13", "14", "19", "22", "20"], "num_clicks_accrued": [0, 0, 0, 0, 0, 0, 0, 0, 0, 0, 0, 0, 0], "stateRewards": ["", 2, 3, -2, -8, -8, -41, 74, 15, -23, -80, 1, 1, 3, 3, -15, -63, -78, 67, 13, 75, -41, 86, 2, -2, 6, -3, -8, -49, 50, -6, 83, 74, 80], "withholdReward": false, "trial_id": "mdp_trial_10", "block": "test", "trialIndex": 11, "score": -19.9, "costs": -6.9, "simulationMode": [null, null, null, null, null], "rewards": [2, 3, -2, -8, -8], "path": ["0", "0", "1", "2", "3", "4", "5"], "rt": [10627, 430, 656, 1177, 406], "actions": ["up", "up", "up", "right", "up"], "actionTimes": [13046, 13981, 15156, 16829, 17736], "queries": {"click": {"state": {"target": ["12", "13", "14", "19", "22", "20"], "time": [3798, 4583, 5325, 6233, 7294, 10141]}, "edge": {"target": [], "time": []}}, "mouseover": {"state": {"target": ["12", "13", "14", "19", "22", "21", "20", "15"], "time": [3313, 4147, 4980, 5681, 6815, 7798, 8748, 11064]}, "edge": {"target": [], "time": []}}, "mouseout": {"state": {"target": ["0", "12", "13", "14", "19", "22", "21", "19", "20", "15", "14", "0", "12"], "time": [3264, 4130, 4947, 5631, 6780, 7730, 8530, 8565, 10747, 23160, 23194, 24877, 27094]}, "edge": {"target": [], "time": []}}}, "displayed_time": "18.25", "trialTime": 29649, "trial_type": "mouselab-mdp", "trial_index": 18, "time_elapsed": 640845, "internal_node_id": "0.0-4.0-1.0-9.0"}}, {"uniqueid": "w63749147:a14972406", "current_trial": 19, "dateTime": 1691489156319, "trialdata": {"revealed_states": [], "clicked_states": ["23", "24", "25", "30", "33", "31"], "num_clicks_accrued": [0, 0, 0, 0, 0, 0, 0, 0, 0, 0, 0, 0, 0], "stateRewards": ["", -1, -3, 4, -10, -5, 79, -87, -2, 53, 29, -20, -2, -1, -5, 10, 27, 86, 46, -16, -29, 40, 3, 2, 4, -1, -6, 37, 79, -29, 7, 86, -62, 29], "withholdReward": false, "trial_id": "mdp_trial_11", "block": "test", "trialIndex": 12, "score": 91.1, "costs": -6.9, "simulationMode": [null, null, null, null, null], "rewards": [2, 4, -1, 7, 86], "path": ["0", "0", "23", "24", "25", "30", "31"], "rt": [14428, 295, 240, 464, 449], "actions": ["left", "left", "left", "down", "right"], "actionTimes": [16038, 16845, 17605, 18581, 19549], "queries": {"click": {"state": {"target": ["23", "24", "25", "30", "33", "31"], "time": [3406, 4637, 5901, 7101, 8358, 11197]}, "edge": {"target": [], "time": []}}, "mouseover": {"state": {"target": ["0", "23", "24", "25", "30", "33", "31", "32", "30", "32"], "time": [1713, 2645, 3978, 5296, 6645, 7896, 9062, 12113, 12346, 13080]}, "edge": {"target": [], "time": []}}, "mouseout": {"state": {"target": ["0", "0", "23", "24", "25", "30", "33", "33", "30", "31", "31", "32", "30"], "time": [704, 2561, 3929, 5246, 6529, 7796, 8594, 8862, 8979, 11441, 11846, 12297, 13030]}, "edge": {"target": [], "time": []}}}, "displayed_time": "20.07", "trialTime": 30022, "trial_type": "mouselab-mdp", "trial_index": 19, "time_elapsed": 671334, "internal_node_id": "0.0-4.0-1.0-10.0"}}, {"uniqueid": "w63749147:a14972406", "current_trial": 20, "dateTime": 1691489232679, "trialdata": {"revealed_states": [], "clicked_states": ["23", "24", "25", "26", "28", "29"], "num_clicks_accrued": [0, 0, 0, 0, 0, 0, 0, 0, 0, 0, 0, 0, 0], "stateRewards": ["", -1, 4, -8, 12, 14, 69, -8, 5, -72, -14, 56, -1, -1, -1, 9, 67, 19, 11, -9, -88, -58, 3, 2, -4, -8, 4, 62, 77, -74, 5, -31, 65, 88], "withholdReward": false, "trial_id": "mdp_trial_12", "block": "test", "trialIndex": 13, "score": 18.1, "costs": -6.9, "simulationMode": [null, null, null, null, null], "rewards": [-1, -1, -1, 9, 19], "path": ["0", "0", "12", "13", "14", "15", "17"], "rt": [12480, 439, 465, 386, 734], "actions": ["right", "right", "right", "up", "right"], "actionTimes": [16533, 17473, 18449, 19337, 20569], "queries": {"click": {"state": {"target": ["23", "24", "25", "26", "28", "29"], "time": [5181, 6154, 6869, 7894, 9183, 12445]}, "edge": {"target": [], "time": []}}, "mouseover": {"state": {"target": ["23", "24", "25", "26", "28", "27", "29", "25", "30", "25", "25", "24", "23"], "time": [4709, 5608, 6575, 7326, 8309, 10078, 11294, 13126, 13560, 14226, 14877, 14963, 15009]}, "edge": {"target": [], "time": []}}, "mouseout": {"state": {"target": ["32", "0", "23", "24", "25", "26", "28", "27", "29", "25", "30", "25", "25", "24", "23", "0", "12"], "time": [457, 2541, 5526, 6542, 7225, 8276, 9979, 11061, 12992, 13459, 14176, 14459, 14943, 14994, 74270, 74553, 74969]}, "edge": {"target": [], "time": []}}}, "displayed_time": "21.08", "trialTime": 75876, "trial_type": "mouselab-mdp", "trial_index": 20, "time_elapsed": 747694, "internal_node_id": "0.0-4.0-1.0-11.0"}}, {"uniqueid": "w63749147:a14972406", "current_trial": 21, "dateTime": 1691489261356, "trialdata": {"revealed_states": [], "clicked_states": ["1", "2", "3", "4", "7", "6"], "num_clicks_accrued": [0, 0, 0, 0, 0, 0, 0, 0, 0, 0, 0, 0, 0], "stateRewards": ["", 2, 4, 4, 9, -88, -10, 44, 16, -54, 64, 78, 1, 2, 5, 16, 80, 36, 7, -4, 9, -47, -70, -1, -3, 6, -16, 11, 80, 28, 8, -1, 34, -17], "withholdReward": false, "trial_id": "mdp_trial_13", "block": "test", "trialIndex": 14, "score": 56.1, "costs": -6.9, "simulationMode": [null, null, null, null, null], "rewards": [2, 4, 4, 9, 44], "path": ["0", "0", "1", "2", "3", "4", "7"], "rt": [12135, 374, 435, 373, 618], "actions": ["up", "up", "up", "right", "down"], "actionTimes": [13628, 14515, 15442, 16331, 17458], "queries": {"click": {"state": {"target": ["1", "2", "3", "4", "7", "6"], "time": [2347, 3316, 4419, 5355, 6707, 9507]}, "edge": {"target": [], "time": []}}, "mouseover": {"state": {"target": ["1", "2", "3", "3", "4", "7", "6", "5"], "time": [2069, 2819, 3944, 4136, 4869, 5786, 7460, 10205]}, "edge": {"target": [], "time": []}}, "mouseout": {"state": {"target": ["12", "0", "1", "2", "3", "3", "4", "7", "6"], "time": [522, 1879, 2752, 3887, 4020, 4803, 5736, 7319, 10054]}, "edge": {"target": [], "time": []}}}, "displayed_time": "17.98", "trialTime": 28156, "trial_type": "mouselab-mdp", "trial_index": 21, "time_elapsed": 776371, "internal_node_id": "0.0-4.0-1.0-12.0"}}, {"uniqueid": "w63749147:a14972406", "current_trial": 22, "dateTime": 1691489333874, "trialdata": {"revealed_states": [], "clicked_states": ["23", "24", "25", "30", "31", "33", "32"], "num_clicks_accrued": [0, 0, 0, 0, 0, 0, 0, 0, 0, 0, 0, 0, 0], "stateRewards": ["", 1, -1, 4, -2, -75, -75, 84, -9, -60, -79, 59, 2, -4, 8, 9, -17, -82, 80, 14, -4, 49, 49, -1, 3, 6, -11, -33, 34, 55, 9, -57, 5, 59], "withholdReward": false, "trial_id": "mdp_trial_14", "block": "test", "trialIndex": 15, "score": 21.95, "costs": -9.05, "simulationMode": [null, null, null, null, null], "rewards": [-1, 3, 6, -11, 34], "path": ["0", "0", "23", "24", "25", "26", "28"], "rt": [14893, 296, 320, 318, 1069], "actions": ["left", "left", "left", "up", "right"], "actionTimes": [16484, 17283, 18123, 18963, 20555], "queries": {"click": {"state": {"target": ["23", "24", "25", "30", "31", "33", "32"], "time": [3500, 4316, 5192, 6026, 6810, 9971, 12852]}, "edge": {"target": [], "time": []}}, "mouseover": {"state": {"target": ["0", "12", "23", "24", "25", "30", "31", "33", "30", "30", "32", "0"], "time": [2264, 2298, 3064, 3932, 4817, 5615, 6465, 7632, 10533, 10783, 11415, 13783]}, "edge": {"target": [], "time": []}}, "mouseout": {"state": {"target": ["5", "3", "10", "2", "1", "0", "12", "23", "24", "25", "30", "31", "30", "33", "30", "30", "32", "0", "7", "6", "2", "1"], "time": [397, 447, 713, 764, 863, 2282, 2998, 3832, 4784, 5551, 6191, 7481, 7582, 10499, 10585, 11365, 13466, 13816, 69374, 69625, 69724, 70042]}, "edge": {"target": [], "time": []}}}, "displayed_time": "21.07", "trialTime": 72017, "trial_type": "mouselab-mdp", "trial_index": 22, "time_elapsed": 848890, "internal_node_id": "0.0-4.0-1.0-13.0"}}, {"uniqueid": "w63749147:a14972406", "current_trial": 23, "dateTime": 1691489367730, "trialdata": {"revealed_states": [], "clicked_states": ["12", "13", "14", "15", "17"], "num_clicks_accrued": [0, 0, 0, 0, 0, 0, 0, 0, 0, 0, 0, 0, 0], "stateRewards": ["", -1, 1, -1, 2, 19, 85, -18, 2, -3, -26, 36, 2, 4, 7, -9, -18, 70, 72, -5, 35, -20, -28, 1, -2, -4, -3, -59, -11, -63, -2, -72, 59, -69], "withholdReward": false, "trial_id": "mdp_trial_15", "block": "test", "trialIndex": 16, "score": 69.25, "costs": -4.75, "simulationMode": [null, null, null, null, null], "rewards": [2, 4, 7, -9, 70], "path": ["0", "0", "12", "13", "14", "15", "17"], "rt": [11631, 415, 379, 375, 300], "actions": ["right", "right", "right", "up", "right"], "actionTimes": [14497, 15424, 16304, 17184, 17976], "queries": {"click": {"state": {"target": ["12", "13", "14", "15", "17"], "time": [3650, 4483, 5382, 6448, 7657]}, "edge": {"target": [], "time": []}}, "mouseover": {"state": {"target": ["12", "0", "12", "13", "14", "15", "17", "16", "14", "12"], "time": [2884, 3054, 3304, 4024, 4888, 5871, 7254, 8939, 11254, 11555]}, "edge": {"target": [], "time": []}}, "mouseout": {"state": {"target": ["12", "2", "2", "1", "0", "12", "0", "12", "0", "12", "13", "14", "15", "17", "15", "16", "17", "17", "14", "12"], "time": [119, 219, 486, 554, 1819, 1971, 2881, 3021, 3253, 3988, 4855, 5821, 7221, 8455, 8821, 9959, 10037, 11204, 11288, 31274]}, "edge": {"target": [], "time": []}}}, "displayed_time": "18.48", "trialTime": 33352, "trial_type": "mouselab-mdp", "trial_index": 23, "time_elapsed": 882746, "internal_node_id": "0.0-4.0-1.0-14.0"}}, {"uniqueid": "w63749147:a14972406", "current_trial": 24, "dateTime": 1691489394900, "trialdata": {"revealed_states": [], "clicked_states": ["12", "13", "14", "19", "20"], "num_clicks_accrued": [0, 0, 0, 0, 0, 0, 0, 0, 0, 0, 0, 0, 0], "stateRewards": ["", -1, -2, 8, -6, -79, -6, 87, 9, -5, -66, -38, 2, 2, 5, -6, -82, 74, 85, -8, 67, -30, -15, 1, -2, -2, -2, 87, 64, 49, 7, 2, -38, -9], "withholdReward": false, "trial_id": "mdp_trial_16", "block": "test", "trialIndex": 17, "score": 63.25, "costs": -4.75, "simulationMode": [null, null, null, null, null], "rewards": [2, 2, 5, -8, 67], "path": ["0", "0", "12", "13", "14", "19", "20"], "rt": [12601, 579, 360, 358, 339], "actions": ["right", "right", "right", "down", "right"], "actionTimes": [14877, 15956, 16820, 17700, 18532], "queries": {"click": {"state": {"target": ["12", "13", "14", "19", "20"], "time": [5189, 6070, 7365, 8572, 9853]}, "edge": {"target": [], "time": []}}, "mouseover": {"state": {"target": ["12", "23", "12", "12", "13", "14", "19", "20", "19", "22"], "time": [3104, 4305, 4538, 5055, 5656, 6816, 7822, 9539, 13475, 13507]}, "edge": {"target": [], "time": []}}, "mouseout": {"state": {"target": ["0", "12", "23", "12", "12", "13", "14", "19", "19", "19", "20", "20", "20", "20", "19", "22"], "time": [3054, 3805, 4422, 4838, 5590, 6778, 7772, 8729, 9060, 9490, 10256, 11422, 12606, 13472, 13492, 13519]}, "edge": {"target": [], "time": []}}}, "displayed_time": "19.04", "trialTime": 26653, "trial_type": "mouselab-mdp", "trial_index": 24, "time_elapsed": 909915, "internal_node_id": "0.0-4.0-1.0-15.0"}}, {"uniqueid": "w63749147:a14972406", "current_trial": 25, "dateTime": 1691489477583, "trialdata": {"revealed_states": [], "clicked_states": ["23", "24", "25", "30", "33", "32", "31", "12", "13", "14", "19", "20", "22"], "num_clicks_accrued": [0, 0, 0, 0, 0, 0, 0, 0, 0, 0, 0, 0, 0], "stateRewards": ["", -2, 2, 8, -6, -25, 3, 87, 2, -62, -2, 74, -2, -1, 2, -1, 79, 49, -37, -14, 5, 67, -9, -1, 2, -2, 5, 15, 38, 32, -14, -38, -38, 30], "withholdReward": false, "trial_id": "mdp_trial_17", "block": "test", "trialIndex": 18, "score": -38.95, "costs": -15.950000000000001, "simulationMode": [null, null, null, null, null], "rewards": [-2, 2, 8, -6, -25], "path": ["0", "0", "1", "2", "3", "4", "5"], "rt": [30362, 120, 126, 206, 568], "actions": ["up", "up", "up", "right", "up"], "actionTimes": [40465, 41104, 41743, 42472, 43552], "queries": {"click": {"state": {"target": ["23", "24", "25", "30", "33", "32", "31", "12", "13", "14", "19", "20", "22"], "time": [11976, 12864, 13788, 15024, 15977, 20011, 23418, 28944, 29793, 30631, 31506, 32290, 36536]}, "edge": {"target": [], "time": []}}, "mouseover": {"state": {"target": ["12", "0", "23", "24", "25", "30", "33", "31", "30", "32", "30", "30", "32", "31", "1", "12", "12", "12", "13", "14", "19", "20", "21", "22", "22", "14", "14", "14"], "time": [10977, 11193, 11476, 12475, 13377, 14310, 15527, 16643, 18295, 18477, 18912, 19161, 19310, 20545, 24844, 25395, 27762, 28627, 29328, 30261, 31045, 31929, 33496, 36078, 36237, 37119, 37713, 37962]}, "edge": {"target": [], "time": []}}, "mouseout": {"state": {"target": ["0", "1", "1", "12", "0", "23", "24", "25", "30", "33", "33", "30", "31", "30", "32", "30", "30", "32", "31", "1", "12", "12", "12", "13", "14", "19", "20", "21", "22", "22", "14", "14", "14", "33", "30"], "time": [8159, 8292, 8576, 11160, 11242, 12427, 13327, 14250, 15460, 16118, 16331, 16377, 18260, 18360, 18893, 18994, 19227, 20461, 23811, 24883, 27532, 28461, 29294, 30244, 31012, 31895, 32644, 35979, 36148, 36980, 37179, 37786, 37996, 81590, 81607]}, "edge": {"target": [], "time": []}}}, "displayed_time": "44.07", "trialTime": 82145, "trial_type": "mouselab-mdp", "trial_index": 25, "time_elapsed": 992598, "internal_node_id": "0.0-4.0-1.0-16.0"}}, {"uniqueid": "w63749147:a14972406", "current_trial": 26, "dateTime": 1691489506575, "trialdata": {"revealed_states": [], "clicked_states": ["1", "2", "7", "3", "4", "6"], "num_clicks_accrued": [0, 0, 0, 0, 0, 0, 0, 0, 0, 0, 0, 0, 0], "stateRewards": ["", 2, 3, -6, -5, -3, 55, 40, 11, 61, 11, 51, 2, -4, -6, 9, -25, 29, -15, -6, 7, -77, -2, -2, -4, 1, 14, -43, -1, 56, -12, -54, 41, -74], "withholdReward": false, "trial_id": "mdp_trial_18", "block": "test", "trialIndex": 19, "score": 42.1, "costs": -6.9, "simulationMode": [null, null, null, null, null], "rewards": [2, 3, -6, -5, 55], "path": ["0", "0", "1", "2", "3", "4", "6"], "rt": [12687, 95, 376, 396, 178], "actions": ["up", "up", "up", "right", "right"], "actionTimes": [14726, 15317, 16197, 17117, 17845], "queries": {"click": {"state": {"target": ["1", "2", "7", "3", "4", "6"], "time": [3343, 4270, 5366, 8374, 9566, 10910]}, "edge": {"target": [], "time": []}}, "mouseover": {"state": {"target": ["1", "2", "7", "4", "3", "4", "6", "2", "1", "0"], "time": [2951, 3755, 4818, 6152, 6187, 8953, 10002, 12169, 12702, 12786]}, "edge": {"target": [], "time": []}}, "mouseout": {"state": {"target": ["0", "1", "2", "7", "4", "3", "4", "6", "2", "1", "0"], "time": [2684, 3497, 4785, 5735, 6170, 8902, 9952, 11269, 12239, 12719, 13369]}, "edge": {"target": [], "time": []}}}, "displayed_time": "18.36", "trialTime": 28399, "trial_type": "mouselab-mdp", "trial_index": 26, "time_elapsed": 1021591, "internal_node_id": "0.0-4.0-1.0-17.0"}}, {"uniqueid": "w63749147:a14972406", "current_trial": 27, "dateTime": 1691489535688, "trialdata": {"revealed_states": [], "clicked_states": ["23", "24", "25", "26", "29", "27", "28"], "num_clicks_accrued": [0, 0, 0, 0, 0, 0, 0, 0, 0, 0, 0, 0, 0], "stateRewards": ["", -2, 1, 6, -2, -10, -78, -69, 14, -15, 7, -1, 1, -1, -2, 13, 77, 32, 87, 5, -74, 30, -26, 1, 3, 4, 12, 39, 54, -43, 2, 10, 23, 13], "withholdReward": false, "trial_id": "mdp_trial_19", "block": "test", "trialIndex": 20, "score": 64.95, "costs": -9.05, "simulationMode": [null, null, null, null, null], "rewards": [1, 3, 4, 12, 54], "path": ["0", "0", "23", "24", "25", "26", "28"], "rt": [15925, 228, 207, 338, 432], "actions": ["left", "left", "left", "up", "right"], "actionTimes": [18520, 19263, 19991, 20839, 21784], "queries": {"click": {"state": {"target": ["23", "24", "25", "26", "29", "27", "28"], "time": [3536, 4393, 5146, 6432, 7519, 11048, 14680]}, "edge": {"target": [], "time": []}}, "mouseover": {"state": {"target": ["0", "23", "24", "25", "28", "26", "29", "28", "27", "28", "28", "12"], "time": [3115, 3212, 4034, 4813, 5896, 6030, 7063, 7930, 8297, 11731, 12115, 15231]}, "edge": {"target": [], "time": []}}, "mouseout": {"state": {"target": ["0", "0", "23", "24", "25", "28", "26", "29", "26", "28", "27", "28", "28"], "time": [1228, 3163, 3997, 4763, 5597, 5964, 7013, 7830, 7913, 8217, 11482, 11797, 15131]}, "edge": {"target": [], "time": []}}}, "displayed_time": "22.30", "trialTime": 28504, "trial_type": "mouselab-mdp", "trial_index": 27, "time_elapsed": 1050703, "internal_node_id": "0.0-4.0-1.0-18.0"}}, {"uniqueid": "w63749147:a14972406", "current_trial": 28, "dateTime": 1691489592209, "trialdata": {"revealed_states": [], "clicked_states": ["1", "2", "3", "8", "10", "4", "7", "6", "12", "13", "14", "19", "20"], "num_clicks_accrued": [0, 0, 0, 0, 0, 0, 0, 0, 0, 0, 0, 0, 0], "stateRewards": ["", -2, -3, -7, 7, -54, -69, -4, -14, -77, 22, 40, -2, -1, 5, 6, -35, 50, -60, 10, -28, 75, 57, 1, -4, -2, 2, 68, 34, -18, 12, 3, -21, -43], "withholdReward": false, "trial_id": "mdp_trial_20", "block": "test", "trialIndex": 21, "score": 53.65, "costs": -15.35, "simulationMode": [null, null, null, null, null], "rewards": [-2, -1, 5, 10, 57], "path": ["0", "0", "12", "13", "14", "19", "22"], "rt": [27730, 487, 384, 388, 726], "actions": ["right", "right", "right", "down", "left"], "actionTimes": [30298, 31281, 32177, 33065, 34305], "queries": {"click": {"state": {"target": ["1", "2", "3", "8", "10", "4", "7", "6", "12", "13", "14", "19", "20"], "time": [5314, 6322, 8042, 9257, 10722, 14410, 15498, 18898, 22482, 23802, 25602, 26426, 27085]}, "edge": {"target": [], "time": []}}, "mouseover": {"state": {"target": ["12", "1", "2", "7", "3", "8", "9", "10", "7", "6", "4", "3", "4", "7", "6", "15", "18", "12", "13", "14", "13", "0", "23", "0", "14", "19", "20"], "time": [4155, 4938, 5844, 7123, 7405, 8956, 9740, 10306, 11123, 11456, 11805, 12422, 12906, 15023, 15940, 19890, 20457, 21690, 22870, 22957, 23323, 24241, 24508, 24973, 25307, 25980, 26825]}, "edge": {"target": [], "time": []}}, "mouseout": {"state": {"target": ["12", "0", "12", "1", "2", "7", "2", "3", "8", "9", "10", "7", "6", "4", "3", "4", "7", "6", "15", "18", "12", "13", "14", "13", "12", "0", "23", "0", "12", "13", "14", "19", "20"], "time": [1470, 4088, 4854, 5788, 6498, 7173, 7256, 8905, 9655, 10006, 10871, 11140, 11689, 12389, 12872, 14839, 15839, 19070, 19933, 20475, 22867, 22912, 23173, 24173, 24223, 24273, 24940, 25006, 25056, 25257, 25924, 26790, 27373]}, "edge": {"target": [], "time": []}}}, "displayed_time": "34.81", "trialTime": 55898, "trial_type": "mouselab-mdp", "trial_index": 28, "time_elapsed": 1107225, "internal_node_id": "0.0-4.0-1.0-19.0"}}, {"uniqueid": "w63749147:a14972406", "current_trial": 29, "dateTime": 1691489620789, "trialdata": {"revealed_states": [], "clicked_states": ["1", "2", "3", "4", "5"], "num_clicks_accrued": [0, 0, 0, 0, 0, 0, 0, 0, 0, 0, 0, 0, 0], "stateRewards": ["", 1, 2, 3, 16, 63, -25, 16, -4, -14, 82, -66, -1, -3, -3, -11, -14, 19, 46, 3, -34, -82, 66, -2, -3, 4, -5, -63, 77, -37, -1, -45, -41, 84], "withholdReward": false, "trial_id": "mdp_trial_21", "block": "test", "trialIndex": 22, "score": 80.25, "costs": -4.75, "simulationMode": [null, null, null, null, null], "rewards": [1, 2, 3, 16, 63], "path": ["0", "0", "1", "2", "3", "4", "5"], "rt": [14219, 161, 151, 973, 169], "actions": ["up", "up", "up", "right", "up"], "actionTimes": [17027, 17690, 18362, 19850, 20514], "queries": {"click": {"state": {"target": ["1", "2", "3", "4", "5"], "time": [4393, 5475, 6692, 7795, 9035]}, "edge": {"target": [], "time": []}}, "mouseover": {"state": {"target": ["1", "1", "2", "3", "4", "5", "6", "4"], "time": [3945, 4146, 4841, 6074, 7240, 8408, 10657, 15525]}, "edge": {"target": [], "time": []}}, "mouseout": {"state": {"target": ["31", "24", "23", "0", "1", "1", "2", "3", "4", "5", "4", "6", "4", "8", "27", "29"], "time": [1728, 1945, 2011, 3879, 3978, 4790, 6023, 6918, 8000, 9424, 9941, 15492, 15542, 27025, 27076, 27110]}, "edge": {"target": [], "time": []}}}, "displayed_time": "21.03", "trialTime": 27947, "trial_type": "mouselab-mdp", "trial_index": 29, "time_elapsed": 1135805, "internal_node_id": "0.0-4.0-1.0-20.0"}}, {"uniqueid": "w63749147:a14972406", "current_trial": 30, "dateTime": 1691489644222, "trialdata": {"revealed_states": [], "clicked_states": ["12", "13", "14", "15", "17", "16"], "num_clicks_accrued": [0, 0, 0, 0, 0, 0, 0, 0, 0, 0, 0, 0, 0], "stateRewards": ["", -2, 3, -1, 2, -72, 63, 20, -1, 62, -66, 39, -2, 3, -6, 14, 22, 47, 1, 8, -49, -1, -41, 2, 2, -6, -16, -64, -60, -34, 16, 54, 22, -7], "withholdReward": false, "trial_id": "mdp_trial_22", "block": "test", "trialIndex": 23, "score": 49.1, "costs": -6.9, "simulationMode": [null, null, null, null, null], "rewards": [-2, 3, -6, 14, 47], "path": ["0", "0", "12", "13", "14", "15", "17"], "rt": [12460, 241, 216, 330, 434], "actions": ["right", "right", "right", "up", "right"], "actionTimes": [14115, 14881, 15601, 16433, 17369], "queries": {"click": {"state": {"target": ["12", "13", "14", "15", "17", "16"], "time": [2778, 4050, 4894, 6450, 7280, 10651]}, "edge": {"target": [], "time": []}}, "mouseover": {"state": {"target": ["12", "13", "14", "19", "15", "17", "16", "16"], "time": [2415, 3168, 4398, 5349, 6049, 6899, 7966, 8250]}, "edge": {"target": [], "time": []}}, "mouseout": {"state": {"target": ["25", "24", "23", "0", "0", "12", "13", "14", "19", "14", "15", "17", "16"], "time": [73, 464, 514, 580, 2348, 3134, 4365, 5291, 5949, 6015, 6866, 7632, 7982]}, "edge": {"target": [], "time": []}}}, "displayed_time": "17.87", "trialTime": 22786, "trial_type": "mouselab-mdp", "trial_index": 30, "time_elapsed": 1159237, "internal_node_id": "0.0-4.0-1.0-21.0"}}, {"uniqueid": "w63749147:a14972406", "current_trial": 31, "dateTime": 1691489672100, "trialdata": {"revealed_states": [], "clicked_states": ["23", "24", "25", "26", "28", "27", "29"], "num_clicks_accrued": [0, 0, 0, 0, 0, 0, 0, 0, 0, 0, 0, 0, 0], "stateRewards": ["", -2, 2, -2, -7, -50, -62, -45, 7, 36, -24, -72, -1, -1, 8, -1, -67, 20, -52, 2, 35, -50, 80, -1, 1, 6, -6, -70, 6, 88, 8, -47, 74, -19], "withholdReward": false, "trial_id": "mdp_trial_23", "block": "test", "trialIndex": 24, "score": 78.95, "costs": -9.05, "simulationMode": [null, null, null, null, null], "rewards": [-1, 1, 6, -6, 88], "path": ["0", "0", "23", "24", "25", "26", "29"], "rt": [14880, 156, 126, 192, 93], "actions": ["left", "left", "left", "up", "left"], "actionTimes": [16894, 17564, 18204, 18900, 19485], "queries": {"click": {"state": {"target": ["23", "24", "25", "26", "28", "27", "29"], "time": [3032, 3813, 4580, 5728, 6727, 10192, 13536]}, "edge": {"target": [], "time": []}}, "mouseover": {"state": {"target": ["0", "23", "24", "25", "26", "28", "27", "26", "29", "29"], "time": [2564, 2615, 3515, 4316, 5066, 6501, 7200, 11016, 11100, 11650]}, "edge": {"target": [], "time": []}}, "mouseout": {"state": {"target": ["16", "18", "0", "23", "24", "25", "26", "28", "27", "26", "29", "29"], "time": [763, 813, 2581, 3449, 4266, 4965, 6168, 7149, 10532, 11066, 11266, 13696]}, "edge": {"target": [], "time": []}}}, "displayed_time": "20.01", "trialTime": 27246, "trial_type": "mouselab-mdp", "trial_index": 31, "time_elapsed": 1187116, "internal_node_id": "0.0-4.0-1.0-22.0"}}, {"uniqueid": "w63749147:a14972406", "current_trial": 32, "dateTime": 1691489706334, "trialdata": {"revealed_states": [], "clicked_states": ["12", "13", "14", "19", "20", "22", "21"], "num_clicks_accrued": [0, 0, 0, 0, 0, 0, 0, 0, 0, 0, 0, 0, 0], "stateRewards": ["", -1, -3, -5, -14, -13, -47, 79, 8, -60, -64, 41, -1, 2, 3, 13, -46, 61, -79, -11, -64, -65, 23, 1, -2, 6, -14, 46, 32, 21, 7, 75, -66, 15], "withholdReward": false, "trial_id": "mdp_trial_24", "block": "test", "trialIndex": 25, "score": 68.95, "costs": -9.05, "simulationMode": [null, null, null, null, null], "rewards": [-1, 2, 3, 13, 61], "path": ["0", "0", "12", "13", "14", "15", "17"], "rt": [15849, 274, 163, 264, 569], "actions": ["right", "right", "right", "up", "right"], "actionTimes": [17845, 18628, 19299, 20083, 21155], "queries": {"click": {"state": {"target": ["12", "13", "14", "19", "20", "22", "21"], "time": [3717, 4578, 5444, 6395, 7245, 10556, 13837]}, "edge": {"target": [], "time": []}}, "mouseover": {"state": {"target": ["0", "12", "13", "14", "19", "20", "22", "21", "14"], "time": [2914, 3097, 4098, 4949, 5866, 6808, 7784, 11049, 14350]}, "edge": {"target": [], "time": []}}, "mouseout": {"state": {"target": ["23", "0", "12", "13", "14", "19", "20", "19", "22", "21", "14", "18", "1", "28", "24", "31", "6", "18", "15", "16", "7"], "time": [880, 3047, 4066, 4916, 5833, 6792, 7686, 7750, 10916, 14199, 14682, 30384, 30467, 30867, 30901, 30918, 31768, 31885, 32167, 32200, 32485]}, "edge": {"target": [], "time": []}}}, "displayed_time": "21.65", "trialTime": 33621, "trial_type": "mouselab-mdp", "trial_index": 32, "time_elapsed": 1221349, "internal_node_id": "0.0-4.0-1.0-23.0"}}, {"uniqueid": "w63749147:a14972406", "current_trial": 33, "dateTime": 1691489738338, "trialdata": {"revealed_states": [], "clicked_states": ["1", "2", "3", "4", "5", "6", "7"], "num_clicks_accrued": [0, 0, 0, 0, 0, 0, 0, 0, 0, 0, 0, 0, 0], "stateRewards": ["", 2, -3, 5, 11, -79, 54, 11, -9, -78, 33, 22, -2, -1, 2, 14, 43, 34, 1, 10, 49, -65, 39, -1, 1, -1, 3, -16, -2, 11, 2, 12, 48, -65], "withholdReward": false, "trial_id": "mdp_trial_25", "block": "test", "trialIndex": 26, "score": 59.95, "costs": -9.05, "simulationMode": [null, null, null, null, null, null], "rewards": [2, -3, 5, 11, 54], "path": ["0", "0", "1", "2", "3", "4", "6"], "rt": [14985, 1779, 91, 114, 498, 129], "actions": ["up", "up", "up", "up", "right", "right"], "actionTimes": [16960, 18744, 19344, 19968, 20984, 21632], "queries": {"click": {"state": {"target": ["1", "2", "3", "4", "5", "6", "7"], "time": [3789, 4671, 5989, 6949, 7880, 11249, 15273]}, "edge": {"target": [], "time": []}}, "mouseover": {"state": {"target": ["23", "1", "2", "3", "4", "5", "6", "7"], "time": [3002, 3520, 4320, 5254, 6454, 7370, 8420, 11650]}, "edge": {"target": [], "time": []}}, "mouseout": {"state": {"target": ["0", "23", "1", "2", "3", "3", "4", "5", "5", "6", "7", "5", "12", "12", "23"], "time": [2887, 3376, 4237, 5187, 6179, 6404, 7287, 8063, 8287, 11583, 24950, 25366, 25867, 27269, 30602]}, "edge": {"target": [], "time": []}}}, "displayed_time": "22.14", "trialTime": 31377, "trial_type": "mouselab-mdp", "trial_index": 33, "time_elapsed": 1253353, "internal_node_id": "0.0-4.0-1.0-24.0"}}, {"uniqueid": "w63749147:a14972406", "current_trial": 34, "dateTime": 1691489761979, "trialdata": {"revealed_states": [], "clicked_states": ["23", "24", "25", "26", "28"], "num_clicks_accrued": [0, 0, 0, 0, 0, 0, 0, 0, 0, 0, 0, 0, 0], "stateRewards": ["", -2, 2, 3, -7, -31, -33, 29, -8, -57, 50, -83, -1, -1, 5, 13, -23, -62, 25, 5, -66, -85, 14, 1, -2, -1, 16, 71, 33, -19, -14, 5, -43, 79], "withholdReward": false, "trial_id": "mdp_trial_26", "block": "test", "trialIndex": 27, "score": 42.25, "costs": -4.75, "simulationMode": [null, null, null, null, null], "rewards": [1, -2, -1, 16, 33], "path": ["0", "0", "23", "24", "25", "26", "28"], "rt": [10140, 575, 429, 254, 663], "actions": ["left", "left", "left", "up", "right"], "actionTimes": [11957, 13052, 14004, 14780, 15940], "queries": {"click": {"state": {"target": ["23", "24", "25", "26", "28"], "time": [3405, 4272, 5219, 6067, 7172]}, "edge": {"target": [], "time": []}}, "mouseover": {"state": {"target": ["12", "0", "23", "24", "25", "26", "28", "28", "27", "27", "27"], "time": [2388, 2821, 2972, 3872, 4789, 5656, 6521, 6925, 7888, 8155, 8405]}, "edge": {"target": [], "time": []}}, "mouseout": {"state": {"target": ["0", "12", "0", "23", "24", "25", "26", "28", "28", "28", "27", "27"], "time": [2360, 2789, 2874, 3822, 4738, 5606, 6231, 6588, 7522, 7838, 7922, 8222]}, "edge": {"target": [], "time": []}}}, "displayed_time": "16.46", "trialTime": 23004, "trial_type": "mouselab-mdp", "trial_index": 34, "time_elapsed": 1276994, "internal_node_id": "0.0-4.0-1.0-25.0"}}, {"uniqueid": "w63749147:a14972406", "current_trial": 35, "dateTime": 1691489794758, "trialdata": {"revealed_states": [], "clicked_states": ["23", "24", "25", "26", "28", "27", "29", "30", "31"], "num_clicks_accrued": [0, 0, 0, 0, 0, 0, 0, 0, 0, 0, 0, 0, 0], "stateRewards": ["", -1, -3, -3, 1, -38, 2, -53, -2, -1, -81, 70, -1, 1, -5, -9, 46, 15, 35, -1, -22, 38, 59, -2, 4, -8, 13, 1, -83, -43, 4, 76, 13, 48], "withholdReward": false, "trial_id": "mdp_trial_27", "block": "test", "trialIndex": 28, "score": 61.25, "costs": -12.750000000000002, "simulationMode": [null, null, null, null, null], "rewards": [-2, 4, -8, 4, 76], "path": ["0", "0", "23", "24", "25", "30", "31"], "rt": [19590, 49, 125, 443, 316], "actions": ["left", "left", "left", "down", "right"], "actionTimes": [22768, 23334, 23975, 24927, 25766], "queries": {"click": {"state": {"target": ["23", "24", "25", "26", "28", "27", "29", "30", "31"], "time": [4461, 5161, 5892, 6628, 7645, 10668, 13988, 18280, 19455]}, "edge": {"target": [], "time": []}}, "mouseover": {"state": {"target": ["0", "23", "24", "25", "26", "28", "27", "29", "23", "30", "31", "31", "23"], "time": [3400, 4193, 4860, 5609, 6327, 7093, 8110, 11460, 14645, 15150, 18631, 18980, 20235]}, "edge": {"target": [], "time": []}}, "mouseout": {"state": {"target": ["27", "10", "0", "23", "24", "25", "26", "28", "27", "29", "23", "30", "31", "31", "31", "31", "23", "0", "1", "16", "21", "21"], "time": [1976, 2058, 3544, 4809, 5543, 6243, 7026, 7782, 11177, 14154, 14729, 18614, 18665, 19831, 20067, 20169, 20259, 28648, 28682, 29014, 29098, 29364]}, "edge": {"target": [], "time": []}}}, "displayed_time": "26.28", "trialTime": 32103, "trial_type": "mouselab-mdp", "trial_index": 35, "time_elapsed": 1309774, "internal_node_id": "0.0-4.0-1.0-26.0"}}, {"uniqueid": "w63749147:a14972406", "current_trial": 36, "dateTime": 1691489830311, "trialdata": {"revealed_states": [], "clicked_states": ["12", "13", "14", "15", "17", "16", "18", "19", "20"], "num_clicks_accrued": [0, 0, 0, 0, 0, 0, 0, 0, 0, 0, 0, 0, 0], "stateRewards": ["", -1, 3, 2, 9, 41, 4, -46, -12, -54, -87, -25, 2, 3, -1, 11, -77, 12, -33, -9, -32, 35, 72, 1, 3, -7, 4, 37, 65, -73, 6, 77, -43, 8], "withholdReward": false, "trial_id": "mdp_trial_28", "block": "test", "trialIndex": 29, "score": 14.249999999999998, "costs": -12.750000000000002, "simulationMode": [null, null, null, null, null], "rewards": [2, 3, -1, 11, 12], "path": ["0", "0", "12", "13", "14", "15", "17"], "rt": [22165, 122, 74, 202, 85], "actions": ["right", "right", "right", "up", "right"], "actionTimes": [26018, 26633, 27217, 27929, 28529], "queries": {"click": {"state": {"target": ["12", "13", "14", "15", "17", "16", "18", "19", "20"], "time": [6154, 7135, 8041, 9097, 10058, 13394, 16707, 20241, 21938]}, "edge": {"target": [], "time": []}}, "mouseover": {"state": {"target": ["12", "13", "14", "15", "17", "16", "18", "15", "14", "19", "19", "20"], "time": [5805, 6557, 7573, 8590, 9539, 10942, 14107, 17090, 17390, 17424, 18923, 20607]}, "edge": {"target": [], "time": []}}, "mouseout": {"state": {"target": ["22", "0", "12", "13", "14", "15", "17", "17", "16", "18", "15", "14", "19", "19", "19", "20", "19", "22"], "time": [871, 5318, 6523, 7539, 8523, 9489, 10591, 10907, 13724, 17040, 17340, 17406, 17508, 20292, 20573, 32258, 32357, 32407]}, "edge": {"target": [], "time": []}}}, "displayed_time": "29.04", "trialTime": 34913, "trial_type": "mouselab-mdp", "trial_index": 36, "time_elapsed": 1345327, "internal_node_id": "0.0-4.0-1.0-27.0"}}, {"uniqueid": "w63749147:a14972406", "current_trial": 37, "dateTime": 1691489863743, "trialdata": {"revealed_states": [], "clicked_states": ["23", "24", "25", "30", "31", "33", "32"], "num_clicks_accrued": [0, 0, 0, 0, 0, 0, 0, 0, 0, 0, 0, 0, 0], "stateRewards": ["", -2, -3, 1, -14, 48, -49, 67, -1, -35, -48, 3, -2, 1, -4, -5, 86, -84, 39, 1, 48, 41, -42, -1, -4, 2, -7, 18, -86, 17, 7, -9, 57, -69], "withholdReward": false, "trial_id": "mdp_trial_29", "block": "test", "trialIndex": 30, "score": 51.95, "costs": -9.05, "simulationMode": [null, null, null, null, null], "rewards": [-1, -4, 2, 7, 57], "path": ["0", "0", "23", "24", "25", "30", "32"], "rt": [17966, 813, 368, 396, 744], "actions": ["left", "left", "left", "down", "down"], "actionTimes": [20019, 21354, 22242, 23154, 24402], "queries": {"click": {"state": {"target": ["23", "24", "25", "30", "31", "33", "32"], "time": [4852, 5549, 6714, 7787, 8890, 12243, 15644]}, "edge": {"target": [], "time": []}}, "mouseover": {"state": {"target": ["12", "0", "0", "1", "23", "24", "25", "30", "31", "31", "32", "33", "32"], "time": [2953, 3303, 3936, 4303, 4570, 5304, 6487, 7421, 8136, 8471, 9836, 10420, 12653]}, "edge": {"target": [], "time": []}}, "mouseout": {"state": {"target": ["0", "12", "0", "0", "1", "23", "24", "25", "30", "30", "31", "31", "31", "30", "32", "33", "32", "2"], "time": [1335, 3270, 3336, 3987, 4470, 5256, 5937, 7103, 7896, 8103, 8187, 9320, 9602, 9737, 10320, 12570, 16004, 32238]}, "edge": {"target": [], "time": []}}}, "displayed_time": "24.92", "trialTime": 32890, "trial_type": "mouselab-mdp", "trial_index": 37, "time_elapsed": 1378759, "internal_node_id": "0.0-4.0-1.0-28.0"}}, {"uniqueid": "w63749147:a14972406", "current_trial": 38, "dateTime": 1691489903971, "trialdata": {"revealed_states": [], "clicked_states": ["1", "2", "3", "8", "9", "10", "11", "4", "5", "6"], "num_clicks_accrued": [0, 0, 0, 0, 0, 0, 0, 0, 0, 0, 0, 0, 0], "stateRewards": ["", 2, -1, 1, 10, -52, 86, -22, -2, -14, -63, 38, 1, 3, 7, -8, 11, -32, -27, 9, -71, 40, -87, -2, -1, 5, -7, 12, 31, -57, 13, 86, -58, 29], "withholdReward": false, "trial_id": "mdp_trial_30", "block": "test", "trialIndex": 31, "score": 83.1, "costs": -14.900000000000002, "simulationMode": [null, null, null, null, null], "rewards": [2, -1, 1, 10, 86], "path": ["0", "0", "1", "2", "3", "4", "6"], "rt": [25290, 100, 364, 390, 326], "actions": ["up", "up", "up", "right", "right"], "actionTimes": [27553, 28175, 29055, 29951, 30799], "queries": {"click": {"state": {"target": ["1", "2", "3", "8", "9", "10", "11", "4", "5", "6"], "time": [3840, 4722, 5664, 6752, 7719, 11120, 14344, 17968, 19696, 23160]}, "edge": {"target": [], "time": []}}, "mouseover": {"state": {"target": ["1", "2", "3", "8", "8", "9", "10", "11", "4", "6", "4", "3", "8", "11", "11", "8", "3", "4", "5", "5", "6", "7"], "time": [3484, 4285, 5170, 6068, 6369, 7318, 8284, 11870, 12153, 12252, 12537, 12604, 12624, 12656, 12953, 14836, 14869, 14920, 18409, 18770, 20137, 23504]}, "edge": {"target": [], "time": []}}, "mouseout": {"state": {"target": ["13", "12", "0", "1", "2", "3", "8", "8", "9", "8", "10", "11", "4", "6", "4", "3", "8", "11", "11", "8", "3", "4", "5", "5", "5", "6", "7", "12", "12"], "time": [1284, 1417, 1700, 4236, 5118, 6052, 6119, 7252, 8119, 8202, 11267, 12037, 12186, 12487, 12587, 12620, 12640, 12686, 14819, 14852, 14886, 18406, 18486, 19878, 20086, 23453, 34805, 34872, 35439]}, "edge": {"target": [], "time": []}}}, "displayed_time": "31.31", "trialTime": 39513, "trial_type": "mouselab-mdp", "trial_index": 38, "time_elapsed": 1418986, "internal_node_id": "0.0-4.0-1.0-29.0"}}, {"uniqueid": "w63749147:a14972406", "current_trial": 39, "dateTime": 1691489932292, "trialdata": {"revealed_states": [], "clicked_states": ["12", "13", "14", "19", "20", "21", "22"], "num_clicks_accrued": [0, 0, 0, 0, 0, 0, 0, 0, 0, 0, 0, 0, 0], "stateRewards": ["", 2, -4, -4, 13, -80, 62, 13, -11, 57, -13, -44, 1, 4, 3, -4, -29, -88, 15, 16, -58, 68, -45, -1, -3, -1, -9, -44, -86, -19, -7, -36, 59, 66], "withholdReward": false, "trial_id": "mdp_trial_31", "block": "test", "trialIndex": 32, "score": 82.95, "costs": -9.05, "simulationMode": [null, null, null, null, null], "rewards": [1, 4, 3, 16, 68], "path": ["0", "0", "12", "13", "14", "19", "21"], "rt": [17995, 288, 345, 600, 818], "actions": ["right", "right", "right", "down", "down"], "actionTimes": [19428, 20266, 21130, 22251, 23587], "queries": {"click": {"state": {"target": ["12", "13", "14", "19", "20", "21", "22"], "time": [2964, 3852, 5155, 5996, 6851, 10388, 16092]}, "edge": {"target": [], "time": []}}, "mouseover": {"state": {"target": ["12", "13", "14", "19", "20", "21", "22"], "time": [2648, 3384, 4749, 5598, 6464, 7464, 10800]}, "edge": {"target": [], "time": []}}, "mouseout": {"state": {"target": ["0", "12", "13", "14", "19", "20", "21", "22"], "time": [2630, 3334, 4365, 5532, 6431, 7365, 10698, 16449]}, "edge": {"target": [], "time": []}}}, "displayed_time": "24.10", "trialTime": 27675, "trial_type": "mouselab-mdp", "trial_index": 39, "time_elapsed": 1447307, "internal_node_id": "0.0-4.0-1.0-30.0"}}, {"uniqueid": "w63749147:a14972406", "current_trial": 40, "dateTime": 1691489974822, "trialdata": {"revealed_states": [], "clicked_states": ["12", "13", "14", "15", "17", "16", "18", "19", "20", "21", "22"], "num_clicks_accrued": [0, 0, 0, 0, 0, 0, 0, 0, 0, 0, 0, 0, 0], "stateRewards": ["", 2, 3, 6, -5, -74, -53, 17, -12, 46, 44, 18, -2, 4, 1, -8, 22, -23, -49, 9, -45, 55, 81, 1, -1, -7, -16, -83, -71, -45, 2, 51, 82, 61], "withholdReward": false, "trial_id": "mdp_trial_32", "block": "test", "trialIndex": 33, "score": 75.95, "costs": -17.05, "simulationMode": [null, null, null, null, null], "rewards": [-2, 4, 1, 9, 81], "path": ["0", "0", "12", "13", "14", "19", "22"], "rt": [27179, 157, 187, 319, 765], "actions": ["right", "right", "right", "down", "left"], "actionTimes": [29852, 30531, 31227, 32059, 33338], "queries": {"click": {"state": {"target": ["12", "13", "14", "15", "17", "16", "18", "19", "20", "21", "22"], "time": [4026, 5019, 5818, 6514, 7410, 10938, 14291, 17642, 19522, 22867, 26339]}, "edge": {"target": [], "time": []}}, "mouseover": {"state": {"target": ["12", "12", "13", "14", "15", "17", "16", "18", "14", "19", "20", "21", "22"], "time": [3267, 3549, 4434, 5451, 6202, 6949, 8244, 11484, 14652, 15051, 17985, 20086, 23253]}, "edge": {"target": [], "time": []}}, "mouseout": {"state": {"target": ["18", "1", "23", "0", "12", "12", "13", "14", "15", "17", "16", "18", "18", "14", "19", "20", "21", "22", "13", "24", "23"], "time": [1516, 1565, 1815, 3234, 3301, 4400, 5417, 6150, 6670, 7608, 11235, 14446, 14569, 14686, 17799, 20036, 23014, 26704, 40838, 41120, 41222]}, "edge": {"target": [], "time": []}}}, "displayed_time": "33.86", "trialTime": 41956, "trial_type": "mouselab-mdp", "trial_index": 40, "time_elapsed": 1489837, "internal_node_id": "0.0-4.0-1.0-31.0"}}, {"uniqueid": "w63749147:a14972406", "current_trial": 41, "dateTime": 1691490011327, "trialdata": {"revealed_states": [], "clicked_states": ["1", "2", "3", "4", "6", "7", "5", "8", "9", "11", "10"], "num_clicks_accrued": [0, 0, 0, 0, 0, 0, 0, 0, 0, 0, 0, 0, 0], "stateRewards": ["", -1, -4, -1, -11, 43, 69, 39, 4, 17, -20, -82, -2, -1, 4, 8, -79, 24, -79, 11, 36, 64, 41, 2, 4, -1, 11, -79, -47, 75, -3, 63, -36, -19], "withholdReward": false, "trial_id": "mdp_trial_33", "block": "test", "trialIndex": 34, "score": 34.95, "costs": -17.05, "simulationMode": [null, null, null, null, null], "rewards": [-1, -4, -1, -11, 69], "path": ["0", "0", "1", "2", "3", "4", "6"], "rt": [28206, 759, 124, 355, 200], "actions": ["up", "up", "up", "right", "right"], "actionTimes": [29560, 30831, 31463, 32311, 33023], "queries": {"click": {"state": {"target": ["1", "2", "3", "4", "6", "7", "5", "8", "9", "11", "10"], "time": [2359, 3119, 4087, 5018, 5766, 9616, 13384, 16696, 19576, 22928, 26288]}, "edge": {"target": [], "time": []}}, "mouseover": {"state": {"target": ["1", "2", "3", "4", "6", "7", "5", "8", "9", "11", "10", "7", "16"], "time": [2050, 2717, 3518, 4588, 5484, 6653, 10085, 14036, 17085, 20069, 23285, 26665, 27553]}, "edge": {"target": [], "time": []}}, "mouseout": {"state": {"target": ["0", "0", "1", "2", "3", "4", "6", "7", "5", "8", "9", "11", "10", "7", "16"], "time": [459, 832, 2684, 3246, 4554, 5450, 6184, 9969, 13685, 17002, 20003, 23219, 26620, 26689, 27571]}, "edge": {"target": [], "time": []}}}, "displayed_time": "33.54", "trialTime": 35839, "trial_type": "mouselab-mdp", "trial_index": 41, "time_elapsed": 1526342, "internal_node_id": "0.0-4.0-1.0-32.0"}}, {"uniqueid": "w63749147:a14972406", "current_trial": 42, "dateTime": 1691490051581, "trialdata": {"revealed_states": [], "clicked_states": ["23", "24", "25", "30", "31", "33", "32", "26", "28", "27", "29"], "num_clicks_accrued": [0, 0, 0, 0, 0, 0, 0, 0, 0, 0, 0, 0, 0], "stateRewards": ["", -1, 3, 1, -11, -22, -36, 19, -5, -70, -52, 50, -2, -4, 4, -2, -41, -83, 29, -2, 22, 10, -6, -2, 3, -2, 14, 54, 44, 77, -9, -65, -37, -40], "withholdReward": false, "trial_id": "mdp_trial_34", "block": "test", "trialIndex": 35, "score": 72.95, "costs": -17.05, "simulationMode": [null, null, null, null, null], "rewards": [-2, 3, -2, 14, 77], "path": ["0", "0", "23", "24", "25", "26", "29"], "rt": [28909, 444, 150, 259, 211], "actions": ["left", "left", "left", "up", "left"], "actionTimes": [31869, 32836, 33507, 34284, 35004], "queries": {"click": {"state": {"target": ["23", "24", "25", "30", "31", "33", "32", "26", "28", "27", "29"], "time": [3976, 4992, 5840, 6902, 7814, 12004, 15276, 19189, 21100, 24853, 28565]}, "edge": {"target": [], "time": []}}, "mouseover": {"state": {"target": ["0", "23", "24", "25", "30", "31", "32", "32", "33", "32", "26", "28", "28", "27", "29"], "time": [3622, 3672, 4372, 5456, 6272, 7319, 8436, 8770, 11603, 12271, 16337, 19520, 19788, 22429, 25354]}, "edge": {"target": [], "time": []}}, "mouseout": {"state": {"target": ["22", "25", "28", "23", "0", "0", "23", "24", "25", "30", "31", "32", "32", "33", "32", "26", "28", "28", "27", "29", "7", "16"], "time": [1554, 1638, 1720, 1904, 2154, 3639, 4339, 5407, 6206, 7270, 8386, 8470, 11536, 12221, 15589, 19504, 19554, 21839, 25273, 38281, 38406, 38439]}, "edge": {"target": [], "time": []}}}, "displayed_time": "35.52", "trialTime": 39596, "trial_type": "mouselab-mdp", "trial_index": 42, "time_elapsed": 1566597, "internal_node_id": "0.0-4.0-1.0-33.0"}}, {"uniqueid": "w63749147:a14972406", "current_trial": 43, "dateTime": 1691490079134, "trialdata": {"revealed_states": [], "clicked_states": ["12", "13", "14", "19", "20", "21", "22"], "num_clicks_accrued": [0, 0, 0, 0, 0, 0, 0, 0, 0, 0, 0, 0, 0], "stateRewards": ["", -2, -1, -1, 5, -54, -87, 35, 2, -8, 20, -22, 1, 3, 6, 13, -75, -32, -55, -3, 56, 62, -22, -1, -4, -1, -7, -51, 84, 70, 7, -15, 5, 55], "withholdReward": false, "trial_id": "mdp_trial_35", "block": "test", "trialIndex": 36, "score": 59.95, "costs": -9.05, "simulationMode": [null, null, null, null, null], "rewards": [1, 3, 6, -3, 62], "path": ["0", "0", "12", "13", "14", "19", "21"], "rt": [17653, 418, 381, 513, 415], "actions": ["right", "right", "right", "down", "down"], "actionTimes": [19451, 20393, 21290, 22322, 23257], "queries": {"click": {"state": {"target": ["12", "13", "14", "19", "20", "21", "22"], "time": [3955, 4801, 5636, 6617, 7680, 11050, 14475]}, "edge": {"target": [], "time": []}}, "mouseover": {"state": {"target": ["1", "12", "13", "13", "14", "19", "20", "20", "21", "22", "22", "14"], "time": [2554, 3620, 4271, 4471, 5171, 6138, 7106, 7470, 8054, 11522, 11806, 14956]}, "edge": {"target": [], "time": []}}, "mouseout": {"state": {"target": ["14", "13", "23", "1", "12", "13", "13", "14", "19", "20", "20", "21", "22", "22", "14", "13"], "time": [752, 786, 1102, 3520, 4254, 4337, 5104, 6021, 7070, 7154, 8004, 11233, 11655, 14905, 14989, 25973]}, "edge": {"target": [], "time": []}}}, "displayed_time": "23.77", "trialTime": 26930, "trial_type": "mouselab-mdp", "trial_index": 43, "time_elapsed": 1594149, "internal_node_id": "0.0-4.0-1.0-34.0"}}, {"uniqueid": "w63749147:a14972406", "current_trial": 44, "dateTime": 1691490110640, "trialdata": {"revealed_states": [], "clicked_states": ["12", "13", "14", "15", "17", "16", "18"], "num_clicks_accrued": [0, 0, 0, 0, 0, 0, 0, 0, 0, 0, 0, 0, 0], "stateRewards": ["", -1, 4, -5, 9, 29, -75, -42, -16, 24, -28, -41, 2, -3, 1, 10, 60, 47, 55, -1, -53, 22, -40, 2, -3, -6, 4, -26, 44, 54, 15, -76, 42, 14], "withholdReward": false, "trial_id": "mdp_trial_36", "block": "test", "trialIndex": 37, "score": 60.95, "costs": -9.05, "simulationMode": [null, null, null, null, null], "rewards": [2, -3, 1, 10, 60], "path": ["0", "0", "12", "13", "14", "15", "16"], "rt": [16814, 202, 156, 571, 295], "actions": ["right", "right", "right", "up", "up"], "actionTimes": [18855, 19573, 20245, 21309, 22117], "queries": {"click": {"state": {"target": ["12", "13", "14", "15", "17", "16", "18"], "time": [3510, 4351, 5120, 6066, 7159, 10670, 14406]}, "edge": {"target": [], "time": []}}, "mouseover": {"state": {"target": ["12", "13", "14", "15", "17", "16", "18"], "time": [2668, 3969, 4877, 5570, 6667, 7642, 11152]}, "edge": {"target": [], "time": []}}, "mouseout": {"state": {"target": ["0", "12", "13", "14", "15", "15", "17", "16", "18", "6", "4", "2", "26", "25", "24"], "time": [1183, 3935, 4727, 5502, 6244, 6586, 7563, 11002, 14758, 29636, 29670, 29703, 30104, 30153, 30203]}, "edge": {"target": [], "time": []}}}, "displayed_time": "22.64", "trialTime": 30830, "trial_type": "mouselab-mdp", "trial_index": 44, "time_elapsed": 1625655, "internal_node_id": "0.0-4.0-1.0-35.0"}}, {"uniqueid": "w63749147:a14972406", "current_trial": 45, "dateTime": 1691490138649, "trialdata": {"revealed_states": [], "clicked_states": ["1", "2", "3", "4", "7", "6", "5"], "num_clicks_accrued": [0, 0, 0, 0, 0, 0, 0, 0, 0, 0, 0, 0, 0], "stateRewards": ["", -2, -3, -3, 9, 79, 67, 22, -15, -56, 27, -85, -2, 4, -4, -15, -20, -32, 60, 15, 71, 57, 17, 1, 2, -8, 15, -37, -81, 82, 15, 21, -3, 2], "withholdReward": false, "trial_id": "mdp_trial_37", "block": "test", "trialIndex": 38, "score": 70.95, "costs": -9.05, "simulationMode": [null, null, null, null, null], "rewards": [-2, -3, -3, 9, 79], "path": ["0", "0", "1", "2", "3", "4", "5"], "rt": [17254, 190, 194, 854, 631], "actions": ["up", "up", "up", "right", "up"], "actionTimes": [18761, 19464, 20168, 21552, 22704], "queries": {"click": {"state": {"target": ["1", "2", "3", "4", "7", "6", "5"], "time": [2617, 3450, 5073, 6160, 7289, 10681, 15289]}, "edge": {"target": [], "time": []}}, "mouseover": {"state": {"target": ["1", "2", "3", "7", "3", "4", "4", "7", "6", "5", "5"], "time": [2236, 3021, 4070, 4503, 4753, 5354, 5688, 6621, 7604, 11105, 11522]}, "edge": {"target": [], "time": []}}, "mouseout": {"state": {"target": ["0", "1", "2", "3", "7", "3", "4", "4", "7", "6", "5", "5", "6", "18", "13", "22"], "time": [2125, 2953, 3836, 4338, 4652, 5321, 5403, 6570, 7554, 11007, 11138, 24572, 24871, 24922, 24972, 25305]}, "edge": {"target": [], "time": []}}}, "displayed_time": "23.22", "trialTime": 27304, "trial_type": "mouselab-mdp", "trial_index": 45, "time_elapsed": 1653664, "internal_node_id": "0.0-4.0-1.0-36.0"}}, {"uniqueid": "w63749147:a14972406", "current_trial": 46, "dateTime": 1691490173187, "trialdata": {"revealed_states": [], "clicked_states": ["23", "24", "25", "30", "31", "32", "33"], "num_clicks_accrued": [0, 0, 0, 0, 0, 0, 0, 0, 0, 0, 0, 0, 0], "stateRewards": ["", -2, -3, -6, -7, 9, 16, 65, 5, -41, 20, -25, -1, -4, 1, -11, -49, -4, 71, 1, 39, -62, 52, -2, -3, 7, -9, -28, -70, 84, 8, 24, -58, 82], "withholdReward": false, "trial_id": "mdp_trial_38", "block": "test", "trialIndex": 39, "score": 82.95, "costs": -9.05, "simulationMode": [null, null, null, null, null], "rewards": [-2, -3, 7, 8, 82], "path": ["0", "0", "23", "24", "25", "30", "33"], "rt": [17375, 172, 165, 1054, 509], "actions": ["left", "left", "left", "down", "left"], "actionTimes": [22590, 23276, 23956, 25508, 26532], "queries": {"click": {"state": {"target": ["23", "24", "25", "30", "31", "32", "33"], "time": [6476, 7317, 8183, 9708, 10956, 14405, 17909]}, "edge": {"target": [], "time": []}}, "mouseover": {"state": {"target": ["0", "23", "24", "25", "26", "30", "31", "32", "33", "30", "31"], "time": [6233, 6317, 6986, 7917, 8652, 9150, 10083, 11913, 14817, 18317, 18384]}, "edge": {"target": [], "time": []}}, "mouseout": {"state": {"target": ["22", "0", "0", "23", "24", "25", "26", "25", "30", "30", "31", "32", "33", "30", "31", "1", "7", "32", "10", "3", "3", "8", "3", "4"], "time": [1248, 5449, 6251, 6936, 7784, 8330, 8767, 8983, 9850, 10036, 11535, 14718, 18286, 18351, 29640, 29702, 29719, 32052, 32168, 32235, 32486, 32568, 32852, 32902]}, "edge": {"target": [], "time": []}}}, "displayed_time": "27.05", "trialTime": 33852, "trial_type": "mouselab-mdp", "trial_index": 46, "time_elapsed": 1688202, "internal_node_id": "0.0-4.0-1.0-37.0"}}, {"uniqueid": "w63749147:a14972406", "current_trial": 47, "dateTime": 1691490211441, "trialdata": {"revealed_states": [], "clicked_states": ["1", "2", "3", "4", "7", "6", "5", "8", "9", "10"], "num_clicks_accrued": [0, 0, 0, 0, 0, 0, 0, 0, 0, 0, 0, 0, 0], "stateRewards": ["", 2, 3, 8, 11, 25, -80, 6, -4, -56, 84, -23, -2, -4, -3, 4, -51, -9, -61, -15, -64, 67, -35, 1, -1, -7, -6, 83, 59, -15, 12, -79, 56, 41], "withholdReward": false, "trial_id": "mdp_trial_39", "block": "test", "trialIndex": 40, "score": 78.1, "costs": -14.900000000000002, "simulationMode": [null, null, null, null, null], "rewards": [2, 3, 8, -4, 84], "path": ["0", "0", "1", "2", "3", "8", "10"], "rt": [27232, 335, 249, 298, 409], "actions": ["up", "up", "up", "left", "down"], "actionTimes": [29392, 30247, 31006, 31822, 32751], "queries": {"click": {"state": {"target": ["1", "2", "3", "4", "7", "6", "5", "8", "9", "10"], "time": [3377, 4324, 5522, 6649, 7721, 11514, 15426, 19714, 21319, 24842]}, "edge": {"target": [], "time": []}}, "mouseover": {"state": {"target": ["1", "2", "3", "4", "7", "7", "6", "6", "5", "8", "9", "10", "11", "11"], "time": [2838, 3855, 5258, 6222, 7155, 7522, 8105, 11277, 15110, 16623, 20257, 21943, 25192, 25491]}, "edge": {"target": [], "time": []}}, "mouseout": {"state": {"target": ["12", "1", "2", "3", "4", "7", "7", "6", "6", "6", "5", "6", "8", "9", "8", "10", "11"], "time": [420, 3789, 5157, 6123, 7038, 7355, 8054, 8155, 12691, 14874, 15740, 15823, 20207, 21750, 21853, 25124, 25241]}, "edge": {"target": [], "time": []}}}, "displayed_time": "33.28", "trialTime": 37543, "trial_type": "mouselab-mdp", "trial_index": 47, "time_elapsed": 1726457, "internal_node_id": "0.0-4.0-1.0-38.0"}}, {"uniqueid": "w63749147:a14972406", "current_trial": 48, "dateTime": 1691490256882, "trialdata": {"revealed_states": [], "clicked_states": ["20", "17", "16", "5", "6", "11", "10"], "num_clicks_accrued": [0, 0, 0, 0, 0, 0, 0, 0, 0, 0, 0, 0, 0], "stateRewards": ["", 2, 3, -1, 16, -78, -11, 46, 2, -20, 79, -67, 2, 3, 2, 11, -83, -42, -58, -11, -67, -22, 55, 2, -1, -1, -16, -83, -82, 23, -11, -29, 13, 13], "withholdReward": false, "trial_id": "mdp_trial_40", "block": "test", "trialIndex": 41, "score": 69.95, "costs": -15.05, "simulationMode": [null, null, null, null, null], "rewards": [2, 3, -1, 2, 79], "path": ["0", "0", "1", "2", "3", "8", "10"], "rt": [30079, 151, 575, 603, 639], "actions": ["up", "up", "up", "left", "down"], "actionTimes": [36331, 36993, 38066, 39162, 40314], "queries": {"click": {"state": {"target": ["20", "17", "16", "5", "6", "11", "10"], "time": [8130, 11490, 15514, 19482, 23187, 28467, 31971]}, "edge": {"target": [], "time": []}}, "mouseover": {"state": {"target": ["12", "13", "14", "14", "20", "19", "13", "15", "17", "16", "16", "16", "16", "13", "5", "6", "6", "4", "11", "11", "10"], "time": [7052, 7086, 7107, 7385, 7801, 9218, 9652, 9903, 10168, 11918, 12471, 12819, 13335, 16053, 17020, 19919, 20404, 23536, 26903, 27136, 28821]}, "edge": {"target": [], "time": []}}, "mouseout": {"state": {"target": ["11", "10", "1", "0", "0", "12", "13", "14", "14", "20", "19", "13", "15", "17", "16", "16", "16", "16", "13", "5", "6", "6", "4", "11", "11", "10"], "time": [1251, 1366, 1633, 2557, 5389, 7068, 7103, 7134, 7734, 8768, 9551, 9668, 10135, 11868, 11969, 12520, 12869, 15937, 16070, 19853, 19969, 23519, 23552, 26936, 28787, 32422]}, "edge": {"target": [], "time": []}}}, "displayed_time": "40.83", "trialTime": 44746, "trial_type": "mouselab-mdp", "trial_index": 48, "time_elapsed": 1771898, "internal_node_id": "0.0-4.0-1.0-39.0"}}, {"uniqueid": "w63749147:a14972406", "current_trial": 49, "dateTime": 1691490310271, "trialdata": {"rt": 53380, "response": {"Q0": "$-88 to $88", "Q1": "$-16 to $16", "Q2": "$-88 to $88", "Q3": "The cost for clicking on nodes varied between nodes.", "Q4": "Very motivated"}, "question_order": [0, 1, 2, 3, 4], "trial_id": "final_quiz_control", "trial_type": "survey-multi-choice", "trial_index": 49, "time_elapsed": 1825287, "internal_node_id": "0.0-4.0-2.0"}}, {"uniqueid": "w63749147:a14972406", "current_trial": 50, "dateTime": 1691490454491, "trialdata": {"rt": 144208, "response": {"Q0": "followed track to edge, then followed track to 2 edges", "Q1": "following track to 2 edges, the last round I just clicked on a few edges, not sure which was best", "Q2": "I didn't realise you could click on unrelated positions, I had thought it needed to be sequential\n"}, "trial_id": "self_report_control", "trial_type": "survey-text", "trial_index": 50, "time_elapsed": 1969507, "internal_node_id": "0.0-4.0-3.0"}}, {"uniqueid": "w63749147:a14972406", "current_trial": 51, "dateTime": 1691490497692, "trialdata": {"rt": 43195, "response": {"Q0": "Agree", "Q1": "Strongly disagree", "Q2": "Strongly agree", "Q3": "Strongly agree", "Q4": "Disagree", "Q5": "Strongly agree", "Q6": "Strongly disagree"}, "question_order": [0, 1, 2, 3, 4, 5, 6], "trial_id": "self_report_2", "trial_type": "survey-multi-choice", "trial_index": 51, "time_elapsed": 2012708, "internal_node_id": "0.0-4.0-4.0"}}, {"uniqueid": "w63749147:a14972406", "current_trial": 52, "dateTime": 1691490521588, "trialdata": {"rt": 23888, "response": {"gender": "male", "age": "62", "colorblind": "0", "effort": "0"}, "trial_type": "survey-html-form", "trial_index": 52, "time_elapsed": 2036604, "internal_node_id": "0.0-4.0-5.0"}}, {"uniqueid": "w63749147:a14972406", "current_trial": 53, "dateTime": 1691490597824, "trialdata": {"rt": 76226, "response": {"Q0": "No, but I failed to grasp I could click on any node, I thought I had to trace a path by clicking", "Q1": "No, I don't think I had dine this before", "Q2": ""}, "trial_type": "survey-text", "trial_index": 53, "time_elapsed": 2112839, "internal_node_id": "0.0-4.0-6.0"}}, {"uniqueid": "w63749147:a14972406", "current_trial": 54, "dateTime": 1691490601312, "trialdata": {"rt": 3482, "stimulus": "Press 'Finish HIT' in order to reach the completion code. Once the data has been saved, you will receive the code either in this window or in the original browser window where you started the experiment.\n", "response": 0, "trial_type": "html-button-response", "trial_index": 54, "time_elapsed": 2116328, "internal_node_id": "0.0-5.0"}}, {"uniqueid": "w63749147:a14972406", "current_trial": 55, "dateTime": 1691490602324, "trialdata": {"success": true, "trial_type": "fullscreen", "trial_index": 55, "time_elapsed": 2117340, "internal_node_id": "0.0-6.0"}}], "questiondata": {"params": {"CODE": "C6DMOQA6", "MIN_TIME": 14, "inspectCost": 1, "startTime": "Tue Aug 08 2023 10:54:44 GMT+0100 (British Summer Time)", "bonusRate": 0.002, "variance": "1_2_4_8_44", "branching": "31123"}, "final_score": 1706.8}, "eventdata": [{"eventtype": "initialized", "interval": 0, "timestamp": 1691488460339, "value": null}, {"eventtype": "window_resize", "interval": 1, "timestamp": 1691488460340, "value": [1028, 778]}, {"eventtype": "window_resize", "interval": 316, "timestamp": 1691488460656, "value": [1028, 778]}, {"eventtype": "window_resize", "value": [1028, 778], "timestamp": 1691488484353, "interval": 23697}, {"eventtype": "window_resize", "value": [1536, 864], "timestamp": 1691488487385, "interval": 3032}, {"eventtype": "window_resize", "value": [1028, 778], "timestamp": 1691490601601, "interval": 2114216}], "useragent": "Mozilla/5.0 (Windows NT 10.0; Win64; x64) AppleWebKit/537.36 (KHTML, like Gecko) Chrome/115.0.0.0 Safari/537.36", "mode": "live", "id": "w63749147:a14972406", "status": "user data saved", "Beginhit": "2023-08-08 09:54:18.806524", "Beginexp": "2023-08-08 09:54:49.471539", "Endhit": "2023-08-08 10:30:04.421823", "psiturkStatus": 3, "browser": "<redacted>", "platform": "windows", "language": "en-GB"}