{"condition": 0, "counterbalance": 0, "assignmentId": "a56490620", "workerId": "w13100309", "hitId": "h24511302", "currenttrial": 55, "bonus": 0, "data": [{"uniqueid": "w13100309:a56490620", "current_trial": 0, "dateTime": 1693660277480, "trialdata": {"success": true, "trial_type": "fullscreen", "trial_index": 0, "time_elapsed": 2777, "internal_node_id": "0.0-0.0"}}, {"uniqueid": "w13100309:a56490620", "current_trial": 1, "dateTime": 1693660282806, "trialdata": {"view_history": [{"page_index": 0, "viewing_time": 5314}], "rt": 5314, "trial_id": "exp_instructions_control", "trial_type": "instructions", "trial_index": 1, "time_elapsed": 8103, "internal_node_id": "0.0-1.0"}}, {"uniqueid": "w13100309:a56490620", "current_trial": 2, "dateTime": 1693660499100, "trialdata": {"view_history": [{"page_index": 0, "viewing_time": 89684}, {"page_index": 1, "viewing_time": 75303}, {"page_index": 2, "viewing_time": 22304}, {"page_index": 3, "viewing_time": 29001}], "rt": 216292, "trial_id": "mouselab_instructions_1_control", "trial_type": "instructions", "trial_index": 2, "time_elapsed": 224397, "internal_node_id": "0.0-2.0-1.0"}}, {"uniqueid": "w13100309:a56490620", "current_trial": 3, "dateTime": 1693660515639, "trialdata": {"revealed_states": [], "clicked_states": [], "num_clicks_accrued": [0, 0, 0, 0, 0, 0, 0, 0, 0, 0, 0, 0, 0], "stateRewards": ["", -10, -10, 10, -10, 10, 10, 10, -10, 10, 10, -10, -10, 10, 10, 10, -10, 10, -10, 10, -10, -10, 10, -10, -10, 10, 10, -10, 10, -10, 10, 10, 10, -10], "withholdReward": false, "trial_id": "practice_1", "block": "test", "trialIndex": 0, "score": 13.5, "costs": 0, "simulationMode": [null, null, null, null, null], "rewards": [-10, 10, 10, 10, -10], "path": ["0", "0", "12", "13", "14", "19", "21"], "rt": [3084, 651, 493, 372, 518], "actions": ["right", "right", "right", "down", "down"], "actionTimes": [8181, 9386, 10403, 11346, 12411], "queries": {"click": {"state": {"target": [], "time": []}, "edge": {"target": [], "time": []}}, "mouseover": {"state": {"target": [], "time": []}, "edge": {"target": [], "time": []}}, "mouseout": {"state": {"target": ["24", "28", "28", "0"], "time": [53, 3700, 3883, 4540]}, "edge": {"target": [], "time": []}}}, "displayed_time": "12.94", "trialTime": 15842, "trial_type": "mouselab-mdp", "trial_index": 3, "time_elapsed": 240936, "internal_node_id": "0.0-2.0-2.0-0.0"}}, {"uniqueid": "w13100309:a56490620", "current_trial": 4, "dateTime": 1693660526318, "trialdata": {"revealed_states": [], "clicked_states": [], "num_clicks_accrued": [0, 0, 0, 0, 0, 0, 0, 0, 0, 0, 0, 0, 0], "stateRewards": ["", 10, -10, -10, -10, 10, 10, -10, -10, 10, -10, -10, -10, 10, 10, -10, 10, -10, -10, -10, 10, 10, -10, -10, 10, -10, -10, 10, -10, 10, 10, 10, -10, 10], "withholdReward": false, "trial_id": "practice_2", "block": "test", "trialIndex": 1, "score": 13.5, "costs": 0, "simulationMode": [null, null, null, null, null], "rewards": [-10, 10, -10, 10, 10], "path": ["0", "0", "23", "24", "25", "30", "31"], "rt": [1073, 493, 356, 348, 351], "actions": ["left", "left", "left", "down", "right"], "actionTimes": [4284, 5308, 6203, 7077, 7964], "queries": {"click": {"state": {"target": [], "time": []}, "edge": {"target": [], "time": []}}, "mouseover": {"state": {"target": [], "time": []}, "edge": {"target": [], "time": []}}, "mouseout": {"state": {"target": ["0"], "time": [2249]}, "edge": {"target": [], "time": []}}}, "displayed_time": "8.49", "trialTime": 10028, "trial_type": "mouselab-mdp", "trial_index": 4, "time_elapsed": 251614, "internal_node_id": "0.0-2.0-2.0-1.0"}}, {"uniqueid": "w13100309:a56490620", "current_trial": 5, "dateTime": 1693660557795, "trialdata": {"view_history": [{"page_index": 0, "viewing_time": 23922}, {"page_index": 1, "viewing_time": 7552}], "rt": 31474, "trial_id": "mouselab_instructions_2_control", "trial_type": "instructions", "trial_index": 5, "time_elapsed": 283092, "internal_node_id": "0.0-2.0-3.0"}}, {"uniqueid": "w13100309:a56490620", "current_trial": 6, "dateTime": 1693660589025, "trialdata": {"rt": 31224, "response": {"Q0": "The cost for clicking on nodes may vary between nodes.", "Q1": "The better I perform the higher my bonus will be.", "Q2": "No, the amount of cash at each node of the web may be different each time.", "Q3": "To get the highest total score.", "Q4": "Only before moving the spider.", "Q5": "3 seconds"}, "question_order": [0, 1, 2, 3, 4, 5], "correct": {"Q0": "The cost for clicking on nodes may vary between nodes.", "Q1": "The better I perform the higher my bonus will be.", "Q2": "No, the amount of cash at each node of the web may be different each time.", "Q3": "To get the highest total score.", "Q4": "Only before moving the spider.", "Q5": "3 seconds"}, "trial_id": "mouselab_quiz_control", "trial_type": "survey-multi-choice", "trial_index": 6, "time_elapsed": 314321, "internal_node_id": "0.0-2.0-4.0"}}, {"uniqueid": "w13100309:a56490620", "current_trial": 7, "dateTime": 1693660593557, "trialdata": {"rt": 4522, "response": {"Q0": "No"}, "question_order": [0], "trial_id": "repeat_check", "trial_type": "survey-multi-choice", "trial_index": 7, "time_elapsed": 318854, "internal_node_id": "0.0-4.0-0.0"}}, {"uniqueid": "w13100309:a56490620", "current_trial": 8, "dateTime": 1693660606342, "trialdata": {"rt": 12781, "stimulus": "\n<h1> Get ready to start the game! </h1>\n\nThank you for reading the instructions. Get ready start with the 40 rounds of this game.\n<br><br>\nIf you need to take a break, feel free to take one after the end of a round, before continuing to the next one.\n<br><br>\nRemember, the more money the spider gets, the bigger your bonus will be!\n<br><br>\n<div style='text-align: center;'>Press <code>space</code> to begin.</div>\n\n<br><br>\n(If, at any point, the <code>space</code> key does not take you to the next page, click once on the text and try again.)", "response": " ", "trial_id": "mdp_ready", "trial_type": "html-keyboard-response", "trial_index": 8, "time_elapsed": 331639, "internal_node_id": "0.0-6.0-0.0"}}, {"uniqueid": "w13100309:a56490620", "current_trial": 9, "dateTime": 1693660626123, "trialdata": {"revealed_states": [], "clicked_states": [], "num_clicks_accrued": [0, 0, 0, 0, 0, 0, 0, 0, 0, 0, 0, 0, 0], "stateRewards": ["", -2, -1, 3, -3, 71, -58, -21, 7, -10, -75, -37, 2, 4, -1, -12, -79, -29, -48, 3, -41, -10, -30, -1, -2, 1, -15, 13, 66, 22, -1, -42, -86, -55], "withholdReward": false, "trial_id": "mdp_trial_1", "block": "test", "trialIndex": 2, "score": -2, "costs": 0, "simulationMode": [null, null, null, null, null], "rewards": [2, 4, -1, 3, -10], "path": ["0", "0", "12", "13", "14", "19", "21"], "rt": [1345, 298, 305, 282, 276], "actions": ["right", "right", "right", "down", "down"], "actionTimes": [4112, 4961, 5783, 6616, 7432], "queries": {"click": {"state": {"target": [], "time": []}, "edge": {"target": [], "time": []}}, "mouseover": {"state": {"target": [], "time": []}, "edge": {"target": [], "time": []}}, "mouseout": {"state": {"target": ["26", "24", "23", "0"], "time": [1882, 1913, 2040, 2295]}, "edge": {"target": [], "time": []}}}, "displayed_time": "17.13", "trialTime": 19134, "trial_type": "mouselab-mdp", "trial_index": 9, "time_elapsed": 351420, "internal_node_id": "0.0-6.0-1.0-0.0"}}, {"uniqueid": "w13100309:a56490620", "current_trial": 10, "dateTime": 1693660648725, "trialdata": {"revealed_states": [], "clicked_states": [], "num_clicks_accrued": [0, 0, 0, 0, 0, 0, 0, 0, 0, 0, 0, 0, 0], "stateRewards": ["", 1, 1, -6, -2, 7, 77, 3, 16, -16, 66, 31, -1, 3, -8, -6, 33, -50, -48, 7, -60, -66, 36, 2, -3, 3, -7, -12, -61, -79, -4, 8, 74, -70], "withholdReward": false, "trial_id": "mdp_trial_2", "block": "test", "trialIndex": 3, "score": -66, "costs": 0, "simulationMode": [null, null, null, null, null], "rewards": [2, -3, 3, -7, -61], "path": ["0", "0", "23", "24", "25", "26", "28"], "rt": [1937, 548, 448, 3145, 7228], "actions": ["left", "left", "left", "up", "right"], "actionTimes": [4654, 5749, 6726, 10414, 18157], "queries": {"click": {"state": {"target": [], "time": []}, "edge": {"target": [], "time": []}}, "mouseover": {"state": {"target": [], "time": []}, "edge": {"target": [], "time": []}}, "mouseout": {"state": {"target": ["0", "24", "31", "0"], "time": [1588, 1610, 1910, 2269]}, "edge": {"target": [], "time": []}}}, "displayed_time": "18.72", "trialTime": 22005, "trial_type": "mouselab-mdp", "trial_index": 10, "time_elapsed": 374022, "internal_node_id": "0.0-6.0-1.0-1.0"}}, {"uniqueid": "w13100309:a56490620", "current_trial": 11, "dateTime": 1693660675169, "trialdata": {"revealed_states": [], "clicked_states": [], "num_clicks_accrued": [0, 0, 0, 0, 0, 0, 0, 0, 0, 0, 0, 0, 0], "stateRewards": ["", -1, 2, -6, 6, -82, -19, -39, -16, -83, 11, -33, -2, -2, 4, -6, -82, -1, -19, -6, -10, -67, -41, -2, 1, -7, 16, -23, -78, -52, 14, 31, -71, 74], "withholdReward": false, "trial_id": "mdp_trial_3", "block": "test", "trialIndex": 4, "score": 37, "costs": 0, "simulationMode": [null, null, null, null, null], "rewards": [-2, 1, -7, 14, 31], "path": ["0", "0", "23", "24", "25", "30", "31"], "rt": [1290, 949, 906, 4785, 5149], "actions": ["left", "left", "left", "down", "right"], "actionTimes": [3941, 5438, 6877, 12222, 17901], "queries": {"click": {"state": {"target": [], "time": []}, "edge": {"target": [], "time": []}}, "mouseover": {"state": {"target": [], "time": []}, "edge": {"target": [], "time": []}}, "mouseout": {"state": {"target": ["0", "23", "0"], "time": [944, 1738, 1876]}, "edge": {"target": [], "time": []}}}, "displayed_time": "18.42", "trialTime": 25775, "trial_type": "mouselab-mdp", "trial_index": 11, "time_elapsed": 400464, "internal_node_id": "0.0-6.0-1.0-2.0"}}, {"uniqueid": "w13100309:a56490620", "current_trial": 12, "dateTime": 1693660697101, "trialdata": {"revealed_states": [], "clicked_states": [], "num_clicks_accrued": [0, 0, 0, 0, 0, 0, 0, 0, 0, 0, 0, 0, 0], "stateRewards": ["", 1, 2, -6, -13, -51, 22, -4, -12, -44, -12, 6, -2, -2, -2, -14, -46, -4, -77, -2, 36, -79, 41, 2, -4, 2, -6, -55, 59, 70, -5, 39, -19, 24], "withholdReward": false, "trial_id": "mdp_trial_4", "block": "test", "trialIndex": 5, "score": 19, "costs": 0, "simulationMode": [null, null, null, null, null], "rewards": [2, -4, 2, -5, 24], "path": ["0", "0", "23", "24", "25", "30", "33"], "rt": [1544, 346, 432, 310, 8718], "actions": ["left", "left", "left", "down", "left"], "actionTimes": [4243, 5117, 6085, 6932, 16197], "queries": {"click": {"state": {"target": [], "time": []}, "edge": {"target": [], "time": []}}, "mouseover": {"state": {"target": [], "time": []}, "edge": {"target": [], "time": []}}, "mouseout": {"state": {"target": ["31", "0"], "time": [1656, 2138]}, "edge": {"target": [], "time": []}}}, "displayed_time": "17.00", "trialTime": 21300, "trial_type": "mouselab-mdp", "trial_index": 12, "time_elapsed": 422398, "internal_node_id": "0.0-6.0-1.0-3.0"}}, {"uniqueid": "w13100309:a56490620", "current_trial": 13, "dateTime": 1693660718638, "trialdata": {"revealed_states": [], "clicked_states": [], "num_clicks_accrued": [0, 0, 0, 0, 0, 0, 0, 0, 0, 0, 0, 0, 0], "stateRewards": ["", -2, -4, -8, 8, 63, -50, -19, -7, -17, -31, 31, 1, 3, -5, 12, -35, -63, -29, -4, -17, -75, -79, -2, -3, -2, 8, -3, -85, 10, -2, -82, -82, 56], "withholdReward": false, "trial_id": "mdp_trial_5", "block": "test", "trialIndex": 6, "score": -52, "costs": 0, "simulationMode": [null, null, null, null, null], "rewards": [1, 3, -5, 12, -63], "path": ["0", "0", "12", "13", "14", "15", "17"], "rt": [2279, 1015, 711, 984, 6631], "actions": ["right", "right", "right", "up", "right"], "actionTimes": [4718, 6262, 7502, 9015, 16175], "queries": {"click": {"state": {"target": [], "time": []}, "edge": {"target": [], "time": []}}, "mouseover": {"state": {"target": [], "time": []}, "edge": {"target": [], "time": []}}, "mouseout": {"state": {"target": ["24", "23", "0"], "time": [1494, 1596, 2499]}, "edge": {"target": [], "time": []}}}, "displayed_time": "16.76", "trialTime": 20902, "trial_type": "mouselab-mdp", "trial_index": 13, "time_elapsed": 443934, "internal_node_id": "0.0-6.0-1.0-4.0"}}, {"uniqueid": "w13100309:a56490620", "current_trial": 14, "dateTime": 1693660740654, "trialdata": {"revealed_states": [], "clicked_states": [], "num_clicks_accrued": [0, 0, 0, 0, 0, 0, 0, 0, 0, 0, 0, 0, 0], "stateRewards": ["", -1, -3, 3, 5, 56, 39, 50, -1, -80, 33, -46, 1, -2, -6, -8, 87, 48, 54, -11, -20, -64, -54, -2, 3, -7, -3, 12, 88, 35, -16, -46, -70, -3], "withholdReward": false, "trial_id": "mdp_trial_6", "block": "test", "trialIndex": 7, "score": 39, "costs": 0, "simulationMode": [null, null, null, null, null], "rewards": [1, -2, -6, -8, 54], "path": ["0", "0", "12", "13", "14", "15", "18"], "rt": [1046, 355, 282, 230, 7761], "actions": ["right", "right", "right", "up", "left"], "actionTimes": [4150, 5046, 5881, 6654, 14950], "queries": {"click": {"state": {"target": [], "time": []}, "edge": {"target": [], "time": []}}, "mouseover": {"state": {"target": [], "time": []}, "edge": {"target": [], "time": []}}, "mouseout": {"state": {"target": ["28", "1"], "time": [2038, 2048]}, "edge": {"target": [], "time": []}}}, "displayed_time": "17.66", "trialTime": 21407, "trial_type": "mouselab-mdp", "trial_index": 14, "time_elapsed": 465950, "internal_node_id": "0.0-6.0-1.0-5.0"}}, {"uniqueid": "w13100309:a56490620", "current_trial": 15, "dateTime": 1693660760695, "trialdata": {"revealed_states": [], "clicked_states": [], "num_clicks_accrued": [0, 0, 0, 0, 0, 0, 0, 0, 0, 0, 0, 0, 0], "stateRewards": ["", -1, -3, -5, -14, -13, -47, 79, 8, -60, -64, 41, -1, 2, 3, 13, -46, 61, -79, -11, -64, -65, 23, 1, -2, 6, -14, 46, 32, 21, 7, 75, -66, 15], "withholdReward": false, "trial_id": "mdp_trial_7", "block": "test", "trialIndex": 8, "score": -29, "costs": 0, "simulationMode": [null, null, null, null, null], "rewards": [-1, 2, 3, 13, -46], "path": ["0", "0", "12", "13", "14", "15", "16"], "rt": [1240, 415, 467, 1027, 6821], "actions": ["right", "right", "right", "up", "up"], "actionTimes": [3478, 4439, 5447, 7023, 14407], "queries": {"click": {"state": {"target": [], "time": []}, "edge": {"target": [], "time": []}}, "mouseover": {"state": {"target": [], "time": []}, "edge": {"target": [], "time": []}}, "mouseout": {"state": {"target": ["24", "25", "0"], "time": [1073, 1266, 1468]}, "edge": {"target": [], "time": []}}}, "displayed_time": "16.74", "trialTime": 19416, "trial_type": "mouselab-mdp", "trial_index": 15, "time_elapsed": 485991, "internal_node_id": "0.0-6.0-1.0-6.0"}}, {"uniqueid": "w13100309:a56490620", "current_trial": 16, "dateTime": 1693660781590, "trialdata": {"revealed_states": [], "clicked_states": [], "num_clicks_accrued": [0, 0, 0, 0, 0, 0, 0, 0, 0, 0, 0, 0, 0], "stateRewards": ["", 1, -4, 6, -3, 40, 76, -51, 5, -24, -63, 44, -2, -2, 8, 1, 76, -85, -58, 10, 59, 20, 11, -2, 3, -3, 3, -82, -10, 54, -7, -57, -6, -32], "withholdReward": false, "trial_id": "mdp_trial_8", "block": "test", "trialIndex": 9, "score": -53, "costs": 0, "simulationMode": [null, null, null, null, null], "rewards": [-2, -2, 8, 1, -58], "path": ["0", "0", "12", "13", "14", "15", "18"], "rt": [1108, 211, 326, 770, 7758], "actions": ["right", "right", "right", "up", "left"], "actionTimes": [3259, 4011, 4883, 6211, 14515], "queries": {"click": {"state": {"target": [], "time": []}, "edge": {"target": [], "time": []}}, "mouseover": {"state": {"target": [], "time": []}, "edge": {"target": [], "time": []}}, "mouseout": {"state": {"target": ["0"], "time": [1696]}, "edge": {"target": [], "time": []}}}, "displayed_time": "16.70", "trialTime": 20251, "trial_type": "mouselab-mdp", "trial_index": 16, "time_elapsed": 506886, "internal_node_id": "0.0-6.0-1.0-7.0"}}, {"uniqueid": "w13100309:a56490620", "current_trial": 17, "dateTime": 1693660802300, "trialdata": {"revealed_states": [], "clicked_states": [], "num_clicks_accrued": [0, 0, 0, 0, 0, 0, 0, 0, 0, 0, 0, 0, 0], "stateRewards": ["", 1, 1, -3, 7, 49, 78, 26, -5, 26, 48, -43, -1, -3, 2, -5, 4, -1, -60, 10, -35, 51, 81, -2, 1, -7, -5, -39, -86, -54, 4, -3, 74, 77], "withholdReward": false, "trial_id": "mdp_trial_9", "block": "test", "trialIndex": 10, "score": -3, "costs": 0, "simulationMode": [null, null, null, null, null], "rewards": [-1, -3, 2, -5, 4], "path": ["0", "0", "12", "13", "14", "15", "16"], "rt": [1268, 159, 567, 296, 8199], "actions": ["right", "right", "right", "up", "up"], "actionTimes": [3953, 4658, 5770, 6626, 15378], "queries": {"click": {"state": {"target": [], "time": []}, "edge": {"target": [], "time": []}}, "mouseover": {"state": {"target": [], "time": []}, "edge": {"target": [], "time": []}}, "mouseout": {"state": {"target": ["23", "0"], "time": [1894, 2170]}, "edge": {"target": [], "time": []}}}, "displayed_time": "17.11", "trialTime": 20089, "trial_type": "mouselab-mdp", "trial_index": 17, "time_elapsed": 527597, "internal_node_id": "0.0-6.0-1.0-8.0"}}, {"uniqueid": "w13100309:a56490620", "current_trial": 18, "dateTime": 1693660822990, "trialdata": {"revealed_states": [], "clicked_states": [], "num_clicks_accrued": [0, 0, 0, 0, 0, 0, 0, 0, 0, 0, 0, 0, 0], "stateRewards": ["", 1, -4, -4, 8, 1, -79, 68, -10, -79, 8, -74, -1, -3, -6, 14, 43, 23, 9, 5, -51, 63, 61, -2, 4, 6, -10, 69, -32, 57, 15, -80, -80, -77], "withholdReward": false, "trial_id": "mdp_trial_10", "block": "test", "trialIndex": 11, "score": -78, "costs": 0, "simulationMode": [null, null, null, null, null], "rewards": [1, -4, -4, 8, -79], "path": ["0", "0", "1", "2", "3", "4", "6"], "rt": [1116, 366, 3133, 943, 5703], "actions": ["up", "up", "up", "right", "right"], "actionTimes": [2748, 3660, 7348, 8829, 15052], "queries": {"click": {"state": {"target": [], "time": []}, "edge": {"target": [], "time": []}}, "mouseover": {"state": {"target": [], "time": []}, "edge": {"target": [], "time": []}}, "mouseout": {"state": {"target": ["33", "12"], "time": [419, 720]}, "edge": {"target": [], "time": []}}}, "displayed_time": "16.29", "trialTime": 20036, "trial_type": "mouselab-mdp", "trial_index": 18, "time_elapsed": 548287, "internal_node_id": "0.0-6.0-1.0-9.0"}}, {"uniqueid": "w13100309:a56490620", "current_trial": 19, "dateTime": 1693660844149, "trialdata": {"revealed_states": [], "clicked_states": [], "num_clicks_accrued": [0, 0, 0, 0, 0, 0, 0, 0, 0, 0, 0, 0, 0], "stateRewards": ["", 1, 2, 3, 16, 63, -25, 16, -4, -14, 82, -66, -1, -3, -3, -11, -14, 19, 46, 3, -34, -82, 66, -2, -3, 4, -5, -63, 77, -37, -1, -45, -41, 84], "withholdReward": false, "trial_id": "mdp_trial_11", "block": "test", "trialIndex": 12, "score": 38, "costs": 0, "simulationMode": [null, null, null, null, null], "rewards": [1, 2, 3, 16, 16], "path": ["0", "0", "1", "2", "3", "4", "7"], "rt": [1763, 503, 461, 394, 8810], "actions": ["up", "up", "up", "right", "down"], "actionTimes": [4917, 5942, 6950, 7878, 17222], "queries": {"click": {"state": {"target": [], "time": []}, "edge": {"target": [], "time": []}}, "mouseover": {"state": {"target": [], "time": []}, "edge": {"target": [], "time": []}}, "mouseout": {"state": {"target": [], "time": []}, "edge": {"target": [], "time": []}}}, "displayed_time": "17.76", "trialTime": 20502, "trial_type": "mouselab-mdp", "trial_index": 19, "time_elapsed": 569446, "internal_node_id": "0.0-6.0-1.0-10.0"}}, {"uniqueid": "w13100309:a56490620", "current_trial": 20, "dateTime": 1693660867437, "trialdata": {"revealed_states": [], "clicked_states": [], "num_clicks_accrued": [0, 0, 0, 0, 0, 0, 0, 0, 0, 0, 0, 0, 0], "stateRewards": ["", -2, 2, 8, -6, -25, 3, 87, 2, -62, -2, 74, -2, -1, 2, -1, 79, 49, -37, -14, 5, 67, -9, -1, 2, -2, 5, 15, 38, 32, -14, -38, -38, 30], "withholdReward": false, "trial_id": "mdp_trial_12", "block": "test", "trialIndex": 13, "score": 8, "costs": 0, "simulationMode": [null, null, null, null, null], "rewards": [-2, 2, 8, 2, -2], "path": ["0", "0", "1", "2", "3", "8", "10"], "rt": [1437, 277, 266, 1150, 10021], "actions": ["up", "up", "up", "left", "down"], "actionTimes": [4330, 5153, 5968, 7649, 18217], "queries": {"click": {"state": {"target": [], "time": []}, "edge": {"target": [], "time": []}}, "mouseover": {"state": {"target": ["23"], "time": [2952]}, "edge": {"target": [], "time": []}}, "mouseout": {"state": {"target": ["0"], "time": [1687]}, "edge": {"target": [], "time": []}}}, "displayed_time": "18.74", "trialTime": 22641, "trial_type": "mouselab-mdp", "trial_index": 20, "time_elapsed": 592734, "internal_node_id": "0.0-6.0-1.0-11.0"}}, {"uniqueid": "w13100309:a56490620", "current_trial": 21, "dateTime": 1693660887342, "trialdata": {"revealed_states": [], "clicked_states": [], "num_clicks_accrued": [0, 0, 0, 0, 0, 0, 0, 0, 0, 0, 0, 0, 0], "stateRewards": ["", -1, 2, 7, 8, 75, 67, -11, 6, 52, -17, 38, -1, 4, -8, 14, 74, -37, -17, -12, 52, 55, 71, -2, -1, -5, 2, 21, 6, -88, -14, 64, -61, -47], "withholdReward": false, "trial_id": "mdp_trial_13", "block": "test", "trialIndex": 14, "score": 52, "costs": 0, "simulationMode": [null, null, null, null, null], "rewards": [-1, 2, 7, 6, 38], "path": ["0", "0", "1", "2", "3", "8", "11"], "rt": [1134, 395, 393, 1385, 7715], "actions": ["up", "up", "up", "left", "left"], "actionTimes": [2482, 3412, 4331, 6242, 14483], "queries": {"click": {"state": {"target": [], "time": []}, "edge": {"target": [], "time": []}}, "mouseover": {"state": {"target": [], "time": []}, "edge": {"target": [], "time": []}}, "mouseout": {"state": {"target": ["23", "12"], "time": [374, 595]}, "edge": {"target": [], "time": []}}}, "displayed_time": "15.75", "trialTime": 19258, "trial_type": "mouselab-mdp", "trial_index": 21, "time_elapsed": 612638, "internal_node_id": "0.0-6.0-1.0-12.0"}}, {"uniqueid": "w13100309:a56490620", "current_trial": 22, "dateTime": 1693660907332, "trialdata": {"revealed_states": [], "clicked_states": [], "num_clicks_accrued": [0, 0, 0, 0, 0, 0, 0, 0, 0, 0, 0, 0, 0], "stateRewards": ["", 1, 3, -2, 15, 51, 15, -19, 11, 67, -45, -73, 2, 4, -2, -13, 36, 9, -28, 10, -30, 31, 16, 1, 2, -1, -16, 14, -22, 36, -1, 88, -5, 45], "withholdReward": false, "trial_id": "mdp_trial_14", "block": "test", "trialIndex": 15, "score": -32, "costs": 0, "simulationMode": [null, null, null, null, null], "rewards": [1, 3, -2, 11, -45], "path": ["0", "0", "1", "2", "3", "8", "10"], "rt": [3204, 313, 1342, 1080, 3438], "actions": ["up", "up", "up", "left", "down"], "actionTimes": [4720, 5583, 7457, 9081, 13065], "queries": {"click": {"state": {"target": [], "time": []}, "edge": {"target": [], "time": []}}, "mouseover": {"state": {"target": ["23", "24", "24"], "time": [2097, 2210, 2446]}, "edge": {"target": [], "time": []}}, "mouseout": {"state": {"target": ["0", "0", "12", "0", "23", "24"], "time": [426, 565, 763, 1015, 2123, 2277]}, "edge": {"target": [], "time": []}}}, "displayed_time": "16.09", "trialTime": 19353, "trial_type": "mouselab-mdp", "trial_index": 22, "time_elapsed": 632629, "internal_node_id": "0.0-6.0-1.0-13.0"}}, {"uniqueid": "w13100309:a56490620", "current_trial": 23, "dateTime": 1693660927932, "trialdata": {"revealed_states": [], "clicked_states": [], "num_clicks_accrued": [0, 0, 0, 0, 0, 0, 0, 0, 0, 0, 0, 0, 0], "stateRewards": ["", 1, -4, -6, 11, -20, 8, -30, 1, -38, 88, 42, 2, 3, 5, -12, -8, -74, 30, -8, 67, -19, 42, 2, -1, 4, 13, 50, -68, 2, -8, -15, 87, -46], "withholdReward": false, "trial_id": "mdp_trial_15", "block": "test", "trialIndex": 16, "score": 69, "costs": 0, "simulationMode": [null, null, null, null, null], "rewards": [2, 3, 5, -8, 67], "path": ["0", "0", "12", "13", "14", "19", "20"], "rt": [2046, 482, 306, 367, 5894], "actions": ["right", "right", "right", "down", "right"], "actionTimes": [5179, 6196, 7051, 7971, 14411], "queries": {"click": {"state": {"target": [], "time": []}, "edge": {"target": [], "time": []}}, "mouseover": {"state": {"target": [], "time": []}, "edge": {"target": [], "time": []}}, "mouseout": {"state": {"target": ["24", "23", "0"], "time": [2023, 2381, 2520]}, "edge": {"target": [], "time": []}}}, "displayed_time": "17.74", "trialTime": 19971, "trial_type": "mouselab-mdp", "trial_index": 23, "time_elapsed": 653229, "internal_node_id": "0.0-6.0-1.0-14.0"}}, {"uniqueid": "w13100309:a56490620", "current_trial": 24, "dateTime": 1693660952173, "trialdata": {"revealed_states": [], "clicked_states": [], "num_clicks_accrued": [0, 0, 0, 0, 0, 0, 0, 0, 0, 0, 0, 0, 0], "stateRewards": ["", 1, 4, -8, -13, -13, -87, -77, -10, -44, 54, 42, 2, -3, -4, 12, -9, -80, 52, 9, 84, -2, -65, 1, -4, -5, -6, 8, 80, 32, 13, -59, -5, -13], "withholdReward": false, "trial_id": "mdp_trial_16", "block": "test", "trialIndex": 17, "score": 88, "costs": 0, "simulationMode": [null, null, null, null, null], "rewards": [2, -3, -4, 9, 84], "path": ["0", "0", "12", "13", "14", "19", "20"], "rt": [1439, 391, 267, 258, 7281], "actions": ["right", "right", "right", "down", "right"], "actionTimes": [6741, 7653, 8461, 9246, 17070], "queries": {"click": {"state": {"target": [], "time": []}, "edge": {"target": [], "time": []}}, "mouseover": {"state": {"target": [], "time": []}, "edge": {"target": [], "time": []}}, "mouseout": {"state": {"target": ["11", "10", "1"], "time": [4136, 4169, 4341]}, "edge": {"target": [], "time": []}}}, "displayed_time": "19.68", "trialTime": 23622, "trial_type": "mouselab-mdp", "trial_index": 24, "time_elapsed": 677470, "internal_node_id": "0.0-6.0-1.0-15.0"}}, {"uniqueid": "w13100309:a56490620", "current_trial": 25, "dateTime": 1693660972012, "trialdata": {"revealed_states": [], "clicked_states": [], "num_clicks_accrued": [0, 0, 0, 0, 0, 0, 0, 0, 0, 0, 0, 0, 0], "stateRewards": ["", 2, 3, -3, 4, 72, -28, 34, -12, 57, -64, -15, 2, 1, -4, -15, 2, 49, 31, -1, -42, -58, 31, -2, 1, -2, -13, -75, -19, -22, -6, 61, 10, -56], "withholdReward": false, "trial_id": "mdp_trial_17", "block": "test", "trialIndex": 18, "score": -44, "costs": 0, "simulationMode": [null, null, null, null, null], "rewards": [2, 1, -4, -1, -42], "path": ["0", "0", "12", "13", "14", "19", "20"], "rt": [1206, 263, 279, 269, 8225], "actions": ["right", "right", "right", "down", "right"], "actionTimes": [3663, 4454, 5286, 6096, 14856], "queries": {"click": {"state": {"target": [], "time": []}, "edge": {"target": [], "time": []}}, "mouseover": {"state": {"target": [], "time": []}, "edge": {"target": [], "time": []}}, "mouseout": {"state": {"target": [], "time": []}, "edge": {"target": [], "time": []}}}, "displayed_time": "16.99", "trialTime": 19183, "trial_type": "mouselab-mdp", "trial_index": 25, "time_elapsed": 697309, "internal_node_id": "0.0-6.0-1.0-16.0"}}, {"uniqueid": "w13100309:a56490620", "current_trial": 26, "dateTime": 1693660991573, "trialdata": {"revealed_states": [], "clicked_states": [], "num_clicks_accrued": [0, 0, 0, 0, 0, 0, 0, 0, 0, 0, 0, 0, 0], "stateRewards": ["", 2, -3, -4, -1, 25, -16, 16, 10, -71, -20, -55, 1, 3, -4, -9, 1, 32, 11, -6, 32, -50, -41, -1, 4, 4, -8, 7, -81, 70, 2, -52, 45, -10], "withholdReward": false, "trial_id": "mdp_trial_18", "block": "test", "trialIndex": 19, "score": 26, "costs": 0, "simulationMode": [null, null, null, null, null], "rewards": [1, 3, -4, -6, 32], "path": ["0", "0", "12", "13", "14", "19", "20"], "rt": [2304, 402, 281, 286, 7965], "actions": ["right", "right", "right", "down", "right"], "actionTimes": [4809, 5745, 6577, 7400, 15885], "queries": {"click": {"state": {"target": [], "time": []}, "edge": {"target": [], "time": []}}, "mouseover": {"state": {"target": [], "time": []}, "edge": {"target": [], "time": []}}, "mouseout": {"state": {"target": ["0"], "time": [1506]}, "edge": {"target": [], "time": []}}}, "displayed_time": "16.87", "trialTime": 18921, "trial_type": "mouselab-mdp", "trial_index": 26, "time_elapsed": 716869, "internal_node_id": "0.0-6.0-1.0-17.0"}}, {"uniqueid": "w13100309:a56490620", "current_trial": 27, "dateTime": 1693661011276, "trialdata": {"revealed_states": [], "clicked_states": [], "num_clicks_accrued": [0, 0, 0, 0, 0, 0, 0, 0, 0, 0, 0, 0, 0], "stateRewards": ["", -1, 2, -6, 6, 43, 78, 78, -2, 55, -29, -17, -2, -4, 1, -15, 13, 7, -79, 8, -28, -68, 36, -1, -3, 3, -16, 84, -18, 87, 10, 32, 13, -81], "withholdReward": false, "trial_id": "mdp_trial_19", "block": "test", "trialIndex": 20, "score": -25, "costs": 0, "simulationMode": [null, null, null, null, null], "rewards": [-2, -4, 1, 8, -28], "path": ["0", "0", "12", "13", "14", "19", "20"], "rt": [1111, 377, 359, 243, 10300], "actions": ["right", "right", "right", "down", "right"], "actionTimes": [3362, 4290, 5187, 5978, 16819], "queries": {"click": {"state": {"target": [], "time": []}, "edge": {"target": [], "time": []}}, "mouseover": {"state": {"target": [], "time": []}, "edge": {"target": [], "time": []}}, "mouseout": {"state": {"target": ["0"], "time": [1827]}, "edge": {"target": [], "time": []}}}, "displayed_time": "17.34", "trialTime": 19058, "trial_type": "mouselab-mdp", "trial_index": 27, "time_elapsed": 736573, "internal_node_id": "0.0-6.0-1.0-18.0"}}, {"uniqueid": "w13100309:a56490620", "current_trial": 28, "dateTime": 1693661030196, "trialdata": {"revealed_states": [], "clicked_states": [], "num_clicks_accrued": [0, 0, 0, 0, 0, 0, 0, 0, 0, 0, 0, 0, 0], "stateRewards": ["", -1, 3, 1, -11, -22, -36, 19, -5, -70, -52, 50, -2, -4, 4, -2, -41, -83, 29, -2, 22, 10, -6, -2, 3, -2, 14, 54, 44, 77, -9, -65, -37, -40], "withholdReward": false, "trial_id": "mdp_trial_20", "block": "test", "trialIndex": 21, "score": 18, "costs": 0, "simulationMode": [null, null, null, null, null], "rewards": [-2, -4, 4, -2, 22], "path": ["0", "0", "12", "13", "14", "19", "20"], "rt": [984, 309, 225, 219, 8617], "actions": ["right", "right", "right", "down", "right"], "actionTimes": [3055, 3897, 4673, 5424, 14569], "queries": {"click": {"state": {"target": [], "time": []}, "edge": {"target": [], "time": []}}, "mouseover": {"state": {"target": [], "time": []}, "edge": {"target": [], "time": []}}, "mouseout": {"state": {"target": ["0"], "time": [1520]}, "edge": {"target": [], "time": []}}}, "displayed_time": "16.33", "trialTime": 18265, "trial_type": "mouselab-mdp", "trial_index": 28, "time_elapsed": 755493, "internal_node_id": "0.0-6.0-1.0-19.0"}}, {"uniqueid": "w13100309:a56490620", "current_trial": 29, "dateTime": 1693661050118, "trialdata": {"revealed_states": [], "clicked_states": [], "num_clicks_accrued": [0, 0, 0, 0, 0, 0, 0, 0, 0, 0, 0, 0, 0], "stateRewards": ["", -1, 2, -2, 13, -56, -28, 10, 14, 53, -80, -29, 1, -3, -3, -14, 14, 9, -40, -9, 18, 18, 48, 1, 1, 1, -9, 64, -39, -9, 7, -52, -78, 7], "withholdReward": false, "trial_id": "mdp_trial_21", "block": "test", "trialIndex": 22, "score": 4, "costs": 0, "simulationMode": [null, null, null, null, null], "rewards": [1, -3, -3, -9, 18], "path": ["0", "0", "12", "13", "14", "19", "20"], "rt": [1536, 312, 323, 204, 10475], "actions": ["right", "right", "right", "down", "right"], "actionTimes": [3385, 4239, 5097, 5824, 16857], "queries": {"click": {"state": {"target": [], "time": []}, "edge": {"target": [], "time": []}}, "mouseover": {"state": {"target": [], "time": []}, "edge": {"target": [], "time": []}}, "mouseout": {"state": {"target": ["0"], "time": [1459]}, "edge": {"target": [], "time": []}}}, "displayed_time": "17.40", "trialTime": 19290, "trial_type": "mouselab-mdp", "trial_index": 29, "time_elapsed": 775414, "internal_node_id": "0.0-6.0-1.0-20.0"}}, {"uniqueid": "w13100309:a56490620", "current_trial": 30, "dateTime": 1693661070004, "trialdata": {"revealed_states": [], "clicked_states": [], "num_clicks_accrued": [0, 0, 0, 0, 0, 0, 0, 0, 0, 0, 0, 0, 0], "stateRewards": ["", 2, -4, 4, 9, 69, 9, -75, 12, -86, 66, 25, -1, 3, 2, -13, -88, -3, 1, 4, -69, 49, -84, 2, -1, 4, 2, -18, -81, -52, -15, -69, -54, 25], "withholdReward": false, "trial_id": "mdp_trial_22", "block": "test", "trialIndex": 23, "score": -61, "costs": 0, "simulationMode": [null, null, null, null, null], "rewards": [-1, 3, 2, 4, -69], "path": ["0", "0", "12", "13", "14", "19", "20"], "rt": [1224, 383, 386, 863, 9147], "actions": ["right", "right", "right", "down", "right"], "actionTimes": [4119, 5048, 5976, 7384, 17056], "queries": {"click": {"state": {"target": [], "time": []}, "edge": {"target": [], "time": []}}, "mouseover": {"state": {"target": [], "time": []}, "edge": {"target": [], "time": []}}, "mouseout": {"state": {"target": ["0", "0"], "time": [1897, 2435]}, "edge": {"target": [], "time": []}}}, "displayed_time": "17.62", "trialTime": 19199, "trial_type": "mouselab-mdp", "trial_index": 30, "time_elapsed": 795300, "internal_node_id": "0.0-6.0-1.0-21.0"}}, {"uniqueid": "w13100309:a56490620", "current_trial": 31, "dateTime": 1693661095668, "trialdata": {"revealed_states": [], "clicked_states": [], "num_clicks_accrued": [0, 0, 0, 0, 0, 0, 0, 0, 0, 0, 0, 0, 0], "stateRewards": ["", -2, 1, -7, -8, -37, -76, -87, 11, 30, -63, 80, -1, 4, 2, -1, 42, 17, 52, -3, -75, -80, -68, 2, -3, -5, -15, -48, 82, 24, -7, 5, -22, -71], "withholdReward": false, "trial_id": "mdp_trial_23", "block": "test", "trialIndex": 24, "score": -73, "costs": 0, "simulationMode": [null, null, null, null, null], "rewards": [-1, 4, 2, -3, -75], "path": ["0", "0", "12", "13", "14", "19", "20"], "rt": [1850, 2824, 993, 619, 11394], "actions": ["right", "right", "right", "down", "right"], "actionTimes": [3647, 7016, 8552, 9728, 21664], "queries": {"click": {"state": {"target": [], "time": []}, "edge": {"target": [], "time": []}}, "mouseover": {"state": {"target": [], "time": []}, "edge": {"target": [], "time": []}}, "mouseout": {"state": {"target": ["0"], "time": [818]}, "edge": {"target": [], "time": []}}}, "displayed_time": "22.20", "trialTime": 25023, "trial_type": "mouselab-mdp", "trial_index": 31, "time_elapsed": 820964, "internal_node_id": "0.0-6.0-1.0-22.0"}}, {"uniqueid": "w13100309:a56490620", "current_trial": 32, "dateTime": 1693661114836, "trialdata": {"revealed_states": [], "clicked_states": [], "num_clicks_accrued": [0, 0, 0, 0, 0, 0, 0, 0, 0, 0, 0, 0, 0], "stateRewards": ["", -1, -3, 1, 13, -64, -29, 12, -4, -33, 50, 56, 2, -3, 4, 11, -64, -58, -55, 12, 47, 38, -25, -2, 2, 5, -15, 85, 7, 84, 10, 8, 57, 26], "withholdReward": false, "trial_id": "mdp_trial_24", "block": "test", "trialIndex": 25, "score": 22, "costs": 0, "simulationMode": [null, null, null, null, null], "rewards": [-1, -3, 1, 13, 12], "path": ["0", "0", "1", "2", "3", "4", "7"], "rt": [1394, 214, 221, 736, 444], "actions": ["up", "up", "up", "right", "down"], "actionTimes": [3085, 3836, 4604, 5892, 6868], "queries": {"click": {"state": {"target": [], "time": []}, "edge": {"target": [], "time": []}}, "mouseover": {"state": {"target": [], "time": []}, "edge": {"target": [], "time": []}}, "mouseout": {"state": {"target": ["0", "1", "1", "12", "12"], "time": [582, 649, 840, 870, 1056]}, "edge": {"target": [], "time": []}}}, "displayed_time": "16.35", "trialTime": 18517, "trial_type": "mouselab-mdp", "trial_index": 32, "time_elapsed": 840132, "internal_node_id": "0.0-6.0-1.0-23.0"}}, {"uniqueid": "w13100309:a56490620", "current_trial": 33, "dateTime": 1693661140083, "trialdata": {"revealed_states": [], "clicked_states": [], "num_clicks_accrued": [0, 0, 0, 0, 0, 0, 0, 0, 0, 0, 0, 0, 0], "stateRewards": ["", 1, 4, -4, 14, 35, 51, 19, -13, 54, 78, -74, -2, -1, -3, 13, -11, -42, -73, -15, -24, -3, -69, 2, -1, 5, 16, -27, 73, 58, 9, -60, 5, -60], "withholdReward": false, "trial_id": "mdp_trial_25", "block": "test", "trialIndex": 26, "score": 34, "costs": 0, "simulationMode": [null, null, null, null, null], "rewards": [1, 4, -4, 14, 19], "path": ["0", "0", "1", "2", "3", "4", "7"], "rt": [1574, 197, 217, 222, 12169], "actions": ["up", "up", "up", "right", "down"], "actionTimes": [6926, 7670, 8414, 9182, 21911], "queries": {"click": {"state": {"target": [], "time": []}, "edge": {"target": [], "time": []}}, "mouseover": {"state": {"target": [], "time": []}, "edge": {"target": [], "time": []}}, "mouseout": {"state": {"target": ["0"], "time": [4709]}, "edge": {"target": [], "time": []}}}, "displayed_time": "22.44", "trialTime": 24623, "trial_type": "mouselab-mdp", "trial_index": 33, "time_elapsed": 865380, "internal_node_id": "0.0-6.0-1.0-24.0"}}, {"uniqueid": "w13100309:a56490620", "current_trial": 34, "dateTime": 1693661159340, "trialdata": {"revealed_states": [], "clicked_states": [], "num_clicks_accrued": [0, 0, 0, 0, 0, 0, 0, 0, 0, 0, 0, 0, 0], "stateRewards": ["", -1, 1, -5, -6, -78, 47, -13, 12, 48, -88, 20, 2, -3, -2, 13, -20, 37, -57, 14, -38, 30, 31, -2, -2, 8, 2, -23, 78, 28, 12, -74, -88, 8], "withholdReward": false, "trial_id": "mdp_trial_26", "block": "test", "trialIndex": 27, "score": -89, "costs": 0, "simulationMode": [null, null, null, null, null], "rewards": [-1, 1, -5, -6, -78], "path": ["0", "0", "1", "2", "3", "4", "5"], "rt": [943, 322, 357, 322, 8224], "actions": ["up", "up", "up", "right", "up"], "actionTimes": [3188, 4059, 4939, 5779, 14534], "queries": {"click": {"state": {"target": [], "time": []}, "edge": {"target": [], "time": []}}, "mouseover": {"state": {"target": [], "time": []}, "edge": {"target": [], "time": []}}, "mouseout": {"state": {"target": [], "time": []}, "edge": {"target": [], "time": []}}}, "displayed_time": "16.58", "trialTime": 18596, "trial_type": "mouselab-mdp", "trial_index": 34, "time_elapsed": 884636, "internal_node_id": "0.0-6.0-1.0-25.0"}}, {"uniqueid": "w13100309:a56490620", "current_trial": 35, "dateTime": 1693661181636, "trialdata": {"revealed_states": [], "clicked_states": [], "num_clicks_accrued": [0, 0, 0, 0, 0, 0, 0, 0, 0, 0, 0, 0, 0], "stateRewards": ["", 2, -1, 3, -12, -83, 6, -33, 9, 28, 24, -50, -2, -1, -2, -5, -87, 37, 82, 12, 80, -5, 10, -2, -3, -6, 9, 22, -1, 16, 9, 77, -62, 58], "withholdReward": false, "trial_id": "mdp_trial_27", "block": "test", "trialIndex": 28, "score": -91, "costs": 0, "simulationMode": [null, null, null, null, null], "rewards": [2, -1, 3, -12, -83], "path": ["0", "0", "1", "2", "3", "4", "5"], "rt": [990, 262, 405, 484, 13558], "actions": ["up", "up", "up", "right", "up"], "actionTimes": [2577, 3393, 4321, 5337, 19426], "queries": {"click": {"state": {"target": [], "time": []}, "edge": {"target": [], "time": []}}, "mouseover": {"state": {"target": [], "time": []}, "edge": {"target": [], "time": []}}, "mouseout": {"state": {"target": [], "time": []}, "edge": {"target": [], "time": []}}}, "displayed_time": "19.95", "trialTime": 21658, "trial_type": "mouselab-mdp", "trial_index": 35, "time_elapsed": 906933, "internal_node_id": "0.0-6.0-1.0-26.0"}}, {"uniqueid": "w13100309:a56490620", "current_trial": 36, "dateTime": 1693661203755, "trialdata": {"revealed_states": [], "clicked_states": [], "num_clicks_accrued": [0, 0, 0, 0, 0, 0, 0, 0, 0, 0, 0, 0, 0], "stateRewards": ["", 2, 3, 8, 14, 69, -27, 17, 2, -71, -65, -10, 2, -3, 7, 8, 65, -10, 65, -12, 73, -12, 13, -2, -2, 6, 10, -79, -69, -18, 10, -85, 67, 74], "withholdReward": false, "trial_id": "mdp_trial_28", "block": "test", "trialIndex": 29, "score": 96, "costs": 0, "simulationMode": [null, null, null, null, null], "rewards": [2, 3, 8, 14, 69], "path": ["0", "0", "1", "2", "3", "4", "5"], "rt": [1128, 236, 189, 241, 9083], "actions": ["up", "up", "up", "right", "up"], "actionTimes": [6696, 7479, 8215, 8999, 18616], "queries": {"click": {"state": {"target": [], "time": []}, "edge": {"target": [], "time": []}}, "mouseover": {"state": {"target": [], "time": []}, "edge": {"target": [], "time": []}}, "mouseout": {"state": {"target": [], "time": []}, "edge": {"target": [], "time": []}}}, "displayed_time": "19.80", "trialTime": 21503, "trial_type": "mouselab-mdp", "trial_index": 36, "time_elapsed": 929052, "internal_node_id": "0.0-6.0-1.0-27.0"}}, {"uniqueid": "w13100309:a56490620", "current_trial": 37, "dateTime": 1693661223189, "trialdata": {"revealed_states": [], "clicked_states": [], "num_clicks_accrued": [0, 0, 0, 0, 0, 0, 0, 0, 0, 0, 0, 0, 0], "stateRewards": ["", -2, -2, -3, -6, -15, -11, 41, -12, -63, -76, 2, -2, -3, 8, 9, -36, -2, -18, -16, -32, -85, -17, -2, 1, 5, -16, 82, 35, -88, -1, 80, -82, -20], "withholdReward": false, "trial_id": "mdp_trial_29", "block": "test", "trialIndex": 30, "score": -82, "costs": 0, "simulationMode": [null, null, null, null, null], "rewards": [-2, -2, -3, -12, -63], "path": ["0", "0", "1", "2", "3", "8", "9"], "rt": [1632, 381, 247, 594, 8277], "actions": ["up", "up", "up", "left", "up"], "actionTimes": [4050, 4978, 5754, 6882, 15688], "queries": {"click": {"state": {"target": [], "time": []}, "edge": {"target": [], "time": []}}, "mouseover": {"state": {"target": [], "time": []}, "edge": {"target": [], "time": []}}, "mouseout": {"state": {"target": [], "time": []}, "edge": {"target": [], "time": []}}}, "displayed_time": "16.82", "trialTime": 18771, "trial_type": "mouselab-mdp", "trial_index": 37, "time_elapsed": 948485, "internal_node_id": "0.0-6.0-1.0-28.0"}}, {"uniqueid": "w13100309:a56490620", "current_trial": 38, "dateTime": 1693661241179, "trialdata": {"revealed_states": [], "clicked_states": [], "num_clicks_accrued": [0, 0, 0, 0, 0, 0, 0, 0, 0, 0, 0, 0, 0], "stateRewards": ["", 1, -3, -4, -11, -56, 61, -47, -16, -28, -9, 69, -2, -3, -4, -8, 40, -86, 59, -4, 80, 27, 54, -1, 3, -1, 8, 67, 23, 50, 6, 83, -43, -29], "withholdReward": false, "trial_id": "mdp_trial_30", "block": "test", "trialIndex": 31, "score": -50, "costs": 0, "simulationMode": [null, null, null, null, null], "rewards": [1, -3, -4, -16, -28], "path": ["0", "0", "1", "2", "3", "8", "9"], "rt": [1253, 253, 250, 145, 7805], "actions": ["up", "up", "up", "left", "up"], "actionTimes": [2666, 3467, 4274, 4978, 13323], "queries": {"click": {"state": {"target": [], "time": []}, "edge": {"target": [], "time": []}}, "mouseover": {"state": {"target": [], "time": []}, "edge": {"target": [], "time": []}}, "mouseout": {"state": {"target": ["0", "0"], "time": [574, 1954]}, "edge": {"target": [], "time": []}}}, "displayed_time": "15.90", "trialTime": 17338, "trial_type": "mouselab-mdp", "trial_index": 38, "time_elapsed": 966476, "internal_node_id": "0.0-6.0-1.0-29.0"}}, {"uniqueid": "w13100309:a56490620", "current_trial": 39, "dateTime": 1693661260395, "trialdata": {"revealed_states": [], "clicked_states": [], "num_clicks_accrued": [0, 0, 0, 0, 0, 0, 0, 0, 0, 0, 0, 0, 0], "stateRewards": ["", 1, 1, 7, -11, 80, -20, -53, -14, 3, 31, 27, 2, -1, -8, -10, 33, 41, 86, 9, 78, -37, -13, -1, -2, -6, -8, -80, 75, 4, -16, -49, -74, 24], "withholdReward": false, "trial_id": "mdp_trial_31", "block": "test", "trialIndex": 32, "score": 22, "costs": 0, "simulationMode": [null, null, null, null, null], "rewards": [1, 1, 7, -14, 27], "path": ["0", "0", "1", "2", "3", "8", "11"], "rt": [1629, 437, 318, 428, 5455], "actions": ["up", "up", "up", "left", "left"], "actionTimes": [4030, 5018, 5898, 6852, 12843], "queries": {"click": {"state": {"target": [], "time": []}, "edge": {"target": [], "time": []}}, "mouseover": {"state": {"target": ["23"], "time": [2461]}, "edge": {"target": [], "time": []}}, "mouseout": {"state": {"target": [], "time": []}, "edge": {"target": [], "time": []}}}, "displayed_time": "16.64", "trialTime": 18273, "trial_type": "mouselab-mdp", "trial_index": 39, "time_elapsed": 985691, "internal_node_id": "0.0-6.0-1.0-30.0"}}, {"uniqueid": "w13100309:a56490620", "current_trial": 40, "dateTime": 1693661279635, "trialdata": {"revealed_states": [], "clicked_states": [], "num_clicks_accrued": [0, 0, 0, 0, 0, 0, 0, 0, 0, 0, 0, 0, 0], "stateRewards": ["", -2, 3, -1, -9, 44, 48, -37, -3, 71, -39, 87, -1, 3, -4, 4, -21, 59, -15, -8, -1, 28, -38, 2, 4, 4, 8, -85, -72, -63, 14, 58, 63, -46], "withholdReward": false, "trial_id": "mdp_trial_32", "block": "test", "trialIndex": 33, "score": -42, "costs": 0, "simulationMode": [null, null, null, null, null], "rewards": [-2, 3, -1, -3, -39], "path": ["0", "0", "1", "2", "3", "8", "10"], "rt": [1515, 618, 311, 361, 8970], "actions": ["up", "up", "up", "left", "down"], "actionTimes": [4085, 5229, 6092, 6997, 16525], "queries": {"click": {"state": {"target": [], "time": []}, "edge": {"target": [], "time": []}}, "mouseover": {"state": {"target": [], "time": []}, "edge": {"target": [], "time": []}}, "mouseout": {"state": {"target": ["23"], "time": [1602]}, "edge": {"target": [], "time": []}}}, "displayed_time": "17.07", "trialTime": 18565, "trial_type": "mouselab-mdp", "trial_index": 40, "time_elapsed": 1004932, "internal_node_id": "0.0-6.0-1.0-31.0"}}, {"uniqueid": "w13100309:a56490620", "current_trial": 41, "dateTime": 1693661298554, "trialdata": {"revealed_states": [], "clicked_states": [], "num_clicks_accrued": [0, 0, 0, 0, 0, 0, 0, 0, 0, 0, 0, 0, 0], "stateRewards": ["", 1, 1, 4, 11, 83, -66, 18, -16, -23, 5, 25, 1, -3, 1, -12, 18, 24, -86, -11, -64, 36, 40, 2, 1, -6, 13, 55, 29, 72, -2, 81, -72, -41], "withholdReward": false, "trial_id": "mdp_trial_33", "block": "test", "trialIndex": 34, "score": -5, "costs": 0, "simulationMode": [null, null, null, null, null], "rewards": [1, 1, 4, -16, 5], "path": ["0", "0", "1", "2", "3", "8", "10"], "rt": [1327, 188, 316, 191, 8900], "actions": ["up", "up", "up", "left", "down"], "actionTimes": [3971, 4716, 5570, 6300, 15717], "queries": {"click": {"state": {"target": [], "time": []}, "edge": {"target": [], "time": []}}, "mouseover": {"state": {"target": [], "time": []}, "edge": {"target": [], "time": []}}, "mouseout": {"state": {"target": ["0", "0"], "time": [1243, 1534]}, "edge": {"target": [], "time": []}}}, "displayed_time": "16.95", "trialTime": 18267, "trial_type": "mouselab-mdp", "trial_index": 41, "time_elapsed": 1023851, "internal_node_id": "0.0-6.0-1.0-32.0"}}, {"uniqueid": "w13100309:a56490620", "current_trial": 42, "dateTime": 1693661321954, "trialdata": {"revealed_states": [], "clicked_states": [], "num_clicks_accrued": [0, 0, 0, 0, 0, 0, 0, 0, 0, 0, 0, 0, 0], "stateRewards": ["", -2, 3, -5, -7, 66, 43, -60, -4, -70, -75, 4, -1, 2, 2, -13, 54, 11, -40, -1, 77, 32, 15, -2, 3, -8, -9, -35, 83, -27, 6, -74, -34, 44], "withholdReward": false, "trial_id": "mdp_trial_34", "block": "test", "trialIndex": 35, "score": -78, "costs": 0, "simulationMode": [null, null, null, null, null], "rewards": [-2, 3, -5, -4, -70], "path": ["0", "0", "1", "2", "3", "8", "9"], "rt": [9931, 511, 253, 1813, 3338], "actions": ["up", "up", "up", "left", "up"], "actionTimes": [12431, 13479, 14279, 16622, 20535], "queries": {"click": {"state": {"target": [], "time": []}, "edge": {"target": [], "time": []}}, "mouseover": {"state": {"target": ["0"], "time": [11819]}, "edge": {"target": [], "time": []}}, "mouseout": {"state": {"target": ["0", "0"], "time": [1426, 1879]}, "edge": {"target": [], "time": []}}}, "displayed_time": "21.08", "trialTime": 22774, "trial_type": "mouselab-mdp", "trial_index": 42, "time_elapsed": 1047251, "internal_node_id": "0.0-6.0-1.0-33.0"}}, {"uniqueid": "w13100309:a56490620", "current_trial": 43, "dateTime": 1693661343475, "trialdata": {"revealed_states": [], "clicked_states": [], "num_clicks_accrued": [0, 0, 0, 0, 0, 0, 0, 0, 0, 0, 0, 0, 0], "stateRewards": ["", -2, -1, -6, -14, -55, 78, -13, 11, 14, -71, 59, 2, 2, 6, -6, 9, 38, 14, 7, 85, 11, 68, 1, -4, -1, -3, -63, -85, 9, -2, 63, -86, -10], "withholdReward": false, "trial_id": "mdp_trial_35", "block": "test", "trialIndex": 36, "score": 57, "costs": 0, "simulationMode": [null, null, null, null, null], "rewards": [1, -4, -1, -2, 63], "path": ["0", "0", "23", "24", "25", "30", "31"], "rt": [1760, 359, 543, 325, 4631], "actions": ["left", "left", "left", "down", "right"], "actionTimes": [6095, 6992, 8065, 8922, 14105], "queries": {"click": {"state": {"target": [], "time": []}, "edge": {"target": [], "time": []}}, "mouseover": {"state": {"target": [], "time": []}, "edge": {"target": [], "time": []}}, "mouseout": {"state": {"target": ["0"], "time": [3406]}, "edge": {"target": [], "time": []}}}, "displayed_time": "19.19", "trialTime": 20865, "trial_type": "mouselab-mdp", "trial_index": 43, "time_elapsed": 1068772, "internal_node_id": "0.0-6.0-1.0-34.0"}}, {"uniqueid": "w13100309:a56490620", "current_trial": 44, "dateTime": 1693661361818, "trialdata": {"revealed_states": [], "clicked_states": [], "num_clicks_accrued": [0, 0, 0, 0, 0, 0, 0, 0, 0, 0, 0, 0, 0], "stateRewards": ["", -1, -4, 8, 8, -68, 47, 24, -7, -61, 49, -69, -1, -1, 8, -7, 42, 1, -45, -11, 10, -63, -6, 1, 4, 6, -16, 79, -37, -58, -12, 81, 18, -53], "withholdReward": false, "trial_id": "mdp_trial_36", "block": "test", "trialIndex": 37, "score": -54, "costs": 0, "simulationMode": [null, null, null, null, null], "rewards": [1, 4, 6, -12, -53], "path": ["0", "0", "23", "24", "25", "30", "33"], "rt": [1812, 242, 325, 314, 7100], "actions": ["left", "left", "left", "down", "left"], "actionTimes": [3892, 4691, 5555, 6403, 14043], "queries": {"click": {"state": {"target": [], "time": []}, "edge": {"target": [], "time": []}}, "mouseover": {"state": {"target": [], "time": []}, "edge": {"target": [], "time": []}}, "mouseout": {"state": {"target": ["0"], "time": [1246]}, "edge": {"target": [], "time": []}}}, "displayed_time": "16.39", "trialTime": 17683, "trial_type": "mouselab-mdp", "trial_index": 44, "time_elapsed": 1087115, "internal_node_id": "0.0-6.0-1.0-35.0"}}, {"uniqueid": "w13100309:a56490620", "current_trial": 45, "dateTime": 1693661380334, "trialdata": {"revealed_states": [], "clicked_states": [], "num_clicks_accrued": [0, 0, 0, 0, 0, 0, 0, 0, 0, 0, 0, 0, 0], "stateRewards": ["", 2, 3, -1, 6, 44, -4, -59, -14, -3, 64, 16, 1, -3, 3, 6, 3, 49, 19, 3, -49, -14, -86, 1, 2, -3, -8, -33, 14, 32, -13, -77, -47, -67], "withholdReward": false, "trial_id": "mdp_trial_37", "block": "test", "trialIndex": 38, "score": 6, "costs": 0, "simulationMode": [null, null, null, null, null], "rewards": [1, 2, -3, -8, 14], "path": ["0", "0", "23", "24", "25", "26", "28"], "rt": [1132, 572, 314, 546, 6623], "actions": ["left", "left", "left", "up", "right"], "actionTimes": [3588, 4724, 5588, 6677, 13861], "queries": {"click": {"state": {"target": [], "time": []}, "edge": {"target": [], "time": []}}, "mouseover": {"state": {"target": ["23"], "time": [2514]}, "edge": {"target": [], "time": []}}, "mouseout": {"state": {"target": ["0", "0"], "time": [1124, 1511]}, "edge": {"target": [], "time": []}}}, "displayed_time": "16.54", "trialTime": 17885, "trial_type": "mouselab-mdp", "trial_index": 45, "time_elapsed": 1105630, "internal_node_id": "0.0-6.0-1.0-36.0"}}, {"uniqueid": "w13100309:a56490620", "current_trial": 46, "dateTime": 1693661398498, "trialdata": {"revealed_states": [], "clicked_states": [], "num_clicks_accrued": [0, 0, 0, 0, 0, 0, 0, 0, 0, 0, 0, 0, 0], "stateRewards": ["", 2, -4, 7, 3, 23, -42, 4, 7, -81, -33, 7, -2, -4, 5, -1, 50, -57, -14, -13, -14, 44, 55, -2, -2, 5, -2, 33, 1, 57, -13, -7, 58, 87], "withholdReward": false, "trial_id": "mdp_trial_38", "block": "test", "trialIndex": 39, "score": 56, "costs": 0, "simulationMode": [null, null, null, null, null], "rewards": [-2, -2, 5, -2, 57], "path": ["0", "0", "23", "24", "25", "26", "29"], "rt": [1079, 130, 178, 286, 7764], "actions": ["left", "left", "left", "up", "left"], "actionTimes": [2967, 3631, 4359, 5183, 13488], "queries": {"click": {"state": {"target": [], "time": []}, "edge": {"target": [], "time": []}}, "mouseover": {"state": {"target": [], "time": []}, "edge": {"target": [], "time": []}}, "mouseout": {"state": {"target": ["23", "1"], "time": [827, 1072]}, "edge": {"target": [], "time": []}}}, "displayed_time": "16.17", "trialTime": 17519, "trial_type": "mouselab-mdp", "trial_index": 46, "time_elapsed": 1123795, "internal_node_id": "0.0-6.0-1.0-37.0"}}, {"uniqueid": "w13100309:a56490620", "current_trial": 47, "dateTime": 1693661417882, "trialdata": {"revealed_states": [], "clicked_states": [], "num_clicks_accrued": [0, 0, 0, 0, 0, 0, 0, 0, 0, 0, 0, 0, 0], "stateRewards": ["", 1, -1, -7, -7, -22, 15, -13, 13, 26, -32, 38, -1, 1, -7, -4, 16, -62, 86, 12, -54, 56, 64, -2, -1, 6, 14, -57, 37, 62, -6, -25, 50, -70], "withholdReward": false, "trial_id": "mdp_trial_39", "block": "test", "trialIndex": 40, "score": 1, "costs": 0, "simulationMode": [null, null, null, null, null], "rewards": [1, -1, -7, -7, 15], "path": ["0", "0", "1", "2", "3", "4", "6"], "rt": [3518, 247, 223, 211, 7549], "actions": ["up", "up", "up", "right", "right"], "actionTimes": [5984, 6784, 7576, 8320, 16416], "queries": {"click": {"state": {"target": [], "time": []}, "edge": {"target": [], "time": []}}, "mouseover": {"state": {"target": [], "time": []}, "edge": {"target": [], "time": []}}, "mouseout": {"state": {"target": ["0"], "time": [1795]}, "edge": {"target": [], "time": []}}}, "displayed_time": "16.96", "trialTime": 18752, "trial_type": "mouselab-mdp", "trial_index": 47, "time_elapsed": 1143179, "internal_node_id": "0.0-6.0-1.0-38.0"}}, {"uniqueid": "w13100309:a56490620", "current_trial": 48, "dateTime": 1693661436059, "trialdata": {"revealed_states": [], "clicked_states": [], "num_clicks_accrued": [0, 0, 0, 0, 0, 0, 0, 0, 0, 0, 0, 0, 0], "stateRewards": ["", 1, 1, 1, 15, -76, 52, -32, 14, -57, 37, 49, 1, -4, -3, 6, 83, -76, 25, 9, 36, -1, -17, -1, 4, 4, -2, -22, -21, 58, -15, -57, 49, -24], "withholdReward": false, "trial_id": "mdp_trial_40", "block": "test", "trialIndex": 41, "score": -65, "costs": 0, "simulationMode": [null, null, null, null, null], "rewards": [-1, 4, 4, -15, -57], "path": ["0", "0", "23", "24", "25", "30", "31"], "rt": [957, 78, 77, 273, 8403], "actions": ["left", "left", "left", "down", "right"], "actionTimes": [2918, 3533, 4166, 4982, 13943], "queries": {"click": {"state": {"target": [], "time": []}, "edge": {"target": [], "time": []}}, "mouseover": {"state": {"target": [], "time": []}, "edge": {"target": [], "time": []}}, "mouseout": {"state": {"target": ["0"], "time": [1565]}, "edge": {"target": [], "time": []}}}, "displayed_time": "16.33", "trialTime": 17534, "trial_type": "mouselab-mdp", "trial_index": 48, "time_elapsed": 1161355, "internal_node_id": "0.0-6.0-1.0-39.0"}}, {"uniqueid": "w13100309:a56490620", "current_trial": 49, "dateTime": 1693661473346, "trialdata": {"rt": 37271, "response": {"Q0": "$-16 to 16", "Q1": "$-16 to $16", "Q2": "$-32 to $32", "Q3": "The cost for clicking on nodes varied between nodes.", "Q4": "Very motivated"}, "question_order": [0, 1, 2, 3, 4], "trial_id": "final_quiz_control", "trial_type": "survey-multi-choice", "trial_index": 49, "time_elapsed": 1198643, "internal_node_id": "0.0-6.0-2.0"}}, {"uniqueid": "w13100309:a56490620", "current_trial": 50, "dateTime": 1693661563113, "trialdata": {"rt": 89751, "response": {"Q0": "I took it in a random way, such is gambling.", "Q1": "I was consistent throughout.", "Q2": "It was very similar all the way.  If I was to play again I would use the Inspector. I thought I did not need it! But I was wrong."}, "trial_id": "self_report_control", "trial_type": "survey-text", "trial_index": 50, "time_elapsed": 1288410, "internal_node_id": "0.0-6.0-3.0"}}, {"uniqueid": "w13100309:a56490620", "current_trial": 51, "dateTime": 1693661577306, "trialdata": {"rt": 14187, "response": {"gender": "male", "age": "52", "colorblind": "0", "effort": "0"}, "trial_type": "survey-html-form", "trial_index": 51, "time_elapsed": 1302602, "internal_node_id": "0.0-6.0-4.0"}}, {"uniqueid": "w13100309:a56490620", "current_trial": 52, "dateTime": 1693661623432, "trialdata": {"rt": 46114, "response": {"Q0": "No it was fine but I took a chance not to use the Inspector.", "Q1": "This was my first time.", "Q2": "Please let me do it again!\nThanks for this."}, "trial_type": "survey-text", "trial_index": 52, "time_elapsed": 1348729, "internal_node_id": "0.0-6.0-5.0"}}, {"uniqueid": "w13100309:a56490620", "current_trial": 53, "dateTime": 1693661667415, "trialdata": {"rt": 43980, "stimulus": "<h1>Completion Code Instructions (1/2)</h1>\n<br><br><br><br>\nYou have reached the end of the experiment! The completion code consists of two parts: (1) a code with 2 characters (2) a code with 6 characters. On this page, you will receive the second part of the code. The first part of the completion code will be on the next page.\n<br><br>\nThe second part of your completion code is: <b>EWEK22</b>\n<br><br>\nPlease note this down. Then, press 'Next' in order to find the first part of your completion code. Once the data has been saved, you will receive this code either in this window or in the original browser window where you started the experiment.\n <br><br>\n<h2 style='color: red;'>Note: this is <strong>NOT</strong> the full completion code. Copy this down and click 'Next' to get the full completion code on the next page.</h2>", "response": 0, "trial_type": "html-button-response", "trial_index": 53, "time_elapsed": 1392712, "internal_node_id": "0.0-6.0-6.0"}}, {"uniqueid": "w13100309:a56490620", "current_trial": 54, "dateTime": 1693661668429, "trialdata": {"success": true, "trial_type": "fullscreen", "trial_index": 54, "time_elapsed": 1393726, "internal_node_id": "0.0-7.0"}}], "questiondata": {"params": {"CODE": "C6DMOQA6", "MIN_TIME": 14, "inspectCost": 1, "startTime": "Sat Sep 02 2023 14:11:14 GMT+0100 (Irish Standard Time)", "bonusRate": 0.002, "variance": "1_2_4_8_44", "branching": "31123"}, "final_score": -382}, "eventdata": [{"eventtype": "initialized", "value": null, "timestamp": 1693660273551, "interval": 0}, {"eventtype": "window_resize", "value": [1440, 796], "timestamp": 1693660273551, "interval": 0}, {"eventtype": "focus", "value": "on", "timestamp": 1693660273682, "interval": 131}, {"eventtype": "window_resize", "value": [1440, 796], "timestamp": 1693660273894, "interval": 212}, {"eventtype": "window_resize", "value": [1440, 900], "timestamp": 1693660276883, "interval": 2989}, {"eventtype": "window_resize", "value": [1440, 796], "timestamp": 1693661667942, "interval": 1391059}], "useragent": "Mozilla/5.0 (Windows NT 10.0; Win64; x64; rv:109.0) Gecko/20100101 Firefox/117.0", "mode": "live", "id": "w13100309:a56490620", "status": "user data saved", "Beginhit": "2023-09-02 13:11:11.107732", "Beginexp": "2023-09-02 13:11:16.75926", "Endhit": "2023-09-02 13:34:28.504101", "psiturkStatus": 3, "browser": "<redacted>", "platform": "windows", "language": "en-US"}