{"condition": 0, "counterbalance": 0, "assignmentId": "a67416506", "workerId": "w71161066", "hitId": "h88933905", "currenttrial": 55, "bonus": 0, "data": [{"uniqueid": "w71161066:a67416506", "current_trial": 0, "dateTime": 1693568473899, "trialdata": {"success": true, "trial_type": "fullscreen", "trial_index": 0, "time_elapsed": 5295, "internal_node_id": "0.0-0.0"}}, {"uniqueid": "w71161066:a67416506", "current_trial": 1, "dateTime": 1693568494730, "trialdata": {"view_history": [{"page_index": 0, "viewing_time": 20824}], "rt": 20824, "trial_id": "exp_instructions_control", "trial_type": "instructions", "trial_index": 1, "time_elapsed": 26126, "internal_node_id": "0.0-1.0"}}, {"uniqueid": "w71161066:a67416506", "current_trial": 2, "dateTime": 1693568796036, "trialdata": {"view_history": [{"page_index": 0, "viewing_time": 155438}, {"page_index": 1, "viewing_time": 113216}, {"page_index": 2, "viewing_time": 25408}, {"page_index": 3, "viewing_time": 7240}], "rt": 301303, "trial_id": "mouselab_instructions_1_control", "trial_type": "instructions", "trial_index": 2, "time_elapsed": 327432, "internal_node_id": "0.0-2.0-1.0"}}, {"uniqueid": "w71161066:a67416506", "current_trial": 3, "dateTime": 1693568810223, "trialdata": {"revealed_states": [], "clicked_states": [], "num_clicks_accrued": [0, 0, 0, 0, 0, 0, 0, 0, 0, 0, 0, 0, 0], "stateRewards": ["", 10, -10, -10, 10, -10, -10, 10, 10, 10, -10, 10, 10, -10, -10, 10, -10, -10, 10, -10, 10, -10, -10, 10, -10, -10, -10, 10, 10, -10, 10, -10, 10, 10], "withholdReward": false, "trial_id": "practice_1", "block": "test", "trialIndex": 0, "score": 13.5, "costs": 0, "simulationMode": [null, null, null, null, null], "rewards": [10, -10, -10, 10, 10], "path": ["0", "0", "1", "2", "3", "8", "11"], "rt": [1477, 1120, 215, 1018, 22], "actions": ["up", "up", "up", "left", "left"], "actionTimes": [4580, 6211, 6931, 8467, 9002], "queries": {"click": {"state": {"target": [], "time": []}, "edge": {"target": [], "time": []}}, "mouseover": {"state": {"target": [], "time": []}, "edge": {"target": [], "time": []}}, "mouseout": {"state": {"target": ["12", "12", "0"], "time": [698, 1514, 10842]}, "edge": {"target": [], "time": []}}}, "displayed_time": "9.53", "trialTime": 13740, "trial_type": "mouselab-mdp", "trial_index": 3, "time_elapsed": 341618, "internal_node_id": "0.0-2.0-2.0-0.0"}}, {"uniqueid": "w71161066:a67416506", "current_trial": 4, "dateTime": 1693568820060, "trialdata": {"revealed_states": [], "clicked_states": [], "num_clicks_accrued": [0, 0, 0, 0, 0, 0, 0, 0, 0, 0, 0, 0, 0], "stateRewards": ["", 10, 10, -10, -10, 10, -10, -10, 10, 10, 10, 10, -10, -10, -10, 10, 10, 10, 10, -10, -10, 10, 10, -10, -10, -10, -10, 10, 10, -10, -10, -10, 10, -10], "withholdReward": false, "trial_id": "practice_2", "block": "test", "trialIndex": 1, "score": -6.5, "costs": 0, "simulationMode": [null, null, null, null, null], "rewards": [10, 10, -10, -10, -10], "path": ["0", "0", "1", "2", "3", "4", "6"], "rt": [844, 11, 71, 301, 289], "actions": ["up", "up", "up", "right", "right"], "actionTimes": [4115, 4634, 5226, 6035, 6835], "queries": {"click": {"state": {"target": [], "time": []}, "edge": {"target": [], "time": []}}, "mouseover": {"state": {"target": [], "time": []}, "edge": {"target": [], "time": []}}, "mouseout": {"state": {"target": [], "time": []}, "edge": {"target": [], "time": []}}}, "displayed_time": "7.34", "trialTime": 9675, "trial_type": "mouselab-mdp", "trial_index": 4, "time_elapsed": 351456, "internal_node_id": "0.0-2.0-2.0-1.0"}}, {"uniqueid": "w71161066:a67416506", "current_trial": 5, "dateTime": 1693568858908, "trialdata": {"view_history": [{"page_index": 0, "viewing_time": 35163}, {"page_index": 1, "viewing_time": 3680}], "rt": 38844, "trial_id": "mouselab_instructions_2_control", "trial_type": "instructions", "trial_index": 5, "time_elapsed": 390303, "internal_node_id": "0.0-2.0-3.0"}}, {"uniqueid": "w71161066:a67416506", "current_trial": 6, "dateTime": 1693568917598, "trialdata": {"rt": 58686, "response": {"Q0": "The cost for clicking on nodes may vary between nodes.", "Q1": "The better I perform the higher my bonus will be.", "Q2": "No, the amount of cash at each node of the web may be different each time.", "Q3": "To get the highest total score.", "Q4": "Only before moving the spider.", "Q5": "3 seconds"}, "question_order": [0, 1, 2, 3, 4, 5], "correct": {"Q0": "The cost for clicking on nodes may vary between nodes.", "Q1": "The better I perform the higher my bonus will be.", "Q2": "No, the amount of cash at each node of the web may be different each time.", "Q3": "To get the highest total score.", "Q4": "Only before moving the spider.", "Q5": "3 seconds"}, "trial_id": "mouselab_quiz_control", "trial_type": "survey-multi-choice", "trial_index": 6, "time_elapsed": 448994, "internal_node_id": "0.0-2.0-4.0"}}, {"uniqueid": "w71161066:a67416506", "current_trial": 7, "dateTime": 1693568924941, "trialdata": {"rt": 7338, "response": {"Q0": "No"}, "question_order": [0], "trial_id": "repeat_check", "trial_type": "survey-multi-choice", "trial_index": 7, "time_elapsed": 456337, "internal_node_id": "0.0-4.0-0.0"}}, {"uniqueid": "w71161066:a67416506", "current_trial": 8, "dateTime": 1693568944688, "trialdata": {"rt": 19741, "stimulus": "\n<h1> Get ready to start the game! </h1>\n\nThank you for reading the instructions. Get ready start with the 40 rounds of this game.\n<br><br>\nIf you need to take a break, feel free to take one after the end of a round, before continuing to the next one.\n<br><br>\nRemember, the more money the spider gets, the bigger your bonus will be!\n<br><br>\n<div style='text-align: center;'>Press <code>space</code> to begin.</div>\n\n<br><br>\n(If, at any point, the <code>space</code> key does not take you to the next page, click once on the text and try again.)", "response": " ", "trial_id": "mdp_ready", "trial_type": "html-keyboard-response", "trial_index": 8, "time_elapsed": 476084, "internal_node_id": "0.0-6.0-0.0"}}, {"uniqueid": "w71161066:a67416506", "current_trial": 9, "dateTime": 1693568963785, "trialdata": {"revealed_states": [], "clicked_states": ["1"], "num_clicks_accrued": [0, 0, 0, 0, 0, 0, 0, 0, 0, 0, 0, 0, 0], "stateRewards": ["", 1, -2, -8, -13, 4, 34, -84, -4, -49, 88, -70, -1, 3, -4, 10, -77, 13, -34, 15, -21, -16, 27, 1, -2, 8, -8, -6, 38, -26, 6, -15, 66, -3], "withholdReward": false, "trial_id": "mdp_trial_1", "block": "test", "trialIndex": 2, "score": -8.4, "costs": -1.4, "simulationMode": [null, null, null, null, null], "rewards": [1, -2, 8, -8, -6], "path": ["0", "0", "23", "24", "25", "26", "27"], "rt": [3102, 188, 29, 763, 266], "actions": ["left", "left", "left", "up", "up"], "actionTimes": [5379, 6083, 6627, 7907, 8707], "queries": {"click": {"state": {"target": ["1"], "time": [3360]}, "edge": {"target": [], "time": []}}, "mouseover": {"state": {"target": ["0", "1"], "time": [2545, 3145]}, "edge": {"target": [], "time": []}}, "mouseout": {"state": {"target": ["8", "11", "22", "13", "12", "12", "0", "0", "1", "23", "24", "23", "23"], "time": [287, 315, 1191, 1283, 1298, 1566, 2394, 3083, 4003, 10863, 11647, 11866, 17929]}, "edge": {"target": [], "time": []}}}, "displayed_time": "16.28", "trialTime": 18915, "trial_type": "mouselab-mdp", "trial_index": 9, "time_elapsed": 495180, "internal_node_id": "0.0-6.0-1.0-0.0"}}, {"uniqueid": "w71161066:a67416506", "current_trial": 10, "dateTime": 1693568980049, "trialdata": {"revealed_states": [], "clicked_states": ["12"], "num_clicks_accrued": [0, 0, 0, 0, 0, 0, 0, 0, 0, 0, 0, 0, 0], "stateRewards": ["", 2, 3, -3, 4, 72, -28, 34, -12, 57, -64, -15, 2, 1, -4, -15, 2, 49, 31, -1, -42, -58, 31, -2, 1, -2, -13, -75, -19, -22, -6, 61, 10, -56], "withholdReward": false, "trial_id": "mdp_trial_2", "block": "test", "trialIndex": 3, "score": -26.4, "costs": -1.4, "simulationMode": [null, null, null, null, null], "rewards": [2, 3, -3, -12, -15], "path": ["0", "0", "1", "2", "3", "8", "11"], "rt": [5843, 476, 299, 447, 62], "actions": ["up", "up", "up", "left", "left"], "actionTimes": [7285, 8277, 9085, 10045, 10613], "queries": {"click": {"state": {"target": ["12"], "time": [2316]}, "edge": {"target": [], "time": []}}, "mouseover": {"state": {"target": ["12", "23", "1"], "time": [1893, 2955, 3955]}, "edge": {"target": [], "time": []}}, "mouseout": {"state": {"target": ["0", "0", "12", "23", "1", "12", "12", "10", "11", "11", "8"], "time": [864, 1845, 2721, 3911, 4349, 4786, 13567, 13897, 14022, 14474, 14613]}, "edge": {"target": [], "time": []}}}, "displayed_time": "15.44", "trialTime": 16101, "trial_type": "mouselab-mdp", "trial_index": 10, "time_elapsed": 511444, "internal_node_id": "0.0-6.0-1.0-1.0"}}, {"uniqueid": "w71161066:a67416506", "current_trial": 11, "dateTime": 1693568999225, "trialdata": {"revealed_states": [], "clicked_states": [], "num_clicks_accrued": [0, 0, 0, 0, 0, 0, 0, 0, 0, 0, 0, 0, 0], "stateRewards": ["", -2, 2, -5, -6, 10, -66, -58, -10, -11, -63, -70, -1, -4, -5, 7, 66, -64, -43, -3, 45, -37, 4, -2, -2, -6, -4, -30, 33, 43, 15, -32, -65, -59], "withholdReward": false, "trial_id": "mdp_trial_3", "block": "test", "trialIndex": 4, "score": -50, "costs": 0, "simulationMode": [null, null, null, null, null], "rewards": [-1, -4, -5, -3, -37], "path": ["0", "0", "12", "13", "14", "19", "21"], "rt": [1600, 201, 1058, 568, 466], "actions": ["right", "right", "right", "down", "down"], "actionTimes": [2877, 3589, 5165, 6237, 7213], "queries": {"click": {"state": {"target": [], "time": []}, "edge": {"target": [], "time": []}}, "mouseover": {"state": {"target": ["12"], "time": [1859]}, "edge": {"target": [], "time": []}}, "mouseout": {"state": {"target": ["12", "0", "23", "24", "25", "24", "23"], "time": [8468, 9047, 15780, 16187, 17343, 17419, 17625]}, "edge": {"target": [], "time": []}}}, "displayed_time": "15.28", "trialTime": 19005, "trial_type": "mouselab-mdp", "trial_index": 11, "time_elapsed": 530620, "internal_node_id": "0.0-6.0-1.0-2.0"}}, {"uniqueid": "w71161066:a67416506", "current_trial": 12, "dateTime": 1693569017761, "trialdata": {"revealed_states": [], "clicked_states": ["23", "12", "1"], "num_clicks_accrued": [0, 0, 0, 0, 0, 0, 0, 0, 0, 0, 0, 0, 0], "stateRewards": ["", -2, 2, -5, 1, 42, -63, -58, -6, 2, 16, 81, -2, 4, 7, -10, 33, 3, -33, -2, -52, -84, -27, 2, -3, -3, 15, -74, -14, -5, -5, -84, 79, -31], "withholdReward": false, "trial_id": "mdp_trial_4", "block": "test", "trialIndex": 5, "score": 65.8, "costs": -4.199999999999999, "simulationMode": [null, null, null, null, null], "rewards": [2, -3, -3, -5, 79], "path": ["0", "0", "23", "24", "25", "30", "32"], "rt": [10845, 16, 133, 644, 88], "actions": ["left", "left", "left", "down", "down"], "actionTimes": [11988, 12515, 13180, 14332, 14932], "queries": {"click": {"state": {"target": ["23", "12", "1"], "time": [2241, 5288, 7889]}, "edge": {"target": [], "time": []}}, "mouseover": {"state": {"target": ["23", "23", "0", "12", "12", "1", "1", "23"], "time": [1536, 1858, 2686, 2749, 3155, 6687, 7613, 9768]}, "edge": {"target": [], "time": []}}, "mouseout": {"state": {"target": ["0", "23", "23", "23", "0", "12", "12", "1", "1"], "time": [1517, 1560, 2459, 2670, 2734, 2937, 6359, 7359, 8104]}, "edge": {"target": [], "time": []}}}, "displayed_time": "15.44", "trialTime": 18356, "trial_type": "mouselab-mdp", "trial_index": 12, "time_elapsed": 549156, "internal_node_id": "0.0-6.0-1.0-3.0"}}, {"uniqueid": "w71161066:a67416506", "current_trial": 13, "dateTime": 1693569038771, "trialdata": {"revealed_states": [], "clicked_states": [], "num_clicks_accrued": [0, 0, 0, 0, 0, 0, 0, 0, 0, 0, 0, 0, 0], "stateRewards": ["", 1, 2, -6, -13, -51, 22, -4, -12, -44, -12, 6, -2, -2, -2, -14, -46, -4, -77, -2, 36, -79, 41, 2, -4, 2, -6, -55, 59, 70, -5, 39, -19, 24], "withholdReward": false, "trial_id": "mdp_trial_5", "block": "test", "trialIndex": 6, "score": -97, "costs": 0, "simulationMode": [null, null, null, null, null], "rewards": [-2, -2, -2, -14, -77], "path": ["0", "0", "12", "13", "14", "15", "18"], "rt": [5219, 8, 215, 1546, 1163], "actions": ["right", "right", "right", "up", "left"], "actionTimes": [7913, 8430, 9169, 11233, 12915], "queries": {"click": {"state": {"target": [], "time": []}, "edge": {"target": [], "time": []}}, "mouseover": {"state": {"target": ["1", "2", "3", "6", "16", "14", "13", "12"], "time": [3299, 3375, 3438, 3642, 3798, 4142, 5015, 5549]}, "edge": {"target": [], "time": []}}, "mouseout": {"state": {"target": ["23", "0", "1", "2", "3", "6", "16", "14", "13", "12", "0", "23", "25", "24", "23"], "time": [1454, 3174, 3343, 3422, 3483, 3662, 3829, 5002, 5029, 17488, 18005, 18063, 19565, 19610, 19879]}, "edge": {"target": [], "time": []}}}, "displayed_time": "16.70", "trialTime": 20835, "trial_type": "mouselab-mdp", "trial_index": 13, "time_elapsed": 570166, "internal_node_id": "0.0-6.0-1.0-4.0"}}, {"uniqueid": "w71161066:a67416506", "current_trial": 14, "dateTime": 1693569057915, "trialdata": {"revealed_states": [], "clicked_states": [], "num_clicks_accrued": [0, 0, 0, 0, 0, 0, 0, 0, 0, 0, 0, 0, 0], "stateRewards": ["", 1, -1, -7, -7, -22, 15, -13, 13, 26, -32, 38, -1, 1, -7, -4, 16, -62, 86, 12, -54, 56, 64, -2, -1, 6, 14, -57, 37, 62, -6, -25, 50, -70], "withholdReward": false, "trial_id": "mdp_trial_6", "block": "test", "trialIndex": 7, "score": -27, "costs": 0, "simulationMode": [null, null, null, null, null], "rewards": [1, -1, -7, -7, -13], "path": ["0", "0", "1", "2", "3", "4", "7"], "rt": [1226, 661, 2313, 61, 372], "actions": ["up", "up", "up", "right", "down"], "actionTimes": [2994, 4170, 6994, 7569, 8458], "queries": {"click": {"state": {"target": [], "time": []}, "edge": {"target": [], "time": []}}, "mouseover": {"state": {"target": [], "time": []}, "edge": {"target": [], "time": []}}, "mouseout": {"state": {"target": ["0"], "time": [9368]}, "edge": {"target": [], "time": []}}}, "displayed_time": "15.77", "trialTime": 18970, "trial_type": "mouselab-mdp", "trial_index": 14, "time_elapsed": 589310, "internal_node_id": "0.0-6.0-1.0-5.0"}}, {"uniqueid": "w71161066:a67416506", "current_trial": 15, "dateTime": 1693569077483, "trialdata": {"revealed_states": [], "clicked_states": ["8", "2"], "num_clicks_accrued": [0, 0, 0, 0, 0, 0, 0, 0, 0, 0, 0, 0, 0], "stateRewards": ["", 1, -3, -6, -5, 47, 80, -29, 11, -71, 10, -29, -2, 3, -6, 12, 2, -78, -6, 8, 34, -16, -5, -1, 3, 3, -13, 84, -36, -62, -3, -27, 66, 15], "withholdReward": false, "trial_id": "mdp_trial_7", "block": "test", "trialIndex": 8, "score": 64.2, "costs": -2.8, "simulationMode": [null, null, null, null, null], "rewards": [1, -3, -6, -5, 80], "path": ["0", "0", "1", "2", "3", "4", "6"], "rt": [6764, 579, 28, 420, 574], "actions": ["up", "up", "up", "right", "right"], "actionTimes": [9423, 10519, 11062, 11999, 13095], "queries": {"click": {"state": {"target": ["8", "2"], "time": [3877, 6305]}, "edge": {"target": [], "time": []}}, "mouseover": {"state": {"target": ["1", "2", "8", "3", "2", "3"], "time": [3019, 3141, 3614, 4845, 5017, 7735]}, "edge": {"target": [], "time": []}}, "mouseout": {"state": {"target": ["23", "6", "2", "1", "0", "1", "2", "8", "3", "2", "3"], "time": [863, 1627, 1815, 1890, 2767, 3113, 3172, 4656, 4861, 7173, 7752]}, "edge": {"target": [], "time": []}}}, "displayed_time": "16.66", "trialTime": 19391, "trial_type": "mouselab-mdp", "trial_index": 15, "time_elapsed": 608878, "internal_node_id": "0.0-6.0-1.0-6.0"}}, {"uniqueid": "w71161066:a67416506", "current_trial": 16, "dateTime": 1693569099546, "trialdata": {"revealed_states": [], "clicked_states": [], "num_clicks_accrued": [0, 0, 0, 0, 0, 0, 0, 0, 0, 0, 0, 0, 0], "stateRewards": ["", -2, 1, -3, -16, -39, -52, 30, -7, -41, -59, 11, 2, 1, 8, 2, -11, -26, -42, -13, 87, -59, -48, -1, -1, -1, 16, -79, 31, 50, -1, -84, 34, -82], "withholdReward": false, "trial_id": "mdp_trial_8", "block": "test", "trialIndex": 9, "score": -70, "costs": 0, "simulationMode": [null, null, null, null, null], "rewards": [-2, 1, -3, -7, -59], "path": ["0", "0", "1", "2", "3", "8", "10"], "rt": [1728, 26, 31, 598, 813], "actions": ["up", "up", "up", "left", "down"], "actionTimes": [5870, 6413, 6965, 8077, 9405], "queries": {"click": {"state": {"target": [], "time": []}, "edge": {"target": [], "time": []}}, "mouseover": {"state": {"target": ["2"], "time": [4764]}, "edge": {"target": [], "time": []}}, "mouseout": {"state": {"target": ["21", "22", "0", "2", "1", "0", "0", "0"], "time": [3416, 3573, 4308, 4872, 12184, 12229, 19437, 21843]}, "edge": {"target": [], "time": []}}}, "displayed_time": "18.14", "trialTime": 21887, "trial_type": "mouselab-mdp", "trial_index": 16, "time_elapsed": 630942, "internal_node_id": "0.0-6.0-1.0-7.0"}}, {"uniqueid": "w71161066:a67416506", "current_trial": 17, "dateTime": 1693569119164, "trialdata": {"revealed_states": [], "clicked_states": ["23", "12", "25"], "num_clicks_accrued": [0, 0, 0, 0, 0, 0, 0, 0, 0, 0, 0, 0, 0], "stateRewards": ["", 1, 4, 5, -5, 58, -80, 75, 6, 25, -39, 46, 2, -2, 4, 2, 59, 31, -22, -12, -61, 15, 72, 1, -2, -7, 8, 77, 76, -23, -7, 71, -15, -3], "withholdReward": false, "trial_id": "mdp_trial_9", "block": "test", "trialIndex": 10, "score": -34.2, "costs": -4.199999999999999, "simulationMode": [null, null, null, null, null], "rewards": [1, -2, -7, -7, -15], "path": ["0", "0", "23", "24", "25", "30", "32"], "rt": [8737, 514, 649, 539, 22], "actions": ["left", "left", "left", "down", "down"], "actionTimes": [10050, 11075, 12242, 13290, 13818], "queries": {"click": {"state": {"target": ["23", "12", "25"], "time": [2548, 4660, 7360]}, "edge": {"target": [], "time": []}}, "mouseover": {"state": {"target": ["31", "23", "0", "12", "12", "12", "1", "1", "2", "31", "24", "25", "24", "23"], "time": [1890, 2188, 2951, 2998, 3279, 3653, 5482, 5764, 6076, 6531, 6782, 7091, 7935, 8388]}, "edge": {"target": [], "time": []}}, "mouseout": {"state": {"target": ["0", "31", "23", "0", "12", "12", "12", "1", "1", "2", "31", "24", "25", "24", "23", "25", "0", "23"], "time": [1595, 1992, 2935, 2981, 3139, 3341, 5263, 5513, 5873, 6281, 6689, 6875, 7841, 8263, 8482, 9360, 18703, 19320]}, "edge": {"target": [], "time": []}}}, "displayed_time": "15.31", "trialTime": 19442, "trial_type": "mouselab-mdp", "trial_index": 17, "time_elapsed": 650559, "internal_node_id": "0.0-6.0-1.0-8.0"}}, {"uniqueid": "w71161066:a67416506", "current_trial": 18, "dateTime": 1693569140325, "trialdata": {"revealed_states": [], "clicked_states": [], "num_clicks_accrued": [0, 0, 0, 0, 0, 0, 0, 0, 0, 0, 0, 0, 0], "stateRewards": ["", 2, 3, 6, -5, -74, -53, 17, -12, 46, 44, 18, -2, 4, 1, -8, 22, -23, -49, 9, -45, 55, 81, 1, -1, -7, -16, -83, -71, -45, 2, 51, 82, 61], "withholdReward": false, "trial_id": "mdp_trial_10", "block": "test", "trialIndex": 11, "score": -106, "costs": 0, "simulationMode": [null, null, null, null, null], "rewards": [1, -1, -7, -16, -83], "path": ["0", "0", "23", "24", "25", "26", "27"], "rt": [10442, 125, 2118, 653, 40], "actions": ["left", "left", "left", "up", "up"], "actionTimes": [12998, 13630, 16262, 17423, 17982], "queries": {"click": {"state": {"target": [], "time": []}, "edge": {"target": [], "time": []}}, "mouseover": {"state": {"target": ["23", "31"], "time": [3692, 5771]}, "edge": {"target": [], "time": []}}, "mouseout": {"state": {"target": ["23", "0", "23", "31", "18", "7", "2", "2"], "time": [832, 3506, 3737, 6018, 15334, 15928, 19708, 19942]}, "edge": {"target": [], "time": []}}}, "displayed_time": "18.50", "trialTime": 20982, "trial_type": "mouselab-mdp", "trial_index": 18, "time_elapsed": 671720, "internal_node_id": "0.0-6.0-1.0-9.0"}}, {"uniqueid": "w71161066:a67416506", "current_trial": 19, "dateTime": 1693569158734, "trialdata": {"revealed_states": [], "clicked_states": [], "num_clicks_accrued": [0, 0, 0, 0, 0, 0, 0, 0, 0, 0, 0, 0, 0], "stateRewards": ["", -1, -3, -6, 14, 41, 18, 63, -14, 80, 21, 17, -2, -4, -2, -5, 13, 70, 8, -4, -64, -10, -20, 2, -1, 4, -1, -17, -55, 42, -7, 47, 54, 15], "withholdReward": false, "trial_id": "mdp_trial_11", "block": "test", "trialIndex": 12, "score": 0, "costs": 0, "simulationMode": [null, null, null, null, null], "rewards": [-2, -4, -2, -5, 13], "path": ["0", "0", "12", "13", "14", "15", "16"], "rt": [1785, 293, 361, 1390, 140], "actions": ["right", "right", "right", "up", "up"], "actionTimes": [4440, 5248, 6128, 8032, 8688], "queries": {"click": {"state": {"target": [], "time": []}, "edge": {"target": [], "time": []}}, "mouseover": {"state": {"target": [], "time": []}, "edge": {"target": [], "time": []}}, "mouseout": {"state": {"target": ["1", "0"], "time": [1347, 3238]}, "edge": {"target": [], "time": []}}}, "displayed_time": "16.66", "trialTime": 18234, "trial_type": "mouselab-mdp", "trial_index": 19, "time_elapsed": 690129, "internal_node_id": "0.0-6.0-1.0-10.0"}}, {"uniqueid": "w71161066:a67416506", "current_trial": 20, "dateTime": 1693569179910, "trialdata": {"revealed_states": [], "clicked_states": ["3", "10"], "num_clicks_accrued": [0, 0, 0, 0, 0, 0, 0, 0, 0, 0, 0, 0, 0], "stateRewards": ["", 2, -1, -1, 7, 11, -40, -22, -2, 69, 37, 8, -2, 4, -8, -12, -2, -72, -3, -12, 17, 63, 12, 1, 3, -7, 6, 25, 61, 61, -9, 28, -17, 27], "withholdReward": false, "trial_id": "mdp_trial_12", "block": "test", "trialIndex": 13, "score": 3.2, "costs": -2.8, "simulationMode": [null, null, null, null, null, null], "rewards": [2, -1, -1, -2, 8], "path": ["0", "0", "1", "2", "3", "8", "11"], "rt": [5276, 4541, 76, 283, 357, 162], "actions": ["up", "up", "up", "up", "left", "left"], "actionTimes": [10785, 15329, 15912, 16713, 17585, 18265], "queries": {"click": {"state": {"target": ["3", "10"], "time": [7247, 9478]}, "edge": {"target": [], "time": []}}, "mouseover": {"state": {"target": ["10", "8", "9", "9", "3", "2", "1", "10", "2", "2", "1", "1", "28", "1", "2", "7"], "time": [5979, 6002, 6038, 6291, 6710, 8242, 8413, 9307, 11764, 12008, 12416, 13105, 13385, 13683, 14448, 14522]}, "edge": {"target": [], "time": []}}, "mouseout": {"state": {"target": ["23", "24", "33", "10", "8", "9", "9", "3", "2", "1", "10", "2", "2", "1", "1", "28", "1", "2", "7", "1", "0"], "time": [2275, 2289, 2432, 5999, 6014, 6135, 6651, 8054, 8320, 8932, 10180, 11994, 12055, 12870, 13276, 13525, 13705, 14466, 14651, 20291, 20352]}, "edge": {"target": [], "time": []}}}, "displayed_time": "19.51", "trialTime": 20993, "trial_type": "mouselab-mdp", "trial_index": 20, "time_elapsed": 711305, "internal_node_id": "0.0-6.0-1.0-11.0"}}, {"uniqueid": "w71161066:a67416506", "current_trial": 21, "dateTime": 1693569197366, "trialdata": {"revealed_states": [], "clicked_states": ["3"], "num_clicks_accrued": [0, 0, 0, 0, 0, 0, 0, 0, 0, 0, 0, 0, 0], "stateRewards": ["", -2, 1, 6, -2, -10, -78, -69, 14, -15, 7, -1, 1, -1, -2, 13, 77, 32, 87, 5, -74, 30, -26, 1, 3, 4, 12, 39, 54, -43, 2, 10, 23, 13], "withholdReward": false, "trial_id": "mdp_trial_13", "block": "test", "trialIndex": 14, "score": 16.6, "costs": -1.4, "simulationMode": [null, null, null, null, null], "rewards": [-2, 1, 6, 14, -1], "path": ["0", "0", "1", "2", "3", "8", "11"], "rt": [3329, 49, 558, 529, 154], "actions": ["up", "up", "up", "left", "left"], "actionTimes": [5358, 5925, 6998, 8046, 8718], "queries": {"click": {"state": {"target": ["3"], "time": [3039]}, "edge": {"target": [], "time": []}}, "mouseover": {"state": {"target": ["8", "9", "3", "2", "1"], "time": [2425, 2469, 2831, 4000, 4096]}, "edge": {"target": [], "time": []}}, "mouseout": {"state": {"target": ["0", "8", "9", "3", "2", "1", "1", "28", "26"], "time": [2253, 2441, 2628, 3814, 4063, 6297, 16784, 16956, 16969]}, "edge": {"target": [], "time": []}}}, "displayed_time": "16.03", "trialTime": 17270, "trial_type": "mouselab-mdp", "trial_index": 21, "time_elapsed": 728761, "internal_node_id": "0.0-6.0-1.0-12.0"}}, {"uniqueid": "w71161066:a67416506", "current_trial": 22, "dateTime": 1693569214351, "trialdata": {"revealed_states": [], "clicked_states": ["14"], "num_clicks_accrued": [0, 0, 0, 0, 0, 0, 0, 0, 0, 0, 0, 0, 0], "stateRewards": ["", 1, -3, 4, 13, -72, 52, 5, 5, -58, 5, 14, 2, 1, 3, -14, -86, -4, 73, 6, -58, -50, 49, 2, -3, -4, 2, 33, -41, 42, -11, 81, 45, 53], "withholdReward": false, "trial_id": "mdp_trial_14", "block": "test", "trialIndex": 15, "score": -95.4, "costs": -1.4, "simulationMode": [null, null, null, null, null], "rewards": [2, 1, 3, -14, -86], "path": ["0", "0", "12", "13", "14", "15", "16"], "rt": [3730, 431, 397, 1251, 382], "actions": ["right", "right", "right", "up", "up"], "actionTimes": [5834, 6794, 7698, 9457, 10354], "queries": {"click": {"state": {"target": ["14"], "time": [3408]}, "edge": {"target": [], "time": []}}, "mouseover": {"state": {"target": ["1", "7", "18", "14", "12", "13"], "time": [2379, 2739, 2862, 2988, 4845, 4939]}, "edge": {"target": [], "time": []}}, "mouseout": {"state": {"target": ["1", "7", "18", "14", "12", "13", "18", "15"], "time": [2395, 2815, 2878, 3688, 4892, 7205, 7426, 7566]}, "edge": {"target": [], "time": []}}}, "displayed_time": "16.11", "trialTime": 16803, "trial_type": "mouselab-mdp", "trial_index": 22, "time_elapsed": 745746, "internal_node_id": "0.0-6.0-1.0-13.0"}}, {"uniqueid": "w71161066:a67416506", "current_trial": 23, "dateTime": 1693569231592, "trialdata": {"revealed_states": [], "clicked_states": ["25", "23", "24"], "num_clicks_accrued": [0, 0, 0, 0, 0, 0, 0, 0, 0, 0, 0, 0, 0], "stateRewards": ["", 1, -1, 4, 5, -32, 18, 20, 6, -88, -74, 9, -2, 1, -2, -14, 34, -77, -38, -1, 80, -36, 73, 2, 3, -8, 10, -48, -73, -71, -11, -22, 20, 54], "withholdReward": false, "trial_id": "mdp_trial_15", "block": "test", "trialIndex": 16, "score": 1.8000000000000007, "costs": -4.199999999999999, "simulationMode": [null, null, null, null, null, null], "rewards": [2, 3, -8, -11, 20], "path": ["0", "0", "23", "24", "25", "30", "32"], "rt": [6407, 455, 502, 495, 622, 146], "actions": ["left", "left", "left", "left", "down", "down"], "actionTimes": [7992, 8449, 9473, 10481, 11609, 12273], "queries": {"click": {"state": {"target": ["25", "23", "24"], "time": [3319, 4842, 6831]}, "edge": {"target": [], "time": []}}, "mouseover": {"state": {"target": ["12", "13", "14", "14", "13", "12", "0", "23", "24", "25", "24", "23", "24"], "time": [1926, 1952, 2301, 2473, 2533, 2549, 2565, 2626, 2862, 3110, 3721, 3877, 5485]}, "edge": {"target": [], "time": []}}, "mouseout": {"state": {"target": ["15", "18", "12", "13", "14", "14", "13", "12", "0", "23", "24", "25", "24", "23", "24", "24"], "time": [394, 438, 1949, 2080, 2344, 2532, 2548, 2564, 2579, 2848, 3067, 3674, 3783, 5174, 8516, 16411]}, "edge": {"target": [], "time": []}}}, "displayed_time": "15.59", "trialTime": 17057, "trial_type": "mouselab-mdp", "trial_index": 23, "time_elapsed": 762987, "internal_node_id": "0.0-6.0-1.0-14.0"}}, {"uniqueid": "w71161066:a67416506", "current_trial": 24, "dateTime": 1693569249015, "trialdata": {"revealed_states": [], "clicked_states": [], "num_clicks_accrued": [0, 0, 0, 0, 0, 0, 0, 0, 0, 0, 0, 0, 0], "stateRewards": ["", -2, 4, -3, -13, 63, -36, 62, 11, 78, 34, -51, 2, -2, 8, -6, -40, -18, 31, 9, 64, 39, 79, 1, 4, -4, 15, -12, 76, 73, -10, -77, 86, -4], "withholdReward": false, "trial_id": "mdp_trial_16", "block": "test", "trialIndex": 17, "score": 4, "costs": 0, "simulationMode": [null, null, null, null, null], "rewards": [1, 4, -4, 15, -12], "path": ["0", "0", "23", "24", "25", "26", "27"], "rt": [7875, 787, 196, 827, 12], "actions": ["left", "left", "left", "up", "up"], "actionTimes": [9780, 11084, 11788, 13124, 13652], "queries": {"click": {"state": {"target": [], "time": []}, "edge": {"target": [], "time": []}}, "mouseover": {"state": {"target": ["23", "28", "10", "2", "12", "13", "22", "24", "25", "26", "26", "25", "24", "23"], "time": [2357, 2642, 2829, 3267, 3673, 3874, 4408, 4500, 5029, 5377, 6453, 7501, 8095, 8201]}, "edge": {"target": [], "time": []}}, "mouseout": {"state": {"target": ["23", "0", "23", "28", "10", "2", "12", "13", "22", "24", "25", "26", "26", "25", "24"], "time": [1531, 2305, 2388, 2718, 2935, 3310, 3829, 4110, 4420, 4818, 5235, 6172, 7188, 7782, 8154]}, "edge": {"target": [], "time": []}}}, "displayed_time": "15.91", "trialTime": 17228, "trial_type": "mouselab-mdp", "trial_index": 24, "time_elapsed": 780410, "internal_node_id": "0.0-6.0-1.0-15.0"}}, {"uniqueid": "w71161066:a67416506", "current_trial": 25, "dateTime": 1693569265888, "trialdata": {"revealed_states": [], "clicked_states": [], "num_clicks_accrued": [0, 0, 0, 0, 0, 0, 0, 0, 0, 0, 0, 0, 0], "stateRewards": ["", 1, -1, 4, -2, -75, -75, 84, -9, -60, -79, 59, 2, -4, 8, 9, -17, -82, 80, 14, -4, 49, 49, -1, 3, 6, -11, -33, 34, 55, 9, -57, 5, 59], "withholdReward": false, "trial_id": "mdp_trial_17", "block": "test", "trialIndex": 18, "score": 86, "costs": 0, "simulationMode": [null, null, null, null, null], "rewards": [1, -1, 4, -2, 84], "path": ["0", "0", "1", "2", "3", "4", "7"], "rt": [1955, 395, 289, 418, 555], "actions": ["up", "up", "up", "right", "down"], "actionTimes": [3324, 4252, 5052, 5980, 7052], "queries": {"click": {"state": {"target": [], "time": []}, "edge": {"target": [], "time": []}}, "mouseover": {"state": {"target": ["12"], "time": [2169]}, "edge": {"target": [], "time": []}}, "mouseout": {"state": {"target": ["23", "0", "0", "12", "0"], "time": [717, 761, 2093, 6921, 7702]}, "edge": {"target": [], "time": []}}}, "displayed_time": "15.37", "trialTime": 16692, "trial_type": "mouselab-mdp", "trial_index": 25, "time_elapsed": 797283, "internal_node_id": "0.0-6.0-1.0-16.0"}}, {"uniqueid": "w71161066:a67416506", "current_trial": 26, "dateTime": 1693569283173, "trialdata": {"revealed_states": [], "clicked_states": ["8"], "num_clicks_accrued": [0, 0, 0, 0, 0, 0, 0, 0, 0, 0, 0, 0, 0], "stateRewards": ["", 2, -2, -3, 10, -4, -1, -11, -8, -9, -36, -78, 2, 1, 7, -7, 44, -1, -31, -1, 26, 47, 83, 2, -4, -4, -6, -52, -76, -81, -1, -59, 45, 67], "withholdReward": false, "trial_id": "mdp_trial_18", "block": "test", "trialIndex": 19, "score": -90.4, "costs": -1.4, "simulationMode": [null, null, null, null, null], "rewards": [2, -2, -3, -8, -78], "path": ["0", "0", "1", "2", "3", "8", "11"], "rt": [4501, 1390, 203, 1116, 570], "actions": ["up", "up", "up", "left", "left"], "actionTimes": [5849, 7762, 8482, 10114, 11194], "queries": {"click": {"state": {"target": ["8"], "time": [4259]}, "edge": {"target": [], "time": []}}, "mouseover": {"state": {"target": ["10", "8", "8", "11"], "time": [1749, 1874, 3999, 4824]}, "edge": {"target": [], "time": []}}, "mouseout": {"state": {"target": ["0", "10", "8", "8", "11", "8", "10"], "time": [1608, 1792, 2707, 4809, 5638, 12342, 12484]}, "edge": {"target": [], "time": []}}}, "displayed_time": "15.35", "trialTime": 17089, "trial_type": "mouselab-mdp", "trial_index": 26, "time_elapsed": 814569, "internal_node_id": "0.0-6.0-1.0-17.0"}}, {"uniqueid": "w71161066:a67416506", "current_trial": 27, "dateTime": 1693569300376, "trialdata": {"revealed_states": [], "clicked_states": ["8"], "num_clicks_accrued": [0, 0, 0, 0, 0, 0, 0, 0, 0, 0, 0, 0, 0], "stateRewards": ["", -1, -3, -6, -2, -7, 80, -45, -3, -38, -72, 76, 2, 1, 7, 4, -62, 14, -74, 14, -87, -21, -88, -2, 1, -7, -10, 66, 56, -76, 10, -29, -72, -70], "withholdReward": false, "trial_id": "mdp_trial_19", "block": "test", "trialIndex": 20, "score": -86.4, "costs": -1.4, "simulationMode": [null, null, null, null, null], "rewards": [-1, -3, -6, -3, -72], "path": ["0", "0", "1", "2", "3", "8", "10"], "rt": [5506, 340, 57, 518, 23], "actions": ["up", "up", "up", "left", "down"], "actionTimes": [7224, 8096, 8671, 9696, 10231], "queries": {"click": {"state": {"target": ["8"], "time": [3394]}, "edge": {"target": [], "time": []}}, "mouseover": {"state": {"target": ["1", "10", "8", "8", "8", "2"], "time": [2210, 2616, 2692, 2902, 3210, 6382]}, "edge": {"target": [], "time": []}}, "mouseout": {"state": {"target": ["1", "10", "8", "8", "8", "8"], "time": [2270, 2659, 2755, 2973, 4426, 6085]}, "edge": {"target": [], "time": []}}}, "displayed_time": "15.72", "trialTime": 17016, "trial_type": "mouselab-mdp", "trial_index": 27, "time_elapsed": 831771, "internal_node_id": "0.0-6.0-1.0-18.0"}}, {"uniqueid": "w71161066:a67416506", "current_trial": 28, "dateTime": 1693569318376, "trialdata": {"revealed_states": [], "clicked_states": [], "num_clicks_accrued": [0, 0, 0, 0, 0, 0, 0, 0, 0, 0, 0, 0, 0], "stateRewards": ["", 1, 4, 7, -16, -84, -6, -46, -12, -7, -49, -26, -1, 2, -4, 2, 22, 37, -64, 1, 88, -13, -10, 1, -4, -2, 5, 2, -10, -34, 9, 66, 55, 38], "withholdReward": false, "trial_id": "mdp_trial_20", "block": "test", "trialIndex": 21, "score": -12, "costs": 0, "simulationMode": [null, null, null, null, null], "rewards": [-1, 2, -4, 1, -10], "path": ["0", "0", "12", "13", "14", "19", "22"], "rt": [1250, 352, 141, 301, 289], "actions": ["right", "right", "right", "down", "left"], "actionTimes": [3177, 4050, 4698, 5514, 6314], "queries": {"click": {"state": {"target": [], "time": []}, "edge": {"target": [], "time": []}}, "mouseover": {"state": {"target": [], "time": []}, "edge": {"target": [], "time": []}}, "mouseout": {"state": {"target": ["2", "12", "23", "23"], "time": [714, 1399, 15371, 16391]}, "edge": {"target": [], "time": []}}}, "displayed_time": "15.93", "trialTime": 17802, "trial_type": "mouselab-mdp", "trial_index": 28, "time_elapsed": 849771, "internal_node_id": "0.0-6.0-1.0-19.0"}}, {"uniqueid": "w71161066:a67416506", "current_trial": 29, "dateTime": 1693569336585, "trialdata": {"revealed_states": [], "clicked_states": ["23"], "num_clicks_accrued": [0, 0, 0, 0, 0, 0, 0, 0, 0, 0, 0, 0, 0], "stateRewards": ["", 2, 3, 8, 11, 25, -80, 6, -4, -56, 84, -23, -2, -4, -3, 4, -51, -9, -61, -15, -64, 67, -35, 1, -1, -7, -6, 83, 59, -15, 12, -79, 56, 41], "withholdReward": false, "trial_id": "mdp_trial_21", "block": "test", "trialIndex": 22, "score": -75.4, "costs": -1.4, "simulationMode": [null, null, null, null, null], "rewards": [1, -1, -7, 12, -79], "path": ["0", "0", "23", "24", "25", "30", "31"], "rt": [4704, 51, 186, 419, 26], "actions": ["left", "left", "left", "down", "right"], "actionTimes": [6330, 6897, 7610, 8546, 9089], "queries": {"click": {"state": {"target": ["23"], "time": [3404]}, "edge": {"target": [], "time": []}}, "mouseover": {"state": {"target": ["23"], "time": [3051]}, "edge": {"target": [], "time": []}}, "mouseout": {"state": {"target": ["1", "23"], "time": [1019, 5769]}, "edge": {"target": [], "time": []}}}, "displayed_time": "15.63", "trialTime": 18004, "trial_type": "mouselab-mdp", "trial_index": 29, "time_elapsed": 867980, "internal_node_id": "0.0-6.0-1.0-20.0"}}, {"uniqueid": "w71161066:a67416506", "current_trial": 30, "dateTime": 1693569354882, "trialdata": {"revealed_states": [], "clicked_states": [], "num_clicks_accrued": [0, 0, 0, 0, 0, 0, 0, 0, 0, 0, 0, 0, 0], "stateRewards": ["", 2, 2, 3, -15, 23, -14, 73, -7, -32, -20, -6, 1, 1, -5, -12, 73, 6, -84, 11, -81, -57, 13, -2, -1, -4, -8, -52, -58, 49, 13, 5, -41, -41], "withholdReward": false, "trial_id": "mdp_trial_22", "block": "test", "trialIndex": 23, "score": -73, "costs": 0, "simulationMode": [null, null, null, null, null], "rewards": [1, 1, -5, 11, -81], "path": ["0", "0", "12", "13", "14", "19", "20"], "rt": [1528, 238, 47, 53, 179], "actions": ["right", "right", "right", "down", "right"], "actionTimes": [4528, 5280, 5840, 6424, 7112], "queries": {"click": {"state": {"target": [], "time": []}, "edge": {"target": [], "time": []}}, "mouseover": {"state": {"target": [], "time": []}, "edge": {"target": [], "time": []}}, "mouseout": {"state": {"target": ["23", "0"], "time": [2157, 3310]}, "edge": {"target": [], "time": []}}}, "displayed_time": "17.02", "trialTime": 18105, "trial_type": "mouselab-mdp", "trial_index": 30, "time_elapsed": 886277, "internal_node_id": "0.0-6.0-1.0-21.0"}}, {"uniqueid": "w71161066:a67416506", "current_trial": 31, "dateTime": 1693569372586, "trialdata": {"revealed_states": [], "clicked_states": [], "num_clicks_accrued": [0, 0, 0, 0, 0, 0, 0, 0, 0, 0, 0, 0, 0], "stateRewards": ["", 1, 2, 8, -2, 23, -69, -18, -16, 54, -21, 71, -1, -4, 7, 11, 43, -6, 88, 6, -55, 72, 43, 1, -3, -2, -1, 68, -31, -54, 4, -8, 25, -2], "withholdReward": false, "trial_id": "mdp_trial_23", "block": "test", "trialIndex": 24, "score": 32, "costs": 0, "simulationMode": [null, null, null, null, null], "rewards": [1, 2, 8, -2, 23], "path": ["0", "0", "1", "2", "3", "4", "5"], "rt": [1488, 237, 343, 771, 50], "actions": ["up", "up", "up", "right", "up"], "actionTimes": [3538, 4290, 5146, 6434, 6994], "queries": {"click": {"state": {"target": [], "time": []}, "edge": {"target": [], "time": []}}, "mouseover": {"state": {"target": ["1", "8", "3"], "time": [2337, 2411, 2806]}, "edge": {"target": [], "time": []}}, "mouseout": {"state": {"target": ["23", "0", "1", "8"], "time": [1508, 1709, 2365, 2442]}, "edge": {"target": [], "time": []}}}, "displayed_time": "16.05", "trialTime": 17507, "trial_type": "mouselab-mdp", "trial_index": 31, "time_elapsed": 903981, "internal_node_id": "0.0-6.0-1.0-22.0"}}, {"uniqueid": "w71161066:a67416506", "current_trial": 32, "dateTime": 1693569391330, "trialdata": {"revealed_states": [], "clicked_states": ["2", "1"], "num_clicks_accrued": [0, 0, 0, 0, 0, 0, 0, 0, 0, 0, 0, 0, 0], "stateRewards": ["", 2, -1, 5, 8, 75, -35, -77, 1, -9, -81, -58, 1, 2, -7, 5, 77, -16, 19, 16, -10, -18, 40, -2, 3, 7, -5, 64, 1, -62, 10, 27, 10, 65], "withholdReward": false, "trial_id": "mdp_trial_24", "block": "test", "trialIndex": 25, "score": 86.2, "costs": -2.8, "simulationMode": [null, null, null, null, null], "rewards": [2, -1, 5, 8, 75], "path": ["0", "0", "1", "2", "3", "4", "5"], "rt": [7642, 75, 114, 650, 581], "actions": ["up", "up", "up", "right", "up"], "actionTimes": [10818, 11410, 12042, 13202, 14290], "queries": {"click": {"state": {"target": ["2", "1"], "time": [4509, 7670]}, "edge": {"target": [], "time": []}}, "mouseover": {"state": {"target": ["1", "1", "2", "1", "1"], "time": [3539, 3904, 4180, 5068, 7239]}, "edge": {"target": [], "time": []}}, "mouseout": {"state": {"target": ["3", "2", "1", "0", "0", "1", "1", "2", "1", "2", "2", "2", "1"], "time": [1912, 2350, 2413, 2489, 2662, 3820, 4055, 4942, 5239, 5333, 6663, 7211, 9238]}, "edge": {"target": [], "time": []}}}, "displayed_time": "17.18", "trialTime": 18546, "trial_type": "mouselab-mdp", "trial_index": 32, "time_elapsed": 922725, "internal_node_id": "0.0-6.0-1.0-23.0"}}, {"uniqueid": "w71161066:a67416506", "current_trial": 33, "dateTime": 1693569409385, "trialdata": {"revealed_states": [], "clicked_states": [], "num_clicks_accrued": [0, 0, 0, 0, 0, 0, 0, 0, 0, 0, 0, 0, 0], "stateRewards": ["", 2, -1, 3, -12, -83, 6, -33, 9, 28, 24, -50, -2, -1, -2, -5, -87, 37, 82, 12, 80, -5, 10, -2, -3, -6, 9, 22, -1, 16, 9, 77, -62, 58], "withholdReward": false, "trial_id": "mdp_trial_25", "block": "test", "trialIndex": 26, "score": 20, "costs": 0, "simulationMode": [null, null, null, null, null], "rewards": [-2, -3, -6, 9, 22], "path": ["0", "0", "23", "24", "25", "26", "27"], "rt": [6174, 80, 62, 125, 68], "actions": ["left", "left", "left", "up", "up"], "actionTimes": [9228, 9828, 10404, 11044, 11628], "queries": {"click": {"state": {"target": [], "time": []}, "edge": {"target": [], "time": []}}, "mouseover": {"state": {"target": ["1", "2", "3", "8", "3", "2", "2", "10", "2", "23", "0", "12", "0", "23"], "time": [3405, 3482, 3607, 3859, 4108, 4435, 4903, 4981, 5201, 5953, 6109, 6499, 6523, 6544]}, "edge": {"target": [], "time": []}}, "mouseout": {"state": {"target": ["1", "23", "1", "2", "3", "8", "3", "2", "2", "10", "2", "23", "0", "12", "0"], "time": [2405, 2530, 3451, 3561, 3653, 4063, 4358, 4641, 4951, 5157, 5749, 6063, 6218, 6521, 6543]}, "edge": {"target": [], "time": []}}}, "displayed_time": "17.06", "trialTime": 17860, "trial_type": "mouselab-mdp", "trial_index": 33, "time_elapsed": 940781, "internal_node_id": "0.0-6.0-1.0-24.0"}}, {"uniqueid": "w71161066:a67416506", "current_trial": 34, "dateTime": 1693569428986, "trialdata": {"revealed_states": [], "clicked_states": [], "num_clicks_accrued": [0, 0, 0, 0, 0, 0, 0, 0, 0, 0, 0, 0, 0], "stateRewards": ["", 1, 1, -7, -9, -44, 24, -83, -15, 44, -24, 72, -2, -3, 4, -5, 57, 55, 29, -11, 22, 12, -25, -1, 2, 7, 12, 33, -8, 47, -4, 8, 50, -4], "withholdReward": false, "trial_id": "mdp_trial_26", "block": "test", "trialIndex": 27, "score": 24, "costs": 0, "simulationMode": [null, null, null, null, null], "rewards": [1, 1, -7, -15, 44], "path": ["0", "0", "1", "2", "3", "8", "9"], "rt": [3055, 534, 46, 390, 83], "actions": ["up", "up", "up", "left", "up"], "actionTimes": [7085, 8133, 8692, 9613, 10213], "queries": {"click": {"state": {"target": [], "time": []}, "edge": {"target": [], "time": []}}, "mouseover": {"state": {"target": ["1", "7"], "time": [4523, 6445]}, "edge": {"target": [], "time": []}}, "mouseout": {"state": {"target": ["23", "23", "1"], "time": [1854, 2020, 4617]}, "edge": {"target": [], "time": []}}}, "displayed_time": "18.04", "trialTime": 19405, "trial_type": "mouselab-mdp", "trial_index": 34, "time_elapsed": 960381, "internal_node_id": "0.0-6.0-1.0-25.0"}}, {"uniqueid": "w71161066:a67416506", "current_trial": 35, "dateTime": 1693569446731, "trialdata": {"revealed_states": [], "clicked_states": [], "num_clicks_accrued": [0, 0, 0, 0, 0, 0, 0, 0, 0, 0, 0, 0, 0], "stateRewards": ["", -1, -4, -3, 1, -45, -67, -24, 14, 32, 22, 22, -1, 1, -5, -7, 72, 84, -79, -5, 19, -40, -2, -1, -2, 8, -3, 84, -25, -28, 11, 64, -66, 77], "withholdReward": false, "trial_id": "mdp_trial_27", "block": "test", "trialIndex": 28, "score": -74, "costs": 0, "simulationMode": [null, null, null, null, null], "rewards": [-1, -4, -3, 1, -67], "path": ["0", "0", "1", "2", "3", "4", "6"], "rt": [786, 45, 580, 221, 55], "actions": ["up", "up", "up", "right", "right"], "actionTimes": [3121, 3681, 4778, 5514, 6081], "queries": {"click": {"state": {"target": [], "time": []}, "edge": {"target": [], "time": []}}, "mouseover": {"state": {"target": [], "time": []}, "edge": {"target": [], "time": []}}, "mouseout": {"state": {"target": ["7", "7", "6", "0"], "time": [1502, 1557, 1572, 1761]}, "edge": {"target": [], "time": []}}}, "displayed_time": "16.34", "trialTime": 17514, "trial_type": "mouselab-mdp", "trial_index": 35, "time_elapsed": 978126, "internal_node_id": "0.0-6.0-1.0-26.0"}}, {"uniqueid": "w71161066:a67416506", "current_trial": 36, "dateTime": 1693569464074, "trialdata": {"revealed_states": [], "clicked_states": [], "num_clicks_accrued": [0, 0, 0, 0, 0, 0, 0, 0, 0, 0, 0, 0, 0], "stateRewards": ["", 1, 2, -8, 9, 18, -83, -11, 6, -64, -48, 17, -2, -2, -5, -3, -24, -3, -86, -2, 48, -41, -22, -2, 4, 7, 8, 81, 13, -48, 10, 61, 19, 57], "withholdReward": false, "trial_id": "mdp_trial_28", "block": "test", "trialIndex": 29, "score": 38, "costs": 0, "simulationMode": [null, null, null, null, null], "rewards": [-2, 4, 7, 10, 19], "path": ["0", "0", "23", "24", "25", "30", "32"], "rt": [1162, 654, 82, 456, 624], "actions": ["left", "left", "left", "down", "down"], "actionTimes": [3056, 4216, 4816, 5784, 6921], "queries": {"click": {"state": {"target": [], "time": []}, "edge": {"target": [], "time": []}}, "mouseover": {"state": {"target": ["0"], "time": [1905]}, "edge": {"target": [], "time": []}}, "mouseout": {"state": {"target": ["0", "0"], "time": [1421, 1533]}, "edge": {"target": [], "time": []}}}, "displayed_time": "15.90", "trialTime": 17145, "trial_type": "mouselab-mdp", "trial_index": 36, "time_elapsed": 995469, "internal_node_id": "0.0-6.0-1.0-27.0"}}, {"uniqueid": "w71161066:a67416506", "current_trial": 37, "dateTime": 1693569481284, "trialdata": {"revealed_states": [], "clicked_states": [], "num_clicks_accrued": [0, 0, 0, 0, 0, 0, 0, 0, 0, 0, 0, 0, 0], "stateRewards": ["", -2, 2, 2, -6, 9, 37, 50, -13, -7, -18, -75, -2, -4, 4, 7, 23, -57, -66, -7, -81, -48, -76, 1, 1, -8, 1, 51, -2, 70, 14, 59, 71, -37], "withholdReward": false, "trial_id": "mdp_trial_29", "block": "test", "trialIndex": 30, "score": -86, "costs": 0, "simulationMode": [null, null, null, null, null], "rewards": [-2, 2, 2, -13, -75], "path": ["0", "0", "1", "2", "3", "8", "11"], "rt": [1496, 236, 53, 204, 20], "actions": ["up", "up", "up", "left", "left"], "actionTimes": [3300, 4052, 4620, 5348, 5884], "queries": {"click": {"state": {"target": [], "time": []}, "edge": {"target": [], "time": []}}, "mouseover": {"state": {"target": [], "time": []}, "edge": {"target": [], "time": []}}, "mouseout": {"state": {"target": [], "time": []}, "edge": {"target": [], "time": []}}}, "displayed_time": "15.81", "trialTime": 16997, "trial_type": "mouselab-mdp", "trial_index": 37, "time_elapsed": 1012679, "internal_node_id": "0.0-6.0-1.0-28.0"}}, {"uniqueid": "w71161066:a67416506", "current_trial": 38, "dateTime": 1693569499860, "trialdata": {"revealed_states": [], "clicked_states": [], "num_clicks_accrued": [0, 0, 0, 0, 0, 0, 0, 0, 0, 0, 0, 0, 0], "stateRewards": ["", 1, -1, 8, -3, 38, 85, -20, -4, 8, 23, 73, 2, -4, 6, -13, 44, 7, -28, -11, -77, 45, -69, 1, -1, -7, -11, 75, -51, -87, 7, 36, -53, -26], "withholdReward": false, "trial_id": "mdp_trial_30", "block": "test", "trialIndex": 31, "score": 38, "costs": 0, "simulationMode": [null, null, null, null, null], "rewards": [2, -4, 6, -11, 45], "path": ["0", "0", "12", "13", "14", "19", "21"], "rt": [1382, 1011, 63, 28, 393], "actions": ["right", "right", "right", "down", "down"], "actionTimes": [4724, 6252, 6820, 7363, 8276], "queries": {"click": {"state": {"target": [], "time": []}, "edge": {"target": [], "time": []}}, "mouseover": {"state": {"target": ["12", "13"], "time": [3803, 3962]}, "edge": {"target": [], "time": []}}, "mouseout": {"state": {"target": ["0", "0", "12", "13"], "time": [1289, 3774, 3865, 4023]}, "edge": {"target": [], "time": []}}}, "displayed_time": "17.35", "trialTime": 18372, "trial_type": "mouselab-mdp", "trial_index": 38, "time_elapsed": 1031255, "internal_node_id": "0.0-6.0-1.0-29.0"}}, {"uniqueid": "w71161066:a67416506", "current_trial": 39, "dateTime": 1693569518044, "trialdata": {"revealed_states": [], "clicked_states": [], "num_clicks_accrued": [0, 0, 0, 0, 0, 0, 0, 0, 0, 0, 0, 0, 0], "stateRewards": ["", -1, 2, 7, 8, 75, 67, -11, 6, 52, -17, 38, -1, 4, -8, 14, 74, -37, -17, -12, 52, 55, 71, -2, -1, -5, 2, 21, 6, -88, -14, 64, -61, -47], "withholdReward": false, "trial_id": "mdp_trial_31", "block": "test", "trialIndex": 32, "score": -3, "costs": 0, "simulationMode": [null, null, null, null, null], "rewards": [-1, 2, 7, 6, -17], "path": ["0", "0", "1", "2", "3", "8", "10"], "rt": [1218, 37, 1723, 16, 725], "actions": ["up", "up", "up", "left", "down"], "actionTimes": [3625, 4177, 6409, 6936, 8193], "queries": {"click": {"state": {"target": [], "time": []}, "edge": {"target": [], "time": []}}, "mouseover": {"state": {"target": [], "time": []}, "edge": {"target": [], "time": []}}, "mouseout": {"state": {"target": ["13"], "time": [1594]}, "edge": {"target": [], "time": []}}}, "displayed_time": "16.41", "trialTime": 17986, "trial_type": "mouselab-mdp", "trial_index": 39, "time_elapsed": 1049439, "internal_node_id": "0.0-6.0-1.0-30.0"}}, {"uniqueid": "w71161066:a67416506", "current_trial": 40, "dateTime": 1693569535842, "trialdata": {"revealed_states": [], "clicked_states": [], "num_clicks_accrued": [0, 0, 0, 0, 0, 0, 0, 0, 0, 0, 0, 0, 0], "stateRewards": ["", -1, 2, 6, 11, 21, -21, -21, -6, 48, -71, 88, -1, -3, 3, 7, 64, 2, 9, -4, 37, -67, 72, 2, 2, -8, -8, -10, 71, -40, -3, 73, 80, 47], "withholdReward": false, "trial_id": "mdp_trial_32", "block": "test", "trialIndex": 33, "score": -22, "costs": 0, "simulationMode": [null, null, null, null, null], "rewards": [2, 2, -8, -8, -10], "path": ["0", "0", "23", "24", "25", "26", "27"], "rt": [3426, 467, 75, 169, 362], "actions": ["left", "left", "left", "up", "up"], "actionTimes": [6008, 6984, 7576, 8264, 9144], "queries": {"click": {"state": {"target": [], "time": []}, "edge": {"target": [], "time": []}}, "mouseover": {"state": {"target": [], "time": []}, "edge": {"target": [], "time": []}}, "mouseout": {"state": {"target": ["0"], "time": [1704]}, "edge": {"target": [], "time": []}}}, "displayed_time": "16.58", "trialTime": 17600, "trial_type": "mouselab-mdp", "trial_index": 40, "time_elapsed": 1067238, "internal_node_id": "0.0-6.0-1.0-31.0"}}, {"uniqueid": "w71161066:a67416506", "current_trial": 41, "dateTime": 1693569554396, "trialdata": {"revealed_states": [], "clicked_states": [], "num_clicks_accrued": [0, 0, 0, 0, 0, 0, 0, 0, 0, 0, 0, 0, 0], "stateRewards": ["", -2, -2, -7, -13, -10, 49, -68, -1, 84, 70, 88, 1, 4, 4, 12, -57, 25, 30, 8, -1, -77, 57, 2, 3, 2, 3, -18, -80, 23, -15, -41, 70, 11], "withholdReward": false, "trial_id": "mdp_trial_33", "block": "test", "trialIndex": 34, "score": 58, "costs": 0, "simulationMode": [null, null, null, null, null], "rewards": [-2, -2, -7, -1, 70], "path": ["0", "0", "1", "2", "3", "8", "10"], "rt": [956, 308, 562, 877, 437], "actions": ["up", "up", "up", "left", "down"], "actionTimes": [3945, 4762, 5842, 7234, 8186], "queries": {"click": {"state": {"target": [], "time": []}, "edge": {"target": [], "time": []}}, "mouseover": {"state": {"target": [], "time": []}, "edge": {"target": [], "time": []}}, "mouseout": {"state": {"target": ["0", "0"], "time": [1872, 3172]}, "edge": {"target": [], "time": []}}}, "displayed_time": "16.99", "trialTime": 18322, "trial_type": "mouselab-mdp", "trial_index": 41, "time_elapsed": 1085791, "internal_node_id": "0.0-6.0-1.0-32.0"}}, {"uniqueid": "w71161066:a67416506", "current_trial": 42, "dateTime": 1693569571913, "trialdata": {"revealed_states": [], "clicked_states": [], "num_clicks_accrued": [0, 0, 0, 0, 0, 0, 0, 0, 0, 0, 0, 0, 0], "stateRewards": ["", -2, -3, -7, 7, -54, -69, -4, -14, -77, 22, 40, -2, -1, 5, 6, -35, 50, -60, 10, -28, 75, 57, 1, -4, -2, 2, 68, 34, -18, 12, 3, -21, -43], "withholdReward": false, "trial_id": "mdp_trial_34", "block": "test", "trialIndex": 35, "score": 69, "costs": 0, "simulationMode": [null, null, null, null, null], "rewards": [-2, -1, 5, 10, 57], "path": ["0", "0", "12", "13", "14", "19", "22"], "rt": [1491, 712, 148, 396, 130], "actions": ["right", "right", "right", "down", "left"], "actionTimes": [3143, 4375, 5031, 5935, 6575], "queries": {"click": {"state": {"target": [], "time": []}, "edge": {"target": [], "time": []}}, "mouseover": {"state": {"target": [], "time": []}, "edge": {"target": [], "time": []}}, "mouseout": {"state": {"target": ["0"], "time": [1492]}, "edge": {"target": [], "time": []}}}, "displayed_time": "15.65", "trialTime": 17319, "trial_type": "mouselab-mdp", "trial_index": 42, "time_elapsed": 1103309, "internal_node_id": "0.0-6.0-1.0-33.0"}}, {"uniqueid": "w71161066:a67416506", "current_trial": 43, "dateTime": 1693569588947, "trialdata": {"revealed_states": [], "clicked_states": [], "num_clicks_accrued": [0, 0, 0, 0, 0, 0, 0, 0, 0, 0, 0, 0, 0], "stateRewards": ["", 1, 1, 1, -3, -7, -1, -41, -10, 20, -72, -63, 1, -4, -2, 2, -66, 30, -84, -2, 49, 23, 71, -1, -4, 4, -12, 67, 5, 18, -16, 88, 56, -5], "withholdReward": false, "trial_id": "mdp_trial_35", "block": "test", "trialIndex": 36, "score": -69, "costs": 0, "simulationMode": [null, null, null, null, null], "rewards": [1, -4, -2, 2, -66], "path": ["0", "0", "12", "13", "14", "15", "16"], "rt": [1215, 220, 398, 1140, 91], "actions": ["right", "right", "right", "up", "up"], "actionTimes": [2815, 3544, 4456, 6104, 6712], "queries": {"click": {"state": {"target": [], "time": []}, "edge": {"target": [], "time": []}}, "mouseover": {"state": {"target": ["0"], "time": [1612]}, "edge": {"target": [], "time": []}}, "mouseout": {"state": {"target": ["0"], "time": [1456]}, "edge": {"target": [], "time": []}}}, "displayed_time": "15.60", "trialTime": 16808, "trial_type": "mouselab-mdp", "trial_index": 43, "time_elapsed": 1120342, "internal_node_id": "0.0-6.0-1.0-34.0"}}, {"uniqueid": "w71161066:a67416506", "current_trial": 44, "dateTime": 1693569606909, "trialdata": {"revealed_states": [], "clicked_states": [], "num_clicks_accrued": [0, 0, 0, 0, 0, 0, 0, 0, 0, 0, 0, 0, 0], "stateRewards": ["", 1, -4, -6, -1, -21, 17, -72, 10, 77, 67, -46, -1, 4, -2, 14, -66, -49, -45, -15, -52, 23, -67, 2, -2, -2, 15, -3, 45, -64, 5, -44, 83, 61], "withholdReward": false, "trial_id": "mdp_trial_36", "block": "test", "trialIndex": 37, "score": 58, "costs": 0, "simulationMode": [null, null, null, null, null], "rewards": [2, -2, -2, 15, 45], "path": ["0", "0", "23", "24", "25", "26", "28"], "rt": [2399, 365, 125, 137, 608], "actions": ["left", "left", "left", "up", "right"], "actionTimes": [5460, 6340, 6974, 7628, 8756], "queries": {"click": {"state": {"target": [], "time": []}, "edge": {"target": [], "time": []}}, "mouseover": {"state": {"target": [], "time": []}, "edge": {"target": [], "time": []}}, "mouseout": {"state": {"target": ["0", "12", "12", "0", "23", "23", "0", "0"], "time": [1411, 1473, 2008, 2084, 2145, 2351, 2429, 3259]}, "edge": {"target": [], "time": []}}}, "displayed_time": "17.06", "trialTime": 17732, "trial_type": "mouselab-mdp", "trial_index": 44, "time_elapsed": 1138304, "internal_node_id": "0.0-6.0-1.0-35.0"}}, {"uniqueid": "w71161066:a67416506", "current_trial": 45, "dateTime": 1693569626093, "trialdata": {"revealed_states": [], "clicked_states": [], "num_clicks_accrued": [0, 0, 0, 0, 0, 0, 0, 0, 0, 0, 0, 0, 0], "stateRewards": ["", 2, -4, 4, 9, 69, 9, -75, 12, -86, 66, 25, -1, 3, 2, -13, -88, -3, 1, 4, -69, 49, -84, 2, -1, 4, 2, -18, -81, -52, -15, -69, -54, 25], "withholdReward": false, "trial_id": "mdp_trial_37", "block": "test", "trialIndex": 38, "score": -74, "costs": 0, "simulationMode": [null, null, null, null, null], "rewards": [2, -1, 4, 2, -81], "path": ["0", "0", "23", "24", "25", "26", "28"], "rt": [1265, 325, 515, 540, 307], "actions": ["left", "left", "left", "up", "right"], "actionTimes": [3961, 4801, 5833, 6889, 7705], "queries": {"click": {"state": {"target": [], "time": []}, "edge": {"target": [], "time": []}}, "mouseover": {"state": {"target": [], "time": []}, "edge": {"target": [], "time": []}}, "mouseout": {"state": {"target": ["0", "0"], "time": [1467, 2020]}, "edge": {"target": [], "time": []}}}, "displayed_time": "16.70", "trialTime": 18978, "trial_type": "mouselab-mdp", "trial_index": 45, "time_elapsed": 1157488, "internal_node_id": "0.0-6.0-1.0-36.0"}}, {"uniqueid": "w71161066:a67416506", "current_trial": 46, "dateTime": 1693569644452, "trialdata": {"revealed_states": [], "clicked_states": [], "num_clicks_accrued": [0, 0, 0, 0, 0, 0, 0, 0, 0, 0, 0, 0, 0], "stateRewards": ["", 2, 4, 4, 9, -88, -10, 44, 16, -54, 64, 78, 1, 2, 5, 16, 80, 36, 7, -4, 9, -47, -70, -1, -3, 6, -16, 11, 80, 28, 8, -1, 34, -17], "withholdReward": false, "trial_id": "mdp_trial_38", "block": "test", "trialIndex": 39, "score": 9, "costs": 0, "simulationMode": [null, null, null, null, null], "rewards": [2, 4, 4, 9, -10], "path": ["0", "0", "1", "2", "3", "4", "6"], "rt": [1199, 201, 282, 484, 678], "actions": ["up", "up", "up", "right", "right"], "actionTimes": [4179, 4899, 5699, 6698, 7891], "queries": {"click": {"state": {"target": [], "time": []}, "edge": {"target": [], "time": []}}, "mouseover": {"state": {"target": [], "time": []}, "edge": {"target": [], "time": []}}, "mouseout": {"state": {"target": ["0", "0", "0"], "time": [1242, 2401, 3185]}, "edge": {"target": [], "time": []}}}, "displayed_time": "16.98", "trialTime": 18157, "trial_type": "mouselab-mdp", "trial_index": 46, "time_elapsed": 1175848, "internal_node_id": "0.0-6.0-1.0-37.0"}}, {"uniqueid": "w71161066:a67416506", "current_trial": 47, "dateTime": 1693569661823, "trialdata": {"revealed_states": [], "clicked_states": [], "num_clicks_accrued": [0, 0, 0, 0, 0, 0, 0, 0, 0, 0, 0, 0, 0], "stateRewards": ["", -1, 2, -6, 6, 43, 78, 78, -2, 55, -29, -17, -2, -4, 1, -15, 13, 7, -79, 8, -28, -68, 36, -1, -3, 3, -16, 84, -18, 87, 10, 32, 13, -81], "withholdReward": false, "trial_id": "mdp_trial_39", "block": "test", "trialIndex": 40, "score": -24, "costs": 0, "simulationMode": [null, null, null, null, null], "rewards": [-1, 2, -6, -2, -17], "path": ["0", "0", "1", "2", "3", "8", "11"], "rt": [1292, 331, 127, 159, 39], "actions": ["up", "up", "up", "left", "left"], "actionTimes": [2873, 3721, 4361, 5033, 5584], "queries": {"click": {"state": {"target": [], "time": []}, "edge": {"target": [], "time": []}}, "mouseover": {"state": {"target": [], "time": []}, "edge": {"target": [], "time": []}}, "mouseout": {"state": {"target": ["0"], "time": [1471]}, "edge": {"target": [], "time": []}}}, "displayed_time": "15.58", "trialTime": 17137, "trial_type": "mouselab-mdp", "trial_index": 47, "time_elapsed": 1193218, "internal_node_id": "0.0-6.0-1.0-38.0"}}, {"uniqueid": "w71161066:a67416506", "current_trial": 48, "dateTime": 1693569679911, "trialdata": {"revealed_states": [], "clicked_states": [], "num_clicks_accrued": [0, 0, 0, 0, 0, 0, 0, 0, 0, 0, 0, 0, 0], "stateRewards": ["", -1, 3, 8, 10, -86, 61, -36, 10, 17, -60, 24, -1, -3, 3, 11, 50, 60, 33, -3, -20, 58, -6, 1, -4, -4, 13, -70, -71, 43, 14, 52, 82, -11], "withholdReward": false, "trial_id": "mdp_trial_40", "block": "test", "trialIndex": 41, "score": 89, "costs": 0, "simulationMode": [null, null, null, null, null], "rewards": [1, -4, -4, 14, 82], "path": ["0", "0", "23", "24", "25", "30", "32"], "rt": [1091, 408, 156, 69, 17], "actions": ["left", "left", "left", "down", "down"], "actionTimes": [3712, 4640, 5312, 5895, 6423], "queries": {"click": {"state": {"target": [], "time": []}, "edge": {"target": [], "time": []}}, "mouseover": {"state": {"target": [], "time": []}, "edge": {"target": [], "time": []}}, "mouseout": {"state": {"target": [], "time": []}, "edge": {"target": [], "time": []}}}, "displayed_time": "16.62", "trialTime": 17880, "trial_type": "mouselab-mdp", "trial_index": 48, "time_elapsed": 1211306, "internal_node_id": "0.0-6.0-1.0-39.0"}}, {"uniqueid": "w71161066:a67416506", "current_trial": 49, "dateTime": 1693569730317, "trialdata": {"rt": 50401, "response": {"Q0": "$-2 to $2", "Q1": "$-16 to $16", "Q2": "$-32 to $32", "Q3": "The cost was always $1.4.", "Q4": "Very motivated"}, "question_order": [0, 1, 2, 3, 4], "trial_id": "final_quiz_control", "trial_type": "survey-multi-choice", "trial_index": 49, "time_elapsed": 1261713, "internal_node_id": "0.0-6.0-2.0"}}, {"uniqueid": "w71161066:a67416506", "current_trial": 50, "dateTime": 1693569822014, "trialdata": {"rt": 91689, "response": {"Q0": "to use as little nodes inspectors as possible", "Q1": "yes are used a little more nodes to help me with the game", "Q2": "slightly difficult "}, "trial_id": "self_report_control", "trial_type": "survey-text", "trial_index": 50, "time_elapsed": 1353410, "internal_node_id": "0.0-6.0-3.0"}}, {"uniqueid": "w71161066:a67416506", "current_trial": 51, "dateTime": 1693569854950, "trialdata": {"rt": 32933, "response": {"gender": "female", "age": "23", "colorblind": "0", "effort": "0"}, "trial_type": "survey-html-form", "trial_index": 51, "time_elapsed": 1386346, "internal_node_id": "0.0-6.0-4.0"}}, {"uniqueid": "w71161066:a67416506", "current_trial": 52, "dateTime": 1693569874991, "trialdata": {"rt": 20036, "response": {"Q0": "no", "Q1": "no", "Q2": "none"}, "trial_type": "survey-text", "trial_index": 52, "time_elapsed": 1406387, "internal_node_id": "0.0-6.0-5.0"}}, {"uniqueid": "w71161066:a67416506", "current_trial": 53, "dateTime": 1693569924815, "trialdata": {"rt": 49819, "stimulus": "<h1>Completion Code Instructions (1/2)</h1>\n<br><br><br><br>\nYou have reached the end of the experiment! The completion code consists of two parts: (1) a code with 2 characters (2) a code with 6 characters. On this page, you will receive the second part of the code. The first part of the completion code will be on the next page.\n<br><br>\nThe second part of your completion code is: <b>EWEK22</b>\n<br><br>\nPlease note this down. Then, press 'Finish HIT' in order to find the first part of your completion code. Once the data has been saved, you will receive this code either in this window or in the original browser window where you started the experiment.\n", "response": 0, "trial_type": "html-button-response", "trial_index": 53, "time_elapsed": 1456211, "internal_node_id": "0.0-6.0-6.0"}}, {"uniqueid": "w71161066:a67416506", "current_trial": 54, "dateTime": 1693569925854, "trialdata": {"success": true, "trial_type": "fullscreen", "trial_index": 54, "time_elapsed": 1457250, "internal_node_id": "0.0-7.0"}}], "questiondata": {"params": {"CODE": "C6DMOQA6", "MIN_TIME": 14, "inspectCost": 1, "startTime": "Fri Sep 01 2023 13:41:07 GMT+0200 (South Africa Standard Time)", "bonusRate": 0.002, "variance": "1_2_4_8_44", "branching": "31123"}, "final_score": -440.8}, "eventdata": [{"eventtype": "initialized", "value": null, "timestamp": 1693568466777, "interval": 0}, {"eventtype": "window_resize", "value": [1024, 767], "timestamp": 1693568466777, "interval": 0}, {"eventtype": "window_resize", "value": [1024, 767], "timestamp": 1693568467204, "interval": 427}, {"eventtype": "window_resize", "value": [1920, 1080], "timestamp": 1693568473144, "interval": 5940}, {"eventtype": "window_resize", "value": [1024, 767], "timestamp": 1693569925259, "interval": 1452115}], "useragent": "Mozilla/5.0 (Windows NT 10.0; Win64; x64) AppleWebKit/537.36 (KHTML, like Gecko) Chrome/116.0.0.0 Safari/537.36", "mode": "live", "id": "w71161066:a67416506", "status": "user data saved", "Beginhit": "2023-09-01 11:41:04.807189", "Beginexp": "2023-09-01 11:41:14.117486", "Endhit": "2023-09-01 12:05:26.994822", "psiturkStatus": 3, "browser": "<redacted>", "platform": "windows", "language": "en-US"}