{"condition": 0, "counterbalance": 0, "assignmentId": "a56732672", "workerId": "w69843463", "hitId": "h26034985", "currenttrial": 61, "bonus": 0, "data": [{"uniqueid": "w69843463:a56732672", "current_trial": 0, "dateTime": 1691165655863, "trialdata": {"success": true, "trial_type": "fullscreen", "trial_index": 0, "time_elapsed": 16019, "internal_node_id": "0.0-0.0"}}, {"uniqueid": "w69843463:a56732672", "current_trial": 1, "dateTime": 1691165665842, "trialdata": {"view_history": [{"page_index": 0, "viewing_time": 9976}], "rt": 9977, "trial_id": "exp_instructions_control", "trial_type": "instructions", "trial_index": 1, "time_elapsed": 25998, "internal_node_id": "0.0-1.0"}}, {"uniqueid": "w69843463:a56732672", "current_trial": 2, "dateTime": 1691165669032, "trialdata": {"success": true, "trial_type": "fullscreen", "trial_index": 2, "time_elapsed": 29188, "internal_node_id": "0.0-2.0-0.0"}}, {"uniqueid": "w69843463:a56732672", "current_trial": 3, "dateTime": 1691165993913, "trialdata": {"view_history": [{"page_index": 0, "viewing_time": 201634}, {"page_index": 1, "viewing_time": 73573}, {"page_index": 2, "viewing_time": 21109}, {"page_index": 3, "viewing_time": 28564}], "rt": 324880, "trial_id": "mouselab_instructions_1_control", "trial_type": "instructions", "trial_index": 3, "time_elapsed": 354069, "internal_node_id": "0.0-2.0-1.0"}}, {"uniqueid": "w69843463:a56732672", "current_trial": 4, "dateTime": 1691166016057, "trialdata": {"revealed_states": [], "clicked_states": ["25", "27", "2", "13", "30"], "num_clicks_accrued": [0, 0, 0, 0, 0, 0, 0, 0, 0, 0, 0, 0, 0], "stateRewards": ["", -10, 10, 10, 10, 10, 10, -10, -10, 10, -10, -10, 10, -10, -10, -10, 10, -10, -10, -10, 10, -10, -10, -10, -10, -10, -10, -10, 10, 10, 10, 10, -10, -10], "withholdReward": false, "trial_id": "practice_1", "block": "test", "trialIndex": 0, "score": 11, "costs": -2.5, "simulationMode": [null, null, null, null, null], "rewards": [-10, 10, 10, -10, 10], "path": ["0", "0", "1", "2", "3", "8", "9"], "rt": [12735, 472, 1911, 243, 199], "actions": ["up", "up", "up", "left", "up"], "actionTimes": [13724, 14732, 17172, 17956, 18676], "queries": {"click": {"state": {"target": ["25", "27", "2", "13", "30"], "time": [2001, 3650, 5377, 7839, 11462]}, "edge": {"target": [], "time": []}}, "mouseover": {"state": {"target": ["23", "24", "25", "26", "27", "2", "1", "13", "13", "31", "30", "25", "30", "23", "2"], "time": [1406, 1482, 1697, 2561, 2808, 4675, 6009, 6235, 6635, 9710, 9925, 10349, 11323, 12003, 12315]}, "edge": {"target": [], "time": []}}, "mouseout": {"state": {"target": ["12", "0", "23", "24", "25", "26", "27", "2", "1", "13", "13", "31", "30", "25", "30", "23"], "time": [338, 1342, 1454, 1552, 2430, 2752, 4246, 5950, 6030, 6350, 8260, 9822, 10295, 10919, 11838, 12049]}, "edge": {"target": [], "time": []}}}, "displayed_time": "19.21", "trialTime": 21804, "trial_type": "mouselab-mdp", "trial_index": 4, "time_elapsed": 376213, "internal_node_id": "0.0-2.0-2.0-0.0"}}, {"uniqueid": "w69843463:a56732672", "current_trial": 5, "dateTime": 1691166031441, "trialdata": {"revealed_states": [], "clicked_states": ["13", "2", "24", "32"], "num_clicks_accrued": [0, 0, 0, 0, 0, 0, 0, 0, 0, 0, 0, 0, 0], "stateRewards": ["", 10, -10, -10, 10, 10, 10, 10, -10, -10, -10, 10, -10, -10, 10, 10, -10, 10, 10, 10, 10, 10, -10, -10, -10, 10, 10, -10, 10, 10, -10, -10, -10, 10], "withholdReward": false, "trial_id": "practice_2", "block": "test", "trialIndex": 1, "score": 11.5, "costs": -2, "simulationMode": [null, null, null, null, null], "rewards": [-10, -10, 10, 10, 10], "path": ["0", "0", "23", "24", "25", "26", "29"], "rt": [9662, 48, 167, 0, 461], "actions": ["left", "left", "left", "up", "left"], "actionTimes": [10869, 11446, 12141, 12682, 13677], "queries": {"click": {"state": {"target": ["13", "2", "24", "32"], "time": [2643, 4817, 6300, 8977]}, "edge": {"target": [], "time": []}}, "mouseover": {"state": {"target": ["12", "13", "13", "13", "12", "1", "2", "23", "24", "30", "32", "31"], "time": [1421, 1844, 2039, 2448, 3442, 4323, 4513, 5408, 5871, 8636, 8845, 10546]}, "edge": {"target": [], "time": []}}, "mouseout": {"state": {"target": ["2", "0", "12", "13", "13", "13", "12", "1", "2", "23", "24", "30", "32"], "time": [717, 1373, 1463, 1900, 2242, 3379, 3482, 4344, 5038, 5445, 6725, 8684, 9240]}, "edge": {"target": [], "time": []}}}, "displayed_time": "14.22", "trialTime": 15181, "trial_type": "mouselab-mdp", "trial_index": 5, "time_elapsed": 391597, "internal_node_id": "0.0-2.0-2.0-1.0"}}, {"uniqueid": "w69843463:a56732672", "current_trial": 6, "dateTime": 1691166138436, "trialdata": {"view_history": [{"page_index": 0, "viewing_time": 104211}, {"page_index": 1, "viewing_time": 2784}], "rt": 106995, "trial_id": "mouselab_instructions_2_control", "trial_type": "instructions", "trial_index": 6, "time_elapsed": 498592, "internal_node_id": "0.0-2.0-3.0"}}, {"uniqueid": "w69843463:a56732672", "current_trial": 7, "dateTime": 1691166173912, "trialdata": {"rt": 35472, "response": {"Q0": "The cost for clicking on nodes may vary between nodes.", "Q1": "The better I perform the higher my bonus will be.", "Q2": "Yes.", "Q3": "To get the highest total score.", "Q4": "Only before moving the spider.", "Q5": "3 seconds"}, "question_order": [0, 1, 2, 3, 4, 5], "correct": {"Q0": "The cost for clicking on nodes may vary between nodes.", "Q1": "The better I perform the higher my bonus will be.", "Q2": "No, the amount of cash at each node of the web may be different each time.", "Q3": "To get the highest total score.", "Q4": "Only before moving the spider.", "Q5": "3 seconds"}, "trial_id": "mouselab_quiz_control", "trial_type": "survey-multi-choice", "trial_index": 7, "time_elapsed": 534068, "internal_node_id": "0.0-2.0-4.0"}}, {"uniqueid": "w69843463:a56732672", "current_trial": 8, "dateTime": 1691166179234, "trialdata": {"success": true, "trial_type": "fullscreen", "trial_index": 8, "time_elapsed": 539389, "internal_node_id": "0.0-2.1-0.1"}}, {"uniqueid": "w69843463:a56732672", "current_trial": 9, "dateTime": 1691166339110, "trialdata": {"view_history": [{"page_index": 0, "viewing_time": 46520}, {"page_index": 1, "viewing_time": 29933}, {"page_index": 2, "viewing_time": 7950}, {"page_index": 3, "viewing_time": 75473}], "rt": 159876, "trial_id": "mouselab_instructions_1_control", "trial_type": "instructions", "trial_index": 9, "time_elapsed": 699266, "internal_node_id": "0.0-2.1-1.1"}}, {"uniqueid": "w69843463:a56732672", "current_trial": 10, "dateTime": 1691166349967, "trialdata": {"revealed_states": [], "clicked_states": ["2"], "num_clicks_accrued": [0, 0, 0, 0, 0, 0, 0, 0, 0, 0, 0, 0, 0], "stateRewards": ["", -10, 10, 10, 10, 10, 10, -10, -10, 10, -10, -10, 10, -10, -10, -10, 10, -10, -10, -10, 10, -10, -10, -10, -10, -10, -10, -10, 10, 10, 10, 10, -10, -10], "withholdReward": false, "trial_id": "practice_1", "block": "test", "trialIndex": 2, "score": 33, "costs": -0.5, "simulationMode": [null, null, null, null, null], "rewards": [-10, 10, 10, 10, 10], "path": ["0", "0", "1", "2", "3", "4", "5"], "rt": [3195, 483, 1836, 171, 49], "actions": ["up", "up", "up", "right", "up"], "actionTimes": [4364, 5371, 7740, 8444, 9028], "queries": {"click": {"state": {"target": ["2"], "time": [2005]}, "edge": {"target": [], "time": []}}, "mouseover": {"state": {"target": ["1", "2", "1", "13", "14", "13"], "time": [1575, 1754, 2579, 2900, 3061, 3422]}, "edge": {"target": [], "time": []}}, "mouseout": {"state": {"target": ["0", "1", "2", "1", "13", "14", "13"], "time": [1491, 1657, 2352, 2600, 3000, 3387, 4390]}, "edge": {"target": [], "time": []}}}, "displayed_time": "9.57", "trialTime": 10651, "trial_type": "mouselab-mdp", "trial_index": 10, "time_elapsed": 710123, "internal_node_id": "0.0-2.1-2.1-0.1"}}, {"uniqueid": "w69843463:a56732672", "current_trial": 11, "dateTime": 1691166358919, "trialdata": {"revealed_states": [], "clicked_states": ["25"], "num_clicks_accrued": [0, 0, 0, 0, 0, 0, 0, 0, 0, 0, 0, 0, 0], "stateRewards": ["", 10, -10, -10, 10, 10, 10, 10, -10, -10, -10, 10, -10, -10, 10, 10, -10, 10, 10, 10, 10, 10, -10, -10, -10, 10, 10, -10, 10, 10, -10, -10, -10, 10], "withholdReward": false, "trial_id": "practice_2", "block": "test", "trialIndex": 3, "score": -27, "costs": -0.5, "simulationMode": [null, null, null, null, null], "rewards": [-10, -10, 10, -10, -10], "path": ["0", "0", "23", "24", "25", "30", "31"], "rt": [3294, 123, 95, 54, 217], "actions": ["left", "left", "left", "down", "right"], "actionTimes": [4289, 4937, 5561, 6146, 6898], "queries": {"click": {"state": {"target": ["25"], "time": [2790]}, "edge": {"target": [], "time": []}}, "mouseover": {"state": {"target": ["1", "2", "1", "24", "25"], "time": [1412, 1614, 1760, 1954, 2683]}, "edge": {"target": [], "time": []}}, "mouseout": {"state": {"target": ["0", "1", "2", "1", "24", "25"], "time": [1093, 1481, 1717, 1780, 2634, 3487]}, "edge": {"target": [], "time": []}}}, "displayed_time": "7.43", "trialTime": 8761, "trial_type": "mouselab-mdp", "trial_index": 11, "time_elapsed": 719075, "internal_node_id": "0.0-2.1-2.1-1.1"}}, {"uniqueid": "w69843463:a56732672", "current_trial": 12, "dateTime": 1691166383414, "trialdata": {"view_history": [{"page_index": 0, "viewing_time": 18888}, {"page_index": 1, "viewing_time": 1445}, {"page_index": 0, "viewing_time": 2885}, {"page_index": 1, "viewing_time": 1275}], "rt": 24493, "trial_id": "mouselab_instructions_2_control", "trial_type": "instructions", "trial_index": 12, "time_elapsed": 743570, "internal_node_id": "0.0-2.1-3.1"}}, {"uniqueid": "w69843463:a56732672", "current_trial": 13, "dateTime": 1691166455819, "trialdata": {"rt": 72404, "response": {"Q0": "The cost for clicking on nodes may vary between nodes.", "Q1": "The better I perform the higher my bonus will be.", "Q2": "No, the amount of cash at each node of the web may be different each time.", "Q3": "To get the highest total score.", "Q4": "Only before moving the spider.", "Q5": "3 seconds"}, "question_order": [0, 1, 2, 3, 4, 5], "correct": {"Q0": "The cost for clicking on nodes may vary between nodes.", "Q1": "The better I perform the higher my bonus will be.", "Q2": "No, the amount of cash at each node of the web may be different each time.", "Q3": "To get the highest total score.", "Q4": "Only before moving the spider.", "Q5": "3 seconds"}, "trial_id": "mouselab_quiz_control", "trial_type": "survey-multi-choice", "trial_index": 13, "time_elapsed": 815975, "internal_node_id": "0.0-2.1-4.1"}}, {"uniqueid": "w69843463:a56732672", "current_trial": 14, "dateTime": 1691166843018, "trialdata": {"rt": 387195, "stimulus": "\n<h1> Get ready to start the game! </h1>\n\nThank you for reading the instructions. Get ready start with the 40 rounds of this game.\n<br><br>\nIf you need to take a break, feel free to take one after the end of a round, before continuing to the next one.\n<br><br>\nRemember, the more money the spider gets, the bigger your bonus will be!\n<br><br>\n<div style='text-align: center;'>Press <code>space</code> to begin.</div>\n\n<br><br>\n(If, at any point, the <code>space</code> key does not take you to the next page, click once on the text and try again.)", "response": " ", "trial_id": "mdp_ready", "trial_type": "html-keyboard-response", "trial_index": 14, "time_elapsed": 1203174, "internal_node_id": "0.0-4.0-0.0"}}, {"uniqueid": "w69843463:a56732672", "current_trial": 15, "dateTime": 1691166859954, "trialdata": {"revealed_states": [], "clicked_states": ["25"], "num_clicks_accrued": [0, 0, 0, 0, 0, 0, 0, 0, 0, 0, 0, 0, 0], "stateRewards": ["", 1, -2, -2, 10, -31, -77, 35, 9, -47, 8, 48, -2, 1, -4, -3, -26, -50, 43, -11, 76, -38, 17, 1, -1, 6, 10, 15, -9, 12, -8, 85, 11, -55], "withholdReward": false, "trial_id": "mdp_trial_1", "block": "test", "trialIndex": 4, "score": 29.6, "costs": -1.4, "simulationMode": [null, null, null, null, null], "rewards": [1, -1, 6, 10, 15], "path": ["0", "0", "23", "24", "25", "26", "27"], "rt": [3778, 29, 77, 266, 324], "actions": ["left", "left", "left", "up", "up"], "actionTimes": [5113, 5681, 6289, 7081, 7945], "queries": {"click": {"state": {"target": ["25"], "time": [2816]}, "edge": {"target": [], "time": []}}, "mouseover": {"state": {"target": ["23", "24", "25"], "time": [1752, 1828, 2404]}, "edge": {"target": [], "time": []}}, "mouseout": {"state": {"target": ["3", "2", "1", "0", "23", "24", "25", "25"], "time": [388, 450, 638, 1703, 1793, 2342, 9513, 16685]}, "edge": {"target": [], "time": []}}}, "displayed_time": "15.57", "trialTime": 16729, "trial_type": "mouselab-mdp", "trial_index": 15, "time_elapsed": 1220110, "internal_node_id": "0.0-4.0-1.0-0.0"}}, {"uniqueid": "w69843463:a56732672", "current_trial": 16, "dateTime": 1691166876217, "trialdata": {"revealed_states": [], "clicked_states": ["13", "2"], "num_clicks_accrued": [0, 0, 0, 0, 0, 0, 0, 0, 0, 0, 0, 0, 0], "stateRewards": ["", 2, 3, -1, 6, 44, -4, -59, -14, -3, 64, 16, 1, -3, 3, 6, 3, 49, 19, 3, -49, -14, -86, 1, 2, -3, -8, -33, 14, 32, -13, -77, -47, -67], "withholdReward": false, "trial_id": "mdp_trial_2", "block": "test", "trialIndex": 5, "score": 3.1999999999999993, "costs": -2.8, "simulationMode": [null, null, null, null, null], "rewards": [2, 3, -1, -14, 16], "path": ["0", "0", "1", "2", "3", "8", "11"], "rt": [6388, 1, 1740, 121, 249], "actions": ["up", "up", "up", "left", "left"], "actionTimes": [7476, 8012, 10284, 10932, 11716], "queries": {"click": {"state": {"target": ["13", "2"], "time": [2739, 5414]}, "edge": {"target": [], "time": []}}, "mouseover": {"state": {"target": ["12", "13", "12", "1", "2"], "time": [1582, 2007, 4860, 4958, 5173]}, "edge": {"target": [], "time": []}}, "mouseout": {"state": {"target": ["0", "12", "13", "12", "1", "2"], "time": [1505, 1910, 4826, 4880, 5081, 5739]}, "edge": {"target": [], "time": []}}}, "displayed_time": "15.44", "trialTime": 16051, "trial_type": "mouselab-mdp", "trial_index": 16, "time_elapsed": 1236372, "internal_node_id": "0.0-4.0-1.0-1.0"}}, {"uniqueid": "w69843463:a56732672", "current_trial": 17, "dateTime": 1691166892409, "trialdata": {"revealed_states": [], "clicked_states": ["23", "12"], "num_clicks_accrued": [0, 0, 0, 0, 0, 0, 0, 0, 0, 0, 0, 0, 0], "stateRewards": ["", -2, 2, 3, -7, 76, 63, 21, 15, 35, -8, -44, 1, 1, -2, -12, 23, 24, 76, -9, 46, 66, -49, -2, -1, 7, 12, 40, -71, -45, -6, 38, -49, 46], "withholdReward": false, "trial_id": "mdp_trial_3", "block": "test", "trialIndex": 6, "score": 14.2, "costs": -2.8, "simulationMode": [null, null, null, null, null], "rewards": [-2, 2, 3, -7, 21], "path": ["0", "0", "1", "2", "3", "4", "7"], "rt": [6012, 36, 57, 23, 356], "actions": ["up", "up", "up", "right", "down"], "actionTimes": [6999, 7567, 8150, 8702, 9582], "queries": {"click": {"state": {"target": ["23", "12"], "time": [1894, 4137]}, "edge": {"target": [], "time": []}}, "mouseover": {"state": {"target": ["23", "23", "0", "12"], "time": [1427, 1697, 3907, 4031]}, "edge": {"target": [], "time": []}}, "mouseout": {"state": {"target": ["23", "23", "0", "12"], "time": [1537, 3858, 3977, 4489]}, "edge": {"target": [], "time": []}}}, "displayed_time": "15.26", "trialTime": 15991, "trial_type": "mouselab-mdp", "trial_index": 17, "time_elapsed": 1252565, "internal_node_id": "0.0-4.0-1.0-2.0"}}, {"uniqueid": "w69843463:a56732672", "current_trial": 18, "dateTime": 1691166908816, "trialdata": {"revealed_states": [], "clicked_states": ["23"], "num_clicks_accrued": [0, 0, 0, 0, 0, 0, 0, 0, 0, 0, 0, 0, 0], "stateRewards": ["", 2, -1, 5, 8, 75, -35, -77, 1, -9, -81, -58, 1, 2, -7, 5, 77, -16, 19, 16, -10, -18, 40, -2, 3, 7, -5, 64, 1, -62, 10, 27, 10, 65], "withholdReward": false, "trial_id": "mdp_trial_4", "block": "test", "trialIndex": 7, "score": -7.4, "costs": -1.4, "simulationMode": [null, null, null, null, null], "rewards": [1, 2, -7, 16, -18], "path": ["0", "0", "12", "13", "14", "19", "21"], "rt": [3452, 25, 116, 395, 211], "actions": ["right", "right", "right", "down", "down"], "actionTimes": [4779, 5331, 5971, 6891, 7627], "queries": {"click": {"state": {"target": ["23"], "time": [2506]}, "edge": {"target": [], "time": []}}, "mouseover": {"state": {"target": ["23", "0"], "time": [2317, 2963]}, "edge": {"target": [], "time": []}}, "mouseout": {"state": {"target": ["12", "0", "23", "0", "23", "24", "30", "31", "30", "31"], "time": [765, 1843, 2852, 9732, 9802, 9823, 11969, 12233, 12303, 12358]}, "edge": {"target": [], "time": []}}}, "displayed_time": "15.54", "trialTime": 16211, "trial_type": "mouselab-mdp", "trial_index": 18, "time_elapsed": 1268972, "internal_node_id": "0.0-4.0-1.0-3.0"}}, {"uniqueid": "w69843463:a56732672", "current_trial": 19, "dateTime": 1691166925336, "trialdata": {"revealed_states": [], "clicked_states": ["1", "2"], "num_clicks_accrued": [0, 0, 0, 0, 0, 0, 0, 0, 0, 0, 0, 0, 0], "stateRewards": ["", 2, 4, 4, 9, -88, -10, 44, 16, -54, 64, 78, 1, 2, 5, 16, 80, 36, 7, -4, 9, -47, -70, -1, -3, 6, -16, 11, 80, 28, 8, -1, 34, -17], "withholdReward": false, "trial_id": "mdp_trial_5", "block": "test", "trialIndex": 8, "score": -71.8, "costs": -2.8, "simulationMode": [null, null, null, null, null], "rewards": [2, 4, 4, 9, -88], "path": ["0", "0", "1", "2", "3", "4", "5"], "rt": [5918, 23, 94, 294, 26], "actions": ["up", "up", "up", "right", "up"], "actionTimes": [7164, 7717, 8349, 9173, 9732], "queries": {"click": {"state": {"target": ["1", "2"], "time": [2548, 4720]}, "edge": {"target": [], "time": []}}, "mouseover": {"state": {"target": ["1", "1", "2"], "time": [1810, 2242, 3249]}, "edge": {"target": [], "time": []}}, "mouseout": {"state": {"target": ["0", "1", "1", "2", "2", "7"], "time": [1471, 2040, 2982, 5027, 8470, 8660]}, "edge": {"target": [], "time": []}}}, "displayed_time": "15.50", "trialTime": 16308, "trial_type": "mouselab-mdp", "trial_index": 19, "time_elapsed": 1285492, "internal_node_id": "0.0-4.0-1.0-4.0"}}, {"uniqueid": "w69843463:a56732672", "current_trial": 20, "dateTime": 1691166945151, "trialdata": {"revealed_states": [], "clicked_states": [], "num_clicks_accrued": [0, 0, 0, 0, 0, 0, 0, 0, 0, 0, 0, 0, 0], "stateRewards": ["", -2, 2, -5, -6, 10, -66, -58, -10, -11, -63, -70, -1, -4, -5, 7, 66, -64, -43, -3, 45, -37, 4, -2, -2, -6, -4, -30, 33, 43, 15, -32, -65, -59], "withholdReward": false, "trial_id": "mdp_trial_6", "block": "test", "trialIndex": 9, "score": -60, "costs": 0, "simulationMode": [null, null, null, null, null], "rewards": [-2, -2, -6, 15, -65], "path": ["0", "0", "23", "24", "25", "30", "32"], "rt": [540, 88, 72, 348, 214], "actions": ["left", "left", "left", "down", "down"], "actionTimes": [2467, 3074, 3682, 4562, 5299], "queries": {"click": {"state": {"target": [], "time": []}, "edge": {"target": [], "time": []}}, "mouseover": {"state": {"target": [], "time": []}, "edge": {"target": [], "time": []}}, "mouseout": {"state": {"target": ["4", "0", "0", "23", "26", "29"], "time": [1240, 2541, 7035, 7062, 7111, 7130]}, "edge": {"target": [], "time": []}}}, "displayed_time": "18.09", "trialTime": 19618, "trial_type": "mouselab-mdp", "trial_index": 20, "time_elapsed": 1305307, "internal_node_id": "0.0-4.0-1.0-5.0"}}, {"uniqueid": "w69843463:a56732672", "current_trial": 21, "dateTime": 1691166962294, "trialdata": {"revealed_states": [], "clicked_states": [], "num_clicks_accrued": [0, 0, 0, 0, 0, 0, 0, 0, 0, 0, 0, 0, 0], "stateRewards": ["", 1, -4, -4, 8, 1, -79, 68, -10, -79, 8, -74, -1, -3, -6, 14, 43, 23, 9, 5, -51, 63, 61, -2, 4, 6, -10, 69, -32, 57, 15, -80, -80, -77], "withholdReward": false, "trial_id": "mdp_trial_7", "block": "test", "trialIndex": 10, "score": -57, "costs": 0, "simulationMode": [null, null, null, null, null], "rewards": [-2, 4, 6, 15, -80], "path": ["0", "0", "23", "24", "25", "30", "32"], "rt": [341, 335, 106, 0, 44], "actions": ["left", "left", "left", "down", "down"], "actionTimes": [1126, 2005, 2654, 3187, 3757], "queries": {"click": {"state": {"target": [], "time": []}, "edge": {"target": [], "time": []}}, "mouseover": {"state": {"target": [], "time": []}, "edge": {"target": [], "time": []}}, "mouseout": {"state": {"target": ["0", "23", "24"], "time": [1104, 4625, 4648]}, "edge": {"target": [], "time": []}}}, "displayed_time": "14.94", "trialTime": 16941, "trial_type": "mouselab-mdp", "trial_index": 21, "time_elapsed": 1322450, "internal_node_id": "0.0-4.0-1.0-6.0"}}, {"uniqueid": "w69843463:a56732672", "current_trial": 22, "dateTime": 1691166978782, "trialdata": {"revealed_states": [], "clicked_states": ["3", "14", "25"], "num_clicks_accrued": [0, 0, 0, 0, 0, 0, 0, 0, 0, 0, 0, 0, 0], "stateRewards": ["", -1, 1, -6, -1, 80, 23, 2, -11, 73, -81, 59, 1, 3, 5, -1, -26, 28, -3, 16, -59, -13, -50, -2, -2, 2, 15, -50, 86, 17, -4, 37, 35, 44], "withholdReward": false, "trial_id": "mdp_trial_8", "block": "test", "trialIndex": 11, "score": -29.2, "costs": -4.199999999999999, "simulationMode": [null, null, null, null, null], "rewards": [1, 3, 5, 16, -50], "path": ["0", "0", "12", "13", "14", "19", "22"], "rt": [7740, 382, 151, 42, 114], "actions": ["right", "right", "right", "down", "left"], "actionTimes": [8770, 9690, 10370, 10938, 11578], "queries": {"click": {"state": {"target": ["3", "14", "25"], "time": [2750, 4728, 6789]}, "edge": {"target": [], "time": []}}, "mouseover": {"state": {"target": ["1", "2", "10", "3", "2", "7", "18", "14", "13", "12", "23", "24", "25", "24", "23", "0", "13"], "time": [1790, 1885, 2009, 2597, 3584, 3648, 3751, 4009, 5021, 5054, 5100, 5131, 5194, 7022, 7072, 7105, 7176]}, "edge": {"target": [], "time": []}}, "mouseout": {"state": {"target": ["0", "1", "2", "10", "3", "2", "7", "18", "14", "13", "12", "23", "24", "25", "24", "23", "0", "13", "14", "13", "12", "23", "24", "33"], "time": [1711, 1838, 1948, 2266, 3118, 3606, 3701, 3802, 4969, 5044, 5072, 5123, 5152, 6997, 7049, 7095, 7126, 7200, 13781, 13816, 13847, 13872, 13896, 15232]}, "edge": {"target": [], "time": []}}}, "displayed_time": "15.36", "trialTime": 16266, "trial_type": "mouselab-mdp", "trial_index": 22, "time_elapsed": 1338938, "internal_node_id": "0.0-4.0-1.0-7.0"}}, {"uniqueid": "w69843463:a56732672", "current_trial": 23, "dateTime": 1691166997350, "trialdata": {"revealed_states": [], "clicked_states": [], "num_clicks_accrued": [0, 0, 0, 0, 0, 0, 0, 0, 0, 0, 0, 0, 0], "stateRewards": ["", 1, -2, -3, 14, -42, -87, -37, -11, -50, 33, -44, -2, 4, -7, 13, 48, -75, -66, 12, 23, -2, 82, 1, -4, 3, 12, 51, -15, -26, -11, -52, -29, 82], "withholdReward": false, "trial_id": "mdp_trial_9", "block": "test", "trialIndex": 12, "score": -32, "costs": 0, "simulationMode": [null, null, null, null, null], "rewards": [1, -2, -3, 14, -42], "path": ["0", "0", "1", "2", "3", "4", "5"], "rt": [432, 72, 118, 1, 128], "actions": ["up", "up", "up", "right", "up"], "actionTimes": [2140, 2740, 3388, 3916, 4596], "queries": {"click": {"state": {"target": [], "time": []}, "edge": {"target": [], "time": []}}, "mouseover": {"state": {"target": [], "time": []}, "edge": {"target": [], "time": []}}, "mouseout": {"state": {"target": ["31", "0", "23", "24", "25"], "time": [1240, 7271, 7319, 7342, 7366]}, "edge": {"target": [], "time": []}}}, "displayed_time": "15.86", "trialTime": 18372, "trial_type": "mouselab-mdp", "trial_index": 23, "time_elapsed": 1357506, "internal_node_id": "0.0-4.0-1.0-8.0"}}, {"uniqueid": "w69843463:a56732672", "current_trial": 24, "dateTime": 1691167013029, "trialdata": {"revealed_states": [], "clicked_states": [], "num_clicks_accrued": [0, 0, 0, 0, 0, 0, 0, 0, 0, 0, 0, 0, 0], "stateRewards": ["", 2, -3, -2, 14, -4, 85, 46, 15, -28, 41, 31, -1, -1, -1, 5, 62, 79, 57, 12, -73, -64, 86, -1, 1, -3, -5, 68, 11, -32, 8, -80, -21, -56], "withholdReward": false, "trial_id": "mdp_trial_10", "block": "test", "trialIndex": 13, "score": 60, "costs": 0, "simulationMode": [null, null, null, null, null], "rewards": [-1, 1, -3, -5, 68], "path": ["0", "0", "23", "24", "25", "26", "27"], "rt": [839, 82, 447, 284, 365], "actions": ["left", "left", "left", "up", "up"], "actionTimes": [1579, 2186, 3162, 3971, 4866], "queries": {"click": {"state": {"target": [], "time": []}, "edge": {"target": [], "time": []}}, "mouseover": {"state": {"target": ["0"], "time": [1039]}, "edge": {"target": [], "time": []}}, "mouseout": {"state": {"target": ["23", "0", "23", "24", "25"], "time": [454, 2179, 5983, 6012, 15257]}, "edge": {"target": [], "time": []}}}, "displayed_time": "14.89", "trialTime": 15458, "trial_type": "mouselab-mdp", "trial_index": 24, "time_elapsed": 1373185, "internal_node_id": "0.0-4.0-1.0-9.0"}}, {"uniqueid": "w69843463:a56732672", "current_trial": 25, "dateTime": 1691167029541, "trialdata": {"revealed_states": [], "clicked_states": ["3", "25", "14"], "num_clicks_accrued": [0, 0, 0, 0, 0, 0, 0, 0, 0, 0, 0, 0, 0], "stateRewards": ["", -2, 3, -1, -9, 44, 48, -37, -3, 71, -39, 87, -1, 3, -4, 4, -21, 59, -15, -8, -1, 28, -38, 2, 4, 4, 8, -85, -72, -63, 14, 58, 63, -46], "withholdReward": false, "trial_id": "mdp_trial_11", "block": "test", "trialIndex": 14, "score": -71.2, "costs": -4.199999999999999, "simulationMode": [null, null, null, null, null], "rewards": [2, 4, 4, 8, -85], "path": ["0", "0", "23", "24", "25", "26", "27"], "rt": [7285, 414, 60, 68, 323], "actions": ["left", "left", "left", "up", "up"], "actionTimes": [8393, 9345, 9937, 10537, 11385], "queries": {"click": {"state": {"target": ["3", "25", "14"], "time": [2300, 4223, 6301]}, "edge": {"target": [], "time": []}}, "mouseover": {"state": {"target": ["1", "2", "3", "2", "28", "25", "24", "23", "0", "12", "14", "13"], "time": [1498, 1721, 2014, 2956, 3167, 3304, 4455, 4507, 4545, 4578, 4898, 6646]}, "edge": {"target": [], "time": []}}, "mouseout": {"state": {"target": ["23", "0", "1", "2", "3", "2", "28", "25", "24", "23", "0", "12", "14", "13"], "time": [801, 1368, 1610, 1874, 2862, 3016, 3209, 4431, 4499, 4523, 4569, 4596, 6604, 6691]}, "edge": {"target": [], "time": []}}}, "displayed_time": "15.33", "trialTime": 16305, "trial_type": "mouselab-mdp", "trial_index": 25, "time_elapsed": 1389697, "internal_node_id": "0.0-4.0-1.0-10.0"}}, {"uniqueid": "w69843463:a56732672", "current_trial": 26, "dateTime": 1691167047877, "trialdata": {"revealed_states": [], "clicked_states": ["25", "3", "14"], "num_clicks_accrued": [0, 0, 0, 0, 0, 0, 0, 0, 0, 0, 0, 0, 0], "stateRewards": ["", 1, 1, -2, 7, -31, -6, 76, 1, -36, -16, -53, 2, 1, 7, 13, -47, -10, 47, -7, 72, 46, -56, -2, -2, -2, 11, -80, 44, 38, 16, 67, 85, -78], "withholdReward": false, "trial_id": "mdp_trial_12", "block": "test", "trialIndex": 15, "score": 65.8, "costs": -4.199999999999999, "simulationMode": [null, null, null, null, null], "rewards": [2, 1, 7, 13, 47], "path": ["0", "0", "12", "13", "14", "15", "18"], "rt": [7394, 75, 3, 59, 0], "actions": ["right", "right", "right", "up", "left"], "actionTimes": [8145, 8754, 9289, 9873, 10408], "queries": {"click": {"state": {"target": ["25", "3", "14"], "time": [1447, 3664, 6144]}, "edge": {"target": [], "time": []}}, "mouseover": {"state": {"target": ["23", "24", "25", "25", "2", "4", "3", "7", "3", "7", "18", "14"], "time": [1003, 1062, 1111, 1294, 1845, 1947, 2163, 2934, 3550, 3978, 4054, 4264]}, "edge": {"target": [], "time": []}}, "mouseout": {"state": {"target": ["0", "23", "24", "25", "25", "2", "4", "3", "7", "3", "7", "18", "14", "13", "12", "23", "24"], "time": [627, 1037, 1085, 1175, 1704, 1875, 2093, 2674, 3216, 3902, 4025, 4106, 6954, 11745, 11765, 11786, 11808]}, "edge": {"target": [], "time": []}}}, "displayed_time": "15.09", "trialTime": 18130, "trial_type": "mouselab-mdp", "trial_index": 26, "time_elapsed": 1408033, "internal_node_id": "0.0-4.0-1.0-11.0"}}, {"uniqueid": "w69843463:a56732672", "current_trial": 27, "dateTime": 1691167064364, "trialdata": {"revealed_states": [], "clicked_states": ["1"], "num_clicks_accrued": [0, 0, 0, 0, 0, 0, 0, 0, 0, 0, 0, 0, 0], "stateRewards": ["", 2, 3, 8, 11, 25, -80, 6, -4, -56, 84, -23, -2, -4, -3, 4, -51, -9, -61, -15, -64, 67, -35, 1, -1, -7, -6, 83, 59, -15, 12, -79, 56, 41], "withholdReward": false, "trial_id": "mdp_trial_13", "block": "test", "trialIndex": 16, "score": -48.4, "costs": -1.4, "simulationMode": [null, null, null, null, null], "rewards": [2, 3, 8, -4, -56], "path": ["0", "0", "1", "2", "3", "8", "9"], "rt": [2619, 103, 16, 427, 210], "actions": ["up", "up", "up", "left", "up"], "actionTimes": [3418, 4058, 4609, 5578, 6314], "queries": {"click": {"state": {"target": ["1"], "time": [1444]}, "edge": {"target": [], "time": []}}, "mouseover": {"state": {"target": ["1"], "time": [1153]}, "edge": {"target": [], "time": []}}, "mouseout": {"state": {"target": ["33", "30", "31", "23", "0", "1", "27", "26", "24", "24", "25", "29", "33", "30", "31"], "time": [178, 366, 435, 498, 1105, 1849, 11473, 11828, 11945, 12049, 12084, 12113, 15938, 15974, 15996]}, "edge": {"target": [], "time": []}}}, "displayed_time": "15.02", "trialTime": 16282, "trial_type": "mouselab-mdp", "trial_index": 27, "time_elapsed": 1424520, "internal_node_id": "0.0-4.0-1.0-12.0"}}, {"uniqueid": "w69843463:a56732672", "current_trial": 28, "dateTime": 1691167080188, "trialdata": {"revealed_states": [], "clicked_states": ["12", "14", "21"], "num_clicks_accrued": [0, 0, 0, 0, 0, 0, 0, 0, 0, 0, 0, 0, 0], "stateRewards": ["", -2, 3, 3, -14, 62, 36, 49, 16, 11, 17, -84, 2, -1, 6, 2, -82, -73, 49, -6, -87, 48, 50, -1, -2, -1, -16, -11, 37, -44, 4, 55, 73, -10], "withholdReward": false, "trial_id": "mdp_trial_14", "block": "test", "trialIndex": 17, "score": 44.8, "costs": -4.199999999999999, "simulationMode": [null, null, null, null, null], "rewards": [2, -1, 6, -6, 48], "path": ["0", "0", "12", "13", "14", "19", "21"], "rt": [7196, 0, 14, 469, 64], "actions": ["right", "right", "right", "down", "down"], "actionTimes": [7807, 8332, 8871, 9879, 10471], "queries": {"click": {"state": {"target": ["12", "14", "21"], "time": [1153, 3355, 5715]}, "edge": {"target": [], "time": []}}, "mouseover": {"state": {"target": ["0", "12", "13", "14", "19", "21"], "time": [711, 976, 3156, 3288, 5295, 5552]}, "edge": {"target": [], "time": []}}, "mouseout": {"state": {"target": ["0", "0", "12", "13", "14", "19", "21"], "time": [480, 920, 1713, 3205, 3616, 5462, 6545]}, "edge": {"target": [], "time": []}}}, "displayed_time": "15.16", "trialTime": 15616, "trial_type": "mouselab-mdp", "trial_index": 28, "time_elapsed": 1440344, "internal_node_id": "0.0-4.0-1.0-13.0"}}, {"uniqueid": "w69843463:a56732672", "current_trial": 29, "dateTime": 1691167096539, "trialdata": {"revealed_states": [], "clicked_states": ["12", "19", "15"], "num_clicks_accrued": [0, 0, 0, 0, 0, 0, 0, 0, 0, 0, 0, 0, 0], "stateRewards": ["", -2, 2, -4, -4, -59, 88, 62, -3, 69, -15, -34, 1, -2, -5, 7, -54, -20, 78, -16, -74, -53, -21, 2, -4, 2, 13, -8, -44, 26, 9, 72, 4, 17], "withholdReward": false, "trial_id": "mdp_trial_15", "block": "test", "trialIndex": 18, "score": 74.8, "costs": -4.199999999999999, "simulationMode": [null, null, null, null, null], "rewards": [1, -2, -5, 7, 78], "path": ["0", "0", "12", "13", "14", "15", "18"], "rt": [8281, 0, 99, 43, 227], "actions": ["right", "right", "right", "up", "left"], "actionTimes": [9706, 10241, 10865, 11449, 12201], "queries": {"click": {"state": {"target": ["12", "19", "15"], "time": [2779, 5272, 7643]}, "edge": {"target": [], "time": []}}, "mouseover": {"state": {"target": ["12", "13", "12", "0", "19", "14", "15"], "time": [1654, 1792, 2562, 3381, 5087, 7432, 7508]}, "edge": {"target": [], "time": []}}, "mouseout": {"state": {"target": ["19", "22", "0", "12", "13", "12", "0", "12", "19", "14", "15"], "time": [879, 977, 1618, 1677, 2508, 3319, 4743, 4785, 7370, 7473, 7895]}, "edge": {"target": [], "time": []}}}, "displayed_time": "15.70", "trialTime": 16137, "trial_type": "mouselab-mdp", "trial_index": 29, "time_elapsed": 1456695, "internal_node_id": "0.0-4.0-1.0-14.0"}}, {"uniqueid": "w69843463:a56732672", "current_trial": 30, "dateTime": 1691167113970, "trialdata": {"revealed_states": [], "clicked_states": ["23", "25"], "num_clicks_accrued": [0, 0, 0, 0, 0, 0, 0, 0, 0, 0, 0, 0, 0], "stateRewards": ["", -2, -1, -6, -14, -55, 78, -13, 11, 14, -71, 59, 2, 2, 6, -6, 9, 38, 14, 7, 85, 11, 68, 1, -4, -1, -3, -63, -85, 9, -2, 63, -86, -10], "withholdReward": false, "trial_id": "mdp_trial_16", "block": "test", "trialIndex": 19, "score": -94.8, "costs": -2.8, "simulationMode": [null, null, null, null, null], "rewards": [1, -4, -1, -2, -86], "path": ["0", "0", "23", "24", "25", "30", "32"], "rt": [7172, 476, 133, 7, 127], "actions": ["left", "left", "left", "down", "down"], "actionTimes": [7865, 8872, 9537, 10072, 10728], "queries": {"click": {"state": {"target": ["23", "25"], "time": [2766, 5412]}, "edge": {"target": [], "time": []}}, "mouseover": {"state": {"target": ["23", "24", "25", "24", "23", "1", "25", "24", "24"], "time": [1079, 1533, 2163, 2481, 2578, 3539, 5299, 5651, 7758]}, "edge": {"target": [], "time": []}}, "mouseout": {"state": {"target": ["14", "13", "12", "0", "23", "24", "25", "24", "23", "1", "25", "24", "23", "24", "24", "25"], "time": [332, 394, 457, 1022, 1384, 1939, 2454, 2529, 3285, 4981, 5594, 5728, 7522, 11548, 12667, 12725]}, "edge": {"target": [], "time": []}}}, "displayed_time": "14.90", "trialTime": 17208, "trial_type": "mouselab-mdp", "trial_index": 30, "time_elapsed": 1474126, "internal_node_id": "0.0-4.0-1.0-15.0"}}, {"uniqueid": "w69843463:a56732672", "current_trial": 31, "dateTime": 1691167131338, "trialdata": {"revealed_states": [], "clicked_states": ["23", "25", "3", "14"], "num_clicks_accrued": [0, 0, 0, 0, 0, 0, 0, 0, 0, 0, 0, 0, 0], "stateRewards": ["", 2, 3, 6, -5, -74, -53, 17, -12, 46, 44, 18, -2, 4, 1, -8, 22, -23, -49, 9, -45, 55, 81, 1, -1, -7, -16, -83, -71, -45, 2, 51, 82, 61], "withholdReward": false, "trial_id": "mdp_trial_17", "block": "test", "trialIndex": 20, "score": -52.6, "costs": -5.6, "simulationMode": [null, null, null, null, null], "rewards": [2, 3, 6, -5, -53], "path": ["0", "0", "1", "2", "3", "4", "6"], "rt": [11809, 422, 84, 51, 62], "actions": ["up", "up", "up", "right", "right"], "actionTimes": [12797, 13749, 14357, 14949, 15533], "queries": {"click": {"state": {"target": ["23", "25", "3", "14"], "time": [1681, 4274, 8507, 10733]}, "edge": {"target": [], "time": []}}, "mouseover": {"state": {"target": ["23", "1", "24", "25", "24", "23", "0", "12", "13", "13", "2", "3", "2", "18", "14", "18", "2"], "time": [1513, 2290, 3993, 4090, 6385, 6433, 6479, 6527, 6571, 7224, 7601, 8298, 8858, 10166, 10368, 10951, 11057]}, "edge": {"target": [], "time": []}}, "mouseout": {"state": {"target": ["0", "23", "23", "1", "24", "25", "25", "24", "23", "0", "12", "13", "13", "2", "3", "2", "18", "14", "18", "2", "28", "28", "23"], "time": [1332, 1776, 1951, 3895, 4027, 4369, 6361, 6409, 6453, 6504, 6552, 7069, 7250, 8209, 8769, 8878, 10242, 10880, 10977, 11377, 16507, 16805, 16867]}, "edge": {"target": [], "time": []}}}, "displayed_time": "16.07", "trialTime": 17157, "trial_type": "mouselab-mdp", "trial_index": 31, "time_elapsed": 1491494, "internal_node_id": "0.0-4.0-1.0-16.0"}}, {"uniqueid": "w69843463:a56732672", "current_trial": 32, "dateTime": 1691167148338, "trialdata": {"revealed_states": [], "clicked_states": ["3", "14", "9", "5", "6"], "num_clicks_accrued": [0, 0, 0, 0, 0, 0, 0, 0, 0, 0, 0, 0, 0], "stateRewards": ["", 2, -1, 5, 6, 10, 86, 55, 10, -45, 63, -71, 1, -2, 5, -8, -50, -72, 36, 15, 61, 12, 33, -1, -4, 6, 5, 79, -56, -21, -16, -87, 60, -81], "withholdReward": false, "trial_id": "mdp_trial_18", "block": "test", "trialIndex": 21, "score": 91, "costs": -7, "simulationMode": [null, null, null, null, null], "rewards": [2, -1, 5, 6, 86], "path": ["0", "0", "1", "2", "3", "4", "6"], "rt": [12001, 147, 63, 160, 41], "actions": ["up", "up", "up", "right", "right"], "actionTimes": [12910, 13589, 14173, 14861, 15430], "queries": {"click": {"state": {"target": ["3", "14", "9", "5", "6"], "time": [1746, 3691, 6229, 8460, 10934]}, "edge": {"target": [], "time": []}}, "mouseover": {"state": {"target": ["0", "1", "2", "3", "7", "18", "14", "13", "12", "0", "23", "24", "25", "11", "9", "8", "3", "5", "4", "6"], "time": [1158, 1381, 1464, 1693, 2033, 2077, 2182, 3955, 4003, 4037, 4066, 4094, 4135, 5903, 6020, 6589, 8173, 8408, 8867, 10854]}, "edge": {"target": [], "time": []}}, "mouseout": {"state": {"target": ["0", "0", "1", "2", "3", "7", "18", "14", "13", "12", "0", "23", "24", "25", "11", "9", "8", "3", "5", "4", "6"], "time": [697, 1312, 1430, 1644, 1970, 2056, 2119, 3930, 3978, 4028, 4056, 4085, 4113, 5813, 5930, 6506, 6702, 8267, 8784, 9065, 11174]}, "edge": {"target": [], "time": []}}}, "displayed_time": "15.95", "trialTime": 16782, "trial_type": "mouselab-mdp", "trial_index": 32, "time_elapsed": 1508494, "internal_node_id": "0.0-4.0-1.0-17.0"}}, {"uniqueid": "w69843463:a56732672", "current_trial": 33, "dateTime": 1691167164545, "trialdata": {"revealed_states": [], "clicked_states": ["17", "16", "18", "20", "21"], "num_clicks_accrued": [0, 0, 0, 0, 0, 0, 0, 0, 0, 0, 0, 0, 0], "stateRewards": ["", 2, -1, -1, 7, 11, -40, -22, -2, 69, 37, 8, -2, 4, -8, -12, -2, -72, -3, -12, 17, 63, 12, 1, 3, -7, 6, 25, 61, 61, -9, 28, -17, 27], "withholdReward": false, "trial_id": "mdp_trial_19", "block": "test", "trialIndex": 22, "score": 38, "costs": -7, "simulationMode": [null, null, null, null, null], "rewards": [-2, 4, -8, -12, 63], "path": ["0", "0", "12", "13", "14", "19", "21"], "rt": [10661, 0, 277, 116, 22], "actions": ["right", "right", "right", "down", "down"], "actionTimes": [11736, 12259, 13056, 13696, 14248], "queries": {"click": {"state": {"target": ["17", "16", "18", "20", "21"], "time": [1752, 3697, 5592, 7613, 9531]}, "edge": {"target": [], "time": []}}, "mouseover": {"state": {"target": ["15", "17", "16", "18", "14", "20", "21", "22"], "time": [1405, 1521, 2432, 4015, 5969, 7536, 8371, 9933]}, "edge": {"target": [], "time": []}}, "mouseout": {"state": {"target": ["0", "15", "17", "16", "18", "18", "14", "20", "20", "21", "22"], "time": [866, 1431, 2065, 3936, 5675, 5890, 6377, 7696, 7914, 9825, 15280]}, "edge": {"target": [], "time": []}}}, "displayed_time": "15.44", "trialTime": 15984, "trial_type": "mouselab-mdp", "trial_index": 33, "time_elapsed": 1524701, "internal_node_id": "0.0-4.0-1.0-18.0"}}, {"uniqueid": "w69843463:a56732672", "current_trial": 34, "dateTime": 1691167183873, "trialdata": {"revealed_states": [], "clicked_states": ["33", "32", "31"], "num_clicks_accrued": [0, 0, 0, 0, 0, 0, 0, 0, 0, 0, 0, 0, 0], "stateRewards": ["", 2, -2, -8, 9, -20, 55, -58, 14, 42, 2, 36, 1, -3, -5, 5, -58, 57, 60, 16, 57, 30, -70, -2, 1, 3, 10, 59, 23, 77, -13, -26, 88, -72], "withholdReward": false, "trial_id": "mdp_trial_20", "block": "test", "trialIndex": 23, "score": 72.8, "costs": -4.199999999999999, "simulationMode": [null, null, null, null, null, null], "rewards": [-2, 1, 3, -13, 88], "path": ["0", "0", "23", "24", "25", "30", "32"], "rt": [5470, 220, 96, 106, 115, 12], "actions": ["left", "left", "left", "left", "down", "down"], "actionTimes": [6105, 6337, 6970, 7601, 8242, 8793], "queries": {"click": {"state": {"target": ["33", "32", "31"], "time": [1534, 3268, 4836]}, "edge": {"target": [], "time": []}}, "mouseover": {"state": {"target": ["23", "24", "25", "33", "32", "31"], "time": [768, 819, 864, 1232, 2270, 3888]}, "edge": {"target": [], "time": []}}, "mouseout": {"state": {"target": ["0", "23", "24", "25", "33", "32", "31", "31", "31", "30"], "time": [734, 796, 842, 886, 1754, 3613, 5146, 9552, 10269, 10293]}, "edge": {"target": [], "time": []}}}, "displayed_time": "14.97", "trialTime": 19106, "trial_type": "mouselab-mdp", "trial_index": 34, "time_elapsed": 1544029, "internal_node_id": "0.0-4.0-1.0-19.0"}}, {"uniqueid": "w69843463:a56732672", "current_trial": 35, "dateTime": 1691167201433, "trialdata": {"revealed_states": [], "clicked_states": ["5"], "num_clicks_accrued": [0, 0, 0, 0, 0, 0, 0, 0, 0, 0, 0, 0, 0], "stateRewards": ["", -2, 4, -5, -12, 85, -24, -18, -15, -78, -22, 26, -1, -1, 2, 14, -45, 52, -23, 7, -33, 24, -6, -2, -4, 5, -7, -16, 36, -39, 5, 71, -87, -23], "withholdReward": false, "trial_id": "mdp_trial_21", "block": "test", "trialIndex": 24, "score": 68.6, "costs": -1.4, "simulationMode": [null, null, null, null, null], "rewards": [-2, 4, -5, -12, 85], "path": ["0", "0", "1", "2", "3", "4", "5"], "rt": [3327, 69, 35, 153, 22], "actions": ["up", "up", "up", "right", "up"], "actionTimes": [4063, 4654, 5223, 5902, 6470], "queries": {"click": {"state": {"target": ["5"], "time": [1852]}, "edge": {"target": [], "time": []}}, "mouseover": {"state": {"target": ["4", "5", "6"], "time": [1374, 1618, 2263]}, "edge": {"target": [], "time": []}}, "mouseout": {"state": {"target": ["0", "4", "5", "6", "12", "31", "12", "0"], "time": [978, 1486, 2086, 7354, 7541, 8314, 16292, 16937]}, "edge": {"target": [], "time": []}}}, "displayed_time": "14.90", "trialTime": 17342, "trial_type": "mouselab-mdp", "trial_index": 35, "time_elapsed": 1561588, "internal_node_id": "0.0-4.0-1.0-20.0"}}, {"uniqueid": "w69843463:a56732672", "current_trial": 36, "dateTime": 1691167221968, "trialdata": {"revealed_states": [], "clicked_states": ["16"], "num_clicks_accrued": [0, 0, 0, 0, 0, 0, 0, 0, 0, 0, 0, 0, 0], "stateRewards": ["", 2, -3, -5, 5, 11, -9, -33, 6, 67, 6, -30, -1, -2, -6, 13, 55, 13, 72, -14, 75, 21, -66, -2, -4, 6, 15, -1, -35, 60, 2, 51, -73, 12], "withholdReward": false, "trial_id": "mdp_trial_22", "block": "test", "trialIndex": 25, "score": 57.6, "costs": -1.4, "simulationMode": [null, null, null, null, null], "rewards": [-1, -2, -6, 13, 55], "path": ["0", "0", "12", "13", "14", "15", "16"], "rt": [3461, 69, 145, 107, 64], "actions": ["right", "right", "right", "up", "up"], "actionTimes": [4613, 5206, 5888, 6526, 7110], "queries": {"click": {"state": {"target": ["16"], "time": [2324]}, "edge": {"target": [], "time": []}}, "mouseover": {"state": {"target": ["12", "14", "17", "16", "15", "17"], "time": [1335, 1741, 1935, 2232, 2601, 3159]}, "edge": {"target": [], "time": []}}, "mouseout": {"state": {"target": ["0", "12", "14", "17", "16", "15", "17", "15", "13", "12", "0", "24"], "time": [1327, 1423, 1808, 2114, 2534, 2851, 7629, 7775, 8316, 8386, 8414, 8442]}, "edge": {"target": [], "time": []}}}, "displayed_time": "15.38", "trialTime": 20325, "trial_type": "mouselab-mdp", "trial_index": 36, "time_elapsed": 1582123, "internal_node_id": "0.0-4.0-1.0-21.0"}}, {"uniqueid": "w69843463:a56732672", "current_trial": 37, "dateTime": 1691167237862, "trialdata": {"revealed_states": [], "clicked_states": ["33", "32", "31"], "num_clicks_accrued": [0, 0, 0, 0, 0, 0, 0, 0, 0, 0, 0, 0, 0], "stateRewards": ["", -1, 4, -6, -5, -22, -38, -38, -2, -56, 88, 14, -1, -1, -7, -6, 61, -60, 21, 11, 57, 31, -30, -2, -2, 6, -9, -44, -70, -44, -15, 34, 16, -78], "withholdReward": false, "trial_id": "mdp_trial_23", "block": "test", "trialIndex": 26, "score": 16.8, "costs": -4.199999999999999, "simulationMode": [null, null, null, null, null], "rewards": [-2, -2, 6, -15, 34], "path": ["0", "0", "23", "24", "25", "30", "31"], "rt": [6617, 124, 121, 415, 159], "actions": ["left", "left", "left", "down", "right"], "actionTimes": [7287, 7943, 8592, 9543, 10231], "queries": {"click": {"state": {"target": ["33", "32", "31"], "time": [1547, 3503, 5406]}, "edge": {"target": [], "time": []}}, "mouseover": {"state": {"target": ["23", "24", "25", "30", "33", "32", "31"], "time": [853, 906, 969, 1288, 1482, 2201, 3854]}, "edge": {"target": [], "time": []}}, "mouseout": {"state": {"target": ["0", "23", "24", "25", "30", "33", "32", "31"], "time": [825, 885, 936, 1233, 1413, 1772, 3671, 6520]}, "edge": {"target": [], "time": []}}}, "displayed_time": "14.92", "trialTime": 15678, "trial_type": "mouselab-mdp", "trial_index": 37, "time_elapsed": 1598018, "internal_node_id": "0.0-4.0-1.0-22.0"}}, {"uniqueid": "w69843463:a56732672", "current_trial": 38, "dateTime": 1691167253711, "trialdata": {"revealed_states": [], "clicked_states": ["29", "27"], "num_clicks_accrued": [0, 0, 0, 0, 0, 0, 0, 0, 0, 0, 0, 0, 0], "stateRewards": ["", 2, -2, 7, -11, -76, -65, -23, 16, -58, 30, 81, 1, 2, 7, 14, 9, 55, -2, 6, 11, -15, 31, -1, -1, -3, 2, 15, 2, 46, 15, 18, 45, -34], "withholdReward": false, "trial_id": "mdp_trial_24", "block": "test", "trialIndex": 27, "score": 40.2, "costs": -2.8, "simulationMode": [null, null, null, null, null], "rewards": [-1, -1, -3, 2, 46], "path": ["0", "0", "23", "24", "25", "26", "29"], "rt": [4744, 87, 31, 186, 63], "actions": ["left", "left", "left", "up", "left"], "actionTimes": [5586, 6211, 6787, 7499, 8091], "queries": {"click": {"state": {"target": ["29", "27"], "time": [1566, 3595]}, "edge": {"target": [], "time": []}}, "mouseover": {"state": {"target": ["23", "29", "26", "27", "27", "28"], "time": [1198, 1409, 1842, 2201, 3474, 4099]}, "edge": {"target": [], "time": []}}, "mouseout": {"state": {"target": ["0", "0", "23", "29", "26", "27", "27", "28", "23", "0"], "time": [547, 1175, 1222, 1782, 1893, 3228, 3804, 9236, 9445, 9681]}, "edge": {"target": [], "time": []}}}, "displayed_time": "15.21", "trialTime": 15635, "trial_type": "mouselab-mdp", "trial_index": 38, "time_elapsed": 1613867, "internal_node_id": "0.0-4.0-1.0-23.0"}}, {"uniqueid": "w69843463:a56732672", "current_trial": 39, "dateTime": 1691167272694, "trialdata": {"revealed_states": [], "clicked_states": ["9", "11", "10"], "num_clicks_accrued": [0, 0, 0, 0, 0, 0, 0, 0, 0, 0, 0, 0, 0], "stateRewards": ["", -2, -1, -3, -1, -78, -6, 2, -1, 22, -88, 32, 2, 2, -7, -8, -51, -17, 54, 2, -44, 54, 75, 2, -2, -8, -15, -29, 12, -67, 15, -1, -47, -47], "withholdReward": false, "trial_id": "mdp_trial_25", "block": "test", "trialIndex": 28, "score": 20.8, "costs": -4.199999999999999, "simulationMode": [null, null, null, null, null], "rewards": [-2, -1, -3, -1, 32], "path": ["0", "0", "1", "2", "3", "8", "11"], "rt": [6513, 42, 97, 96, 118], "actions": ["up", "up", "up", "left", "left"], "actionTimes": [7157, 7726, 8349, 8974, 9618], "queries": {"click": {"state": {"target": ["9", "11", "10"], "time": [1697, 3478, 5386]}, "edge": {"target": [], "time": []}}, "mouseover": {"state": {"target": ["1", "4", "5", "9", "11", "10"], "time": [759, 974, 1168, 1411, 2020, 3955]}, "edge": {"target": [], "time": []}}, "mouseout": {"state": {"target": ["0", "1", "4", "5", "9", "11", "10", "29", "33", "30"], "time": [711, 780, 1085, 1286, 1926, 3668, 5790, 11551, 13350, 13375]}, "edge": {"target": [], "time": []}}}, "displayed_time": "14.91", "trialTime": 18765, "trial_type": "mouselab-mdp", "trial_index": 39, "time_elapsed": 1632850, "internal_node_id": "0.0-4.0-1.0-24.0"}}, {"uniqueid": "w69843463:a56732672", "current_trial": 40, "dateTime": 1691167289422, "trialdata": {"revealed_states": [], "clicked_states": ["18", "16", "17"], "num_clicks_accrued": [0, 0, 0, 0, 0, 0, 0, 0, 0, 0, 0, 0, 0], "stateRewards": ["", 2, -1, 4, -9, -43, 7, 54, -13, 38, -40, -83, -1, 2, -8, -10, 34, -33, 11, -14, -79, 65, 26, 1, 2, 4, 10, 21, 1, 86, 4, -53, 28, -29], "withholdReward": false, "trial_id": "mdp_trial_26", "block": "test", "trialIndex": 29, "score": 12.8, "costs": -4.199999999999999, "simulationMode": [null, null, null, null, null], "rewards": [-1, 2, -8, -10, 34], "path": ["0", "0", "12", "13", "14", "15", "16"], "rt": [5844, 61, 58, 133, 51], "actions": ["right", "right", "right", "up", "up"], "actionTimes": [6707, 7307, 7899, 8555, 9130], "queries": {"click": {"state": {"target": ["18", "16", "17"], "time": [1584, 3425, 5096]}, "edge": {"target": [], "time": []}}, "mouseover": {"state": {"target": ["12", "13", "18", "16", "17"], "time": [1051, 1157, 1398, 2159, 3793]}, "edge": {"target": [], "time": []}}, "mouseout": {"state": {"target": ["0", "12", "13", "18", "16", "17", "14", "13", "30", "33"], "time": [1023, 1106, 1322, 1772, 3676, 5537, 10996, 11017, 11065, 11086]}, "edge": {"target": [], "time": []}}}, "displayed_time": "15.12", "trialTime": 16507, "trial_type": "mouselab-mdp", "trial_index": 40, "time_elapsed": 1649578, "internal_node_id": "0.0-4.0-1.0-25.0"}}, {"uniqueid": "w69843463:a56732672", "current_trial": 41, "dateTime": 1691167310357, "trialdata": {"revealed_states": [], "clicked_states": ["28", "27"], "num_clicks_accrued": [0, 0, 0, 0, 0, 0, 0, 0, 0, 0, 0, 0, 0], "stateRewards": ["", -1, 3, -4, -14, 78, 67, 2, 13, -32, 28, 39, -2, 1, -4, -4, -4, -42, -86, 11, 64, -29, -32, -1, -4, 2, -7, 5, 68, -61, 2, -21, 85, 50], "withholdReward": false, "trial_id": "mdp_trial_27", "block": "test", "trialIndex": 30, "score": 55.2, "costs": -2.8, "simulationMode": [null, null, null, null, null, null], "rewards": [-1, -4, 2, -7, 68], "path": ["0", "0", "23", "24", "25", "26", "28"], "rt": [3822, 230, 21, 310, 35, 68], "actions": ["left", "left", "left", "left", "up", "right"], "actionTimes": [4679, 4921, 5485, 6317, 6918, 7535], "queries": {"click": {"state": {"target": ["28", "27"], "time": [1850, 3857]}, "edge": {"target": [], "time": []}}, "mouseover": {"state": {"target": ["1", "28", "27"], "time": [1296, 1602, 2206]}, "edge": {"target": [], "time": []}}, "mouseout": {"state": {"target": ["0", "1", "28", "27", "26", "26", "24"], "time": [1033, 1422, 2069, 4270, 7492, 7880, 7999]}, "edge": {"target": [], "time": []}}}, "displayed_time": "15.16", "trialTime": 20709, "trial_type": "mouselab-mdp", "trial_index": 41, "time_elapsed": 1670513, "internal_node_id": "0.0-4.0-1.0-26.0"}}, {"uniqueid": "w69843463:a56732672", "current_trial": 42, "dateTime": 1691167326877, "trialdata": {"revealed_states": [], "clicked_states": ["33", "32", "31"], "num_clicks_accrued": [0, 0, 0, 0, 0, 0, 0, 0, 0, 0, 0, 0, 0], "stateRewards": ["", -1, 2, 5, -6, 13, -64, -47, 8, -79, -80, -33, 1, 2, -2, -16, 56, -71, -10, 3, 29, 44, 85, -1, 4, 5, 4, -36, -56, 19, 8, 52, -13, -2], "withholdReward": false, "trial_id": "mdp_trial_28", "block": "test", "trialIndex": 31, "score": 63.8, "costs": -4.199999999999999, "simulationMode": [null, null, null, null, null], "rewards": [-1, 4, 5, 8, 52], "path": ["0", "0", "23", "24", "25", "30", "31"], "rt": [6675, 101, 75, 0, 1], "actions": ["left", "left", "left", "down", "right"], "actionTimes": [7478, 8102, 8711, 9233, 9767], "queries": {"click": {"state": {"target": ["33", "32", "31"], "time": [2020, 3798, 5609]}, "edge": {"target": [], "time": []}}, "mouseover": {"state": {"target": ["26", "25", "30", "33", "32", "31"], "time": [1627, 1669, 1801, 1918, 2361, 4221]}, "edge": {"target": [], "time": []}}, "mouseout": {"state": {"target": ["0", "26", "25", "30", "33", "33", "32", "31"], "time": [1050, 1646, 1719, 1842, 2109, 2321, 4126, 6931]}, "edge": {"target": [], "time": []}}}, "displayed_time": "15.13", "trialTime": 16295, "trial_type": "mouselab-mdp", "trial_index": 42, "time_elapsed": 1687033, "internal_node_id": "0.0-4.0-1.0-27.0"}}, {"uniqueid": "w69843463:a56732672", "current_trial": 43, "dateTime": 1691167350668, "trialdata": {"revealed_states": [], "clicked_states": ["27", "28", "29"], "num_clicks_accrued": [0, 0, 0, 0, 0, 0, 0, 0, 0, 0, 0, 0, 0], "stateRewards": ["", 2, 3, -2, -8, -8, -41, 74, 15, -23, -80, 1, 1, 3, 3, -15, -63, -78, 67, 13, 75, -41, 86, 2, -2, 6, -3, -8, -49, 50, -6, 83, 74, 80], "withholdReward": false, "trial_id": "mdp_trial_29", "block": "test", "trialIndex": 32, "score": 48.8, "costs": -4.199999999999999, "simulationMode": [null, null, null, null, null], "rewards": [2, -2, 6, -3, 50], "path": ["0", "0", "23", "24", "25", "26", "29"], "rt": [6113, 103, 57, 105, 86], "actions": ["left", "left", "left", "up", "left"], "actionTimes": [7070, 7694, 8286, 8926, 9534], "queries": {"click": {"state": {"target": ["27", "28", "29"], "time": [1561, 3388, 5197]}, "edge": {"target": [], "time": []}}, "mouseover": {"state": {"target": ["23", "28", "26", "27", "28", "26", "29", "25"], "time": [1150, 1212, 1268, 1454, 1906, 3753, 3849, 5908]}, "edge": {"target": [], "time": []}}, "mouseout": {"state": {"target": ["0", "23", "28", "26", "27", "28", "26", "29", "25", "25"], "time": [1114, 1175, 1241, 1302, 1830, 3710, 3792, 5794, 5946, 11495]}, "edge": {"target": [], "time": []}}}, "displayed_time": "15.13", "trialTime": 23558, "trial_type": "mouselab-mdp", "trial_index": 43, "time_elapsed": 1710824, "internal_node_id": "0.0-4.0-1.0-28.0"}}, {"uniqueid": "w69843463:a56732672", "current_trial": 44, "dateTime": 1691167366460, "trialdata": {"revealed_states": [], "clicked_states": ["9", "11", "10"], "num_clicks_accrued": [0, 0, 0, 0, 0, 0, 0, 0, 0, 0, 0, 0, 0], "stateRewards": ["", -1, -4, -1, -5, -28, -23, -15, -15, -38, 59, -87, 2, 2, -5, 9, -55, -39, -71, -6, 85, -85, -11, -1, -2, 5, -10, 1, 25, 41, -4, 69, -35, 86], "withholdReward": false, "trial_id": "mdp_trial_30", "block": "test", "trialIndex": 33, "score": 33.8, "costs": -4.199999999999999, "simulationMode": [null, null, null, null, null], "rewards": [-1, -4, -1, -15, 59], "path": ["0", "0", "1", "2", "3", "8", "10"], "rt": [6531, 162, 135, 24, 98], "actions": ["up", "up", "up", "left", "down"], "actionTimes": [7428, 8123, 8803, 9371, 10002], "queries": {"click": {"state": {"target": ["9", "11", "10"], "time": [1762, 3583, 5453]}, "edge": {"target": [], "time": []}}, "mouseover": {"state": {"target": ["1", "2", "8", "9", "11", "10"], "time": [1313, 1376, 1515, 1653, 2431, 4054]}, "edge": {"target": [], "time": []}}, "mouseout": {"state": {"target": ["0", "1", "2", "8", "9", "11", "10", "29"], "time": [1090, 1349, 1411, 1556, 2050, 3853, 5890, 10564]}, "edge": {"target": [], "time": []}}}, "displayed_time": "15.16", "trialTime": 15564, "trial_type": "mouselab-mdp", "trial_index": 44, "time_elapsed": 1726616, "internal_node_id": "0.0-4.0-1.0-29.0"}}, {"uniqueid": "w69843463:a56732672", "current_trial": 45, "dateTime": 1691167382116, "trialdata": {"revealed_states": [], "clicked_states": ["5", "6"], "num_clicks_accrued": [0, 0, 0, 0, 0, 0, 0, 0, 0, 0, 0, 0, 0], "stateRewards": ["", -1, -2, -1, -10, -57, 73, -72, -16, 75, -14, -46, -2, -3, -7, -1, -61, -60, 76, -4, 50, 4, 14, 2, 2, -7, 12, -65, -32, 15, -8, -76, -25, -61], "withholdReward": false, "trial_id": "mdp_trial_31", "block": "test", "trialIndex": 34, "score": 56.2, "costs": -2.8, "simulationMode": [null, null, null, null, null], "rewards": [-1, -2, -1, -10, 73], "path": ["0", "0", "1", "2", "3", "4", "6"], "rt": [4586, 152, 90, 8, 78], "actions": ["up", "up", "up", "right", "right"], "actionTimes": [5507, 6187, 6811, 7347, 7947], "queries": {"click": {"state": {"target": ["5", "6"], "time": [1581, 3422]}, "edge": {"target": [], "time": []}}, "mouseover": {"state": {"target": ["0", "1", "4", "5", "6", "7"], "time": [1009, 1223, 1300, 1481, 1912, 3908]}, "edge": {"target": [], "time": []}}, "mouseout": {"state": {"target": ["0", "0", "1", "4", "5", "6", "7", "2", "10"], "time": [934, 1186, 1245, 1342, 1816, 3719, 8925, 8967, 8997]}, "edge": {"target": [], "time": []}}}, "displayed_time": "15.13", "trialTime": 15435, "trial_type": "mouselab-mdp", "trial_index": 45, "time_elapsed": 1742271, "internal_node_id": "0.0-4.0-1.0-30.0"}}, {"uniqueid": "w69843463:a56732672", "current_trial": 46, "dateTime": 1691167398091, "trialdata": {"revealed_states": [], "clicked_states": ["16", "17", "18"], "num_clicks_accrued": [0, 0, 0, 0, 0, 0, 0, 0, 0, 0, 0, 0, 0], "stateRewards": ["", -1, 2, -6, 6, 43, 78, 78, -2, 55, -29, -17, -2, -4, 1, -15, 13, 7, -79, 8, -28, -68, 36, -1, -3, 3, -16, 84, -18, 87, 10, 32, 13, -81], "withholdReward": false, "trial_id": "mdp_trial_32", "block": "test", "trialIndex": 35, "score": -11.2, "costs": -4.199999999999999, "simulationMode": [null, null, null, null, null], "rewards": [-2, -4, 1, -15, 13], "path": ["0", "0", "12", "13", "14", "15", "16"], "rt": [7088, 24, 135, 142, 68], "actions": ["right", "right", "right", "up", "up"], "actionTimes": [7996, 8548, 9212, 9891, 10491], "queries": {"click": {"state": {"target": ["16", "17", "18"], "time": [1650, 3587, 5514]}, "edge": {"target": [], "time": []}}, "mouseover": {"state": {"target": ["0", "12", "18", "16", "17", "15", "18"], "time": [1153, 1198, 1256, 1533, 2090, 3886, 3986]}, "edge": {"target": [], "time": []}}, "mouseout": {"state": {"target": ["0", "0", "12", "18", "16", "17", "15", "18", "14", "22"], "time": [1104, 1175, 1221, 1277, 2030, 3857, 3945, 5902, 11364, 11474]}, "edge": {"target": [], "time": []}}}, "displayed_time": "15.29", "trialTime": 15748, "trial_type": "mouselab-mdp", "trial_index": 46, "time_elapsed": 1758247, "internal_node_id": "0.0-4.0-1.0-31.0"}}, {"uniqueid": "w69843463:a56732672", "current_trial": 47, "dateTime": 1691167413826, "trialdata": {"revealed_states": [], "clicked_states": ["33", "31", "32"], "num_clicks_accrued": [0, 0, 0, 0, 0, 0, 0, 0, 0, 0, 0, 0, 0], "stateRewards": ["", 1, -4, -6, 11, -20, 8, -30, 1, -38, 88, 42, 2, 3, 5, -12, -8, -74, 30, -8, 67, -19, 42, 2, -1, 4, 13, 50, -68, 2, -8, -15, 87, -46], "withholdReward": false, "trial_id": "mdp_trial_33", "block": "test", "trialIndex": 36, "score": 79.8, "costs": -4.199999999999999, "simulationMode": [null, null, null, null, null], "rewards": [2, -1, 4, -8, 87], "path": ["0", "0", "23", "24", "25", "30", "32"], "rt": [6293, 63, 50, 152, 27], "actions": ["left", "left", "left", "down", "down"], "actionTimes": [7087, 7672, 8239, 8920, 9471], "queries": {"click": {"state": {"target": ["33", "31", "32"], "time": [1418, 3309, 5159]}, "edge": {"target": [], "time": []}}, "mouseover": {"state": {"target": ["30", "33", "31", "32"], "time": [1109, 1240, 2347, 3858]}, "edge": {"target": [], "time": []}}, "mouseout": {"state": {"target": ["0", "30", "33", "31", "32"], "time": [915, 1163, 1732, 3629, 5963]}, "edge": {"target": [], "time": []}}}, "displayed_time": "15.09", "trialTime": 15495, "trial_type": "mouselab-mdp", "trial_index": 47, "time_elapsed": 1773982, "internal_node_id": "0.0-4.0-1.0-32.0"}}, {"uniqueid": "w69843463:a56732672", "current_trial": 48, "dateTime": 1691167430385, "trialdata": {"revealed_states": [], "clicked_states": ["28"], "num_clicks_accrued": [0, 0, 0, 0, 0, 0, 0, 0, 0, 0, 0, 0, 0], "stateRewards": ["", -1, 3, 2, 9, 41, 4, -46, -12, -54, -87, -25, 2, 3, -1, 11, -77, 12, -33, -9, -32, 35, 72, 1, 3, -7, 4, 37, 65, -73, 6, 77, -43, 8], "withholdReward": false, "trial_id": "mdp_trial_34", "block": "test", "trialIndex": 37, "score": 64.6, "costs": -1.4, "simulationMode": [null, null, null, null, null], "rewards": [1, 3, -7, 4, 65], "path": ["0", "0", "23", "24", "25", "26", "28"], "rt": [3034, 36, 41, 117, 59], "actions": ["left", "left", "left", "up", "right"], "actionTimes": [3968, 4536, 5104, 5751, 6344], "queries": {"click": {"state": {"target": ["28"], "time": [1945]}, "edge": {"target": [], "time": []}}, "mouseover": {"state": {"target": ["27", "26", "28", "27", "29"], "time": [1388, 1722, 1785, 2928, 3452]}, "edge": {"target": [], "time": []}}, "mouseout": {"state": {"target": ["0", "27", "26", "28", "27", "29", "26", "23"], "time": [774, 1428, 1743, 2428, 3308, 15689, 15757, 15868]}, "edge": {"target": [], "time": []}}}, "displayed_time": "15.19", "trialTime": 16335, "trial_type": "mouselab-mdp", "trial_index": 48, "time_elapsed": 1790541, "internal_node_id": "0.0-4.0-1.0-33.0"}}, {"uniqueid": "w69843463:a56732672", "current_trial": 49, "dateTime": 1691167446753, "trialdata": {"revealed_states": [], "clicked_states": ["27", "29"], "num_clicks_accrued": [0, 0, 0, 0, 0, 0, 0, 0, 0, 0, 0, 0, 0], "stateRewards": ["", 1, -1, 4, -2, -75, -75, 84, -9, -60, -79, 59, 2, -4, 8, 9, -17, -82, 80, 14, -4, 49, 49, -1, 3, 6, -11, -33, 34, 55, 9, -57, 5, 59], "withholdReward": false, "trial_id": "mdp_trial_35", "block": "test", "trialIndex": 38, "score": 49.2, "costs": -2.8, "simulationMode": [null, null, null, null, null], "rewards": [-1, 3, 6, -11, 55], "path": ["0", "0", "23", "24", "25", "26", "29"], "rt": [4982, 42, 36, 33, 66], "actions": ["left", "left", "left", "up", "left"], "actionTimes": [5643, 6219, 6787, 7355, 7963], "queries": {"click": {"state": {"target": ["27", "29"], "time": [1699, 3578]}, "edge": {"target": [], "time": []}}, "mouseover": {"state": {"target": ["1", "10", "8", "11", "27", "29", "29", "26", "28"], "time": [875, 965, 1041, 1368, 1479, 2008, 2480, 3866, 4017]}, "edge": {"target": [], "time": []}}, "mouseout": {"state": {"target": ["0", "1", "10", "8", "11", "27", "27", "29", "29", "29", "26", "28", "26", "29", "32"], "time": [798, 901, 993, 1333, 1393, 1770, 1943, 2246, 3658, 3824, 3932, 8884, 9006, 9048, 15680]}, "edge": {"target": [], "time": []}}}, "displayed_time": "14.98", "trialTime": 16139, "trial_type": "mouselab-mdp", "trial_index": 49, "time_elapsed": 1806909, "internal_node_id": "0.0-4.0-1.0-34.0"}}, {"uniqueid": "w69843463:a56732672", "current_trial": 50, "dateTime": 1691167463473, "trialdata": {"revealed_states": [], "clicked_states": ["5", "6", "7"], "num_clicks_accrued": [0, 0, 0, 0, 0, 0, 0, 0, 0, 0, 0, 0, 0], "stateRewards": ["", 2, -4, 7, 3, 23, -42, 4, 7, -81, -33, 7, -2, -4, 5, -1, 50, -57, -14, -13, -14, 44, 55, -2, -2, 5, -2, 33, 1, 57, -13, -7, 58, 87], "withholdReward": false, "trial_id": "mdp_trial_36", "block": "test", "trialIndex": 39, "score": 26.8, "costs": -4.199999999999999, "simulationMode": [null, null, null, null, null], "rewards": [2, -4, 7, 3, 23], "path": ["0", "0", "1", "2", "3", "4", "5"], "rt": [6812, 127, 176, 350, 1], "actions": ["up", "up", "up", "right", "up"], "actionTimes": [7510, 8167, 8871, 9751, 10296], "queries": {"click": {"state": {"target": ["5", "6", "7"], "time": [1581, 3782, 5674]}, "edge": {"target": [], "time": []}}, "mouseover": {"state": {"target": ["0", "7", "4", "5", "6", "7"], "time": [796, 1117, 1250, 1421, 1964, 4132]}, "edge": {"target": [], "time": []}}, "mouseout": {"state": {"target": ["0", "7", "4", "5", "6", "7", "7", "2", "28", "29", "32"], "time": [983, 1200, 1340, 1852, 4014, 6553, 10998, 11326, 11401, 11430, 15915]}, "edge": {"target": [], "time": []}}}, "displayed_time": "15.19", "trialTime": 16454, "trial_type": "mouselab-mdp", "trial_index": 50, "time_elapsed": 1823628, "internal_node_id": "0.0-4.0-1.0-35.0"}}, {"uniqueid": "w69843463:a56732672", "current_trial": 51, "dateTime": 1691167479624, "trialdata": {"revealed_states": [], "clicked_states": ["16", "18", "17"], "num_clicks_accrued": [0, 0, 0, 0, 0, 0, 0, 0, 0, 0, 0, 0, 0], "stateRewards": ["", 2, -3, -8, 14, -7, -51, 73, 2, 36, 36, -43, -1, 3, -4, 1, 6, 87, -65, 15, 61, -42, -83, -1, 3, -2, -7, 30, -48, 35, 13, 26, 60, 78], "withholdReward": false, "trial_id": "mdp_trial_37", "block": "test", "trialIndex": 40, "score": 81.8, "costs": -4.199999999999999, "simulationMode": [null, null, null, null, null], "rewards": [-1, 3, -4, 1, 87], "path": ["0", "0", "12", "13", "14", "15", "17"], "rt": [6694, 28, 51, 5, 275], "actions": ["right", "right", "right", "up", "right"], "actionTimes": [7504, 8057, 8640, 9185, 10000], "queries": {"click": {"state": {"target": ["16", "18", "17"], "time": [1701, 3593, 5465]}, "edge": {"target": [], "time": []}}, "mouseover": {"state": {"target": ["0", "18", "16", "15", "18", "15", "17"], "time": [845, 1200, 1539, 2158, 2292, 3842, 3937]}, "edge": {"target": [], "time": []}}, "mouseout": {"state": {"target": ["0", "0", "18", "16", "15", "18", "15", "17", "14", "13"], "time": [405, 1060, 1236, 2047, 2225, 3818, 3912, 6695, 14111, 14165]}, "edge": {"target": [], "time": []}}}, "displayed_time": "15.33", "trialTime": 15912, "trial_type": "mouselab-mdp", "trial_index": 51, "time_elapsed": 1839780, "internal_node_id": "0.0-4.0-1.0-36.0"}}, {"uniqueid": "w69843463:a56732672", "current_trial": 52, "dateTime": 1691167495448, "trialdata": {"revealed_states": [], "clicked_states": ["9", "11", "10"], "num_clicks_accrued": [0, 0, 0, 0, 0, 0, 0, 0, 0, 0, 0, 0, 0], "stateRewards": ["", 1, 2, -3, -5, 66, -50, -47, -5, 1, 28, -27, 1, 1, -1, -6, 37, -25, 56, 1, -82, -66, -40, -1, -4, -7, 15, -61, -23, 26, 10, 14, -56, 29], "withholdReward": false, "trial_id": "mdp_trial_38", "block": "test", "trialIndex": 41, "score": 18.8, "costs": -4.199999999999999, "simulationMode": [null, null, null, null, null], "rewards": [1, 2, -3, -5, 28], "path": ["0", "0", "1", "2", "3", "8", "10"], "rt": [6399, 1, 175, 13, 1], "actions": ["up", "up", "up", "left", "down"], "actionTimes": [7242, 7767, 8474, 9027, 9567], "queries": {"click": {"state": {"target": ["9", "11", "10"], "time": [1678, 3531, 5360]}, "edge": {"target": [], "time": []}}, "mouseover": {"state": {"target": ["1", "2", "3", "9", "11", "10"], "time": [1122, 1191, 1283, 1566, 2033, 3864]}, "edge": {"target": [], "time": []}}, "mouseout": {"state": {"target": ["0", "1", "2", "3", "9", "11", "10", "10"], "time": [1059, 1165, 1248, 1482, 1950, 3770, 5443, 13197]}, "edge": {"target": [], "time": []}}}, "displayed_time": "15.14", "trialTime": 15602, "trial_type": "mouselab-mdp", "trial_index": 52, "time_elapsed": 1855604, "internal_node_id": "0.0-4.0-1.0-37.0"}}, {"uniqueid": "w69843463:a56732672", "current_trial": 53, "dateTime": 1691167511560, "trialdata": {"revealed_states": [], "clicked_states": ["5", "6", "7"], "num_clicks_accrued": [0, 0, 0, 0, 0, 0, 0, 0, 0, 0, 0, 0, 0], "stateRewards": ["", -1, -4, -6, -15, 21, -67, -63, 9, 51, 69, -14, -1, 3, 8, -8, 39, 72, 63, 15, 19, 47, 15, 1, 4, 5, 16, -18, 34, 35, -14, -80, 40, 1], "withholdReward": false, "trial_id": "mdp_trial_39", "block": "test", "trialIndex": 42, "score": -9.2, "costs": -4.199999999999999, "simulationMode": [null, null, null, null, null], "rewards": [-1, -4, -6, -15, 21], "path": ["0", "0", "1", "2", "3", "4", "5"], "rt": [6688, 3, 119, 57, 0], "actions": ["up", "up", "up", "right", "up"], "actionTimes": [7480, 8032, 8696, 9280, 9823], "queries": {"click": {"state": {"target": ["5", "6", "7"], "time": [1660, 3635, 5563]}, "edge": {"target": [], "time": []}}, "mouseover": {"state": {"target": ["1", "7", "4", "5", "6", "7"], "time": [1143, 1247, 1316, 1579, 1988, 4090]}, "edge": {"target": [], "time": []}}, "mouseout": {"state": {"target": ["1", "1", "7", "4", "5", "6", "7", "12"], "time": [480, 1179, 1267, 1482, 1857, 3922, 6315, 15103]}, "edge": {"target": [], "time": []}}}, "displayed_time": "15.13", "trialTime": 15888, "trial_type": "mouselab-mdp", "trial_index": 53, "time_elapsed": 1871716, "internal_node_id": "0.0-4.0-1.0-38.0"}}, {"uniqueid": "w69843463:a56732672", "current_trial": 54, "dateTime": 1691167527791, "trialdata": {"revealed_states": [], "clicked_states": ["27", "28", "29"], "num_clicks_accrued": [0, 0, 0, 0, 0, 0, 0, 0, 0, 0, 0, 0, 0], "stateRewards": ["", 1, 4, 5, 8, -55, -11, 8, 16, -37, 77, -22, -2, 3, -8, -10, 45, 87, -67, 4, 17, -33, -22, -1, -3, 7, 6, -39, -85, 75, -1, 7, -48, 45], "withholdReward": false, "trial_id": "mdp_trial_40", "block": "test", "trialIndex": 43, "score": 79.8, "costs": -4.199999999999999, "simulationMode": [null, null, null, null, null], "rewards": [-1, -3, 7, 6, 75], "path": ["0", "0", "23", "24", "25", "26", "29"], "rt": [6456, 156, 90, 25, 42], "actions": ["left", "left", "left", "up", "left"], "actionTimes": [7174, 7854, 8478, 9030, 9598], "queries": {"click": {"state": {"target": ["27", "28", "29"], "time": [1528, 3424, 5310]}, "edge": {"target": [], "time": []}}, "mouseover": {"state": {"target": ["23", "24", "26", "27", "28", "26", "29"], "time": [884, 952, 1131, 1480, 1919, 3768, 3817]}, "edge": {"target": [], "time": []}}, "mouseout": {"state": {"target": ["0", "23", "24", "26", "27", "28", "26", "29", "25", "24", "23"], "time": [821, 923, 993, 1215, 1790, 3719, 3793, 6896, 10729, 10820, 11075]}, "edge": {"target": [], "time": []}}}, "displayed_time": "15.07", "trialTime": 15989, "trial_type": "mouselab-mdp", "trial_index": 54, "time_elapsed": 1887947, "internal_node_id": "0.0-4.0-1.0-39.0"}}, {"uniqueid": "w69843463:a56732672", "current_trial": 55, "dateTime": 1691167584376, "trialdata": {"rt": 56581, "response": {"Q0": "$-2 to $2", "Q1": "$-16 to $16", "Q2": "$-88 to $88", "Q3": "The cost was always $1.4.", "Q4": "Very motivated"}, "question_order": [0, 1, 2, 3, 4], "trial_id": "final_quiz_control", "trial_type": "survey-multi-choice", "trial_index": 55, "time_elapsed": 1944531, "internal_node_id": "0.0-4.0-2.0"}}, {"uniqueid": "w69843463:a56732672", "current_trial": 56, "dateTime": 1691167691550, "trialdata": {"rt": 107168, "response": {"Q0": "To begin with I was clicking on the first to third nodes, but after a short while it was better to find the most rewarding node in the last step, so I would use three inspector nodes on the same grid of 3.", "Q1": "Yes. I originally used the earlier nodes, but then started inspecting the end nodes, only using a maximum of 3 clicks, but if I found a green node that was over 30, I would just go straight for that node.", "Q2": "It wasn't difficult. I probably improved my strategy half way through the game."}, "trial_id": "self_report_control", "trial_type": "survey-text", "trial_index": 56, "time_elapsed": 2051706, "internal_node_id": "0.0-4.0-3.0"}}, {"uniqueid": "w69843463:a56732672", "current_trial": 57, "dateTime": 1691167714744, "trialdata": {"rt": 23191, "response": {"gender": "female", "age": "65", "colorblind": "0", "effort": "0"}, "trial_type": "survey-html-form", "trial_index": 57, "time_elapsed": 2074900, "internal_node_id": "0.0-4.0-4.0"}}, {"uniqueid": "w69843463:a56732672", "current_trial": 58, "dateTime": 1691167772044, "trialdata": {"rt": 57295, "response": {"Q0": "Everything was explained well, I had no issues at all.", "Q1": "I have not taken part in anything like this before.", "Q2": "Very enjoyable study, and different from what I'm used to getting, so I appreciate the invite very much and I hope to do more like this in the future. Thank you!"}, "trial_type": "survey-text", "trial_index": 58, "time_elapsed": 2132200, "internal_node_id": "0.0-4.0-5.0"}}, {"uniqueid": "w69843463:a56732672", "current_trial": 59, "dateTime": 1691167774558, "trialdata": {"rt": 2512, "stimulus": "Press 'Finish HIT' in order to reach the completion code. Once the data has been saved, you will receive the code either in this window or in the original browser window where you started the experiment.\n", "response": 0, "trial_type": "html-button-response", "trial_index": 59, "time_elapsed": 2134714, "internal_node_id": "0.0-5.0"}}, {"uniqueid": "w69843463:a56732672", "current_trial": 60, "dateTime": 1691167775570, "trialdata": {"success": true, "trial_type": "fullscreen", "trial_index": 60, "time_elapsed": 2135726, "internal_node_id": "0.0-6.0"}}], "questiondata": {"params": {"CODE": "C6DMOQA6", "MIN_TIME": 14, "inspectCost": 1, "startTime": "Fri Aug 04 2023 17:13:59 GMT+0100 (British Summer Time)", "bonusRate": 0.002, "variance": "1_2_4_8_44", "branching": "31123"}, "final_score": 824.8}, "eventdata": [{"eventtype": "initialized", "value": null, "timestamp": 1691165638093, "interval": 0}, {"eventtype": "window_resize", "value": [1024, 768], "timestamp": 1691165638093, "interval": 0}, {"eventtype": "window_resize", "value": [1024, 768], "timestamp": 1691165639210, "interval": 1117}, {"eventtype": "focus", "value": "on", "timestamp": 1691165652641, "interval": 13431}, {"eventtype": "window_resize", "value": [1920, 1080], "timestamp": 1691165655273, "interval": 2632}, {"eventtype": "window_resize", "value": [1024, 768], "timestamp": 1691165710112, "interval": 54839}, {"eventtype": "focus", "value": "off", "timestamp": 1691165711981, "interval": 1869}, {"eventtype": "focus", "value": "on", "timestamp": 1691165721658, "interval": 9677}, {"eventtype": "window_resize", "value": [1920, 976], "timestamp": 1691165721937, "interval": 279}, {"eventtype": "window_resize", "value": [1024, 768], "timestamp": 1691165725989, "interval": 4052}, {"eventtype": "focus", "value": "off", "timestamp": 1691165727847, "interval": 1858}, {"eventtype": "window_resize", "value": [1920, 976], "timestamp": 1691165728066, "interval": 219}, {"eventtype": "focus", "value": "on", "timestamp": 1691165854310, "interval": 126244}, {"eventtype": "focus", "value": "off", "timestamp": 1691166037502, "interval": 183192}, {"eventtype": "focus", "value": "on", "timestamp": 1691166117589, "interval": 80087}, {"eventtype": "focus", "value": "off", "timestamp": 1691166177097, "interval": 59508}, {"eventtype": "focus", "value": "on", "timestamp": 1691166177097, "interval": 0}, {"eventtype": "window_resize", "value": [1920, 1080], "timestamp": 1691166178663, "interval": 1566}, {"eventtype": "focus", "value": "off", "timestamp": 1691166471331, "interval": 292668}, {"eventtype": "focus", "value": "on", "timestamp": 1691166703185, "interval": 231854}, {"eventtype": "focus", "value": "off", "timestamp": 1691166720518, "interval": 17333}, {"eventtype": "focus", "value": "on", "timestamp": 1691166837983, "interval": 117465}, {"eventtype": "focus", "value": "off", "timestamp": 1691166935739, "interval": 97756}, {"eventtype": "focus", "value": "on", "timestamp": 1691166944931, "interval": 9192}, {"eventtype": "focus", "value": "off", "timestamp": 1691166959255, "interval": 14324}, {"eventtype": "focus", "value": "on", "timestamp": 1691166961981, "interval": 2726}, {"eventtype": "focus", "value": "off", "timestamp": 1691166976771, "interval": 14790}, {"eventtype": "focus", "value": "on", "timestamp": 1691166978522, "interval": 1751}, {"eventtype": "focus", "value": "off", "timestamp": 1691166987331, "interval": 8809}, {"eventtype": "focus", "value": "on", "timestamp": 1691166997064, "interval": 9733}, {"eventtype": "focus", "value": "off", "timestamp": 1691167045241, "interval": 48177}, {"eventtype": "focus", "value": "on", "timestamp": 1691167047691, "interval": 2450}, {"eventtype": "focus", "value": "off", "timestamp": 1691167057563, "interval": 9872}, {"eventtype": "focus", "value": "on", "timestamp": 1691167064156, "interval": 6593}, {"eventtype": "focus", "value": "off", "timestamp": 1691167110963, "interval": 46807}, {"eventtype": "focus", "value": "on", "timestamp": 1691167113728, "interval": 2765}, {"eventtype": "focus", "value": "off", "timestamp": 1691167180989, "interval": 67261}, {"eventtype": "focus", "value": "on", "timestamp": 1691167183577, "interval": 2588}, {"eventtype": "focus", "value": "off", "timestamp": 1691167195053, "interval": 11476}, {"eventtype": "focus", "value": "on", "timestamp": 1691167198522, "interval": 3469}, {"eventtype": "focus", "value": "off", "timestamp": 1691167212178, "interval": 13656}, {"eventtype": "focus", "value": "on", "timestamp": 1691167219735, "interval": 7557}, {"eventtype": "focus", "value": "off", "timestamp": 1691167266068, "interval": 46333}, {"eventtype": "focus", "value": "on", "timestamp": 1691167268183, "interval": 2115}, {"eventtype": "focus", "value": "off", "timestamp": 1691167284957, "interval": 16774}, {"eventtype": "focus", "value": "on", "timestamp": 1691167288401, "interval": 3444}, {"eventtype": "focus", "value": "off", "timestamp": 1691167301203, "interval": 12802}, {"eventtype": "focus", "value": "on", "timestamp": 1691167304077, "interval": 2874}, {"eventtype": "focus", "value": "off", "timestamp": 1691167339424, "interval": 35347}, {"eventtype": "focus", "value": "on", "timestamp": 1691167344235, "interval": 4811}, {"eventtype": "focus", "value": "off", "timestamp": 1691167362565, "interval": 18330}, {"eventtype": "focus", "value": "on", "timestamp": 1691167364819, "interval": 2254}, {"eventtype": "focus", "value": "off", "timestamp": 1691167376952, "interval": 12133}, {"eventtype": "focus", "value": "on", "timestamp": 1691167380026, "interval": 3074}, {"eventtype": "focus", "value": "off", "timestamp": 1691167441735, "interval": 61709}, {"eventtype": "focus", "value": "on", "timestamp": 1691167446556, "interval": 4821}, {"eventtype": "focus", "value": "off", "timestamp": 1691167459488, "interval": 12932}, {"eventtype": "focus", "value": "on", "timestamp": 1691167463218, "interval": 3730}, {"eventtype": "focus", "value": "off", "timestamp": 1691167560592, "interval": 97374}, {"eventtype": "focus", "value": "on", "timestamp": 1691167569954, "interval": 9362}, {"eventtype": "focus", "value": "off", "timestamp": 1691167710346, "interval": 140392}, {"eventtype": "focus", "value": "on", "timestamp": 1691167713644, "interval": 3298}, {"eventtype": "window_resize", "value": [1920, 976], "timestamp": 1691167774979, "interval": 61335}], "useragent": "Mozilla/5.0 (Windows NT 10.0; Win64; x64; rv:109.0) Gecko/20100101 Firefox/115.0", "mode": "live", "id": "w69843463:a56732672", "status": "user data saved", "Beginhit": "2023-08-04 16:13:59.142905", "Beginexp": "2023-08-04 16:14:18.204512", "Endhit": "2023-08-04 16:49:38.605523", "psiturkStatus": 3, "browser": "<redacted>", "platform": "windows", "language": "en-GB"}