{"condition": 0, "counterbalance": 0, "assignmentId": "a45506403", "workerId": "w89691672", "hitId": "h94716487", "currenttrial": 18, "bonus": 0, "data": [{"uniqueid": "w89691672:a45506403", "current_trial": 0, "dateTime": 1693569642868, "trialdata": {"success": true, "trial_type": "fullscreen", "trial_index": 0, "time_elapsed": 72752, "internal_node_id": "0.0-0.0"}}, {"uniqueid": "w89691672:a45506403", "current_trial": 1, "dateTime": 1693569744919, "trialdata": {"view_history": [{"page_index": 0, "viewing_time": 102026}], "rt": 102031, "trial_id": "exp_instructions_control", "trial_type": "instructions", "trial_index": 1, "time_elapsed": 174803, "internal_node_id": "0.0-1.0"}}, {"uniqueid": "w89691672:a45506403", "current_trial": 2, "dateTime": 1693570235308, "trialdata": {"view_history": [{"page_index": 0, "viewing_time": 210962}, {"page_index": 1, "viewing_time": 143204}, {"page_index": 2, "viewing_time": 47479}, {"page_index": 3, "viewing_time": 88738}], "rt": 490384, "trial_id": "mouselab_instructions_1_control", "trial_type": "instructions", "trial_index": 2, "time_elapsed": 665193, "internal_node_id": "0.0-2.0-1.0"}}, {"uniqueid": "w89691672:a45506403", "current_trial": 3, "dateTime": 1693570319506, "trialdata": {"revealed_states": [], "clicked_states": ["12", "14", "15", "16", "1", "2", "3", "8", "10", "25", "26", "29", "33", "30", "32", "21", "19", "22", "13", "18", "17", "4", "6", "5", "9"], "num_clicks_accrued": [0, 0, 0, 0, 0, 0, 0, 0, 0, 0, 0, 0, 0], "stateRewards": ["", -10, -10, 10, 10, 10, -10, 10, 10, 10, 10, -10, 10, -10, 10, -10, -10, 10, 10, 10, -10, 10, 10, 10, 10, 10, -10, -10, 10, 10, 10, 10, -10, -10], "withholdReward": false, "trial_id": "practice_1", "block": "test", "trialIndex": 0, "score": -19, "costs": -12.5, "simulationMode": [null, null, null, null, null], "rewards": [10, -10, 10, -10, -10], "path": ["0", "0", "12", "13", "14", "15", "16"], "rt": [73898, 568, 324, 468, 436], "actions": ["right", "right", "right", "up", "up"], "actionTimes": [75820, 76909, 77764, 78760, 79740], "queries": {"click": {"state": {"target": ["12", "14", "15", "16", "1", "2", "3", "8", "10", "25", "26", "29", "33", "30", "32", "21", "19", "22", "13", "18", "17", "4", "6", "5", "9"], "time": [4000, 6238, 7352, 8429, 15015, 16587, 17905, 19071, 20395, 23494, 24845, 26186, 28627, 30103, 31504, 35031, 36390, 37814, 45650, 50443, 52137, 58259, 59786, 62228, 66389]}, "edge": {"target": [], "time": []}}, "mouseover": {"state": {"target": ["12", "13", "14", "15", "16", "18", "13", "1", "2", "3", "3", "8", "10", "28", "25", "26", "29", "31", "30", "33", "30", "32", "21", "21", "19", "22", "13", "12", "12", "13", "14", "15", "18", "17", "16", "3", "4", "6", "5", "9", "8", "10", "23", "0"], "time": [3399, 5320, 5757, 6766, 7918, 10423, 11198, 13347, 15646, 17017, 17442, 18493, 19992, 21942, 22351, 24292, 25641, 27192, 27743, 28114, 29592, 31146, 33217, 34195, 35737, 37288, 39142, 39295, 41470, 45119, 46462, 48396, 49894, 51595, 53393, 56669, 57444, 59336, 61569, 65271, 67792, 67842, 71869, 72394]}, "edge": {"target": [], "time": []}}, "mouseout": {"state": {"target": ["0", "12", "12", "13", "14", "15", "16", "16", "18", "13", "1", "2", "3", "3", "3", "8", "10", "10", "28", "25", "26", "29", "29", "31", "30", "33", "30", "30", "32", "21", "21", "19", "22", "13", "12", "12", "13", "14", "15", "18", "17", "16", "3", "4", "4", "6", "5", "9", "8", "10", "23"], "time": [2602, 4172, 4417, 5497, 6542, 7545, 8625, 10123, 10849, 11773, 15593, 16995, 17117, 18079, 18321, 19617, 20593, 21571, 21992, 24017, 25444, 26370, 27141, 27692, 27943, 29267, 30295, 30692, 31679, 33769, 35586, 37088, 38994, 39188, 39695, 44818, 46313, 48334, 48744, 51138, 52863, 56619, 56710, 58439, 59113, 59968, 64269, 67788, 67815, 67887, 71897]}, "edge": {"target": [], "time": []}}}, "displayed_time": "80.24", "trialTime": 83009, "trial_type": "mouselab-mdp", "trial_index": 3, "time_elapsed": 749390, "internal_node_id": "0.0-2.0-2.0-0.0"}}, {"uniqueid": "w89691672:a45506403", "current_trial": 4, "dateTime": 1693570341764, "trialdata": {"revealed_states": [], "clicked_states": [], "num_clicks_accrued": [0, 0, 0, 0, 0, 0, 0, 0, 0, 0, 0, 0, 0], "stateRewards": ["", -10, 10, -10, -10, 10, -10, 10, 10, 10, -10, -10, 10, -10, 10, -10, 10, 10, -10, 10, -10, -10, 10, -10, 10, -10, -10, -10, -10, 10, -10, 10, 10, -10], "withholdReward": false, "trial_id": "practice_2", "block": "test", "trialIndex": 1, "score": 13.5, "costs": 0, "simulationMode": [null, null, null, null, null], "rewards": [10, -10, 10, -10, 10], "path": ["0", "0", "12", "13", "14", "15", "16"], "rt": [2620, 554, 431, 1521, 522], "actions": ["right", "right", "right", "up", "up"], "actionTimes": [6845, 7893, 8845, 10884, 11922], "queries": {"click": {"state": {"target": [], "time": []}, "edge": {"target": [], "time": []}}, "mouseover": {"state": {"target": [], "time": []}, "edge": {"target": [], "time": []}}, "mouseout": {"state": {"target": ["0"], "time": [2309]}, "edge": {"target": [], "time": []}}}, "displayed_time": "12.44", "trialTime": 21866, "trial_type": "mouselab-mdp", "trial_index": 4, "time_elapsed": 771647, "internal_node_id": "0.0-2.0-2.0-1.0"}}, {"uniqueid": "w89691672:a45506403", "current_trial": 5, "dateTime": 1693570416372, "trialdata": {"view_history": [{"page_index": 0, "viewing_time": 55425}, {"page_index": 1, "viewing_time": 19164}], "rt": 74590, "trial_id": "mouselab_instructions_2_control", "trial_type": "instructions", "trial_index": 5, "time_elapsed": 846257, "internal_node_id": "0.0-2.0-3.0"}}, {"uniqueid": "w89691672:a45506403", "current_trial": 6, "dateTime": 1693570803787, "trialdata": {"rt": 387401, "response": {"Q0": "The cost for clicking on nodes may vary between nodes.", "Q1": "The better I perform the higher my bonus will be.", "Q2": "No, the amount of cash at each node of the web may be different each time.", "Q3": "To get the highest total score.", "Q4": "Only before moving the spider.", "Q5": "3 seconds"}, "question_order": [0, 1, 2, 3, 4, 5], "correct": {"Q0": "The cost for clicking on nodes may vary between nodes.", "Q1": "The better I perform the higher my bonus will be.", "Q2": "No, the amount of cash at each node of the web may be different each time.", "Q3": "To get the highest total score.", "Q4": "Only before moving the spider.", "Q5": "3 seconds"}, "trial_id": "mouselab_quiz_control", "trial_type": "survey-multi-choice", "trial_index": 6, "time_elapsed": 1233671, "internal_node_id": "0.0-2.0-4.0"}}, {"uniqueid": "w89691672:a45506403", "current_trial": 7, "dateTime": 1693570818811, "trialdata": {"rt": 14998, "response": {"Q0": "No"}, "question_order": [0], "trial_id": "repeat_check", "trial_type": "survey-multi-choice", "trial_index": 7, "time_elapsed": 1248695, "internal_node_id": "0.0-4.0-0.0"}}, {"uniqueid": "w89691672:a45506403", "current_trial": 8, "dateTime": 1693570854223, "trialdata": {"rt": 35407, "stimulus": "\n<h1> Get ready to start the game! </h1>\n\nThank you for reading the instructions. Get ready start with the 40 rounds of this game.\n<br><br>\nIf you need to take a break, feel free to take one after the end of a round, before continuing to the next one.\n<br><br>\nRemember, the more money the spider gets, the bigger your bonus will be!\n<br><br>\n<div style='text-align: center;'>Press <code>space</code> to begin.</div>\n\n<br><br>\n(If, at any point, the <code>space</code> key does not take you to the next page, click once on the text and try again.)", "response": " ", "trial_id": "mdp_ready", "trial_type": "html-keyboard-response", "trial_index": 8, "time_elapsed": 1284108, "internal_node_id": "0.0-6.0-0.0"}}, {"uniqueid": "w89691672:a45506403", "current_trial": 9, "dateTime": 1693570876713, "trialdata": {"revealed_states": [], "clicked_states": [], "num_clicks_accrued": [0, 0, 0, 0, 0, 0, 0, 0, 0, 0, 0, 0, 0], "stateRewards": ["", 1, -2, -8, -13, 4, 34, -84, -4, -49, 88, -70, -1, 3, -4, 10, -77, 13, -34, 15, -21, -16, 27, 1, -2, 8, -8, -6, 38, -26, 6, -15, 66, -3], "withholdReward": false, "trial_id": "mdp_trial_1", "block": "test", "trialIndex": 2, "score": -69, "costs": 0, "simulationMode": [null, null, null, null, null], "rewards": [-1, 3, -4, 10, -77], "path": ["0", "0", "12", "13", "14", "15", "16"], "rt": [5303, 402, 238, 746, 240], "actions": ["right", "right", "right", "up", "up"], "actionTimes": [8751, 9672, 10440, 11729, 12465], "queries": {"click": {"state": {"target": [], "time": []}, "edge": {"target": [], "time": []}}, "mouseover": {"state": {"target": ["0"], "time": [6374]}, "edge": {"target": [], "time": []}}, "mouseout": {"state": {"target": ["1", "0", "0", "12"], "time": [1801, 6601, 16627, 17182]}, "edge": {"target": [], "time": []}}}, "displayed_time": "17.45", "trialTime": 22015, "trial_type": "mouselab-mdp", "trial_index": 9, "time_elapsed": 1306596, "internal_node_id": "0.0-6.0-1.0-0.0"}}, {"uniqueid": "w89691672:a45506403", "current_trial": 10, "dateTime": 1693570899066, "trialdata": {"revealed_states": [], "clicked_states": [], "num_clicks_accrued": [0, 0, 0, 0, 0, 0, 0, 0, 0, 0, 0, 0, 0], "stateRewards": ["", -2, -3, -3, 9, 79, 67, 22, -15, -56, 27, -85, -2, 4, -4, -15, -20, -32, 60, 15, 71, 57, 17, 1, 2, -8, 15, -37, -81, 82, 15, 21, -3, 2], "withholdReward": false, "trial_id": "mdp_trial_2", "block": "test", "trialIndex": 3, "score": 7, "costs": 0, "simulationMode": [null, null, null, null, null], "rewards": [1, 2, -8, 15, -3], "path": ["0", "0", "23", "24", "25", "30", "32"], "rt": [2468, 690, 382, 633, 373], "actions": ["left", "left", "left", "down", "down"], "actionTimes": [4993, 6225, 7130, 8280, 9179], "queries": {"click": {"state": {"target": [], "time": []}, "edge": {"target": [], "time": []}}, "mouseover": {"state": {"target": [], "time": []}, "edge": {"target": [], "time": []}}, "mouseout": {"state": {"target": ["0"], "time": [16453]}, "edge": {"target": [], "time": []}}}, "displayed_time": "16.53", "trialTime": 21946, "trial_type": "mouselab-mdp", "trial_index": 10, "time_elapsed": 1328950, "internal_node_id": "0.0-6.0-1.0-1.0"}}, {"uniqueid": "w89691672:a45506403", "current_trial": 11, "dateTime": 1693570918811, "trialdata": {"revealed_states": [], "clicked_states": [], "num_clicks_accrued": [0, 0, 0, 0, 0, 0, 0, 0, 0, 0, 0, 0, 0], "stateRewards": ["", 1, 2, 7, 13, 88, -71, 27, 3, 60, 5, -53, -2, 2, -6, -1, -30, 79, 47, -4, -14, 46, 68, 1, 1, 8, 10, -14, 86, 48, -11, -67, -44, 5], "withholdReward": false, "trial_id": "mdp_trial_3", "block": "test", "trialIndex": 4, "score": -48, "costs": 0, "simulationMode": [null, null, null, null, null], "rewards": [1, 2, 7, 13, -71], "path": ["0", "0", "1", "2", "3", "4", "6"], "rt": [3264, 180, 35, 1131, 294], "actions": ["up", "up", "up", "right", "right"], "actionTimes": [5758, 6458, 7008, 8680, 9473], "queries": {"click": {"state": {"target": [], "time": []}, "edge": {"target": [], "time": []}}, "mouseover": {"state": {"target": [], "time": []}, "edge": {"target": [], "time": []}}, "mouseout": {"state": {"target": ["0"], "time": [12072]}, "edge": {"target": [], "time": []}}}, "displayed_time": "16.50", "trialTime": 19235, "trial_type": "mouselab-mdp", "trial_index": 11, "time_elapsed": 1348693, "internal_node_id": "0.0-6.0-1.0-2.0"}}, {"uniqueid": "w89691672:a45506403", "current_trial": 12, "dateTime": 1693570939740, "trialdata": {"revealed_states": [], "clicked_states": [], "num_clicks_accrued": [0, 0, 0, 0, 0, 0, 0, 0, 0, 0, 0, 0, 0], "stateRewards": ["", 1, 1, -7, -9, -44, 24, -83, -15, 44, -24, 72, -2, -3, 4, -5, 57, 55, 29, -11, 22, 12, -25, -1, 2, 7, 12, 33, -8, 47, -4, 8, 50, -4], "withholdReward": false, "trial_id": "mdp_trial_4", "block": "test", "trialIndex": 5, "score": 54, "costs": 0, "simulationMode": [null, null, null, null, null], "rewards": [-1, 2, 7, -4, 50], "path": ["0", "0", "23", "24", "25", "30", "32"], "rt": [2104, 189, 407, 669, 5], "actions": ["left", "left", "left", "down", "down"], "actionTimes": [4004, 4716, 5653, 6843, 7373], "queries": {"click": {"state": {"target": [], "time": []}, "edge": {"target": [], "time": []}}, "mouseover": {"state": {"target": [], "time": []}, "edge": {"target": [], "time": []}}, "mouseout": {"state": {"target": ["0"], "time": [970]}, "edge": {"target": [], "time": []}}}, "displayed_time": "15.90", "trialTime": 20416, "trial_type": "mouselab-mdp", "trial_index": 12, "time_elapsed": 1369624, "internal_node_id": "0.0-6.0-1.0-3.0"}}, {"uniqueid": "w89691672:a45506403", "current_trial": 13, "dateTime": 1693570971244, "trialdata": {"revealed_states": [], "clicked_states": [], "num_clicks_accrued": [0, 0, 0, 0, 0, 0, 0, 0, 0, 0, 0, 0, 0], "stateRewards": ["", 2, -3, -5, 5, 11, -9, -33, 6, 67, 6, -30, -1, -2, -6, 13, 55, 13, 72, -14, 75, 21, -66, -2, -4, 6, 15, -1, -35, 60, 2, 51, -73, 12], "withholdReward": false, "trial_id": "mdp_trial_5", "block": "test", "trialIndex": 6, "score": -10, "costs": 0, "simulationMode": [null, null, null, null, null], "rewards": [2, -3, -5, 5, -9], "path": ["0", "0", "1", "2", "3", "4", "6"], "rt": [6946, 269, 372, 1445, 302], "actions": ["up", "up", "up", "right", "right"], "actionTimes": [19369, 20158, 21045, 23011, 23842], "queries": {"click": {"state": {"target": [], "time": []}, "edge": {"target": [], "time": []}}, "mouseover": {"state": {"target": [], "time": []}, "edge": {"target": [], "time": []}}, "mouseout": {"state": {"target": ["0", "0"], "time": [9574, 9991]}, "edge": {"target": [], "time": []}}}, "displayed_time": "26.43", "trialTime": 30988, "trial_type": "mouselab-mdp", "trial_index": 13, "time_elapsed": 1401128, "internal_node_id": "0.0-6.0-1.0-4.0"}}, {"uniqueid": "w89691672:a45506403", "current_trial": 14, "dateTime": 1693570990256, "trialdata": {"revealed_states": [], "clicked_states": [], "num_clicks_accrued": [0, 0, 0, 0, 0, 0, 0, 0, 0, 0, 0, 0, 0], "stateRewards": ["", -2, -1, -1, 5, -54, -87, 35, 2, -8, 20, -22, 1, 3, 6, 13, -75, -32, -55, -3, 56, 62, -22, -1, -4, -1, -7, -51, 84, 70, 7, -15, 5, 55], "withholdReward": false, "trial_id": "mdp_trial_6", "block": "test", "trialIndex": 7, "score": 6, "costs": 0, "simulationMode": [null, null, null, null, null], "rewards": [-1, -4, -1, 7, 5], "path": ["0", "0", "23", "24", "25", "30", "32"], "rt": [1250, 985, 39, 1035, 193], "actions": ["left", "left", "left", "down", "down"], "actionTimes": [2925, 4436, 5008, 6576, 7290], "queries": {"click": {"state": {"target": [], "time": []}, "edge": {"target": [], "time": []}}, "mouseover": {"state": {"target": [], "time": []}, "edge": {"target": [], "time": []}}, "mouseout": {"state": {"target": ["0"], "time": [8640]}, "edge": {"target": [], "time": []}}}, "displayed_time": "15.69", "trialTime": 18450, "trial_type": "mouselab-mdp", "trial_index": 14, "time_elapsed": 1420139, "internal_node_id": "0.0-6.0-1.0-5.0"}}, {"uniqueid": "w89691672:a45506403", "current_trial": 15, "dateTime": 1693571008553, "trialdata": {"revealed_states": [], "clicked_states": [], "num_clicks_accrued": [0, 0, 0, 0, 0, 0, 0, 0, 0, 0, 0, 0, 0], "stateRewards": ["", 2, -3, 5, 11, -79, 54, 11, -9, -78, 33, 22, -2, -1, 2, 14, 43, 34, 1, 10, 49, -65, 39, -1, 1, -1, 3, -16, -2, 11, 2, 12, 48, -65], "withholdReward": false, "trial_id": "mdp_trial_7", "block": "test", "trialIndex": 8, "score": 49, "costs": 0, "simulationMode": [null, null, null, null, null], "rewards": [-1, 1, -1, 2, 48], "path": ["0", "0", "23", "24", "25", "30", "32"], "rt": [1295, 298, 186, 531, 190], "actions": ["left", "left", "left", "down", "down"], "actionTimes": [3158, 3991, 4690, 5711, 6423], "queries": {"click": {"state": {"target": [], "time": []}, "edge": {"target": [], "time": []}}, "mouseover": {"state": {"target": [], "time": []}, "edge": {"target": [], "time": []}}, "mouseout": {"state": {"target": ["0", "0"], "time": [764, 8128]}, "edge": {"target": [], "time": []}}}, "displayed_time": "15.87", "trialTime": 17809, "trial_type": "mouselab-mdp", "trial_index": 15, "time_elapsed": 1438437, "internal_node_id": "0.0-6.0-1.0-6.0"}}, {"uniqueid": "w89691672:a45506403", "current_trial": 16, "dateTime": 1693571026523, "trialdata": {"revealed_states": [], "clicked_states": [], "num_clicks_accrued": [0, 0, 0, 0, 0, 0, 0, 0, 0, 0, 0, 0, 0], "stateRewards": ["", 2, 4, 4, 9, -88, -10, 44, 16, -54, 64, 78, 1, 2, 5, 16, 80, 36, 7, -4, 9, -47, -70, -1, -3, 6, -16, 11, 80, 28, 8, -1, 34, -17], "withholdReward": false, "trial_id": "mdp_trial_8", "block": "test", "trialIndex": 9, "score": -3, "costs": 0, "simulationMode": [null, null, null, null, null], "rewards": [-1, -3, 6, -16, 11], "path": ["0", "0", "23", "24", "25", "26", "27"], "rt": [1156, 237, 292, 1139, 343], "actions": ["left", "left", "left", "up", "up"], "actionTimes": [2557, 3330, 4138, 5818, 6688], "queries": {"click": {"state": {"target": [], "time": []}, "edge": {"target": [], "time": []}}, "mouseover": {"state": {"target": [], "time": []}, "edge": {"target": [], "time": []}}, "mouseout": {"state": {"target": ["0"], "time": [1018]}, "edge": {"target": [], "time": []}}}, "displayed_time": "15.41", "trialTime": 17445, "trial_type": "mouselab-mdp", "trial_index": 16, "time_elapsed": 1456407, "internal_node_id": "0.0-6.0-1.0-7.0"}}, {"uniqueid": "w89691672:a45506403", "current_trial": 17, "dateTime": 1693571044619, "trialdata": {"revealed_states": [], "clicked_states": [], "num_clicks_accrued": [0, 0, 0, 0, 0, 0, 0, 0, 0, 0, 0, 0, 0], "stateRewards": ["", 2, 3, 6, -5, -74, -53, 17, -12, 46, 44, 18, -2, 4, 1, -8, 22, -23, -49, 9, -45, 55, 81, 1, -1, -7, -16, -83, -71, -45, 2, 51, 82, 61], "withholdReward": false, "trial_id": "mdp_trial_9", "block": "test", "trialIndex": 10, "score": 77, "costs": 0, "simulationMode": [null, null, null, null, null], "rewards": [1, -1, -7, 2, 82], "path": ["0", "0", "23", "24", "25", "30", "32"], "rt": [2609, 112, 106, 483, 66], "actions": ["left", "left", "left", "down", "down"], "actionTimes": [4213, 4858, 5497, 6498, 7091], "queries": {"click": {"state": {"target": [], "time": []}, "edge": {"target": [], "time": []}}, "mouseover": {"state": {"target": [], "time": []}, "edge": {"target": [], "time": []}}, "mouseout": {"state": {"target": ["0"], "time": [1253]}, "edge": {"target": [], "time": []}}}, "displayed_time": "15.61", "trialTime": 17514, "trial_type": "mouselab-mdp", "trial_index": 17, "time_elapsed": 1474502, "internal_node_id": "0.0-6.0-1.0-8.0"}}], "questiondata": {"params": {"CODE": "C6DMOQA6", "MIN_TIME": 14, "inspectCost": 1, "startTime": "Fri Sep 01 2023 13:59:27 GMT+0200 (South Africa Standard Time)", "bonusRate": 0.002, "variance": "1_2_4_8_44", "branching": "31123"}}, "eventdata": [{"eventtype": "initialized", "value": null, "timestamp": 1693569566972, "interval": 0}, {"eventtype": "window_resize", "value": [1024, 654], "timestamp": 1693569566972, "interval": 0}, {"eventtype": "window_resize", "value": [1024, 654], "timestamp": 1693569567510, "interval": 538}, {"eventtype": "window_resize", "value": [1366, 670], "timestamp": 1693569572805, "interval": 5295}, {"eventtype": "window_resize", "value": [1366, 768], "timestamp": 1693569642474, "interval": 69669}], "useragent": "Mozilla/5.0 (Windows NT 10.0; Win64; x64) AppleWebKit/537.36 (KHTML, like Gecko) Chrome/116.0.0.0 Safari/537.36", "mode": "live", "id": "w89691672:a45506403", "status": "user data saved", "Beginhit": "2023-09-01 11:59:20.553421", "Beginexp": "2023-09-01 12:00:42.812509", "Endhit": null, "psiturkStatus": 2, "browser": "<redacted>", "platform": "windows", "language": "en-US", "excludeReason": "dataincomplete"}