{"condition": 1, "counterbalance": 0, "assignmentId": "a79952407", "workerId": "w83201878", "hitId": "h82158683", "currenttrial": 56, "bonus": 0, "data": [{"uniqueid": "w83201878:a79952407", "current_trial": 0, "dateTime": 1693391585876, "trialdata": {"success": true, "trial_type": "fullscreen", "trial_index": 0, "time_elapsed": 4779, "internal_node_id": "0.0-0.0"}}, {"uniqueid": "w83201878:a79952407", "current_trial": 1, "dateTime": 1693391603415, "trialdata": {"view_history": [{"page_index": 0, "viewing_time": 17506}], "rt": 17509, "trial_id": "exp_instructions_misaligned", "trial_type": "instructions", "trial_index": 1, "time_elapsed": 22320, "internal_node_id": "0.0-1.0"}}, {"uniqueid": "w83201878:a79952407", "current_trial": 2, "dateTime": 1693391901163, "trialdata": {"view_history": [{"page_index": 0, "viewing_time": 85428}, {"page_index": 1, "viewing_time": 75126}, {"page_index": 2, "viewing_time": 25735}, {"page_index": 3, "viewing_time": 111443}], "rt": 297734, "trial_id": "mouselab_instructions_1_misaligned", "trial_type": "instructions", "trial_index": 2, "time_elapsed": 320068, "internal_node_id": "0.0-2.0-1.0"}}, {"uniqueid": "w83201878:a79952407", "current_trial": 3, "dateTime": 1693391938163, "trialdata": {"revealed_states": [], "clicked_states": ["1", "12", "23"], "num_clicks_accrued": [0, 0, 0, 0, 0, 0, 0, 0, 0, 0, 0, 0, 0], "stateRewards": ["", 10, -10, 10, -10, -10, 10, -10, 10, 10, -10, 10, -10, -10, 10, 10, -10, 10, 10, -10, 10, -10, 10, -10, 10, -10, 10, -10, 10, 10, -10, -10, 10, 10], "withholdReward": false, "trial_id": "practice_1", "block": "test", "trialIndex": 0, "score": 12, "costs": -1.5, "simulationMode": [null, null, null, null, null], "rewards": [10, -10, 10, -10, 10], "path": ["0", "0", "1", "2", "3", "4", "6"], "rt": [6084, 3737, 3801, 912, 400], "actions": ["up", "up", "up", "right", "right"], "actionTimes": [9637, 13884, 18212, 19621, 20543], "queries": {"click": {"state": {"target": ["1", "12", "23"], "time": [5354, 7135, 8226]}, "edge": {"target": [], "time": []}}, "mouseover": {"state": {"target": ["1", "12", "23"], "time": [3744, 6742, 7596]}, "edge": {"target": [], "time": []}}, "mouseout": {"state": {"target": ["0", "1", "12", "23", "5", "2", "7", "7", "1", "0", "1", "2", "3", "4", "5", "3", "3", "7", "18", "14"], "time": [2838, 6426, 7494, 10738, 11593, 13022, 13239, 25468, 25552, 26186, 26224, 26516, 27097, 27667, 28700, 28831, 31032, 31168, 31816, 32349]}, "edge": {"target": [], "time": []}}}, "displayed_time": "21.06", "trialTime": 35848, "trial_type": "mouselab-mdp", "trial_index": 3, "time_elapsed": 357066, "internal_node_id": "0.0-2.0-2.0-0.0"}}, {"uniqueid": "w83201878:a79952407", "current_trial": 4, "dateTime": 1693391969049, "trialdata": {"revealed_states": [], "clicked_states": ["1", "12", "23"], "num_clicks_accrued": [0, 0, 0, 0, 0, 0, 0, 0, 0, 0, 0, 0, 0], "stateRewards": ["", 10, 10, 10, 10, 10, -10, 10, -10, 10, -10, 10, -10, -10, -10, -10, -10, -10, 10, 10, 10, 10, 10, -10, 10, -10, -10, 10, -10, -10, 10, 10, 10, -10], "withholdReward": false, "trial_id": "practice_2", "block": "test", "trialIndex": 1, "score": 32, "costs": -1.5, "simulationMode": [null, null, null, null, null], "rewards": [10, 10, 10, -10, 10], "path": ["0", "0", "1", "2", "3", "8", "9"], "rt": [6857, 884, 5333, 455, 569], "actions": ["up", "up", "up", "left", "up"], "actionTimes": [13658, 15061, 20909, 21866, 22961], "queries": {"click": {"state": {"target": ["1", "12", "23"], "time": [8449, 9513, 11206]}, "edge": {"target": [], "time": []}}, "mouseover": {"state": {"target": ["1", "1", "12", "0", "23", "3", "2"], "time": [7510, 8035, 9157, 9916, 9948, 11807, 12190]}, "edge": {"target": [], "time": []}}, "mouseout": {"state": {"target": ["31", "24", "0", "0", "1", "1", "12", "0", "23", "3", "2"], "time": [2688, 2708, 2858, 7481, 7533, 9126, 9904, 9943, 11661, 11827, 12919]}, "edge": {"target": [], "time": []}}}, "displayed_time": "23.48", "trialTime": 30164, "trial_type": "mouselab-mdp", "trial_index": 4, "time_elapsed": 387952, "internal_node_id": "0.0-2.0-2.0-1.0"}}, {"uniqueid": "w83201878:a79952407", "current_trial": 5, "dateTime": 1693392038850, "trialdata": {"view_history": [{"page_index": 0, "viewing_time": 61899}, {"page_index": 1, "viewing_time": 7892}], "rt": 69792, "trial_id": "mouselab_instructions_2_misaligned", "trial_type": "instructions", "trial_index": 5, "time_elapsed": 457755, "internal_node_id": "0.0-2.0-3.0"}}, {"uniqueid": "w83201878:a79952407", "current_trial": 6, "dateTime": 1693392119869, "trialdata": {"rt": 80986, "response": {"Q0": "The cost for clicking on nodes may vary between nodes.", "Q1": "The better I perform the higher my bonus will be.", "Q2": "No, the amount of cash at each node of the web may be different each time.", "Q3": "To get the highest total score.", "Q4": "Only before moving the spider.", "Q5": "3 seconds"}, "question_order": [0, 1, 2, 3, 4, 5], "correct": {"Q0": "The cost for clicking on nodes may vary between nodes.", "Q1": "The better I perform the higher my bonus will be.", "Q2": "No, the amount of cash at each node of the web may be different each time.", "Q3": "To get the highest total score.", "Q4": "Only before moving the spider.", "Q5": "3 seconds"}, "trial_id": "mouselab_quiz_misaligned", "trial_type": "survey-multi-choice", "trial_index": 6, "time_elapsed": 538773, "internal_node_id": "0.0-2.0-4.0"}}, {"uniqueid": "w83201878:a79952407", "current_trial": 7, "dateTime": 1693392126810, "trialdata": {"rt": 6907, "response": {"Q0": "No"}, "question_order": [0], "trial_id": "repeat_check", "trial_type": "survey-multi-choice", "trial_index": 7, "time_elapsed": 545714, "internal_node_id": "0.0-4.0-0.0"}}, {"uniqueid": "w83201878:a79952407", "current_trial": 8, "dateTime": 1693392140523, "trialdata": {"rt": 13692, "stimulus": "\n<h1> Get ready to start the game! </h1>\n\nThank you for reading the instructions. Get ready start with the 40 rounds of this game.\n<br><br>\nIf you need to take a break, feel free to take one after the end of a round, before continuing to the next one.\n<br><br>\nRemember, the more money the spider gets, the bigger your bonus will be!\n<br><br>\n<div style='text-align: center;'>Press <code>space</code> to begin.</div>\n\n<br><br>\n(If, at any point, the <code>space</code> key does not take you to the next page, click once on the text and try again.)", "response": " ", "trial_id": "mdp_ready", "trial_type": "html-keyboard-response", "trial_index": 8, "time_elapsed": 559428, "internal_node_id": "0.0-6.0-0.0"}}, {"uniqueid": "w83201878:a79952407", "current_trial": 9, "dateTime": 1693392163548, "trialdata": {"revealed_states": [], "clicked_states": ["1", "12", "23"], "num_clicks_accrued": [0, 0, 0, 0, 0, 0, 0, 0, 0, 0, 0, 0, 0], "stateRewards": ["", 1, 1, -5, 8, -6, 45, 16, -6, -7, -22, -38, -1, -4, 8, -11, -16, 21, -45, -15, -59, -32, 42, -1, 3, 6, 11, -7, 34, -27, -8, 85, 43, -9], "withholdReward": false, "trial_id": "mdp_trial_1", "block": "test", "trialIndex": 2, "score": -15.25, "costs": 0.75, "simulationMode": [null, null, null, null, null], "rewards": [1, 1, -5, -6, -7], "path": ["0", "0", "1", "2", "3", "8", "9"], "rt": [5824, 1721, 102, 535, 2797], "actions": ["up", "up", "up", "left", "up"], "actionTimes": [9657, 11924, 12538, 13587, 16899], "queries": {"click": {"state": {"target": ["1", "12", "23"], "time": [4979, 7342, 8304]}, "edge": {"target": [], "time": []}}, "mouseover": {"state": {"target": ["1", "12", "0", "23"], "time": [4267, 6965, 7768, 7833]}, "edge": {"target": [], "time": []}}, "mouseout": {"state": {"target": ["6", "7", "2", "1", "0", "0", "1", "12", "0", "23", "2", "6"], "time": [166, 299, 1445, 2794, 2849, 3049, 6868, 7533, 7806, 8867, 20345, 20369]}, "edge": {"target": [], "time": []}}}, "displayed_time": "17.84", "trialTime": 21760, "trial_type": "mouselab-mdp", "trial_index": 9, "time_elapsed": 582452, "internal_node_id": "0.0-6.0-1.0-0.0"}}, {"uniqueid": "w83201878:a79952407", "current_trial": 10, "dateTime": 1693392189566, "trialdata": {"revealed_states": [], "clicked_states": [], "num_clicks_accrued": [0, 0, 0, 0, 0, 0, 0, 0, 0, 0, 0, 0, 0], "stateRewards": ["", 1, -2, 7, -14, 88, -56, -44, -14, 64, -51, -57, -2, 3, -4, -9, -11, 19, -77, -1, 68, 75, -67, -1, 1, -2, 5, -37, 70, -34, -10, -72, 63, -41], "withholdReward": false, "trial_id": "mdp_trial_2", "block": "test", "trialIndex": 3, "score": -52, "costs": 0, "simulationMode": [null, null, null, null, null], "rewards": [1, -2, 7, -14, -44], "path": ["0", "0", "1", "2", "3", "4", "7"], "rt": [1548, 376, 155, 307, 397], "actions": ["up", "up", "up", "right", "down"], "actionTimes": [5548, 6448, 7127, 7946, 8868], "queries": {"click": {"state": {"target": [], "time": []}, "edge": {"target": [], "time": []}}, "mouseover": {"state": {"target": ["1", "0"], "time": [4536, 4572]}, "edge": {"target": [], "time": []}}, "mouseout": {"state": {"target": ["14", "13", "12", "12", "1", "0", "10", "3", "4", "6", "2", "7"], "time": [2664, 2753, 2869, 2936, 4556, 5004, 11627, 11649, 11915, 11949, 14881, 15925]}, "edge": {"target": [], "time": []}}}, "displayed_time": "18.01", "trialTime": 25185, "trial_type": "mouselab-mdp", "trial_index": 10, "time_elapsed": 608469, "internal_node_id": "0.0-6.0-1.0-1.0"}}, {"uniqueid": "w83201878:a79952407", "current_trial": 11, "dateTime": 1693392210279, "trialdata": {"revealed_states": [], "clicked_states": [], "num_clicks_accrued": [0, 0, 0, 0, 0, 0, 0, 0, 0, 0, 0, 0, 0], "stateRewards": ["", 2, 4, -6, -13, -75, -81, 30, 7, 5, 59, -65, -1, -1, 7, 14, -38, 36, -41, 1, -54, -5, 64, 2, -1, 5, 6, -19, 79, 11, 16, -33, -50, 58], "withholdReward": false, "trial_id": "mdp_trial_3", "block": "test", "trialIndex": 4, "score": 55, "costs": 0, "simulationMode": [null, null, null, null, null], "rewards": [-1, -1, 7, 14, 36], "path": ["0", "0", "12", "13", "14", "15", "17"], "rt": [823, 141, 137, 208, 3073], "actions": ["right", "right", "right", "up", "right"], "actionTimes": [4197, 4858, 5520, 6241, 9841], "queries": {"click": {"state": {"target": [], "time": []}, "edge": {"target": [], "time": []}}, "mouseover": {"state": {"target": [], "time": []}, "edge": {"target": [], "time": []}}, "mouseout": {"state": {"target": ["6", "7", "1", "1", "4", "7", "1", "4"], "time": [829, 1128, 2339, 11942, 11981, 12076, 12093, 12227]}, "edge": {"target": [], "time": []}}}, "displayed_time": "17.38", "trialTime": 19885, "trial_type": "mouselab-mdp", "trial_index": 11, "time_elapsed": 629182, "internal_node_id": "0.0-6.0-1.0-2.0"}}, {"uniqueid": "w83201878:a79952407", "current_trial": 12, "dateTime": 1693392228561, "trialdata": {"revealed_states": [], "clicked_states": [], "num_clicks_accrued": [0, 0, 0, 0, 0, 0, 0, 0, 0, 0, 0, 0, 0], "stateRewards": ["", 1, 1, -5, 10, -31, 73, 14, -8, -23, 63, -70, -1, 2, 8, 7, 25, -59, 27, -10, -40, -71, -15, -2, 3, -8, -5, -19, 77, -34, 7, 67, 63, 19], "withholdReward": false, "trial_id": "mdp_trial_4", "block": "test", "trialIndex": 5, "score": -16, "costs": 0, "simulationMode": [null, null, null, null, null], "rewards": [-1, 2, 8, -10, -15], "path": ["0", "0", "12", "13", "14", "19", "22"], "rt": [1075, 400, 270, 504, 213], "actions": ["right", "right", "right", "down", "left"], "actionTimes": [3644, 4558, 5344, 6372, 7118], "queries": {"click": {"state": {"target": [], "time": []}, "edge": {"target": [], "time": []}}, "mouseover": {"state": {"target": [], "time": []}, "edge": {"target": [], "time": []}}, "mouseout": {"state": {"target": ["0"], "time": [8810]}, "edge": {"target": [], "time": []}}}, "displayed_time": "16.58", "trialTime": 17464, "trial_type": "mouselab-mdp", "trial_index": 12, "time_elapsed": 647464, "internal_node_id": "0.0-6.0-1.0-3.0"}}, {"uniqueid": "w83201878:a79952407", "current_trial": 13, "dateTime": 1693392246880, "trialdata": {"revealed_states": [], "clicked_states": [], "num_clicks_accrued": [0, 0, 0, 0, 0, 0, 0, 0, 0, 0, 0, 0, 0], "stateRewards": ["", -2, -3, 4, 1, 33, -53, 15, 9, -12, 61, -6, -2, 4, 6, -11, 47, -43, -7, -11, 46, 23, -28, -1, -1, 3, -10, 11, 76, -76, 10, 18, -38, 87], "withholdReward": false, "trial_id": "mdp_trial_5", "block": "test", "trialIndex": 6, "score": 29, "costs": 0, "simulationMode": [null, null, null, null, null], "rewards": [-1, -1, 3, 10, 18], "path": ["0", "0", "23", "24", "25", "30", "31"], "rt": [1159, 71, 186, 149, 165], "actions": ["left", "left", "left", "down", "right"], "actionTimes": [2822, 3423, 4153, 4814, 5498], "queries": {"click": {"state": {"target": [], "time": []}, "edge": {"target": [], "time": []}}, "mouseover": {"state": {"target": [], "time": []}, "edge": {"target": [], "time": []}}, "mouseout": {"state": {"target": ["0"], "time": [6676]}, "edge": {"target": [], "time": []}}}, "displayed_time": "15.67", "trialTime": 17394, "trial_type": "mouselab-mdp", "trial_index": 13, "time_elapsed": 665783, "internal_node_id": "0.0-6.0-1.0-4.0"}}, {"uniqueid": "w83201878:a79952407", "current_trial": 14, "dateTime": 1693392266242, "trialdata": {"revealed_states": [], "clicked_states": [], "num_clicks_accrued": [0, 0, 0, 0, 0, 0, 0, 0, 0, 0, 0, 0, 0], "stateRewards": ["", -2, -4, 4, -11, -63, -60, -7, 2, -14, 81, -43, -1, -1, -5, 7, 10, 69, 40, 8, -83, 52, 60, 1, 2, 5, -5, 16, 64, 14, -3, 29, 7, -51], "withholdReward": false, "trial_id": "mdp_trial_6", "block": "test", "trialIndex": 7, "score": -14, "costs": 0, "simulationMode": [null, null, null, null, null], "rewards": [-2, -4, 4, 2, -14], "path": ["0", "0", "1", "2", "3", "8", "9"], "rt": [1218, 37, 34, 1034, 13], "actions": ["up", "up", "up", "left", "up"], "actionTimes": [3638, 4213, 4787, 6383, 6908], "queries": {"click": {"state": {"target": [], "time": []}, "edge": {"target": [], "time": []}}, "mouseover": {"state": {"target": ["2", "1"], "time": [2466, 2769]}, "edge": {"target": [], "time": []}}, "mouseout": {"state": {"target": ["0", "10", "4", "7", "2", "2", "1", "2", "1"], "time": [159, 260, 309, 509, 576, 1153, 1433, 2753, 2793]}, "edge": {"target": [], "time": []}}}, "displayed_time": "16.43", "trialTime": 18310, "trial_type": "mouselab-mdp", "trial_index": 14, "time_elapsed": 685145, "internal_node_id": "0.0-6.0-1.0-5.0"}}, {"uniqueid": "w83201878:a79952407", "current_trial": 15, "dateTime": 1693392285982, "trialdata": {"revealed_states": [], "clicked_states": [], "num_clicks_accrued": [0, 0, 0, 0, 0, 0, 0, 0, 0, 0, 0, 0, 0], "stateRewards": ["", -2, 3, -1, -9, 44, 48, -37, -3, 71, -39, 87, -1, 3, -4, 4, -21, 59, -15, -8, -1, 28, -38, 2, 4, 4, 8, -85, -72, -63, 14, 58, 63, -46], "withholdReward": false, "trial_id": "mdp_trial_7", "block": "test", "trialIndex": 8, "score": 68, "costs": 0, "simulationMode": [null, null, null, null, null], "rewards": [-2, 3, -1, -3, 71], "path": ["0", "0", "1", "2", "3", "8", "9"], "rt": [656, 513, 132, 73, 47], "actions": ["up", "up", "up", "left", "up"], "actionTimes": [4909, 5937, 6588, 7178, 7752], "queries": {"click": {"state": {"target": [], "time": []}, "edge": {"target": [], "time": []}}, "mouseover": {"state": {"target": ["2"], "time": [4275]}, "edge": {"target": [], "time": []}}, "mouseout": {"state": {"target": ["13", "12", "2"], "time": [3017, 3035, 13199]}, "edge": {"target": [], "time": []}}}, "displayed_time": "18.26", "trialTime": 18550, "trial_type": "mouselab-mdp", "trial_index": 15, "time_elapsed": 704885, "internal_node_id": "0.0-6.0-1.0-6.0"}}, {"uniqueid": "w83201878:a79952407", "current_trial": 16, "dateTime": 1693392306982, "trialdata": {"revealed_states": [], "clicked_states": [], "num_clicks_accrued": [0, 0, 0, 0, 0, 0, 0, 0, 0, 0, 0, 0, 0], "stateRewards": ["", 2, -1, 3, -12, -83, 6, -33, 9, 28, 24, -50, -2, -1, -2, -5, -87, 37, 82, 12, 80, -5, 10, -2, -3, -6, 9, 22, -1, 16, 9, 77, -62, 58], "withholdReward": false, "trial_id": "mdp_trial_8", "block": "test", "trialIndex": 9, "score": -91, "costs": 0, "simulationMode": [null, null, null, null, null], "rewards": [2, -1, 3, -12, -83], "path": ["0", "0", "1", "2", "3", "4", "5"], "rt": [1934, 372, 112, 13, 426], "actions": ["up", "up", "up", "right", "up"], "actionTimes": [4900, 5788, 6426, 6960, 7923], "queries": {"click": {"state": {"target": [], "time": []}, "edge": {"target": [], "time": []}}, "mouseover": {"state": {"target": [], "time": []}, "edge": {"target": [], "time": []}}, "mouseout": {"state": {"target": ["13", "0", "0"], "time": [1806, 2153, 10490]}, "edge": {"target": [], "time": []}}}, "displayed_time": "16.98", "trialTime": 20102, "trial_type": "mouselab-mdp", "trial_index": 16, "time_elapsed": 725885, "internal_node_id": "0.0-6.0-1.0-7.0"}}, {"uniqueid": "w83201878:a79952407", "current_trial": 17, "dateTime": 1693392327371, "trialdata": {"revealed_states": [], "clicked_states": ["23", "1"], "num_clicks_accrued": [0, 0, 0, 0, 0, 0, 0, 0, 0, 0, 0, 0, 0], "stateRewards": ["", 2, -1, 1, 10, -52, 86, -22, -2, -14, -63, 38, 1, 3, 7, -8, 11, -32, -27, 9, -71, 40, -87, -2, -1, 5, -7, 12, 31, -57, 13, 86, -58, 29], "withholdReward": false, "trial_id": "mdp_trial_9", "block": "test", "trialIndex": 10, "score": 98.5, "costs": 0.5, "simulationMode": [null, null, null, null, null], "rewards": [2, -1, 1, 10, 86], "path": ["0", "0", "1", "2", "3", "4", "6"], "rt": [4476, 237, 200, 54, 93], "actions": ["up", "up", "up", "right", "right"], "actionTimes": [6325, 7086, 7798, 8369, 8992], "queries": {"click": {"state": {"target": ["23", "1"], "time": [3052, 4649]}, "edge": {"target": [], "time": []}}, "mouseover": {"state": {"target": ["23", "1"], "time": [2628, 4245]}, "edge": {"target": [], "time": []}}, "mouseout": {"state": {"target": ["23", "0", "23", "1"], "time": [922, 2172, 3650, 5182]}, "edge": {"target": [], "time": []}}}, "displayed_time": "15.86", "trialTime": 19315, "trial_type": "mouselab-mdp", "trial_index": 17, "time_elapsed": 746273, "internal_node_id": "0.0-6.0-1.0-8.0"}}, {"uniqueid": "w83201878:a79952407", "current_trial": 18, "dateTime": 1693392346886, "trialdata": {"revealed_states": [], "clicked_states": ["1"], "num_clicks_accrued": [0, 0, 0, 0, 0, 0, 0, 0, 0, 0, 0, 0, 0], "stateRewards": ["", 1, 1, -7, -9, -44, 24, -83, -15, 44, -24, 72, -2, -3, 4, -5, 57, 55, 29, -11, 22, 12, -25, -1, 2, 7, 12, 33, -8, 47, -4, 8, 50, -4], "withholdReward": false, "trial_id": "mdp_trial_10", "block": "test", "trialIndex": 11, "score": -43.75, "costs": 0.25, "simulationMode": [null, null, null, null, null], "rewards": [1, 1, -7, -15, -24], "path": ["0", "0", "1", "2", "3", "8", "10"], "rt": [2536, 279, 193, 1369, 943], "actions": ["up", "up", "up", "left", "down"], "actionTimes": [4651, 5462, 6174, 8067, 9524], "queries": {"click": {"state": {"target": ["1"], "time": [2923]}, "edge": {"target": [], "time": []}}, "mouseover": {"state": {"target": ["1", "1"], "time": [2138, 2592]}, "edge": {"target": [], "time": []}}, "mouseout": {"state": {"target": ["1", "1", "12"], "time": [2325, 3903, 15139]}, "edge": {"target": [], "time": []}}}, "displayed_time": "16.12", "trialTime": 18536, "trial_type": "mouselab-mdp", "trial_index": 18, "time_elapsed": 765789, "internal_node_id": "0.0-6.0-1.0-9.0"}}, {"uniqueid": "w83201878:a79952407", "current_trial": 19, "dateTime": 1693392369757, "trialdata": {"revealed_states": [], "clicked_states": ["12"], "num_clicks_accrued": [0, 0, 0, 0, 0, 0, 0, 0, 0, 0, 0, 0, 0], "stateRewards": ["", 1, -2, 4, 7, -43, -83, -60, -5, -86, -80, 83, -1, -2, 6, 11, -15, 21, 13, 9, 29, -49, 11, -1, 4, -6, -11, 87, 40, 63, -8, -39, -11, 62], "withholdReward": false, "trial_id": "mdp_trial_11", "block": "test", "trialIndex": 12, "score": 26.25, "costs": 0.25, "simulationMode": [null, null, null, null, null], "rewards": [-1, 4, -6, -11, 40], "path": ["0", "0", "23", "24", "25", "26", "28"], "rt": [6750, 36, 78, 306, 253], "actions": ["left", "left", "left", "up", "right"], "actionTimes": [9319, 9878, 10470, 11299, 12080], "queries": {"click": {"state": {"target": ["12"], "time": [4120]}, "edge": {"target": [], "time": []}}, "mouseover": {"state": {"target": ["12", "23", "24", "23"], "time": [3823, 6670, 6888, 7071]}, "edge": {"target": [], "time": []}}, "mouseout": {"state": {"target": ["0", "0", "12", "23", "24", "23", "24", "25", "31"], "time": [1005, 3555, 6642, 6705, 6922, 13235, 19765, 19898, 19952]}, "edge": {"target": [], "time": []}}}, "displayed_time": "16.57", "trialTime": 21879, "trial_type": "mouselab-mdp", "trial_index": 19, "time_elapsed": 788660, "internal_node_id": "0.0-6.0-1.0-10.0"}}, {"uniqueid": "w83201878:a79952407", "current_trial": 20, "dateTime": 1693392391798, "trialdata": {"revealed_states": [], "clicked_states": ["1", "23"], "num_clicks_accrued": [0, 0, 0, 0, 0, 0, 0, 0, 0, 0, 0, 0, 0], "stateRewards": ["", -1, 4, -5, 9, 29, -75, -42, -16, 24, -28, -41, 2, -3, 1, 10, 60, 47, 55, -1, -53, 22, -40, 2, -3, -6, 4, -26, 44, 54, 15, -76, 42, 14], "withholdReward": false, "trial_id": "mdp_trial_12", "block": "test", "trialIndex": 13, "score": 22.5, "costs": 0.5, "simulationMode": [null, null, null, null, null], "rewards": [2, -3, -6, 15, 14], "path": ["0", "0", "23", "24", "25", "30", "33"], "rt": [3381, 277, 303, 346, 131], "actions": ["left", "left", "left", "down", "left"], "actionTimes": [5834, 6631, 7456, 8316, 8966], "queries": {"click": {"state": {"target": ["1", "23"], "time": [3629, 4552]}, "edge": {"target": [], "time": []}}, "mouseover": {"state": {"target": ["1", "23"], "time": [3266, 4187]}, "edge": {"target": [], "time": []}}, "mouseout": {"state": {"target": ["1", "23", "23"], "time": [3973, 5030, 5261]}, "edge": {"target": [], "time": []}}}, "displayed_time": "16.46", "trialTime": 20970, "trial_type": "mouselab-mdp", "trial_index": 20, "time_elapsed": 810700, "internal_node_id": "0.0-6.0-1.0-11.0"}}, {"uniqueid": "w83201878:a79952407", "current_trial": 21, "dateTime": 1693392410779, "trialdata": {"revealed_states": [], "clicked_states": ["1", "12", "23"], "num_clicks_accrued": [0, 0, 0, 0, 0, 0, 0, 0, 0, 0, 0, 0, 0], "stateRewards": ["", 1, 1, 1, 15, -76, 52, -32, 14, -57, 37, 49, 1, -4, -3, 6, 83, -76, 25, 9, 36, -1, -17, -1, 4, 4, -2, -22, -21, 58, -15, -57, 49, -24], "withholdReward": false, "trial_id": "mdp_trial_13", "block": "test", "trialIndex": 14, "score": 70.75, "costs": 0.75, "simulationMode": [null, null, null, null, null], "rewards": [1, 1, 1, 15, 52], "path": ["0", "0", "1", "2", "3", "4", "6"], "rt": [4574, 31, 67, 129, 26], "actions": ["up", "up", "up", "right", "right"], "actionTimes": [6474, 7035, 7620, 8282, 8828], "queries": {"click": {"state": {"target": ["1", "12", "23"], "time": [2676, 4024, 5045]}, "edge": {"target": [], "time": []}}, "mouseover": {"state": {"target": ["1", "1", "12", "23"], "time": [1926, 2334, 3716, 4754]}, "edge": {"target": [], "time": []}}, "mouseout": {"state": {"target": ["1", "1", "12", "23"], "time": [2100, 3292, 4209, 5645]}, "edge": {"target": [], "time": []}}}, "displayed_time": "15.91", "trialTime": 17858, "trial_type": "mouselab-mdp", "trial_index": 21, "time_elapsed": 829681, "internal_node_id": "0.0-6.0-1.0-12.0"}}, {"uniqueid": "w83201878:a79952407", "current_trial": 22, "dateTime": 1693392430240, "trialdata": {"revealed_states": [], "clicked_states": ["1", "12", "23"], "num_clicks_accrued": [0, 0, 0, 0, 0, 0, 0, 0, 0, 0, 0, 0, 0], "stateRewards": ["", -1, -3, -7, -4, -85, -70, 79, 8, 84, -66, 42, 2, -2, -3, -16, -54, -66, 68, -3, 21, -14, 7, -2, -1, -3, -8, 75, 80, 86, -7, -84, 73, -16], "withholdReward": false, "trial_id": "mdp_trial_14", "block": "test", "trialIndex": 15, "score": -72.25, "costs": 0.75, "simulationMode": [null, null, null, null, null], "rewards": [2, -2, -3, -16, -54], "path": ["0", "0", "12", "13", "14", "15", "16"], "rt": [4019, 30, 122, 195, 1057], "actions": ["right", "right", "right", "up", "up"], "actionTimes": [7539, 8083, 8726, 9449, 11072], "queries": {"click": {"state": {"target": ["1", "12", "23"], "time": [4152, 4938, 5950]}, "edge": {"target": [], "time": []}}, "mouseover": {"state": {"target": ["1", "12", "23", "23"], "time": [3700, 4595, 5304, 5413]}, "edge": {"target": [], "time": []}}, "mouseout": {"state": {"target": ["1", "0", "1", "12", "23", "23", "12"], "time": [2293, 3554, 4538, 5252, 5325, 6353, 17388]}, "edge": {"target": [], "time": []}}}, "displayed_time": "17.52", "trialTime": 18308, "trial_type": "mouselab-mdp", "trial_index": 22, "time_elapsed": 849143, "internal_node_id": "0.0-6.0-1.0-13.0"}}, {"uniqueid": "w83201878:a79952407", "current_trial": 23, "dateTime": 1693392450001, "trialdata": {"revealed_states": [], "clicked_states": ["23"], "num_clicks_accrued": [0, 0, 0, 0, 0, 0, 0, 0, 0, 0, 0, 0, 0], "stateRewards": ["", -2, 2, -5, 1, 42, -63, -58, -6, 2, 16, 81, -2, 4, 7, -10, 33, 3, -33, -2, -52, -84, -27, 2, -3, -3, 15, -74, -14, -5, -5, -84, 79, -31], "withholdReward": false, "trial_id": "mdp_trial_15", "block": "test", "trialIndex": 16, "score": -92.75, "costs": 0.25, "simulationMode": [null, null, null, null, null], "rewards": [2, -3, -3, -5, -84], "path": ["0", "0", "23", "24", "25", "30", "31"], "rt": [2816, 287, 137, 95, 97], "actions": ["left", "left", "left", "down", "right"], "actionTimes": [4664, 5478, 6127, 6735, 7354], "queries": {"click": {"state": {"target": ["23"], "time": [2896]}, "edge": {"target": [], "time": []}}, "mouseover": {"state": {"target": ["23", "1"], "time": [2585, 3367]}, "edge": {"target": [], "time": []}}, "mouseout": {"state": {"target": ["12", "13", "12", "0", "0", "23", "1"], "time": [null, 119, 168, 252, 1872, 3290, 4300]}, "edge": {"target": [], "time": []}}}, "displayed_time": "15.85", "trialTime": 18411, "trial_type": "mouselab-mdp", "trial_index": 23, "time_elapsed": 868904, "internal_node_id": "0.0-6.0-1.0-14.0"}}, {"uniqueid": "w83201878:a79952407", "current_trial": 24, "dateTime": 1693392470455, "trialdata": {"revealed_states": [], "clicked_states": ["23"], "num_clicks_accrued": [0, 0, 0, 0, 0, 0, 0, 0, 0, 0, 0, 0, 0], "stateRewards": ["", -1, 3, 8, 10, -86, 61, -36, 10, 17, -60, 24, -1, -3, 3, 11, 50, 60, 33, -3, -20, 58, -6, 1, -4, -4, 13, -70, -71, 43, 14, 52, 82, -11], "withholdReward": false, "trial_id": "mdp_trial_16", "block": "test", "trialIndex": 17, "score": 49.25, "costs": 0.25, "simulationMode": [null, null, null, null, null], "rewards": [1, -4, -4, 13, 43], "path": ["0", "0", "23", "24", "25", "26", "29"], "rt": [2312, 463, 299, 225, 233], "actions": ["left", "left", "left", "up", "left"], "actionTimes": [4647, 5624, 6428, 7168, 7928], "queries": {"click": {"state": {"target": ["23"], "time": [3461]}, "edge": {"target": [], "time": []}}, "mouseover": {"state": {"target": ["23", "1", "1"], "time": [3112, 3836, 4162]}, "edge": {"target": [], "time": []}}, "mouseout": {"state": {"target": ["0", "0", "23", "1", "1"], "time": [871, 3094, 3811, 3894, 12095]}, "edge": {"target": [], "time": []}}}, "displayed_time": "16.35", "trialTime": 18758, "trial_type": "mouselab-mdp", "trial_index": 24, "time_elapsed": 889358, "internal_node_id": "0.0-6.0-1.0-15.0"}}, {"uniqueid": "w83201878:a79952407", "current_trial": 25, "dateTime": 1693392488736, "trialdata": {"revealed_states": [], "clicked_states": ["23", "1", "12"], "num_clicks_accrued": [0, 0, 0, 0, 0, 0, 0, 0, 0, 0, 0, 0, 0], "stateRewards": ["", -1, -4, -3, 1, -45, -67, -24, 14, 32, 22, 22, -1, 1, -5, -7, 72, 84, -79, -5, 19, -40, -2, -1, -2, 8, -3, 84, -25, -28, 11, 64, -66, 77], "withholdReward": false, "trial_id": "mdp_trial_17", "block": "test", "trialIndex": 18, "score": -11.25, "costs": 0.75, "simulationMode": [null, null, null, null, null], "rewards": [-1, 1, -5, -5, -2], "path": ["0", "0", "12", "13", "14", "19", "22"], "rt": [4351, 52, 34, 116, 642], "actions": ["right", "right", "right", "down", "left"], "actionTimes": [6706, 7274, 7840, 8475, 9797], "queries": {"click": {"state": {"target": ["23", "1", "12"], "time": [3234, 4070, 4837]}, "edge": {"target": [], "time": []}}, "mouseover": {"state": {"target": ["23", "1", "12"], "time": [2919, 3788, 4559]}, "edge": {"target": [], "time": []}}, "mouseout": {"state": {"target": ["1", "23", "1", "12"], "time": [1077, 3441, 4422, 5036]}, "edge": {"target": [], "time": []}}}, "displayed_time": "16.36", "trialTime": 16911, "trial_type": "mouselab-mdp", "trial_index": 25, "time_elapsed": 907640, "internal_node_id": "0.0-6.0-1.0-16.0"}}, {"uniqueid": "w83201878:a79952407", "current_trial": 26, "dateTime": 1693392506582, "trialdata": {"revealed_states": [], "clicked_states": ["1"], "num_clicks_accrued": [0, 0, 0, 0, 0, 0, 0, 0, 0, 0, 0, 0, 0], "stateRewards": ["", 2, -2, -3, 10, -4, -1, -11, -8, -9, -36, -78, 2, 1, 7, -7, 44, -1, -31, -1, 26, 47, 83, 2, -4, -4, -6, -52, -76, -81, -1, -59, 45, 67], "withholdReward": false, "trial_id": "mdp_trial_18", "block": "test", "trialIndex": 19, "score": -88.75, "costs": 0.25, "simulationMode": [null, null, null, null, null], "rewards": [2, -2, -3, -8, -78], "path": ["0", "0", "1", "2", "3", "8", "11"], "rt": [2339, 66, 88, 138, 393], "actions": ["up", "up", "up", "left", "left"], "actionTimes": [4147, 4737, 5358, 6008, 6914], "queries": {"click": {"state": {"target": ["1"], "time": [2860]}, "edge": {"target": [], "time": []}}, "mouseover": {"state": {"target": ["0", "1"], "time": [1930, 2449]}, "edge": {"target": [], "time": []}}, "mouseout": {"state": {"target": ["12", "0", "0", "1"], "time": [115, 1836, 2307, 3373]}, "edge": {"target": [], "time": []}}}, "displayed_time": "15.82", "trialTime": 16385, "trial_type": "mouselab-mdp", "trial_index": 26, "time_elapsed": 925484, "internal_node_id": "0.0-6.0-1.0-17.0"}}, {"uniqueid": "w83201878:a79952407", "current_trial": 27, "dateTime": 1693392526430, "trialdata": {"revealed_states": [], "clicked_states": ["23", "1", "12"], "num_clicks_accrued": [0, 0, 0, 0, 0, 0, 0, 0, 0, 0, 0, 0, 0], "stateRewards": ["", 1, 2, 3, 16, 63, -25, 16, -4, -14, 82, -66, -1, -3, -3, -11, -14, 19, 46, 3, -34, -82, 66, -2, -3, 4, -5, -63, 77, -37, -1, -45, -41, 84], "withholdReward": false, "trial_id": "mdp_trial_19", "block": "test", "trialIndex": 20, "score": 38.75, "costs": 0.75, "simulationMode": [null, null, null, null, null], "rewards": [1, 2, 3, 16, 16], "path": ["0", "0", "1", "2", "3", "4", "7"], "rt": [3788, 265, 165, 208, 49], "actions": ["up", "up", "up", "right", "down"], "actionTimes": [5860, 6648, 7331, 8058, 8646], "queries": {"click": {"state": {"target": ["23", "1", "12"], "time": [2996, 3914, 4647]}, "edge": {"target": [], "time": []}}, "mouseover": {"state": {"target": ["23", "0", "23", "1", "12"], "time": [2112, 2329, 2679, 3581, 4275]}, "edge": {"target": [], "time": []}}, "mouseout": {"state": {"target": ["23", "0", "23", "1", "12", "1"], "time": [2185, 2536, 3450, 4215, 5198, 5315]}, "edge": {"target": [], "time": []}}}, "displayed_time": "16.08", "trialTime": 18459, "trial_type": "mouselab-mdp", "trial_index": 27, "time_elapsed": 945333, "internal_node_id": "0.0-6.0-1.0-18.0"}}, {"uniqueid": "w83201878:a79952407", "current_trial": 28, "dateTime": 1693392555115, "trialdata": {"revealed_states": [], "clicked_states": ["1", "23", "12"], "num_clicks_accrued": [0, 0, 0, 0, 0, 0, 0, 0, 0, 0, 0, 0, 0], "stateRewards": ["", -2, -4, 6, 14, -34, 49, 36, -8, -3, 32, -4, 1, -2, 1, -8, -20, -71, -57, -7, -86, -62, -16, -2, -3, -5, 11, 23, -21, 53, 5, -5, 85, 73], "withholdReward": false, "trial_id": "mdp_trial_20", "block": "test", "trialIndex": 21, "score": -22.25, "costs": 0.75, "simulationMode": [null, null, null, null, null], "rewards": [1, -2, 1, -7, -16], "path": ["0", "0", "12", "13", "14", "19", "22"], "rt": [4433, 281, 93, 117, 52], "actions": ["right", "right", "right", "down", "left"], "actionTimes": [15006, 15820, 16432, 17072, 17639], "queries": {"click": {"state": {"target": ["1", "23", "12"], "time": [11513, 12561, 14059]}, "edge": {"target": [], "time": []}}, "mouseover": {"state": {"target": ["1", "23", "23", "12", "12", "16"], "time": [11202, 11866, 12336, 12971, 13766, 14539]}, "edge": {"target": [], "time": []}}, "mouseout": {"state": {"target": ["1", "0", "0", "1", "23", "23", "12", "12", "16"], "time": [9218, 9256, 11143, 11824, 11909, 12773, 13057, 14505, 14562]}, "edge": {"target": [], "time": []}}}, "displayed_time": "24.58", "trialTime": 27459, "trial_type": "mouselab-mdp", "trial_index": 28, "time_elapsed": 974019, "internal_node_id": "0.0-6.0-1.0-19.0"}}, {"uniqueid": "w83201878:a79952407", "current_trial": 29, "dateTime": 1693392574343, "trialdata": {"revealed_states": [], "clicked_states": ["12", "1", "23"], "num_clicks_accrued": [0, 0, 0, 0, 0, 0, 0, 0, 0, 0, 0, 0, 0], "stateRewards": ["", -2, -4, -2, 10, -8, -15, -47, 7, -84, 53, 5, -1, 2, -7, 3, 83, 31, 47, -1, 30, -8, 69, 2, -4, -1, 8, -7, 12, -8, -8, -13, 30, -84], "withholdReward": false, "trial_id": "mdp_trial_21", "block": "test", "trialIndex": 22, "score": -94.25, "costs": 0.75, "simulationMode": [null, null, null, null, null], "rewards": [2, -4, -1, -8, -84], "path": ["0", "0", "23", "24", "25", "30", "33"], "rt": [4085, 65, 134, 64, 411], "actions": ["left", "left", "left", "down", "left"], "actionTimes": [6359, 6955, 7620, 8203, 9176], "queries": {"click": {"state": {"target": ["12", "1", "23"], "time": [3179, 4012, 4886]}, "edge": {"target": [], "time": []}}, "mouseover": {"state": {"target": ["1", "12", "1", "23"], "time": [2318, 2815, 3540, 4423]}, "edge": {"target": [], "time": []}}, "mouseout": {"state": {"target": ["16", "1", "0", "1", "12", "1", "23"], "time": [917, 1208, 2312, 2445, 3366, 4346, 17009]}, "edge": {"target": [], "time": []}}}, "displayed_time": "16.28", "trialTime": 17825, "trial_type": "mouselab-mdp", "trial_index": 29, "time_elapsed": 993246, "internal_node_id": "0.0-6.0-1.0-20.0"}}, {"uniqueid": "w83201878:a79952407", "current_trial": 30, "dateTime": 1693392592933, "trialdata": {"revealed_states": [], "clicked_states": ["23", "1", "12"], "num_clicks_accrued": [0, 0, 0, 0, 0, 0, 0, 0, 0, 0, 0, 0, 0], "stateRewards": ["", -2, 2, -5, -6, 10, -66, -58, -10, -11, -63, -70, -1, -4, -5, 7, 66, -64, -43, -3, 45, -37, 4, -2, -2, -6, -4, -30, 33, 43, 15, -32, -65, -59], "withholdReward": false, "trial_id": "mdp_trial_22", "block": "test", "trialIndex": 23, "score": -49.25, "costs": 0.75, "simulationMode": [null, null, null, null, null], "rewards": [-1, -4, -5, -3, -37], "path": ["0", "0", "12", "13", "14", "19", "21"], "rt": [3943, 75, 128, 257, 68], "actions": ["right", "right", "right", "down", "down"], "actionTimes": [6647, 7247, 7900, 8706, 9288], "queries": {"click": {"state": {"target": ["23", "1", "12"], "time": [3533, 4309, 5305]}, "edge": {"target": [], "time": []}}, "mouseover": {"state": {"target": ["23", "0", "23", "1", "12", "0", "0"], "time": [2736, 3051, 3168, 3895, 4961, 5746, 6191]}, "edge": {"target": [], "time": []}}, "mouseout": {"state": {"target": ["0", "23", "0", "23", "1", "1", "12", "12", "0", "0", "17"], "time": [2730, 2983, 3104, 3853, 4510, 4795, 5518, 5722, 5768, 10382, 10465]}, "edge": {"target": [], "time": []}}}, "displayed_time": "16.71", "trialTime": 17340, "trial_type": "mouselab-mdp", "trial_index": 30, "time_elapsed": 1011836, "internal_node_id": "0.0-6.0-1.0-21.0"}}, {"uniqueid": "w83201878:a79952407", "current_trial": 31, "dateTime": 1693392612183, "trialdata": {"revealed_states": [], "clicked_states": ["23", "1", "12"], "num_clicks_accrued": [0, 0, 0, 0, 0, 0, 0, 0, 0, 0, 0, 0, 0], "stateRewards": ["", 1, -3, -2, 14, 49, -40, -39, 2, 26, -61, 73, 1, -4, -8, 12, 79, 29, -65, -13, 55, -26, 27, -1, 3, 3, 9, -17, -60, -18, -8, 35, -88, 69], "withholdReward": false, "trial_id": "mdp_trial_23", "block": "test", "trialIndex": 24, "score": -49.25, "costs": 0.75, "simulationMode": [null, null, null, null, null], "rewards": [1, -4, -8, -13, -26], "path": ["0", "0", "12", "13", "14", "19", "21"], "rt": [4352, 37, 60, 577, 140], "actions": ["right", "right", "right", "down", "down"], "actionTimes": [6847, 7406, 7980, 9095, 9772], "queries": {"click": {"state": {"target": ["23", "1", "12"], "time": [4071, 4953, 5754]}, "edge": {"target": [], "time": []}}, "mouseover": {"state": {"target": ["23", "0", "23", "1", "1", "12"], "time": [2523, 2907, 3704, 4324, 4623, 5412]}, "edge": {"target": [], "time": []}}, "mouseout": {"state": {"target": ["17", "7", "1", "0", "23", "0", "23", "1", "1", "1", "12"], "time": [709, 1159, 1191, 1416, 2663, 2942, 4288, 4425, 5165, 5274, 6320]}, "edge": {"target": [], "time": []}}}, "displayed_time": "16.50", "trialTime": 17996, "trial_type": "mouselab-mdp", "trial_index": 31, "time_elapsed": 1031086, "internal_node_id": "0.0-6.0-1.0-22.0"}}, {"uniqueid": "w83201878:a79952407", "current_trial": 32, "dateTime": 1693392631165, "trialdata": {"revealed_states": [], "clicked_states": ["12", "1", "23"], "num_clicks_accrued": [0, 0, 0, 0, 0, 0, 0, 0, 0, 0, 0, 0, 0], "stateRewards": ["", -2, -4, -6, 12, -58, -70, -80, 2, 16, -88, -62, 1, 2, -5, 11, 77, -35, -44, -5, 18, -83, 87, 1, -3, -5, 13, -44, -21, -86, 10, -52, 8, 29], "withholdReward": false, "trial_id": "mdp_trial_24", "block": "test", "trialIndex": 25, "score": 11.75, "costs": 0.75, "simulationMode": [null, null, null, null, null], "rewards": [1, -3, -5, 10, 8], "path": ["0", "0", "23", "24", "25", "30", "32"], "rt": [3376, 757, 75, 229, 629], "actions": ["left", "left", "left", "down", "down"], "actionTimes": [5125, 6407, 7006, 7779, 8911], "queries": {"click": {"state": {"target": ["12", "1", "23"], "time": [2795, 3486, 4265]}, "edge": {"target": [], "time": []}}, "mouseover": {"state": {"target": ["0", "12", "1", "23"], "time": [1928, 2387, 3118, 3869]}, "edge": {"target": [], "time": []}}, "mouseout": {"state": {"target": ["0", "12", "1", "23", "23"], "time": [2349, 2978, 3826, 4509, 4806]}, "edge": {"target": [], "time": []}}}, "displayed_time": "15.75", "trialTime": 17682, "trial_type": "mouselab-mdp", "trial_index": 32, "time_elapsed": 1050069, "internal_node_id": "0.0-6.0-1.0-23.0"}}, {"uniqueid": "w83201878:a79952407", "current_trial": 33, "dateTime": 1693392650944, "trialdata": {"revealed_states": [], "clicked_states": ["23", "1", "12"], "num_clicks_accrued": [0, 0, 0, 0, 0, 0, 0, 0, 0, 0, 0, 0, 0], "stateRewards": ["", 2, -4, -8, -15, 71, -43, -41, 7, -17, 20, 67, -1, -1, -4, 6, 37, -24, -47, 9, 34, 57, 45, 1, 2, -4, -5, -23, 88, -5, 13, -40, 43, 44], "withholdReward": false, "trial_id": "mdp_trial_25", "block": "test", "trialIndex": 26, "score": 46.75, "costs": 0.75, "simulationMode": [null, null, null, null, null], "rewards": [2, -4, -8, -15, 71], "path": ["0", "0", "1", "2", "3", "4", "5"], "rt": [3904, 3, 125, 28, 9], "actions": ["up", "up", "up", "right", "up"], "actionTimes": [6045, 6571, 7232, 7786, 8318], "queries": {"click": {"state": {"target": ["23", "1", "12"], "time": [2768, 3545, 4653]}, "edge": {"target": [], "time": []}}, "mouseover": {"state": {"target": ["23", "1", "1", "12"], "time": [2174, 3086, 3325, 4017]}, "edge": {"target": [], "time": []}}, "mouseout": {"state": {"target": ["23", "0", "23", "1", "1", "12"], "time": [179, 2169, 3042, 3226, 3897, 5560]}, "edge": {"target": [], "time": []}}}, "displayed_time": "16.15", "trialTime": 18075, "trial_type": "mouselab-mdp", "trial_index": 33, "time_elapsed": 1069847, "internal_node_id": "0.0-6.0-1.0-24.0"}}, {"uniqueid": "w83201878:a79952407", "current_trial": 34, "dateTime": 1693392676384, "trialdata": {"revealed_states": [], "clicked_states": ["23", "1", "12"], "num_clicks_accrued": [0, 0, 0, 0, 0, 0, 0, 0, 0, 0, 0, 0, 0], "stateRewards": ["", 2, 3, 3, 10, 19, -21, 6, 9, 54, 68, 16, 2, 2, -6, -8, 40, -2, -75, -2, -42, 55, 59, -1, 2, 4, -14, 11, -34, -30, -6, 61, -53, 13], "withholdReward": false, "trial_id": "mdp_trial_26", "block": "test", "trialIndex": 27, "score": 24.75, "costs": 0.75, "simulationMode": [null, null, null, null, null], "rewards": [2, 3, 3, 10, 6], "path": ["0", "0", "1", "2", "3", "4", "7"], "rt": [3585, 17, 38, 48, 40], "actions": ["up", "up", "up", "right", "down"], "actionTimes": [5613, 6187, 6749, 7308, 7883], "queries": {"click": {"state": {"target": ["23", "1", "12"], "time": [2963, 3645, 4530]}, "edge": {"target": [], "time": []}}, "mouseover": {"state": {"target": ["23", "1", "12"], "time": [2570, 3352, 4061]}, "edge": {"target": [], "time": []}}, "mouseout": {"state": {"target": ["0", "23", "1", "12"], "time": [2125, 3245, 4017, 4893]}, "edge": {"target": [], "time": []}}}, "displayed_time": "16.03", "trialTime": 23973, "trial_type": "mouselab-mdp", "trial_index": 34, "time_elapsed": 1095286, "internal_node_id": "0.0-6.0-1.0-25.0"}}, {"uniqueid": "w83201878:a79952407", "current_trial": 35, "dateTime": 1693392696269, "trialdata": {"revealed_states": [], "clicked_states": ["1", "23", "12"], "num_clicks_accrued": [0, 0, 0, 0, 0, 0, 0, 0, 0, 0, 0, 0, 0], "stateRewards": ["", 2, 3, -3, 4, 72, -28, 34, -12, 57, -64, -15, 2, 1, -4, -15, 2, 49, 31, -1, -42, -58, 31, -2, 1, -2, -13, -75, -19, -22, -6, 61, 10, -56], "withholdReward": false, "trial_id": "mdp_trial_27", "block": "test", "trialIndex": 28, "score": -24.25, "costs": 0.75, "simulationMode": [null, null, null, null, null], "rewards": [2, 3, -3, -12, -15], "path": ["0", "0", "1", "2", "3", "8", "11"], "rt": [4660, 487, 106, 82, 28], "actions": ["up", "up", "up", "left", "left"], "actionTimes": [7376, 8379, 9012, 9621, 10185], "queries": {"click": {"state": {"target": ["1", "23", "12"], "time": [3645, 4540, 6022]}, "edge": {"target": [], "time": []}}, "mouseover": {"state": {"target": ["0", "1", "23", "12", "1"], "time": [2750, 3327, 3952, 5755, 6682]}, "edge": {"target": [], "time": []}}, "mouseout": {"state": {"target": ["12", "0", "1", "23", "12", "1", "1"], "time": [1359, 2835, 3909, 4959, 6343, 6592, 18148]}, "edge": {"target": [], "time": []}}}, "displayed_time": "16.72", "trialTime": 18512, "trial_type": "mouselab-mdp", "trial_index": 35, "time_elapsed": 1115172, "internal_node_id": "0.0-6.0-1.0-26.0"}}, {"uniqueid": "w83201878:a79952407", "current_trial": 36, "dateTime": 1693392720543, "trialdata": {"revealed_states": [], "clicked_states": ["12", "1", "23"], "num_clicks_accrued": [0, 0, 0, 0, 0, 0, 0, 0, 0, 0, 0, 0, 0], "stateRewards": ["", 1, 2, -6, -13, -51, 22, -4, -12, -44, -12, 6, -2, -2, -2, -14, -46, -4, -77, -2, 36, -79, 41, 2, -4, 2, -6, -55, 59, 70, -5, 39, -19, 24], "withholdReward": false, "trial_id": "mdp_trial_28", "block": "test", "trialIndex": 29, "score": 53.75, "costs": 0.75, "simulationMode": [null, null, null, null, null], "rewards": [2, -4, 2, -6, 59], "path": ["0", "0", "23", "24", "25", "26", "28"], "rt": [3337, 22, 101, 411, 209], "actions": ["left", "left", "left", "up", "right"], "actionTimes": [5918, 6482, 7094, 8021, 8769], "queries": {"click": {"state": {"target": ["12", "1", "23"], "time": [3252, 4062, 4948]}, "edge": {"target": [], "time": []}}, "mouseover": {"state": {"target": ["12", "1", "23", "18"], "time": [2609, 3752, 4670, 5501]}, "edge": {"target": [], "time": []}}, "mouseout": {"state": {"target": ["1", "0", "12", "1", "23", "18"], "time": [1316, 1580, 3478, 4436, 5159, 12122]}, "edge": {"target": [], "time": []}}}, "displayed_time": "16.59", "trialTime": 22813, "trial_type": "mouselab-mdp", "trial_index": 36, "time_elapsed": 1139446, "internal_node_id": "0.0-6.0-1.0-27.0"}}, {"uniqueid": "w83201878:a79952407", "current_trial": 37, "dateTime": 1693392742599, "trialdata": {"revealed_states": [], "clicked_states": ["1", "23", "12"], "num_clicks_accrued": [0, 0, 0, 0, 0, 0, 0, 0, 0, 0, 0, 0, 0], "stateRewards": ["", 2, 4, -3, 16, -58, 30, -35, 11, -60, 47, 27, -2, -1, -7, -16, 23, -70, 68, -10, -65, -43, -34, -2, 1, 7, 9, -63, 34, -31, -8, -12, -86, 59], "withholdReward": false, "trial_id": "mdp_trial_29", "block": "test", "trialIndex": 30, "score": 61.75, "costs": 0.75, "simulationMode": [null, null, null, null, null], "rewards": [2, 4, -3, 11, 47], "path": ["0", "0", "1", "2", "3", "8", "10"], "rt": [3450, 47, 77, 8, 979], "actions": ["up", "up", "up", "left", "down"], "actionTimes": [7183, 7760, 8374, 8888, 10410], "queries": {"click": {"state": {"target": ["1", "23", "12"], "time": [4632, 5532, 6332]}, "edge": {"target": [], "time": []}}, "mouseover": {"state": {"target": ["1", "23", "12"], "time": [4241, 5057, 5932]}, "edge": {"target": [], "time": []}}, "mouseout": {"state": {"target": ["18", "1", "23", "12"], "time": [2335, 4971, 5866, 6545]}, "edge": {"target": [], "time": []}}}, "displayed_time": "17.74", "trialTime": 20699, "trial_type": "mouselab-mdp", "trial_index": 37, "time_elapsed": 1161502, "internal_node_id": "0.0-6.0-1.0-28.0"}}, {"uniqueid": "w83201878:a79952407", "current_trial": 38, "dateTime": 1693392761631, "trialdata": {"revealed_states": [], "clicked_states": ["1", "12", "23"], "num_clicks_accrued": [0, 0, 0, 0, 0, 0, 0, 0, 0, 0, 0, 0, 0], "stateRewards": ["", -1, -2, 4, 9, 10, -75, 39, 16, -43, 88, -19, -1, 1, 2, 4, -31, 10, 73, 12, 41, -64, -81, -2, 2, -6, 1, -81, -1, -26, 3, -59, -3, -20], "withholdReward": false, "trial_id": "mdp_trial_30", "block": "test", "trialIndex": 31, "score": -66.25, "costs": 0.75, "simulationMode": [null, null, null, null, null], "rewards": [-1, 1, 2, 12, -81], "path": ["0", "0", "12", "13", "14", "19", "22"], "rt": [3433, 266, 533, 133, 482], "actions": ["right", "right", "right", "down", "left"], "actionTimes": [5537, 6325, 7388, 8035, 9035], "queries": {"click": {"state": {"target": ["1", "12", "23"], "time": [2894, 3623, 4456]}, "edge": {"target": [], "time": []}}, "mouseover": {"state": {"target": ["1", "1", "12", "0", "23"], "time": [2139, 2561, 3307, 3966, 4017]}, "edge": {"target": [], "time": []}}, "mouseout": {"state": {"target": ["1", "1", "12", "0", "23", "0"], "time": [2216, 3241, 3939, 3992, 4769, 11780]}, "edge": {"target": [], "time": []}}}, "displayed_time": "16.11", "trialTime": 17577, "trial_type": "mouselab-mdp", "trial_index": 38, "time_elapsed": 1180534, "internal_node_id": "0.0-6.0-1.0-29.0"}}, {"uniqueid": "w83201878:a79952407", "current_trial": 39, "dateTime": 1693392781200, "trialdata": {"revealed_states": [], "clicked_states": ["1", "12", "23"], "num_clicks_accrued": [0, 0, 0, 0, 0, 0, 0, 0, 0, 0, 0, 0, 0], "stateRewards": ["", 1, -1, -7, -7, -22, 15, -13, 13, 26, -32, 38, -1, 1, -7, -4, 16, -62, 86, 12, -54, 56, 64, -2, -1, 6, 14, -57, 37, 62, -6, -25, 50, -70], "withholdReward": false, "trial_id": "mdp_trial_31", "block": "test", "trialIndex": 32, "score": 44.75, "costs": 0.75, "simulationMode": [null, null, null, null, null], "rewards": [1, -1, -7, 13, 38], "path": ["0", "0", "1", "2", "3", "8", "11"], "rt": [3810, 79, 53, 42, 62], "actions": ["up", "up", "up", "left", "left"], "actionTimes": [6112, 6722, 7296, 7867, 8471], "queries": {"click": {"state": {"target": ["1", "12", "23"], "time": [3257, 4060, 5204]}, "edge": {"target": [], "time": []}}, "mouseover": {"state": {"target": ["0", "1", "12", "0", "23"], "time": [2332, 2891, 3631, 4487, 4803]}, "edge": {"target": [], "time": []}}, "mouseout": {"state": {"target": ["0", "0", "1", "12", "0", "23", "23"], "time": [869, 2855, 3587, 4462, 4532, 5392, 5630]}, "edge": {"target": [], "time": []}}}, "displayed_time": "16.31", "trialTime": 18209, "trial_type": "mouselab-mdp", "trial_index": 39, "time_elapsed": 1200103, "internal_node_id": "0.0-6.0-1.0-30.0"}}, {"uniqueid": "w83201878:a79952407", "current_trial": 40, "dateTime": 1693392803337, "trialdata": {"revealed_states": [], "clicked_states": ["1", "12", "23"], "num_clicks_accrued": [0, 0, 0, 0, 0, 0, 0, 0, 0, 0, 0, 0, 0], "stateRewards": ["", -1, -4, 8, 8, -68, 47, 24, -7, -61, 49, -69, -1, -1, 8, -7, 42, 1, -45, -11, 10, -63, -6, 1, 4, 6, -16, 79, -37, -58, -12, 81, 18, -53], "withholdReward": false, "trial_id": "mdp_trial_32", "block": "test", "trialIndex": 33, "score": 17.75, "costs": 0.75, "simulationMode": [null, null, null, null, null], "rewards": [1, 4, 6, -12, 18], "path": ["0", "0", "23", "24", "25", "30", "32"], "rt": [3451, 69, 151, 18, 1988], "actions": ["left", "left", "left", "down", "down"], "actionTimes": [9309, 9901, 10583, 11118, 13638], "queries": {"click": {"state": {"target": ["1", "12", "23"], "time": [6478, 7581, 8520]}, "edge": {"target": [], "time": []}}, "mouseover": {"state": {"target": ["1", "12", "0", "23", "18"], "time": [5885, 6939, 7995, 8272, 8930]}, "edge": {"target": [], "time": []}}, "mouseout": {"state": {"target": ["0", "1", "12", "0", "23", "18"], "time": [4405, 6770, 7969, 8023, 8864, 8956]}, "edge": {"target": [], "time": []}}}, "displayed_time": "19.86", "trialTime": 20789, "trial_type": "mouselab-mdp", "trial_index": 40, "time_elapsed": 1222240, "internal_node_id": "0.0-6.0-1.0-31.0"}}, {"uniqueid": "w83201878:a79952407", "current_trial": 41, "dateTime": 1693392824648, "trialdata": {"revealed_states": [], "clicked_states": ["1", "12", "23"], "num_clicks_accrued": [0, 0, 0, 0, 0, 0, 0, 0, 0, 0, 0, 0, 0], "stateRewards": ["", -1, -2, -1, -10, -57, 73, -72, -16, 75, -14, -46, -2, -3, -7, -1, -61, -60, 76, -4, 50, 4, 14, 2, 2, -7, 12, -65, -32, 15, -8, -76, -25, -61], "withholdReward": false, "trial_id": "mdp_trial_33", "block": "test", "trialIndex": 34, "score": -86.25, "costs": 0.75, "simulationMode": [null, null, null, null, null], "rewards": [2, 2, -7, -8, -76], "path": ["0", "0", "23", "24", "25", "30", "31"], "rt": [3000, 76, 75, 584, 213], "actions": ["left", "left", "left", "down", "right"], "actionTimes": [8094, 8695, 9293, 10405, 11133], "queries": {"click": {"state": {"target": ["1", "12", "23"], "time": [5766, 6471, 7256]}, "edge": {"target": [], "time": []}}, "mouseover": {"state": {"target": ["1", "12", "23"], "time": [5134, 6062, 6994]}, "edge": {"target": [], "time": []}}, "mouseout": {"state": {"target": ["23", "1", "12", "23"], "time": [3762, 6019, 6650, 7702]}, "edge": {"target": [], "time": []}}}, "displayed_time": "19.11", "trialTime": 19848, "trial_type": "mouselab-mdp", "trial_index": 41, "time_elapsed": 1243553, "internal_node_id": "0.0-6.0-1.0-32.0"}}, {"uniqueid": "w83201878:a79952407", "current_trial": 42, "dateTime": 1693392856883, "trialdata": {"revealed_states": [], "clicked_states": ["1", "23", "12"], "num_clicks_accrued": [0, 0, 0, 0, 0, 0, 0, 0, 0, 0, 0, 0, 0], "stateRewards": ["", -2, 4, -7, -3, -76, 39, -28, 10, 14, 12, 60, 2, -3, 6, -10, 88, -34, -41, -3, 72, -13, -56, 1, 3, 2, 8, -51, 23, -57, 1, 14, -46, -16], "withholdReward": false, "trial_id": "mdp_trial_34", "block": "test", "trialIndex": 35, "score": -10.25, "costs": 0.75, "simulationMode": [null, null, null, null, null], "rewards": [2, -3, 6, -3, -13], "path": ["0", "0", "12", "13", "14", "19", "21"], "rt": [4078, 47, 233, 273, 271], "actions": ["right", "right", "right", "down", "down"], "actionTimes": [9815, 10439, 11212, 12001, 12801], "queries": {"click": {"state": {"target": ["1", "23", "12"], "time": [6639, 7512, 8910]}, "edge": {"target": [], "time": []}}, "mouseover": {"state": {"target": ["1", "1", "23", "0", "12", "0"], "time": [5838, 6222, 7063, 7904, 8652, 9452]}, "edge": {"target": [], "time": []}}, "mouseout": {"state": {"target": ["0", "1", "1", "23", "0", "12", "0"], "time": [5828, 5867, 6958, 7725, 7930, 9316, 9479]}, "edge": {"target": [], "time": []}}}, "displayed_time": "19.77", "trialTime": 30751, "trial_type": "mouselab-mdp", "trial_index": 42, "time_elapsed": 1275788, "internal_node_id": "0.0-6.0-1.0-33.0"}}, {"uniqueid": "w83201878:a79952407", "current_trial": 43, "dateTime": 1693392877302, "trialdata": {"revealed_states": [], "clicked_states": ["23", "1", "12"], "num_clicks_accrued": [0, 0, 0, 0, 0, 0, 0, 0, 0, 0, 0, 0, 0], "stateRewards": ["", -2, -1, -4, -15, -14, -67, 32, -3, -59, 63, 31, 2, -1, -7, -15, 71, -66, -27, -3, -54, -39, 72, 2, 1, 1, -13, 77, -40, 35, -9, 35, 75, 57], "withholdReward": false, "trial_id": "mdp_trial_35", "block": "test", "trialIndex": 36, "score": -62.25, "costs": 0.75, "simulationMode": [null, null, null, null, null], "rewards": [2, -1, -7, -3, -54], "path": ["0", "0", "12", "13", "14", "19", "20"], "rt": [3051, 97, 79, 28, 126], "actions": ["right", "right", "right", "down", "right"], "actionTimes": [6645, 7272, 7870, 8434, 9083], "queries": {"click": {"state": {"target": ["23", "1", "12"], "time": [4270, 5057, 5742]}, "edge": {"target": [], "time": []}}, "mouseover": {"state": {"target": ["23", "1", "12"], "time": [3652, 4665, 5399]}, "edge": {"target": [], "time": []}}, "mouseout": {"state": {"target": ["1", "1", "0", "23", "1", "12"], "time": [1887, 2119, 3644, 4590, 5334, 12854]}, "edge": {"target": [], "time": []}}}, "displayed_time": "17.61", "trialTime": 18861, "trial_type": "mouselab-mdp", "trial_index": 43, "time_elapsed": 1296205, "internal_node_id": "0.0-6.0-1.0-34.0"}}, {"uniqueid": "w83201878:a79952407", "current_trial": 44, "dateTime": 1693392896484, "trialdata": {"revealed_states": [], "clicked_states": ["27", "33"], "num_clicks_accrued": [0, 0, 0, 0, 0, 0, 0, 0, 0, 0, 0, 0, 0], "stateRewards": ["", 1, 2, -3, 6, -88, 74, -45, 7, -46, 40, -77, 1, -4, 4, 3, 22, -25, -59, 8, -83, 19, -60, -1, -1, -1, -8, 26, -29, 64, -7, -88, -51, -55], "withholdReward": false, "trial_id": "mdp_trial_36", "block": "test", "trialIndex": 37, "score": 10.7, "costs": -4.3, "simulationMode": [null, null, null, null, null, null], "rewards": [-1, -1, -1, -8, 26], "path": ["0", "0", "23", "24", "25", "26", "27"], "rt": [6109, 561, 88, 124, 65, 65], "actions": ["left", "left", "left", "left", "up", "up"], "actionTimes": [7936, 8506, 9118, 9772, 10361, 10960], "queries": {"click": {"state": {"target": ["27", "33"], "time": [2921, 6074]}, "edge": {"target": [], "time": []}}, "mouseover": {"state": {"target": ["28", "28", "27", "29", "25", "33", "25", "24"], "time": [1949, 2259, 2475, 3541, 4687, 5651, 6670, 6729]}, "edge": {"target": [], "time": []}}, "mouseout": {"state": {"target": ["28", "28", "27", "27", "29", "25", "33", "25", "24"], "time": [1997, 2292, 3111, 3229, 4272, 5370, 6596, 6698, 6822]}, "edge": {"target": [], "time": []}}}, "displayed_time": "15.85", "trialTime": 17504, "trial_type": "mouselab-mdp", "trial_index": 44, "time_elapsed": 1315387, "internal_node_id": "0.0-6.0-1.0-35.0"}}, {"uniqueid": "w83201878:a79952407", "current_trial": 45, "dateTime": 1693392917033, "trialdata": {"revealed_states": [], "clicked_states": ["9", "16"], "num_clicks_accrued": [0, 0, 0, 0, 0, 0, 0, 0, 0, 0, 0, 0, 0], "stateRewards": ["", -1, 2, -7, -12, -62, 12, -13, 5, 77, -71, 83, 1, -4, 7, 15, -42, -87, -4, 5, -25, 44, 88, -1, 4, -5, -8, 14, 51, 8, -5, 83, -24, -19], "withholdReward": false, "trial_id": "mdp_trial_37", "block": "test", "trialIndex": 38, "score": 71.7, "costs": -4.3, "simulationMode": [null, null, null, null, null, null], "rewards": [-1, 2, -7, 5, 77], "path": ["0", "0", "1", "2", "3", "8", "9"], "rt": [5979, 613, 79, 347, 18, 87], "actions": ["up", "up", "up", "up", "left", "up"], "actionTimes": [7940, 8568, 9176, 10062, 10600, 11219], "queries": {"click": {"state": {"target": ["9", "16"], "time": [2940, 6094]}, "edge": {"target": [], "time": []}}, "mouseover": {"state": {"target": ["3", "3", "9", "5", "6", "5", "16", "17", "16", "18"], "time": [1991, 2337, 2425, 3352, 4377, 4663, 5432, 5470, 5648, 6833]}, "edge": {"target": [], "time": []}}, "mouseout": {"state": {"target": ["23", "0", "3", "3", "9", "5", "6", "5", "16", "17", "16", "16", "18", "13"], "time": [491, 789, 2066, 2385, 3229, 4287, 4593, 5383, 5464, 5577, 6296, 6659, 6895, 18772]}, "edge": {"target": [], "time": []}}}, "displayed_time": "15.97", "trialTime": 19058, "trial_type": "mouselab-mdp", "trial_index": 45, "time_elapsed": 1335936, "internal_node_id": "0.0-6.0-1.0-36.0"}}, {"uniqueid": "w83201878:a79952407", "current_trial": 46, "dateTime": 1693392938908, "trialdata": {"revealed_states": [], "clicked_states": ["5", "17"], "num_clicks_accrued": [0, 0, 0, 0, 0, 0, 0, 0, 0, 0, 0, 0, 0], "stateRewards": ["", -2, -4, -8, 8, 63, -50, -19, -7, -17, -31, 31, 1, 3, -5, 12, -35, -63, -29, -4, -17, -75, -79, -2, -3, -2, 8, -3, -85, 10, -2, -82, -82, 56], "withholdReward": false, "trial_id": "mdp_trial_38", "block": "test", "trialIndex": 39, "score": 52.7, "costs": -4.3, "simulationMode": [null, null, null, null, null], "rewards": [-2, -4, -8, 8, 63], "path": ["0", "0", "1", "2", "3", "4", "5"], "rt": [7645, 83, 49, 179, 85], "actions": ["up", "up", "up", "right", "up"], "actionTimes": [9870, 10476, 11050, 11763, 12369], "queries": {"click": {"state": {"target": ["5", "17"], "time": [3031, 6252]}, "edge": {"target": [], "time": []}}, "mouseover": {"state": {"target": ["8", "5", "16", "17", "17", "16"], "time": [2332, 2632, 3771, 5571, 5962, 6891]}, "edge": {"target": [], "time": []}}, "mouseout": {"state": {"target": ["0", "8", "5", "5", "16", "17", "17", "16"], "time": [18, 2364, 3234, 3346, 4885, 5641, 6858, 8589]}, "edge": {"target": [], "time": []}}}, "displayed_time": "16.23", "trialTime": 20112, "trial_type": "mouselab-mdp", "trial_index": 46, "time_elapsed": 1357812, "internal_node_id": "0.0-6.0-1.0-37.0"}}, {"uniqueid": "w83201878:a79952407", "current_trial": 47, "dateTime": 1693392961791, "trialdata": {"revealed_states": [], "clicked_states": ["29"], "num_clicks_accrued": [0, 0, 0, 0, 0, 0, 0, 0, 0, 0, 0, 0, 0], "stateRewards": ["", -1, 4, 3, 12, -27, 34, -33, 3, -63, 1, 6, 2, 2, -6, -11, -77, -85, 68, -6, 51, 81, -60, -2, -2, 1, 15, 20, 15, 68, -10, -14, 6, -4], "withholdReward": false, "trial_id": "mdp_trial_39", "block": "test", "trialIndex": 40, "score": 77.85, "costs": -2.15, "simulationMode": [null, null, null, null, null], "rewards": [-2, -2, 1, 15, 68], "path": ["0", "0", "23", "24", "25", "26", "29"], "rt": [5543, 39, 98, 193, 105], "actions": ["left", "left", "left", "up", "left"], "actionTimes": [7482, 8090, 8714, 9409, 10038], "queries": {"click": {"state": {"target": ["29"], "time": [2887]}, "edge": {"target": [], "time": []}}, "mouseover": {"state": {"target": ["0", "23", "26", "29", "33", "28", "10", "9", "8"], "time": [2212, 2252, 2452, 2569, 3597, 4527, 4561, 5075, 6753]}, "edge": {"target": [], "time": []}}, "mouseout": {"state": {"target": ["0", "23", "26", "29", "29", "33", "28", "10", "9", "8"], "time": [2246, 2328, 2505, 3099, 3314, 4500, 4555, 4591, 6694, 6775]}, "edge": {"target": [], "time": []}}}, "displayed_time": "15.95", "trialTime": 21382, "trial_type": "mouselab-mdp", "trial_index": 47, "time_elapsed": 1380694, "internal_node_id": "0.0-6.0-1.0-38.0"}}, {"uniqueid": "w83201878:a79952407", "current_trial": 48, "dateTime": 1693392981218, "trialdata": {"revealed_states": [], "clicked_states": ["16", "11"], "num_clicks_accrued": [0, 0, 0, 0, 0, 0, 0, 0, 0, 0, 0, 0, 0], "stateRewards": ["", -1, -1, 4, -16, -75, 81, -51, -7, -84, 73, -30, -2, 1, -3, -16, -77, 33, 14, 1, 45, 87, -66, 2, 2, -5, -7, -19, -17, 79, -3, 8, 49, 47], "withholdReward": false, "trial_id": "mdp_trial_40", "block": "test", "trialIndex": 41, "score": 38.7, "costs": -4.3, "simulationMode": [null, null, null, null, null], "rewards": [2, 2, -5, -3, 47], "path": ["0", "0", "23", "24", "25", "30", "33"], "rt": [9377, 310, 246, 30, 75], "actions": ["left", "left", "left", "down", "left"], "actionTimes": [11231, 12050, 12857, 13401, 13980], "queries": {"click": {"state": {"target": ["16", "11"], "time": [3049, 6847]}, "edge": {"target": [], "time": []}}, "mouseover": {"state": {"target": ["0", "18", "16", "3", "9", "11", "27", "29", "29", "26", "28"], "time": [2133, 2370, 2686, 3756, 4019, 5229, 7327, 8494, 10267, 10403, 10696]}, "edge": {"target": [], "time": []}}, "mouseout": {"state": {"target": ["0", "0", "18", "16", "3", "9", "11", "27", "29", "29", "26", "28"], "time": [1886, 2303, 2419, 3531, 3805, 5016, 7278, 8377, 10051, 10361, 10450, 10740]}, "edge": {"target": [], "time": []}}}, "displayed_time": "15.86", "trialTime": 17607, "trial_type": "mouselab-mdp", "trial_index": 48, "time_elapsed": 1400121, "internal_node_id": "0.0-6.0-1.0-39.0"}}, {"uniqueid": "w83201878:a79952407", "current_trial": 49, "dateTime": 1693393015237, "trialdata": {"rt": 33934, "response": {"Q0": "$-2 to $2", "Q1": "$-32 to $32", "Q2": "$-88 to $88", "Q3": "The cost for clicking on nodes varied between nodes.", "Q4": "Very motivated"}, "question_order": [0, 1, 2, 3, 4], "trial_id": "final_quiz_control", "trial_type": "survey-multi-choice", "trial_index": 49, "time_elapsed": 1434138, "internal_node_id": "0.0-6.0-2.0"}}, {"uniqueid": "w83201878:a79952407", "current_trial": 50, "dateTime": 1693393084710, "trialdata": {"rt": 69333, "response": {"Q0": "At first it was the first node then I went for the last node to see the highest score I could get", "Q1": "Yes I did, I went for the last nodes", "Q2": "It was not difficult after I got the hang of it"}, "trial_id": "self_report_control", "trial_type": "survey-text", "trial_index": 50, "time_elapsed": 1503615, "internal_node_id": "0.0-6.0-3.0"}}, {"uniqueid": "w83201878:a79952407", "current_trial": 51, "dateTime": 1693393124458, "trialdata": {"rt": 39710, "response": {"Q0": "Strongly agree", "Q1": "Disagree", "Q2": "Agree", "Q3": "Agree", "Q4": "Neither disagree nor agree", "Q5": "Agree", "Q6": "Strongly disagree"}, "question_order": [0, 1, 2, 3, 4, 5, 6], "trial_id": "self_report_2", "trial_type": "survey-multi-choice", "trial_index": 51, "time_elapsed": 1543362, "internal_node_id": "0.0-6.0-4.0"}}, {"uniqueid": "w83201878:a79952407", "current_trial": 52, "dateTime": 1693393139430, "trialdata": {"rt": 14929, "response": {"gender": "female", "age": "22", "colorblind": "0", "effort": "0"}, "trial_type": "survey-html-form", "trial_index": 52, "time_elapsed": 1558335, "internal_node_id": "0.0-6.0-5.0"}}, {"uniqueid": "w83201878:a79952407", "current_trial": 53, "dateTime": 1693393165535, "trialdata": {"rt": 26072, "response": {"Q0": "No, the explanation was good", "Q1": "No I did not", "Q2": ""}, "trial_type": "survey-text", "trial_index": 53, "time_elapsed": 1584440, "internal_node_id": "0.0-6.0-6.0"}}, {"uniqueid": "w83201878:a79952407", "current_trial": 54, "dateTime": 1693393218054, "trialdata": {"rt": 52484, "stimulus": "<h1>Completion Code Instructions (1/2)</h1>\n<br><br><br><br>\nYou have reached the end of the experiment! The completion code consists of two parts: (1) a code with 2 characters (2) a code with 6 characters. On this page, you will receive the second part of the code. The first part of the completion code will be on the next page.\n<br><br>\nThe second part of your completion code is: <b>EWEK22</b>\n<br><br>\nPlease note this down. Then, press 'Finish HIT' in order to find the first part of your completion code. Once the data has been saved, you will receive this code either in this window or in the original browser window where you started the experiment.\n", "response": 0, "trial_type": "html-button-response", "trial_index": 54, "time_elapsed": 1636959, "internal_node_id": "0.0-6.0-7.0"}}, {"uniqueid": "w83201878:a79952407", "current_trial": 55, "dateTime": 1693393219071, "trialdata": {"success": true, "trial_type": "fullscreen", "trial_index": 55, "time_elapsed": 1637975, "internal_node_id": "0.0-7.0"}}], "questiondata": {"params": {"CODE": "C6DMOQA6", "MIN_TIME": 14, "inspectCost": 1, "startTime": "Wed Aug 30 2023 12:32:58 GMT+0200 (South Africa Standard Time)", "bonusRate": 0.002, "variance": "1_2_4_8_44", "branching": "31123"}}, "eventdata": [{"eventtype": "initialized", "value": null, "timestamp": 1693391578280, "interval": 0}, {"eventtype": "window_resize", "value": [1366, 662], "timestamp": 1693391578280, "interval": 0}, {"eventtype": "window_resize", "value": [1366, 662], "timestamp": 1693391578716, "interval": 436}, {"eventtype": "window_resize", "value": [1366, 768], "timestamp": 1693391585137, "interval": 6421}, {"eventtype": "window_resize", "value": [1366, 662], "timestamp": 1693393218489, "interval": 1633352}], "useragent": "Mozilla/5.0 (Windows NT 10.0; Win64; x64) AppleWebKit/537.36 (KHTML, like Gecko) Chrome/115.0.0.0 Safari/537.36", "mode": "live", "id": "w83201878:a79952407", "status": "user data saved", "Beginhit": "2023-08-30 10:31:06.177811", "Beginexp": "2023-08-30 10:33:07.20979", "Endhit": "2023-08-30 11:00:22.308604", "psiturkStatus": 3, "browser": "<redacted>", "platform": "windows", "language": "en-US"}