{"condition": 0, "counterbalance": 0, "assignmentId": "a69579043", "workerId": "w31812455", "hitId": "h22396024", "currenttrial": 8, "bonus": 0, "data": [{"uniqueid": "w31812455:a69579043", "current_trial": 0, "dateTime": 1691070776323, "trialdata": {"success": true, "trial_type": "fullscreen", "trial_index": 0, "time_elapsed": 5427, "internal_node_id": "0.0-0.0"}}, {"uniqueid": "w31812455:a69579043", "current_trial": 1, "dateTime": 1691071054891, "trialdata": {"view_history": [{"page_index": 0, "viewing_time": 171683}], "rt": 171684, "trial_id": "exp_instructions_control", "trial_type": "instructions", "trial_index": 1, "time_elapsed": 283996, "internal_node_id": "0.0-1.0"}}, {"uniqueid": "w31812455:a69579043", "current_trial": 2, "dateTime": 1691071059195, "trialdata": {"success": true, "trial_type": "fullscreen", "trial_index": 2, "time_elapsed": 288299, "internal_node_id": "0.0-2.0-0.0"}}, {"uniqueid": "w31812455:a69579043", "current_trial": 3, "dateTime": 1691071524254, "trialdata": {"view_history": [{"page_index": 0, "viewing_time": 151155}, {"page_index": 1, "viewing_time": 200885}, {"page_index": 2, "viewing_time": 42467}, {"page_index": 3, "viewing_time": 70551}], "rt": 465059, "trial_id": "mouselab_instructions_1_control", "trial_type": "instructions", "trial_index": 3, "time_elapsed": 753359, "internal_node_id": "0.0-2.0-1.0"}}, {"uniqueid": "w31812455:a69579043", "current_trial": 4, "dateTime": 1691071560191, "trialdata": {"revealed_states": [], "clicked_states": ["26", "2", "16", "14", "25", "3"], "num_clicks_accrued": [0, 0, 0, 0, 0, 0, 0, 0, 0, 0, 0, 0, 0], "stateRewards": ["", 10, 10, -10, -10, 10, -10, -10, 10, -10, 10, -10, -10, 10, 10, 10, 10, 10, -10, -10, -10, -10, -10, 10, 10, 10, 10, 10, -10, -10, -10, 10, -10, 10], "withholdReward": false, "trial_id": "practice_1", "block": "test", "trialIndex": 0, "score": 50.5, "costs": -3, "simulationMode": [null, null, null, null, null], "rewards": [10, 10, 10, 10, 10], "path": ["0", "0", "23", "24", "25", "26", "27"], "rt": [12684, 1317, 381, 2059, 920], "actions": ["left", "left", "left", "up", "up"], "actionTimes": [16152, 18019, 18949, 21561, 23003], "queries": {"click": {"state": {"target": ["26", "2", "16", "14", "25", "3"], "time": [5951, 8370, 9911, 11198, 12725, 14175]}, "edge": {"target": [], "time": []}}, "mouseover": {"state": {"target": ["23", "26", "28", "1", "2", "18", "15", "16", "15", "14", "25", "24", "2", "3", "2", "1"], "time": [5104, 5722, 6700, 6990, 7947, 9118, 9445, 9667, 10489, 10847, 12414, 13285, 13392, 13767, 14835, 14883]}, "edge": {"target": [], "time": []}}, "mouseout": {"state": {"target": ["24", "26", "12", "23", "26", "28", "1", "2", "18", "15", "16", "15", "14", "25", "24", "2", "3", "2", "1", "0"], "time": [476, 525, 1390, 5427, 6674, 6741, 7857, 9054, 9383, 9609, 10441, 10758, 11301, 13253, 13318, 13400, 14802, 14860, 14990, 21139]}, "edge": {"target": [], "time": []}}}, "displayed_time": "23.55", "trialTime": 35721, "trial_type": "mouselab-mdp", "trial_index": 4, "time_elapsed": 789296, "internal_node_id": "0.0-2.0-2.0-0.0"}}, {"uniqueid": "w31812455:a69579043", "current_trial": 5, "dateTime": 1691071576397, "trialdata": {"revealed_states": [], "clicked_states": ["1"], "num_clicks_accrued": [0, 0, 0, 0, 0, 0, 0, 0, 0, 0, 0, 0, 0], "stateRewards": ["", 10, -10, -10, -10, -10, -10, 10, 10, -10, 10, 10, 10, -10, -10, 10, -10, 10, -10, 10, -10, 10, 10, 10, 10, 10, -10, -10, -10, 10, 10, -10, -10, -10], "withholdReward": false, "trial_id": "practice_2", "block": "test", "trialIndex": 1, "score": -7, "costs": -0.5, "simulationMode": [null, null, null, null, null], "rewards": [10, -10, -10, -10, 10], "path": ["0", "0", "1", "2", "3", "4", "7"], "rt": [5755, 267, 801, 362, 1299], "actions": ["up", "up", "up", "right", "down"], "actionTimes": [7860, 8666, 9997, 10909, 12762], "queries": {"click": {"state": {"target": ["1"], "time": [4974]}, "edge": {"target": [], "time": []}}, "mouseover": {"state": {"target": ["1"], "time": [4114]}, "edge": {"target": [], "time": []}}, "mouseout": {"state": {"target": ["0", "12", "22", "21", "12", "1", "1"], "time": [959, 1059, 1114, 1237, 1367, 5081, 16926]}, "edge": {"target": [], "time": []}}}, "displayed_time": "13.31", "trialTime": 16006, "trial_type": "mouselab-mdp", "trial_index": 5, "time_elapsed": 805502, "internal_node_id": "0.0-2.0-2.0-1.0"}}, {"uniqueid": "w31812455:a69579043", "current_trial": 6, "dateTime": 1691071649531, "trialdata": {"view_history": [{"page_index": 0, "viewing_time": 56989}, {"page_index": 1, "viewing_time": 16142}], "rt": 73132, "trial_id": "mouselab_instructions_2_control", "trial_type": "instructions", "trial_index": 6, "time_elapsed": 878636, "internal_node_id": "0.0-2.0-3.0"}}, {"uniqueid": "w31812455:a69579043", "current_trial": 7, "dateTime": 1691071708049, "trialdata": {"rt": 58509, "response": {"Q0": "The cost for clicking on nodes may vary between nodes.", "Q1": "The better I perform the higher my bonus will be.", "Q2": "No, the amount of cash at each node of the web may be different each time.", "Q3": "To get the highest total score.", "Q4": "Any time during the round.", "Q5": "3 seconds"}, "question_order": [0, 1, 2, 3, 4, 5], "correct": {"Q0": "The cost for clicking on nodes may vary between nodes.", "Q1": "The better I perform the higher my bonus will be.", "Q2": "No, the amount of cash at each node of the web may be different each time.", "Q3": "To get the highest total score.", "Q4": "Only before moving the spider.", "Q5": "3 seconds"}, "trial_id": "mouselab_quiz_control", "trial_type": "survey-multi-choice", "trial_index": 7, "time_elapsed": 937153, "internal_node_id": "0.0-2.0-4.0"}}], "questiondata": {"params": {"CODE": "C6DMOQA6", "MIN_TIME": 14, "inspectCost": 1, "startTime": "Thu Aug 03 2023 15:52:49 GMT+0200 (SAST)", "bonusRate": 0.002, "variance": "1_2_4_8_44", "branching": "31123"}}, "eventdata": [{"eventtype": "initialized", "value": null, "timestamp": 1691070768085, "interval": 0}, {"eventtype": "window_resize", "value": [1280, 720], "timestamp": 1691070768085, "interval": 0}, {"eventtype": "window_resize", "value": [1280, 720], "timestamp": 1691070769072, "interval": 987}, {"eventtype": "window_resize", "value": [1280, 800], "timestamp": 1691070775547, "interval": 6475}, {"eventtype": "focus", "value": "off", "timestamp": 1691070915711, "interval": 140164}, {"eventtype": "focus", "value": "on", "timestamp": 1691071028636, "interval": 112925}, {"eventtype": "window_resize", "value": [1280, 720], "timestamp": 1691071717424, "interval": 688788}], "useragent": "Mozilla/5.0 (Macintosh; Intel Mac OS X 10_15_7) AppleWebKit/605.1.15 (KHTML, like Gecko) Version/14.1.2 Safari/605.1.15", "mode": "live", "id": "w31812455:a69579043", "status": "user data saved", "Beginhit": "2023-08-03 13:52:45.765322", "Beginexp": "2023-08-03 13:52:56.613869", "Endhit": null, "psiturkStatus": 6, "browser": "<redacted>", "platform": "macos", "language": "en-us", "excludeReason": "quizfail"}