{"condition": 1, "counterbalance": 0, "assignmentId": "a56050935", "workerId": "w20134335", "hitId": "h84146455", "currenttrial": 3, "bonus": 0, "data": [{"uniqueid": "w20134335:a56050935", "current_trial": 0, "dateTime": 1693660280714, "trialdata": {"success": true, "trial_type": "fullscreen", "trial_index": 0, "time_elapsed": 6040, "internal_node_id": "0.0-0.0"}}, {"uniqueid": "w20134335:a56050935", "current_trial": 1, "dateTime": 1693660294541, "trialdata": {"view_history": [{"page_index": 0, "viewing_time": 13805}], "rt": 13806, "trial_id": "exp_instructions_misaligned", "trial_type": "instructions", "trial_index": 1, "time_elapsed": 19868, "internal_node_id": "0.0-1.0"}}, {"uniqueid": "w20134335:a56050935", "current_trial": 2, "dateTime": 1693660494721, "trialdata": {"view_history": [{"page_index": 0, "viewing_time": 72651}, {"page_index": 1, "viewing_time": 73606}, {"page_index": 2, "viewing_time": 29199}, {"page_index": 3, "viewing_time": 24714}], "rt": 200171, "trial_id": "mouselab_instructions_1_misaligned", "trial_type": "instructions", "trial_index": 2, "time_elapsed": 220048, "internal_node_id": "0.0-2.0-1.0"}}], "questiondata": {"params": {"CODE": "C6DMOQA6", "MIN_TIME": 14, "inspectCost": 1, "startTime": "Sat Sep 02 2023 14:11:14 GMT+0100 (BST)", "bonusRate": 0.002, "variance": "1_2_4_8_44", "branching": "31123"}}, "eventdata": [{"eventtype": "initialized", "value": null, "timestamp": 1693660273687, "interval": 0}, {"eventtype": "window_resize", "value": [1024, 1235], "timestamp": 1693660273687, "interval": 0}, {"eventtype": "window_resize", "value": [1024, 1235], "timestamp": 1693660273990, "interval": 303}, {"eventtype": "window_resize", "value": [1112, 728], "timestamp": 1693660278009, "interval": 4019}, {"eventtype": "focus", "value": "off", "timestamp": 1693660279769, "interval": 1760}, {"eventtype": "focus", "value": "on", "timestamp": 1693660279773, "interval": 4}, {"eventtype": "focus", "value": "off", "timestamp": 1693660279779, "interval": 6}, {"eventtype": "focus", "value": "on", "timestamp": 1693660280033, "interval": 254}, {"eventtype": "window_resize", "value": [1080, 810], "timestamp": 1693660280236, "interval": 203}, {"eventtype": "window_resize", "value": [1112, 728], "timestamp": 1693660317234, "interval": 36998}, {"eventtype": "window_resize", "value": [1112, 794], "timestamp": 1693660321334, "interval": 4100}, {"eventtype": "window_resize", "value": [1112, 728], "timestamp": 1693660360958, "interval": 39624}, {"eventtype": "window_resize", "value": [1112, 794], "timestamp": 1693660361708, "interval": 750}, {"eventtype": "window_resize", "value": [1112, 728], "timestamp": 1693660374454, "interval": 12746}, {"eventtype": "window_resize", "value": [1112, 727], "timestamp": 1693660374999, "interval": 545}, {"eventtype": "window_resize", "value": [1112, 728], "timestamp": 1693660375365, "interval": 366}, {"eventtype": "window_resize", "value": [1112, 794], "timestamp": 1693660409031, "interval": 33666}, {"eventtype": "window_resize", "value": [1112, 728], "timestamp": 1693660441105, "interval": 32074}, {"eventtype": "window_resize", "value": [1112, 728], "timestamp": 1693660460595, "interval": 19490}], "useragent": "Mozilla/5.0 (Macintosh; Intel Mac OS X 10_15_6) AppleWebKit/605.1.15 (KHTML, like Gecko) Version/15.6.1 Safari/605.1.15", "mode": "live", "id": "w20134335:a56050935", "status": "user data saved", "Beginhit": "2023-09-02 13:11:12.62621", "Beginexp": "2023-09-02 13:11:20.818011", "Endhit": null, "psiturkStatus": 2, "browser": "<redacted>", "platform": "macos", "language": "en-GB", "excludeReason": "dataincomplete"}