{"condition": 0, "counterbalance": 0, "assignmentId": "a45428368", "workerId": "w59819534", "hitId": "h74320511", "currenttrial": 55, "bonus": 0, "data": [{"uniqueid": "w59819534:a45428368", "current_trial": 0, "dateTime": 1693579953295, "trialdata": {"success": true, "trial_type": "fullscreen", "trial_index": 0, "time_elapsed": 14025, "internal_node_id": "0.0-0.0"}}, {"uniqueid": "w59819534:a45428368", "current_trial": 1, "dateTime": 1693579988294, "trialdata": {"view_history": [{"page_index": 0, "viewing_time": 34975}], "rt": 34976, "trial_id": "exp_instructions_control", "trial_type": "instructions", "trial_index": 1, "time_elapsed": 49025, "internal_node_id": "0.0-1.0"}}, {"uniqueid": "w59819534:a45428368", "current_trial": 2, "dateTime": 1693580460566, "trialdata": {"view_history": [{"page_index": 0, "viewing_time": 165438}, {"page_index": 1, "viewing_time": 187593}, {"page_index": 2, "viewing_time": 38427}, {"page_index": 3, "viewing_time": 80796}], "rt": 472256, "trial_id": "mouselab_instructions_1_control", "trial_type": "instructions", "trial_index": 2, "time_elapsed": 521297, "internal_node_id": "0.0-2.0-1.0"}}, {"uniqueid": "w59819534:a45428368", "current_trial": 3, "dateTime": 1693580508107, "trialdata": {"revealed_states": [], "clicked_states": [], "num_clicks_accrued": [0, 0, 0, 0, 0, 0, 0, 0, 0, 0, 0, 0, 0], "stateRewards": ["", 10, -10, -10, -10, -10, 10, 10, -10, 10, 10, -10, -10, -10, -10, -10, -10, -10, -10, 10, 10, -10, -10, -10, 10, -10, -10, -10, -10, 10, -10, 10, 10, 10], "withholdReward": false, "trial_id": "practice_1", "block": "test", "trialIndex": 0, "score": -26.5, "costs": 0, "simulationMode": [null, null, null, null, null], "rewards": [-10, -10, -10, 10, -10], "path": ["0", "0", "12", "13", "14", "19", "21"], "rt": [8871, 727, 156, 1738, 95], "actions": ["right", "right", "right", "down", "down"], "actionTimes": [18021, 19267, 19961, 22218, 22844], "queries": {"click": {"state": {"target": [], "time": []}, "edge": {"target": [], "time": []}}, "mouseover": {"state": {"target": [], "time": []}, "edge": {"target": [], "time": []}}, "mouseout": {"state": {"target": ["0", "0", "18"], "time": [7486, 33849, 33916]}, "edge": {"target": [], "time": []}}}, "displayed_time": "23.37", "trialTime": 45421, "trial_type": "mouselab-mdp", "trial_index": 3, "time_elapsed": 568835, "internal_node_id": "0.0-2.0-2.0-0.0"}}, {"uniqueid": "w59819534:a45428368", "current_trial": 4, "dateTime": 1693580529664, "trialdata": {"revealed_states": [], "clicked_states": [], "num_clicks_accrued": [0, 0, 0, 0, 0, 0, 0, 0, 0, 0, 0, 0, 0], "stateRewards": ["", 10, -10, 10, 10, 10, -10, -10, 10, -10, 10, -10, 10, 10, -10, -10, -10, 10, -10, -10, 10, -10, 10, -10, -10, 10, -10, -10, -10, -10, 10, -10, 10, 10], "withholdReward": false, "trial_id": "practice_2", "block": "test", "trialIndex": 1, "score": 13.5, "costs": 0, "simulationMode": [null, null, null, null, null], "rewards": [10, -10, 10, 10, -10], "path": ["0", "0", "1", "2", "3", "8", "9"], "rt": [2826, 1842, 136, 2532, 188], "actions": ["up", "up", "up", "left", "up"], "actionTimes": [6863, 9225, 9892, 12943, 13673], "queries": {"click": {"state": {"target": [], "time": []}, "edge": {"target": [], "time": []}}, "mouseover": {"state": {"target": [], "time": []}, "edge": {"target": [], "time": []}}, "mouseout": {"state": {"target": ["19", "0", "0"], "time": [2212, 2615, 16842]}, "edge": {"target": [], "time": []}}}, "displayed_time": "14.19", "trialTime": 20474, "trial_type": "mouselab-mdp", "trial_index": 4, "time_elapsed": 590392, "internal_node_id": "0.0-2.0-2.0-1.0"}}, {"uniqueid": "w59819534:a45428368", "current_trial": 5, "dateTime": 1693580711251, "trialdata": {"view_history": [{"page_index": 0, "viewing_time": 38176}, {"page_index": 1, "viewing_time": 17028}, {"page_index": 0, "viewing_time": 121712}, {"page_index": 1, "viewing_time": 4652}], "rt": 181570, "trial_id": "mouselab_instructions_2_control", "trial_type": "instructions", "trial_index": 5, "time_elapsed": 771982, "internal_node_id": "0.0-2.0-3.0"}}, {"uniqueid": "w59819534:a45428368", "current_trial": 6, "dateTime": 1693580813282, "trialdata": {"rt": 101991, "response": {"Q0": "The cost for clicking on nodes may vary between nodes.", "Q1": "The better I perform the higher my bonus will be.", "Q2": "No, the amount of cash at each node of the web may be different each time.", "Q3": "To get the highest total score.", "Q4": "Only before moving the spider.", "Q5": "3 seconds"}, "question_order": [0, 1, 2, 3, 4, 5], "correct": {"Q0": "The cost for clicking on nodes may vary between nodes.", "Q1": "The better I perform the higher my bonus will be.", "Q2": "No, the amount of cash at each node of the web may be different each time.", "Q3": "To get the highest total score.", "Q4": "Only before moving the spider.", "Q5": "3 seconds"}, "trial_id": "mouselab_quiz_control", "trial_type": "survey-multi-choice", "trial_index": 6, "time_elapsed": 874013, "internal_node_id": "0.0-2.0-4.0"}}, {"uniqueid": "w59819534:a45428368", "current_trial": 7, "dateTime": 1693580826110, "trialdata": {"rt": 12785, "response": {"Q0": "No"}, "question_order": [0], "trial_id": "repeat_check", "trial_type": "survey-multi-choice", "trial_index": 7, "time_elapsed": 886839, "internal_node_id": "0.0-4.0-0.0"}}, {"uniqueid": "w59819534:a45428368", "current_trial": 8, "dateTime": 1693580848744, "trialdata": {"rt": 22603, "stimulus": "\n<h1> Get ready to start the game! </h1>\n\nThank you for reading the instructions. Get ready start with the 40 rounds of this game.\n<br><br>\nIf you need to take a break, feel free to take one after the end of a round, before continuing to the next one.\n<br><br>\nRemember, the more money the spider gets, the bigger your bonus will be!\n<br><br>\n<div style='text-align: center;'>Press <code>space</code> to begin.</div>\n\n<br><br>\n(If, at any point, the <code>space</code> key does not take you to the next page, click once on the text and try again.)", "response": " ", "trial_id": "mdp_ready", "trial_type": "html-keyboard-response", "trial_index": 8, "time_elapsed": 909474, "internal_node_id": "0.0-6.0-0.0"}}, {"uniqueid": "w59819534:a45428368", "current_trial": 9, "dateTime": 1693580876514, "trialdata": {"revealed_states": [], "clicked_states": [], "num_clicks_accrued": [0, 0, 0, 0, 0, 0, 0, 0, 0, 0, 0, 0, 0], "stateRewards": ["", -2, -3, -5, 8, 27, 11, 43, -6, -24, -87, 69, -2, 1, 1, 9, 19, 48, -37, 9, -14, 45, 62, 1, 2, 1, 16, -81, -41, 22, 4, -6, -63, 47], "withholdReward": false, "trial_id": "mdp_trial_1", "block": "test", "trialIndex": 2, "score": -61, "costs": 0, "simulationMode": [null, null, null, null, null], "rewards": [1, 2, 1, 16, -81], "path": ["0", "0", "23", "24", "25", "26", "27"], "rt": [3878, 7, 9, 2161, 473], "actions": ["left", "left", "left", "up", "up"], "actionTimes": [9972, 10499, 11095, 13790, 14785], "queries": {"click": {"state": {"target": [], "time": []}, "edge": {"target": [], "time": []}}, "mouseover": {"state": {"target": [], "time": []}, "edge": {"target": [], "time": []}}, "mouseout": {"state": {"target": ["0", "0", "21"], "time": [4511, 23448, 23506]}, "edge": {"target": [], "time": []}}}, "displayed_time": "20.10", "trialTime": 26714, "trial_type": "mouselab-mdp", "trial_index": 9, "time_elapsed": 937243, "internal_node_id": "0.0-6.0-1.0-0.0"}}, {"uniqueid": "w59819534:a45428368", "current_trial": 10, "dateTime": 1693580900146, "trialdata": {"revealed_states": [], "clicked_states": [], "num_clicks_accrued": [0, 0, 0, 0, 0, 0, 0, 0, 0, 0, 0, 0, 0], "stateRewards": ["", -1, -3, -3, 1, -38, 2, -53, -2, -1, -81, 70, -1, 1, -5, -9, 46, 15, 35, -1, -22, 38, 59, -2, 4, -8, 13, 1, -83, -43, 4, 76, 13, 48], "withholdReward": false, "trial_id": "mdp_trial_2", "block": "test", "trialIndex": 3, "score": 1, "costs": 0, "simulationMode": [null, null, null, null, null], "rewards": [-1, 1, -5, -9, 15], "path": ["0", "0", "12", "13", "14", "15", "17"], "rt": [1581, 38, 177, 527, 403], "actions": ["right", "right", "right", "up", "right"], "actionTimes": [5727, 6288, 6977, 8010, 8920], "queries": {"click": {"state": {"target": [], "time": []}, "edge": {"target": [], "time": []}}, "mouseover": {"state": {"target": [], "time": []}, "edge": {"target": [], "time": []}}, "mouseout": {"state": {"target": ["13", "0"], "time": [2569, 11629]}, "edge": {"target": [], "time": []}}}, "displayed_time": "18.15", "trialTime": 22537, "trial_type": "mouselab-mdp", "trial_index": 10, "time_elapsed": 960874, "internal_node_id": "0.0-6.0-1.0-1.0"}}, {"uniqueid": "w59819534:a45428368", "current_trial": 11, "dateTime": 1693580921795, "trialdata": {"revealed_states": [], "clicked_states": [], "num_clicks_accrued": [0, 0, 0, 0, 0, 0, 0, 0, 0, 0, 0, 0, 0], "stateRewards": ["", -2, -3, 7, -13, 60, 9, 37, -6, 37, 20, 1, 2, -2, -8, 6, -80, -31, -10, -7, 70, -65, -44, -1, 1, 7, 6, -11, 73, -85, 16, -21, 47, 34], "withholdReward": false, "trial_id": "mdp_trial_3", "block": "test", "trialIndex": 4, "score": 70, "costs": 0, "simulationMode": [null, null, null, null, null], "rewards": [-1, 1, 7, 16, 47], "path": ["0", "0", "23", "24", "25", "30", "32"], "rt": [3944, 27, 113, 1117, 201], "actions": ["left", "left", "left", "down", "down"], "actionTimes": [7444, 8001, 8620, 10282, 11009], "queries": {"click": {"state": {"target": [], "time": []}, "edge": {"target": [], "time": []}}, "mouseover": {"state": {"target": [], "time": []}, "edge": {"target": [], "time": []}}, "mouseout": {"state": {"target": ["19", "13", "12", "0", "0", "12"], "time": [1729, 2060, 2125, 2409, 13093, 13119]}, "edge": {"target": [], "time": []}}}, "displayed_time": "17.50", "trialTime": 20572, "trial_type": "mouselab-mdp", "trial_index": 11, "time_elapsed": 982525, "internal_node_id": "0.0-6.0-1.0-2.0"}}, {"uniqueid": "w59819534:a45428368", "current_trial": 12, "dateTime": 1693580944961, "trialdata": {"revealed_states": [], "clicked_states": [], "num_clicks_accrued": [0, 0, 0, 0, 0, 0, 0, 0, 0, 0, 0, 0, 0], "stateRewards": ["", 2, -3, -8, 14, -7, -51, 73, 2, 36, 36, -43, -1, 3, -4, 1, 6, 87, -65, 15, 61, -42, -83, -1, 3, -2, -7, 30, -48, 35, 13, 26, 60, 78], "withholdReward": false, "trial_id": "mdp_trial_4", "block": "test", "trialIndex": 5, "score": 78, "costs": 0, "simulationMode": [null, null, null, null, null], "rewards": [2, -3, -8, 14, 73], "path": ["0", "0", "1", "2", "3", "4", "7"], "rt": [3934, 80, 54, 249, 321], "actions": ["up", "up", "up", "right", "down"], "actionTimes": [8467, 9067, 9639, 10452, 11290], "queries": {"click": {"state": {"target": [], "time": []}, "edge": {"target": [], "time": []}}, "mouseover": {"state": {"target": [], "time": []}, "edge": {"target": [], "time": []}}, "mouseout": {"state": {"target": ["20", "22", "0"], "time": [2205, 2238, 12812]}, "edge": {"target": [], "time": []}}}, "displayed_time": "18.54", "trialTime": 21787, "trial_type": "mouselab-mdp", "trial_index": 12, "time_elapsed": 1005689, "internal_node_id": "0.0-6.0-1.0-3.0"}}, {"uniqueid": "w59819534:a45428368", "current_trial": 13, "dateTime": 1693580967550, "trialdata": {"revealed_states": [], "clicked_states": [], "num_clicks_accrued": [0, 0, 0, 0, 0, 0, 0, 0, 0, 0, 0, 0, 0], "stateRewards": ["", -2, 2, -5, -6, 10, -66, -58, -10, -11, -63, -70, -1, -4, -5, 7, 66, -64, -43, -3, 45, -37, 4, -2, -2, -6, -4, -30, 33, 43, 15, -32, -65, -59], "withholdReward": false, "trial_id": "mdp_trial_5", "block": "test", "trialIndex": 6, "score": -26, "costs": 0, "simulationMode": [null, null, null, null, null], "rewards": [-2, 2, -5, -10, -11], "path": ["0", "0", "1", "2", "3", "8", "9"], "rt": [2705, 192, 384, 574, 1525], "actions": ["up", "up", "up", "left", "up"], "actionTimes": [5800, 6500, 7484, 8637, 10683], "queries": {"click": {"state": {"target": [], "time": []}, "edge": {"target": [], "time": []}}, "mouseover": {"state": {"target": [], "time": []}, "edge": {"target": [], "time": []}}, "mouseout": {"state": {"target": ["0", "12", "13", "20", "20"], "time": [1575, 18605, 18633, 18705, 18821]}, "edge": {"target": [], "time": []}}}, "displayed_time": "17.10", "trialTime": 21021, "trial_type": "mouselab-mdp", "trial_index": 13, "time_elapsed": 1028278, "internal_node_id": "0.0-6.0-1.0-4.0"}}, {"uniqueid": "w59819534:a45428368", "current_trial": 14, "dateTime": 1693580992494, "trialdata": {"revealed_states": [], "clicked_states": [], "num_clicks_accrued": [0, 0, 0, 0, 0, 0, 0, 0, 0, 0, 0, 0, 0], "stateRewards": ["", 1, 2, 3, 16, 63, -25, 16, -4, -14, 82, -66, -1, -3, -3, -11, -14, 19, 46, 3, -34, -82, 66, -2, -3, 4, -5, -63, 77, -37, -1, -45, -41, 84], "withholdReward": false, "trial_id": "mdp_trial_6", "block": "test", "trialIndex": 7, "score": 71, "costs": 0, "simulationMode": [null, null, null, null, null], "rewards": [-2, -3, 4, -5, 77], "path": ["0", "0", "23", "24", "25", "26", "28"], "rt": [4939, 71, 135, 637, 677], "actions": ["left", "left", "left", "up", "right"], "actionTimes": [8309, 8927, 9593, 10749, 11945], "queries": {"click": {"state": {"target": [], "time": []}, "edge": {"target": [], "time": []}}, "mouseover": {"state": {"target": [], "time": []}, "edge": {"target": [], "time": []}}, "mouseout": {"state": {"target": ["14", "0", "22", "19"], "time": [1419, 15562, 15863, 15895]}, "edge": {"target": [], "time": []}}}, "displayed_time": "17.37", "trialTime": 23398, "trial_type": "mouselab-mdp", "trial_index": 14, "time_elapsed": 1053222, "internal_node_id": "0.0-6.0-1.0-5.0"}}, {"uniqueid": "w59819534:a45428368", "current_trial": 15, "dateTime": 1693581014425, "trialdata": {"revealed_states": [], "clicked_states": [], "num_clicks_accrued": [0, 0, 0, 0, 0, 0, 0, 0, 0, 0, 0, 0, 0], "stateRewards": ["", 1, -2, -2, 10, -31, -77, 35, 9, -47, 8, 48, -2, 1, -4, -3, -26, -50, 43, -11, 76, -38, 17, 1, -1, 6, 10, 15, -9, 12, -8, 85, 11, -55], "withholdReward": false, "trial_id": "mdp_trial_7", "block": "test", "trialIndex": 8, "score": 9, "costs": 0, "simulationMode": [null, null, null, null, null], "rewards": [1, -1, 6, -8, 11], "path": ["0", "0", "23", "24", "25", "30", "32"], "rt": [5216, 87, 201, 735, 139], "actions": ["left", "left", "left", "down", "down"], "actionTimes": [9488, 10117, 10838, 12093, 12747], "queries": {"click": {"state": {"target": [], "time": []}, "edge": {"target": [], "time": []}}, "mouseover": {"state": {"target": [], "time": []}, "edge": {"target": [], "time": []}}, "mouseout": {"state": {"target": ["0", "12"], "time": [16938, 16992]}, "edge": {"target": [], "time": []}}}, "displayed_time": "18.27", "trialTime": 20274, "trial_type": "mouselab-mdp", "trial_index": 15, "time_elapsed": 1075153, "internal_node_id": "0.0-6.0-1.0-6.0"}}, {"uniqueid": "w59819534:a45428368", "current_trial": 16, "dateTime": 1693581039979, "trialdata": {"revealed_states": [], "clicked_states": [], "num_clicks_accrued": [0, 0, 0, 0, 0, 0, 0, 0, 0, 0, 0, 0, 0], "stateRewards": ["", 2, -1, 5, 6, 10, 86, 55, 10, -45, 63, -71, 1, -2, 5, -8, -50, -72, 36, 15, 61, 12, 33, -1, -4, 6, 5, 79, -56, -21, -16, -87, 60, -81], "withholdReward": false, "trial_id": "mdp_trial_8", "block": "test", "trialIndex": 9, "score": 31, "costs": 0, "simulationMode": [null, null, null, null, null], "rewards": [1, -2, 5, 15, 12], "path": ["0", "0", "12", "13", "14", "19", "21"], "rt": [4540, 885, 247, 866, 162], "actions": ["right", "right", "right", "down", "down"], "actionTimes": [8712, 12552, 13321, 14717, 15387], "queries": {"click": {"state": {"target": [], "time": []}, "edge": {"target": [], "time": []}}, "mouseover": {"state": {"target": [], "time": []}, "edge": {"target": [], "time": []}}, "mouseout": {"state": {"target": ["14", "13", "0", "13", "14"], "time": [2090, 2109, 22758, 22967, 23882]}, "edge": {"target": [], "time": []}}}, "displayed_time": "20.17", "trialTime": 23886, "trial_type": "mouselab-mdp", "trial_index": 16, "time_elapsed": 1100708, "internal_node_id": "0.0-6.0-1.0-7.0"}}, {"uniqueid": "w59819534:a45428368", "current_trial": 17, "dateTime": 1693581086058, "trialdata": {"revealed_states": [], "clicked_states": [], "num_clicks_accrued": [0, 0, 0, 0, 0, 0, 0, 0, 0, 0, 0, 0, 0], "stateRewards": ["", 1, 2, 7, 13, 88, -71, 27, 3, 60, 5, -53, -2, 2, -6, -1, -30, 79, 47, -4, -14, 46, 68, 1, 1, 8, 10, -14, 86, 48, -11, -67, -44, 5], "withholdReward": false, "trial_id": "mdp_trial_9", "block": "test", "trialIndex": 10, "score": 18, "costs": 0, "simulationMode": [null, null, null, null, null], "rewards": [1, 2, 7, 3, 5], "path": ["0", "0", "1", "2", "3", "8", "10"], "rt": [12197, 528, 1545, 636, 549], "actions": ["up", "up", "up", "left", "down"], "actionTimes": [21227, 22470, 24743, 25917, 27211], "queries": {"click": {"state": {"target": [], "time": []}, "edge": {"target": [], "time": []}}, "mouseover": {"state": {"target": [], "time": []}, "edge": {"target": [], "time": []}}, "mouseout": {"state": {"target": ["0"], "time": [30464]}, "edge": {"target": [], "time": []}}}, "displayed_time": "27.81", "trialTime": 33187, "trial_type": "mouselab-mdp", "trial_index": 17, "time_elapsed": 1146788, "internal_node_id": "0.0-6.0-1.0-8.0"}}, {"uniqueid": "w59819534:a45428368", "current_trial": 18, "dateTime": 1693581110615, "trialdata": {"revealed_states": [], "clicked_states": [], "num_clicks_accrued": [0, 0, 0, 0, 0, 0, 0, 0, 0, 0, 0, 0, 0], "stateRewards": ["", -1, 4, -8, 12, 14, 69, -8, 5, -72, -14, 56, -1, -1, -1, 9, 67, 19, 11, -9, -88, -58, 3, 2, -4, -8, 4, 62, 77, -74, 5, -31, 65, 88], "withholdReward": false, "trial_id": "mdp_trial_10", "block": "test", "trialIndex": 11, "score": -80, "costs": 0, "simulationMode": [null, null, null, null, null], "rewards": [2, -4, -8, 4, -74], "path": ["0", "0", "23", "24", "25", "26", "29"], "rt": [3771, 118, 45, 3370, 53], "actions": ["left", "left", "left", "up", "left"], "actionTimes": [7465, 8116, 8670, 12564, 13132], "queries": {"click": {"state": {"target": [], "time": []}, "edge": {"target": [], "time": []}}, "mouseover": {"state": {"target": [], "time": []}, "edge": {"target": [], "time": []}}, "mouseout": {"state": {"target": ["0"], "time": [1027]}, "edge": {"target": [], "time": []}}}, "displayed_time": "17.70", "trialTime": 22675, "trial_type": "mouselab-mdp", "trial_index": 18, "time_elapsed": 1171344, "internal_node_id": "0.0-6.0-1.0-9.0"}}, {"uniqueid": "w59819534:a45428368", "current_trial": 19, "dateTime": 1693581131330, "trialdata": {"revealed_states": [], "clicked_states": [], "num_clicks_accrued": [0, 0, 0, 0, 0, 0, 0, 0, 0, 0, 0, 0, 0], "stateRewards": ["", 2, -3, -4, -1, 25, -16, 16, 10, -71, -20, -55, 1, 3, -4, -9, 1, 32, 11, -6, 32, -50, -41, -1, 4, 4, -8, 7, -81, 70, 2, -52, 45, -10], "withholdReward": false, "trial_id": "mdp_trial_11", "block": "test", "trialIndex": 12, "score": 19, "costs": 0, "simulationMode": [null, null, null, null, null], "rewards": [2, -3, -4, -1, 25], "path": ["0", "0", "1", "2", "3", "4", "5"], "rt": [1162, 186, 132, 338, 1186], "actions": ["up", "up", "up", "right", "up"], "actionTimes": [4304, 4998, 5678, 6539, 8231], "queries": {"click": {"state": {"target": [], "time": []}, "edge": {"target": [], "time": []}}, "mouseover": {"state": {"target": [], "time": []}, "edge": {"target": [], "time": []}}, "mouseout": {"state": {"target": ["0", "0"], "time": [1617, 10148]}, "edge": {"target": [], "time": []}}}, "displayed_time": "17.14", "trialTime": 19047, "trial_type": "mouselab-mdp", "trial_index": 19, "time_elapsed": 1192058, "internal_node_id": "0.0-6.0-1.0-10.0"}}, {"uniqueid": "w59819534:a45428368", "current_trial": 20, "dateTime": 1693581153751, "trialdata": {"revealed_states": [], "clicked_states": [], "num_clicks_accrued": [0, 0, 0, 0, 0, 0, 0, 0, 0, 0, 0, 0, 0], "stateRewards": ["", -2, 3, 8, -9, 59, 41, -50, -1, 82, 66, 33, 2, -2, 7, 8, 1, -38, 12, -16, 24, -37, 67, 1, 4, -2, 5, 35, -83, 28, 8, -27, 69, -64], "withholdReward": false, "trial_id": "mdp_trial_12", "block": "test", "trialIndex": 13, "score": 15, "costs": 0, "simulationMode": [null, null, null, null, null], "rewards": [2, -2, 7, -16, 24], "path": ["0", "0", "12", "13", "14", "19", "20"], "rt": [3630, 376, 290, 389, 470], "actions": ["right", "right", "right", "down", "right"], "actionTimes": [8420, 9318, 10121, 11081, 12063], "queries": {"click": {"state": {"target": [], "time": []}, "edge": {"target": [], "time": []}}, "mouseover": {"state": {"target": [], "time": []}, "edge": {"target": [], "time": []}}, "mouseout": {"state": {"target": ["12"], "time": [2832]}, "edge": {"target": [], "time": []}}}, "displayed_time": "18.79", "trialTime": 20443, "trial_type": "mouselab-mdp", "trial_index": 20, "time_elapsed": 1214480, "internal_node_id": "0.0-6.0-1.0-11.0"}}, {"uniqueid": "w59819534:a45428368", "current_trial": 21, "dateTime": 1693581183096, "trialdata": {"revealed_states": [], "clicked_states": [], "num_clicks_accrued": [0, 0, 0, 0, 0, 0, 0, 0, 0, 0, 0, 0, 0], "stateRewards": ["", 2, 3, 8, 14, 69, -27, 17, 2, -71, -65, -10, 2, -3, 7, 8, 65, -10, 65, -12, 73, -12, 13, -2, -2, 6, 10, -79, -69, -18, 10, -85, 67, 74], "withholdReward": false, "trial_id": "mdp_trial_13", "block": "test", "trialIndex": 14, "score": 5, "costs": 0, "simulationMode": [null, null, null, null, null], "rewards": [2, 3, 8, 2, -10], "path": ["0", "0", "1", "2", "3", "8", "11"], "rt": [7721, 892, 478, 598, 398], "actions": ["up", "up", "up", "left", "left"], "actionTimes": [11541, 12998, 14486, 21781, 23483], "queries": {"click": {"state": {"target": [], "time": []}, "edge": {"target": [], "time": []}}, "mouseover": {"state": {"target": [], "time": []}, "edge": {"target": [], "time": []}}, "mouseout": {"state": {"target": ["0"], "time": [25535]}, "edge": {"target": [], "time": []}}}, "displayed_time": "24.02", "trialTime": 27500, "trial_type": "mouselab-mdp", "trial_index": 21, "time_elapsed": 1243826, "internal_node_id": "0.0-6.0-1.0-12.0"}}, {"uniqueid": "w59819534:a45428368", "current_trial": 22, "dateTime": 1693581211274, "trialdata": {"revealed_states": [], "clicked_states": [], "num_clicks_accrued": [0, 0, 0, 0, 0, 0, 0, 0, 0, 0, 0, 0, 0], "stateRewards": ["", -1, 1, -5, -6, -78, 47, -13, 12, 48, -88, 20, 2, -3, -2, 13, -20, 37, -57, 14, -38, 30, 31, -2, -2, 8, 2, -23, 78, 28, 12, -74, -88, 8], "withholdReward": false, "trial_id": "mdp_trial_14", "block": "test", "trialIndex": 15, "score": -72, "costs": 0, "simulationMode": [null, null, null, null, null], "rewards": [-2, -2, 8, 12, -88], "path": ["0", "0", "23", "24", "25", "30", "32"], "rt": [6001, 968, 737, 657, 187], "actions": ["left", "left", "left", "down", "down"], "actionTimes": [14548, 16670, 18033, 19301, 20077], "queries": {"click": {"state": {"target": [], "time": []}, "edge": {"target": [], "time": []}}, "mouseover": {"state": {"target": [], "time": []}, "edge": {"target": [], "time": []}}, "mouseout": {"state": {"target": [], "time": []}, "edge": {"target": [], "time": []}}}, "displayed_time": "22.55", "trialTime": 26601, "trial_type": "mouselab-mdp", "trial_index": 22, "time_elapsed": 1272001, "internal_node_id": "0.0-6.0-1.0-13.0"}}, {"uniqueid": "w59819534:a45428368", "current_trial": 23, "dateTime": 1693581239055, "trialdata": {"revealed_states": [], "clicked_states": [], "num_clicks_accrued": [0, 0, 0, 0, 0, 0, 0, 0, 0, 0, 0, 0, 0], "stateRewards": ["", -1, 3, 8, 10, -86, 61, -36, 10, 17, -60, 24, -1, -3, 3, 11, 50, 60, 33, -3, -20, 58, -6, 1, -4, -4, 13, -70, -71, 43, 14, 52, 82, -11], "withholdReward": false, "trial_id": "mdp_trial_15", "block": "test", "trialIndex": 16, "score": -16, "costs": 0, "simulationMode": [null, null, null, null, null], "rewards": [-1, 3, 8, 10, -36], "path": ["0", "0", "1", "2", "3", "4", "7"], "rt": [2863, 340, 558, 476, 693], "actions": ["up", "up", "up", "right", "down"], "actionTimes": [12446, 14331, 15443, 16520, 17726], "queries": {"click": {"state": {"target": [], "time": []}, "edge": {"target": [], "time": []}}, "mouseover": {"state": {"target": [], "time": []}, "edge": {"target": [], "time": []}}, "mouseout": {"state": {"target": ["0", "0", "12"], "time": [7338, 22194, 22376]}, "edge": {"target": [], "time": []}}}, "displayed_time": "23.59", "trialTime": 24696, "trial_type": "mouselab-mdp", "trial_index": 23, "time_elapsed": 1299784, "internal_node_id": "0.0-6.0-1.0-14.0"}}, {"uniqueid": "w59819534:a45428368", "current_trial": 24, "dateTime": 1693581264345, "trialdata": {"revealed_states": [], "clicked_states": [], "num_clicks_accrued": [0, 0, 0, 0, 0, 0, 0, 0, 0, 0, 0, 0, 0], "stateRewards": ["", 2, -4, 1, -12, -59, -53, -74, 16, -88, -66, 66, 1, -2, 8, -9, -14, 22, 25, -1, -39, 47, -14, -1, -1, -2, 1, -4, 52, -26, 15, -7, 46, 43], "withholdReward": false, "trial_id": "mdp_trial_16", "block": "test", "trialIndex": 17, "score": -8, "costs": 0, "simulationMode": [null, null, null, null, null], "rewards": [1, -2, 8, -1, -14], "path": ["0", "0", "12", "13", "14", "19", "22"], "rt": [3956, 170, 545, 389, 251], "actions": ["right", "right", "right", "down", "left"], "actionTimes": [6921, 7602, 8660, 9568, 10348], "queries": {"click": {"state": {"target": [], "time": []}, "edge": {"target": [], "time": []}}, "mouseover": {"state": {"target": [], "time": []}, "edge": {"target": [], "time": []}}, "mouseout": {"state": {"target": [], "time": []}, "edge": {"target": [], "time": []}}}, "displayed_time": "16.97", "trialTime": 23467, "trial_type": "mouselab-mdp", "trial_index": 24, "time_elapsed": 1325072, "internal_node_id": "0.0-6.0-1.0-15.0"}}, {"uniqueid": "w59819534:a45428368", "current_trial": 25, "dateTime": 1693581290034, "trialdata": {"revealed_states": [], "clicked_states": [], "num_clicks_accrued": [0, 0, 0, 0, 0, 0, 0, 0, 0, 0, 0, 0, 0], "stateRewards": ["", 2, 3, 6, -5, -74, -53, 17, -12, 46, 44, 18, -2, 4, 1, -8, 22, -23, -49, 9, -45, 55, 81, 1, -1, -7, -16, -83, -71, -45, 2, 51, 82, 61], "withholdReward": false, "trial_id": "mdp_trial_17", "block": "test", "trialIndex": 18, "score": -68, "costs": 0, "simulationMode": [null, null, null, null, null], "rewards": [2, 3, 6, -5, -74], "path": ["0", "0", "1", "2", "3", "4", "5"], "rt": [15287, 462, 258, 230, 257], "actions": ["up", "up", "up", "right", "up"], "actionTimes": [17233, 18349, 19115, 19852, 20639], "queries": {"click": {"state": {"target": [], "time": []}, "edge": {"target": [], "time": []}}, "mouseover": {"state": {"target": ["19", "22", "20", "20", "19", "22"], "time": [11712, 12448, 12595, 16085, 16174, 16208]}, "edge": {"target": [], "time": []}}, "mouseout": {"state": {"target": ["0", "19", "22", "20", "20", "19"], "time": [11673, 11745, 12542, 12628, 16115, 16197]}, "edge": {"target": [], "time": []}}}, "displayed_time": "21.16", "trialTime": 23788, "trial_type": "mouselab-mdp", "trial_index": 25, "time_elapsed": 1350762, "internal_node_id": "0.0-6.0-1.0-16.0"}}, {"uniqueid": "w59819534:a45428368", "current_trial": 26, "dateTime": 1693581313469, "trialdata": {"revealed_states": [], "clicked_states": [], "num_clicks_accrued": [0, 0, 0, 0, 0, 0, 0, 0, 0, 0, 0, 0, 0], "stateRewards": ["", 1, -1, 4, 5, -32, 18, 20, 6, -88, -74, 9, -2, 1, -2, -14, 34, -77, -38, -1, 80, -36, 73, 2, 3, -8, 10, -48, -73, -71, -11, -22, 20, 54], "withholdReward": false, "trial_id": "mdp_trial_18", "block": "test", "trialIndex": 19, "score": -64, "costs": 0, "simulationMode": [null, null, null, null, null], "rewards": [2, 3, -8, 10, -71], "path": ["0", "0", "23", "24", "25", "26", "29"], "rt": [1501, 154, 677, 2780, 1666], "actions": ["left", "left", "left", "up", "left"], "actionTimes": [5576, 6858, 8125, 11455, 13686], "queries": {"click": {"state": {"target": [], "time": []}, "edge": {"target": [], "time": []}}, "mouseover": {"state": {"target": [], "time": []}, "edge": {"target": [], "time": []}}, "mouseout": {"state": {"target": ["24", "23", "0", "13"], "time": [1923, 2207, 18535, 18566]}, "edge": {"target": [], "time": []}}}, "displayed_time": "18.08", "trialTime": 21368, "trial_type": "mouselab-mdp", "trial_index": 26, "time_elapsed": 1374198, "internal_node_id": "0.0-6.0-1.0-17.0"}}, {"uniqueid": "w59819534:a45428368", "current_trial": 27, "dateTime": 1693581336753, "trialdata": {"revealed_states": [], "clicked_states": [], "num_clicks_accrued": [0, 0, 0, 0, 0, 0, 0, 0, 0, 0, 0, 0, 0], "stateRewards": ["", -1, -3, -7, -4, -85, -70, 79, 8, 84, -66, 42, 2, -2, -3, -16, -54, -66, 68, -3, 21, -14, 7, -2, -1, -3, -8, 75, 80, 86, -7, -84, 73, -16], "withholdReward": false, "trial_id": "mdp_trial_19", "block": "test", "trialIndex": 20, "score": 39, "costs": 0, "simulationMode": [null, null, null, null, null], "rewards": [-1, -3, -7, 8, 42], "path": ["0", "0", "1", "2", "3", "8", "11"], "rt": [1329, 392, 375, 329, 8], "actions": ["up", "up", "up", "left", "left"], "actionTimes": [4875, 5863, 6822, 7763, 8362], "queries": {"click": {"state": {"target": [], "time": []}, "edge": {"target": [], "time": []}}, "mouseover": {"state": {"target": [], "time": []}, "edge": {"target": [], "time": []}}, "mouseout": {"state": {"target": ["22", "0", "12", "19"], "time": [1552, 10907, 10934, 10962]}, "edge": {"target": [], "time": []}}}, "displayed_time": "17.55", "trialTime": 21201, "trial_type": "mouselab-mdp", "trial_index": 27, "time_elapsed": 1397482, "internal_node_id": "0.0-6.0-1.0-18.0"}}, {"uniqueid": "w59819534:a45428368", "current_trial": 28, "dateTime": 1693581370229, "trialdata": {"revealed_states": [], "clicked_states": [], "num_clicks_accrued": [0, 0, 0, 0, 0, 0, 0, 0, 0, 0, 0, 0, 0], "stateRewards": ["", -1, 1, -6, -1, 80, 23, 2, -11, 73, -81, 59, 1, 3, 5, -1, -26, 28, -3, 16, -59, -13, -50, -2, -2, 2, 15, -50, 86, 17, -4, 37, 35, 44], "withholdReward": false, "trial_id": "mdp_trial_20", "block": "test", "trialIndex": 21, "score": 31, "costs": 0, "simulationMode": [null, null, null, null, null], "rewards": [-2, -2, 2, -4, 37], "path": ["0", "0", "23", "24", "25", "30", "31"], "rt": [5818, 2262, 775, 434, 761], "actions": ["left", "left", "left", "down", "right"], "actionTimes": [14797, 18088, 19696, 20675, 22110], "queries": {"click": {"state": {"target": [], "time": []}, "edge": {"target": [], "time": []}}, "mouseover": {"state": {"target": [], "time": []}, "edge": {"target": [], "time": []}}, "mouseout": {"state": {"target": ["0"], "time": [13595]}, "edge": {"target": [], "time": []}}}, "displayed_time": "25.20", "trialTime": 28592, "trial_type": "mouselab-mdp", "trial_index": 28, "time_elapsed": 1430044, "internal_node_id": "0.0-6.0-1.0-19.0"}}, {"uniqueid": "w59819534:a45428368", "current_trial": 29, "dateTime": 1693581398615, "trialdata": {"revealed_states": [], "clicked_states": [], "num_clicks_accrued": [0, 0, 0, 0, 0, 0, 0, 0, 0, 0, 0, 0, 0], "stateRewards": ["", -2, -3, -7, 7, -54, -69, -4, -14, -77, 22, 40, -2, -1, 5, 6, -35, 50, -60, 10, -28, 75, 57, 1, -4, -2, 2, 68, 34, -18, 12, 3, -21, -43], "withholdReward": false, "trial_id": "mdp_trial_21", "block": "test", "trialIndex": 22, "score": 31, "costs": 0, "simulationMode": [null, null, null, null, null], "rewards": [1, -4, -2, 2, 34], "path": ["0", "0", "23", "24", "25", "26", "28"], "rt": [4212, 642, 130, 1064, 919], "actions": ["left", "left", "left", "up", "right"], "actionTimes": [7426, 8599, 9279, 10857, 12294], "queries": {"click": {"state": {"target": [], "time": []}, "edge": {"target": [], "time": []}}, "mouseover": {"state": {"target": [], "time": []}, "edge": {"target": [], "time": []}}, "mouseout": {"state": {"target": [], "time": []}, "edge": {"target": [], "time": []}}}, "displayed_time": "17.22", "trialTime": 18659, "trial_type": "mouselab-mdp", "trial_index": 29, "time_elapsed": 1459345, "internal_node_id": "0.0-6.0-1.0-20.0"}}, {"uniqueid": "w59819534:a45428368", "current_trial": 30, "dateTime": 1693581421474, "trialdata": {"revealed_states": [], "clicked_states": [], "num_clicks_accrued": [0, 0, 0, 0, 0, 0, 0, 0, 0, 0, 0, 0, 0], "stateRewards": ["", -1, 4, -6, -5, -22, -38, -38, -2, -56, 88, 14, -1, -1, -7, -6, 61, -60, 21, 11, 57, 31, -30, -2, -2, 6, -9, -44, -70, -44, -15, 34, 16, -78], "withholdReward": false, "trial_id": "mdp_trial_22", "block": "test", "trialIndex": 23, "score": 6, "costs": 0, "simulationMode": [null, null, null, null, null], "rewards": [-1, -1, -7, -6, 21], "path": ["0", "0", "12", "13", "14", "15", "18"], "rt": [2472, 452, 652, 290, 448], "actions": ["right", "right", "right", "up", "left"], "actionTimes": [8347, 9313, 10565, 11411, 12378], "queries": {"click": {"state": {"target": [], "time": []}, "edge": {"target": [], "time": []}}, "mouseover": {"state": {"target": [], "time": []}, "edge": {"target": [], "time": []}}, "mouseout": {"state": {"target": [], "time": []}, "edge": {"target": [], "time": []}}}, "displayed_time": "19.91", "trialTime": 20979, "trial_type": "mouselab-mdp", "trial_index": 30, "time_elapsed": 1482202, "internal_node_id": "0.0-6.0-1.0-21.0"}}, {"uniqueid": "w59819534:a45428368", "current_trial": 31, "dateTime": 1693581442476, "trialdata": {"revealed_states": [], "clicked_states": [], "num_clicks_accrued": [0, 0, 0, 0, 0, 0, 0, 0, 0, 0, 0, 0, 0], "stateRewards": ["", 1, 4, 5, 8, -55, -11, 8, 16, -37, 77, -22, -2, 3, -8, -10, 45, 87, -67, 4, 17, -33, -22, -1, -3, 7, 6, -39, -85, 75, -1, 7, -48, 45], "withholdReward": false, "trial_id": "mdp_trial_23", "block": "test", "trialIndex": 24, "score": 14, "costs": 0, "simulationMode": [null, null, null, null, null], "rewards": [-2, 3, -8, 4, 17], "path": ["0", "0", "12", "13", "14", "19", "20"], "rt": [4388, 211, 212, 632, 280], "actions": ["right", "right", "right", "down", "right"], "actionTimes": [6886, 7629, 8364, 9530, 10327], "queries": {"click": {"state": {"target": [], "time": []}, "edge": {"target": [], "time": []}}, "mouseover": {"state": {"target": [], "time": []}, "edge": {"target": [], "time": []}}, "mouseout": {"state": {"target": [], "time": []}, "edge": {"target": [], "time": []}}}, "displayed_time": "16.50", "trialTime": 18755, "trial_type": "mouselab-mdp", "trial_index": 31, "time_elapsed": 1503204, "internal_node_id": "0.0-6.0-1.0-22.0"}}, {"uniqueid": "w59819534:a45428368", "current_trial": 32, "dateTime": 1693581466668, "trialdata": {"revealed_states": [], "clicked_states": [], "num_clicks_accrued": [0, 0, 0, 0, 0, 0, 0, 0, 0, 0, 0, 0, 0], "stateRewards": ["", 1, -1, 1, -14, -10, 67, -28, -11, 72, 40, -65, -1, 1, 1, -2, 8, -55, 34, -10, 61, 33, -15, 2, -4, 7, 4, -75, 63, -21, -16, 61, 19, 21], "withholdReward": false, "trial_id": "mdp_trial_24", "block": "test", "trialIndex": 25, "score": 10, "costs": 0, "simulationMode": [null, null, null, null, null], "rewards": [2, -4, 7, -16, 21], "path": ["0", "0", "23", "24", "25", "30", "33"], "rt": [2983, 56, 48, 448, 67], "actions": ["left", "left", "left", "down", "left"], "actionTimes": [6882, 7492, 8082, 9121, 9702], "queries": {"click": {"state": {"target": [], "time": []}, "edge": {"target": [], "time": []}}, "mouseover": {"state": {"target": [], "time": []}, "edge": {"target": [], "time": []}}, "mouseout": {"state": {"target": [], "time": []}, "edge": {"target": [], "time": []}}}, "displayed_time": "17.90", "trialTime": 20653, "trial_type": "mouselab-mdp", "trial_index": 32, "time_elapsed": 1527392, "internal_node_id": "0.0-6.0-1.0-23.0"}}, {"uniqueid": "w59819534:a45428368", "current_trial": 33, "dateTime": 1693581547955, "trialdata": {"revealed_states": [], "clicked_states": [], "num_clicks_accrued": [0, 0, 0, 0, 0, 0, 0, 0, 0, 0, 0, 0, 0], "stateRewards": ["", 2, 3, 8, 11, 25, -80, 6, -4, -56, 84, -23, -2, -4, -3, 4, -51, -9, -61, -15, -64, 67, -35, 1, -1, -7, -6, 83, 59, -15, 12, -79, 56, 41], "withholdReward": false, "trial_id": "mdp_trial_25", "block": "test", "trialIndex": 26, "score": 93, "costs": 0, "simulationMode": [null, null, null, null, null], "rewards": [2, 3, 8, -4, 84], "path": ["0", "0", "1", "2", "3", "8", "10"], "rt": [29364, 892, 7264, 701, 427], "actions": ["up", "up", "up", "left", "down"], "actionTimes": [46488, 56261, 64319, 65648, 67183], "queries": {"click": {"state": {"target": [], "time": []}, "edge": {"target": [], "time": []}}, "mouseover": {"state": {"target": [], "time": []}, "edge": {"target": [], "time": []}}, "mouseout": {"state": {"target": [], "time": []}, "edge": {"target": [], "time": []}}}, "displayed_time": "67.71", "trialTime": 73088, "trial_type": "mouselab-mdp", "trial_index": 33, "time_elapsed": 1608656, "internal_node_id": "0.0-6.0-1.0-24.0"}}, {"uniqueid": "w59819534:a45428368", "current_trial": 34, "dateTime": 1693581573500, "trialdata": {"revealed_states": [], "clicked_states": [], "num_clicks_accrued": [0, 0, 0, 0, 0, 0, 0, 0, 0, 0, 0, 0, 0], "stateRewards": ["", 1, 1, 6, -14, -40, 37, 16, -13, 33, -68, 49, 2, 4, 3, 6, 55, 27, 32, 10, -65, 20, -87, 2, 1, -6, -5, -42, 12, 29, -8, 16, 76, -33], "withholdReward": false, "trial_id": "mdp_trial_26", "block": "test", "trialIndex": 27, "score": 70, "costs": 0, "simulationMode": [null, null, null, null, null], "rewards": [2, 4, 3, 6, 55], "path": ["0", "0", "12", "13", "14", "15", "16"], "rt": [2716, 1628, 81, 772, 59], "actions": ["right", "right", "right", "up", "up"], "actionTimes": [6725, 8904, 9536, 10829, 11530], "queries": {"click": {"state": {"target": [], "time": []}, "edge": {"target": [], "time": []}}, "mouseover": {"state": {"target": [], "time": []}, "edge": {"target": [], "time": []}}, "mouseout": {"state": {"target": [], "time": []}, "edge": {"target": [], "time": []}}}, "displayed_time": "18.01", "trialTime": 19028, "trial_type": "mouselab-mdp", "trial_index": 34, "time_elapsed": 1634229, "internal_node_id": "0.0-6.0-1.0-25.0"}}, {"uniqueid": "w59819534:a45428368", "current_trial": 35, "dateTime": 1693581595790, "trialdata": {"revealed_states": [], "clicked_states": [], "num_clicks_accrued": [0, 0, 0, 0, 0, 0, 0, 0, 0, 0, 0, 0, 0], "stateRewards": ["", 1, 3, 3, -10, 52, 68, 59, 12, 7, 49, 21, -2, -3, -4, -2, -2, 63, 63, -4, 44, 43, -76, -2, -3, -6, 13, 48, 36, 12, -5, -36, -33, -11], "withholdReward": false, "trial_id": "mdp_trial_27", "block": "test", "trialIndex": 28, "score": 56, "costs": 0, "simulationMode": [null, null, null, null, null], "rewards": [1, 3, 3, -10, 59], "path": ["0", "0", "1", "2", "3", "4", "7"], "rt": [2975, 10, 22, 8, 2681], "actions": ["up", "up", "up", "right", "down"], "actionTimes": [6130, 6663, 7269, 7796, 11051], "queries": {"click": {"state": {"target": [], "time": []}, "edge": {"target": [], "time": []}}, "mouseover": {"state": {"target": [], "time": []}, "edge": {"target": [], "time": []}}, "mouseout": {"state": {"target": [], "time": []}, "edge": {"target": [], "time": []}}}, "displayed_time": "17.16", "trialTime": 20280, "trial_type": "mouselab-mdp", "trial_index": 35, "time_elapsed": 1656520, "internal_node_id": "0.0-6.0-1.0-26.0"}}, {"uniqueid": "w59819534:a45428368", "current_trial": 36, "dateTime": 1693581616794, "trialdata": {"revealed_states": [], "clicked_states": [], "num_clicks_accrued": [0, 0, 0, 0, 0, 0, 0, 0, 0, 0, 0, 0, 0], "stateRewards": ["", -1, 2, -2, 5, 80, -61, -27, 12, 44, -26, -75, -2, -4, 1, -16, 42, -49, -50, 4, -44, 2, 80, -2, -2, 5, -2, 59, 10, 24, 7, -48, -86, -44], "withholdReward": false, "trial_id": "mdp_trial_28", "block": "test", "trialIndex": 29, "score": 58, "costs": 0, "simulationMode": [null, null, null, null, null], "rewards": [-2, -2, 5, -2, 59], "path": ["0", "0", "23", "24", "25", "26", "27"], "rt": [3238, 53, 96, 1604, 1224], "actions": ["left", "left", "left", "up", "up"], "actionTimes": [6751, 7335, 7995, 10117, 11872], "queries": {"click": {"state": {"target": [], "time": []}, "edge": {"target": [], "time": []}}, "mouseover": {"state": {"target": [], "time": []}, "edge": {"target": [], "time": []}}, "mouseout": {"state": {"target": [], "time": []}, "edge": {"target": [], "time": []}}}, "displayed_time": "17.52", "trialTime": 18819, "trial_type": "mouselab-mdp", "trial_index": 36, "time_elapsed": 1677523, "internal_node_id": "0.0-6.0-1.0-27.0"}}, {"uniqueid": "w59819534:a45428368", "current_trial": 37, "dateTime": 1693581642020, "trialdata": {"revealed_states": [], "clicked_states": [], "num_clicks_accrued": [0, 0, 0, 0, 0, 0, 0, 0, 0, 0, 0, 0, 0], "stateRewards": ["", -2, 4, 3, 5, -61, 4, 30, 1, -47, 83, 10, 1, 4, 7, -14, 19, -74, -83, 6, -2, -2, -65, -1, -2, 4, -11, 12, -1, -68, 11, -38, -28, 66], "withholdReward": false, "trial_id": "mdp_trial_29", "block": "test", "trialIndex": 30, "score": 16, "costs": 0, "simulationMode": [null, null, null, null, null], "rewards": [1, 4, 7, 6, -2], "path": ["0", "0", "12", "13", "14", "19", "21"], "rt": [2040, 424, 317, 9649, 696], "actions": ["right", "right", "right", "down", "down"], "actionTimes": [4972, 5956, 6803, 16994, 18216], "queries": {"click": {"state": {"target": [], "time": []}, "edge": {"target": [], "time": []}}, "mouseover": {"state": {"target": [], "time": []}, "edge": {"target": [], "time": []}}, "mouseout": {"state": {"target": ["0", "22", "21"], "time": [10576, 10819, 10919]}, "edge": {"target": [], "time": []}}}, "displayed_time": "18.75", "trialTime": 23016, "trial_type": "mouselab-mdp", "trial_index": 37, "time_elapsed": 1702749, "internal_node_id": "0.0-6.0-1.0-28.0"}}, {"uniqueid": "w59819534:a45428368", "current_trial": 38, "dateTime": 1693581665365, "trialdata": {"revealed_states": [], "clicked_states": [], "num_clicks_accrued": [0, 0, 0, 0, 0, 0, 0, 0, 0, 0, 0, 0, 0], "stateRewards": ["", 2, -1, -4, -13, 74, 77, 3, 2, -43, -2, -11, 2, 3, 7, 11, -26, -29, -33, -3, -3, -13, -3, 1, 3, -7, 14, -59, 33, 9, -5, 34, 79, 68], "withholdReward": false, "trial_id": "mdp_trial_30", "block": "test", "trialIndex": 31, "score": -3, "costs": 0, "simulationMode": [null, null, null, null, null], "rewards": [2, -1, -4, 2, -2], "path": ["0", "0", "1", "2", "3", "8", "10"], "rt": [2021, 179, 183, 484, 178], "actions": ["up", "up", "up", "left", "down"], "actionTimes": [6040, 6755, 7473, 8484, 9243], "queries": {"click": {"state": {"target": [], "time": []}, "edge": {"target": [], "time": []}}, "mouseover": {"state": {"target": [], "time": []}, "edge": {"target": [], "time": []}}, "mouseout": {"state": {"target": ["19", "23"], "time": [794, 1263]}, "edge": {"target": [], "time": []}}}, "displayed_time": "18.02", "trialTime": 20706, "trial_type": "mouselab-mdp", "trial_index": 38, "time_elapsed": 1726094, "internal_node_id": "0.0-6.0-1.0-29.0"}}, {"uniqueid": "w59819534:a45428368", "current_trial": 39, "dateTime": 1693581699618, "trialdata": {"revealed_states": [], "clicked_states": [], "num_clicks_accrued": [0, 0, 0, 0, 0, 0, 0, 0, 0, 0, 0, 0, 0], "stateRewards": ["", 1, 1, 1, -3, -7, -1, -41, -10, 20, -72, -63, 1, -4, -2, 2, -66, 30, -84, -2, 49, 23, 71, -1, -4, 4, -12, 67, 5, 18, -16, 88, 56, -5], "withholdReward": false, "trial_id": "mdp_trial_31", "block": "test", "trialIndex": 32, "score": 42, "costs": 0, "simulationMode": [null, null, null, null, null], "rewards": [1, -4, -2, -2, 49], "path": ["0", "0", "12", "13", "14", "19", "20"], "rt": [3948, 5371, 1132, 702, 570], "actions": ["right", "right", "right", "down", "right"], "actionTimes": [9101, 16831, 18732, 20270, 22546], "queries": {"click": {"state": {"target": [], "time": []}, "edge": {"target": [], "time": []}}, "mouseover": {"state": {"target": [], "time": []}, "edge": {"target": [], "time": []}}, "mouseout": {"state": {"target": [], "time": []}, "edge": {"target": [], "time": []}}}, "displayed_time": "23.07", "trialTime": 30236, "trial_type": "mouselab-mdp", "trial_index": 39, "time_elapsed": 1760347, "internal_node_id": "0.0-6.0-1.0-30.0"}}, {"uniqueid": "w59819534:a45428368", "current_trial": 40, "dateTime": 1693581722020, "trialdata": {"revealed_states": [], "clicked_states": [], "num_clicks_accrued": [0, 0, 0, 0, 0, 0, 0, 0, 0, 0, 0, 0, 0], "stateRewards": ["", -1, 2, -6, 6, 43, 78, 78, -2, 55, -29, -17, -2, -4, 1, -15, 13, 7, -79, 8, -28, -68, 36, -1, -3, 3, -16, 84, -18, 87, 10, 32, 13, -81], "withholdReward": false, "trial_id": "mdp_trial_32", "block": "test", "trialIndex": 33, "score": 41, "costs": 0, "simulationMode": [null, null, null, null, null], "rewards": [-1, -3, 3, 10, 32], "path": ["0", "0", "23", "24", "25", "30", "31"], "rt": [1915, 1017, 99, 158, 194], "actions": ["left", "left", "left", "down", "right"], "actionTimes": [5171, 6723, 7389, 8071, 8791], "queries": {"click": {"state": {"target": [], "time": []}, "edge": {"target": [], "time": []}}, "mouseover": {"state": {"target": [], "time": []}, "edge": {"target": [], "time": []}}, "mouseout": {"state": {"target": [], "time": []}, "edge": {"target": [], "time": []}}}, "displayed_time": "17.26", "trialTime": 19559, "trial_type": "mouselab-mdp", "trial_index": 40, "time_elapsed": 1782747, "internal_node_id": "0.0-6.0-1.0-31.0"}}, {"uniqueid": "w59819534:a45428368", "current_trial": 41, "dateTime": 1693581743879, "trialdata": {"revealed_states": [], "clicked_states": [], "num_clicks_accrued": [0, 0, 0, 0, 0, 0, 0, 0, 0, 0, 0, 0, 0], "stateRewards": ["", 1, -3, -6, -5, 47, 80, -29, 11, -71, 10, -29, -2, 3, -6, 12, 2, -78, -6, 8, 34, -16, -5, -1, 3, 3, -13, 84, -36, -62, -3, -27, 66, 15], "withholdReward": false, "trial_id": "mdp_trial_33", "block": "test", "trialIndex": 34, "score": -70, "costs": 0, "simulationMode": [null, null, null, null, null], "rewards": [-1, 3, 3, -13, -62], "path": ["0", "0", "23", "24", "25", "26", "29"], "rt": [2302, 185, 107, 1820, 99], "actions": ["left", "left", "left", "up", "left"], "actionTimes": [6799, 7534, 8169, 10690, 11349], "queries": {"click": {"state": {"target": [], "time": []}, "edge": {"target": [], "time": []}}, "mouseover": {"state": {"target": [], "time": []}, "edge": {"target": [], "time": []}}, "mouseout": {"state": {"target": [], "time": []}, "edge": {"target": [], "time": []}}}, "displayed_time": "18.50", "trialTime": 19809, "trial_type": "mouselab-mdp", "trial_index": 41, "time_elapsed": 1804608, "internal_node_id": "0.0-6.0-1.0-32.0"}}, {"uniqueid": "w59819534:a45428368", "current_trial": 42, "dateTime": 1693581765599, "trialdata": {"revealed_states": [], "clicked_states": [], "num_clicks_accrued": [0, 0, 0, 0, 0, 0, 0, 0, 0, 0, 0, 0, 0], "stateRewards": ["", -1, 4, -3, 3, 57, -61, 5, -11, 23, -1, 34, -2, -4, -1, -13, 27, 38, -36, 4, -45, 21, 88, 1, -2, -1, 1, -69, -5, -78, -12, -9, 38, -54], "withholdReward": false, "trial_id": "mdp_trial_34", "block": "test", "trialIndex": 35, "score": 12, "costs": 0, "simulationMode": [null, null, null, null, null], "rewards": [-1, 4, -3, -11, 23], "path": ["0", "0", "1", "2", "3", "8", "9"], "rt": [807, 41, 1304, 219, 9], "actions": ["up", "up", "up", "left", "up"], "actionTimes": [4482, 5056, 6913, 7697, 8227], "queries": {"click": {"state": {"target": [], "time": []}, "edge": {"target": [], "time": []}}, "mouseover": {"state": {"target": [], "time": []}, "edge": {"target": [], "time": []}}, "mouseout": {"state": {"target": [], "time": []}, "edge": {"target": [], "time": []}}}, "displayed_time": "17.68", "trialTime": 19403, "trial_type": "mouselab-mdp", "trial_index": 42, "time_elapsed": 1826329, "internal_node_id": "0.0-6.0-1.0-33.0"}}, {"uniqueid": "w59819534:a45428368", "current_trial": 43, "dateTime": 1693581786340, "trialdata": {"revealed_states": [], "clicked_states": [], "num_clicks_accrued": [0, 0, 0, 0, 0, 0, 0, 0, 0, 0, 0, 0, 0], "stateRewards": ["", -1, -2, 8, -6, -79, -6, 87, 9, -5, -66, -38, 2, 2, 5, -6, -82, 74, 85, -8, 67, -30, -15, 1, -2, -2, -2, 87, 64, 49, 7, 2, -38, -9], "withholdReward": false, "trial_id": "mdp_trial_35", "block": "test", "trialIndex": 36, "score": -79, "costs": 0, "simulationMode": [null, null, null, null, null], "rewards": [2, 2, 5, -6, -82], "path": ["0", "0", "12", "13", "14", "15", "16"], "rt": [2339, 185, 235, 1352, 133], "actions": ["right", "right", "right", "up", "up"], "actionTimes": [5275, 5973, 6722, 8600, 9274], "queries": {"click": {"state": {"target": [], "time": []}, "edge": {"target": [], "time": []}}, "mouseover": {"state": {"target": [], "time": []}, "edge": {"target": [], "time": []}}, "mouseout": {"state": {"target": [], "time": []}, "edge": {"target": [], "time": []}}}, "displayed_time": "16.94", "trialTime": 18501, "trial_type": "mouselab-mdp", "trial_index": 43, "time_elapsed": 1847068, "internal_node_id": "0.0-6.0-1.0-34.0"}}, {"uniqueid": "w59819534:a45428368", "current_trial": 44, "dateTime": 1693581808000, "trialdata": {"revealed_states": [], "clicked_states": [], "num_clicks_accrued": [0, 0, 0, 0, 0, 0, 0, 0, 0, 0, 0, 0, 0], "stateRewards": ["", 2, -3, -5, 5, 11, -9, -33, 6, 67, 6, -30, -1, -2, -6, 13, 55, 13, 72, -14, 75, 21, -66, -2, -4, 6, 15, -1, -35, 60, 2, 51, -73, 12], "withholdReward": false, "trial_id": "mdp_trial_36", "block": "test", "trialIndex": 37, "score": 53, "costs": 0, "simulationMode": [null, null, null, null, null], "rewards": [-2, -4, 6, 2, 51], "path": ["0", "0", "23", "24", "25", "30", "31"], "rt": [2704, 33, 12, 187, 504], "actions": ["left", "left", "left", "down", "right"], "actionTimes": [5947, 6501, 7114, 7845, 8904], "queries": {"click": {"state": {"target": [], "time": []}, "edge": {"target": [], "time": []}}, "mouseover": {"state": {"target": [], "time": []}, "edge": {"target": [], "time": []}}, "mouseout": {"state": {"target": [], "time": []}, "edge": {"target": [], "time": []}}}, "displayed_time": "17.25", "trialTime": 19041, "trial_type": "mouselab-mdp", "trial_index": 44, "time_elapsed": 1868727, "internal_node_id": "0.0-6.0-1.0-35.0"}}, {"uniqueid": "w59819534:a45428368", "current_trial": 45, "dateTime": 1693581835586, "trialdata": {"revealed_states": [], "clicked_states": [], "num_clicks_accrued": [0, 0, 0, 0, 0, 0, 0, 0, 0, 0, 0, 0, 0], "stateRewards": ["", -2, 2, 2, -6, 9, 37, 50, -13, -7, -18, -75, -2, -4, 4, 7, 23, -57, -66, -7, -81, -48, -76, 1, 1, -8, 1, 51, -2, 70, 14, 59, 71, -37], "withholdReward": false, "trial_id": "mdp_trial_37", "block": "test", "trialIndex": 38, "score": 33, "costs": 0, "simulationMode": [null, null, null, null, null], "rewards": [-2, 2, 2, -6, 37], "path": ["0", "0", "1", "2", "3", "4", "6"], "rt": [1550, 1351, 8, 1330, 195], "actions": ["up", "up", "up", "right", "right"], "actionTimes": [5440, 10492, 11827, 13984, 14723], "queries": {"click": {"state": {"target": [], "time": []}, "edge": {"target": [], "time": []}}, "mouseover": {"state": {"target": [], "time": []}, "edge": {"target": [], "time": []}}, "mouseout": {"state": {"target": [], "time": []}, "edge": {"target": [], "time": []}}}, "displayed_time": "19.89", "trialTime": 23275, "trial_type": "mouselab-mdp", "trial_index": 45, "time_elapsed": 1896248, "internal_node_id": "0.0-6.0-1.0-36.0"}}, {"uniqueid": "w59819534:a45428368", "current_trial": 46, "dateTime": 1693581878077, "trialdata": {"revealed_states": [], "clicked_states": [], "num_clicks_accrued": [0, 0, 0, 0, 0, 0, 0, 0, 0, 0, 0, 0, 0], "stateRewards": ["", -2, -1, -6, -14, -55, 78, -13, 11, 14, -71, 59, 2, 2, 6, -6, 9, 38, 14, 7, 85, 11, 68, 1, -4, -1, -3, -63, -85, 9, -2, 63, -86, -10], "withholdReward": false, "trial_id": "mdp_trial_38", "block": "test", "trialIndex": 39, "score": -36, "costs": 0, "simulationMode": [null, null, null, null, null], "rewards": [-2, -1, -6, -14, -13], "path": ["0", "0", "1", "2", "3", "4", "7"], "rt": [6339, 209, 198, 1019, 753], "actions": ["up", "up", "up", "right", "down"], "actionTimes": [13810, 14732, 16209, 18656, 19963], "queries": {"click": {"state": {"target": [], "time": []}, "edge": {"target": [], "time": []}}, "mouseover": {"state": {"target": [], "time": []}, "edge": {"target": [], "time": []}}, "mouseout": {"state": {"target": ["0"], "time": [1283]}, "edge": {"target": [], "time": []}}}, "displayed_time": "21.48", "trialTime": 23720, "trial_type": "mouselab-mdp", "trial_index": 46, "time_elapsed": 1938805, "internal_node_id": "0.0-6.0-1.0-37.0"}}, {"uniqueid": "w59819534:a45428368", "current_trial": 47, "dateTime": 1693581903386, "trialdata": {"revealed_states": [], "clicked_states": [], "num_clicks_accrued": [0, 0, 0, 0, 0, 0, 0, 0, 0, 0, 0, 0, 0], "stateRewards": ["", -2, -4, 6, 14, -34, 49, 36, -8, -3, 32, -4, 1, -2, 1, -8, -20, -71, -57, -7, -86, -62, -16, -2, -3, -5, 11, 23, -21, 53, 5, -5, 85, 73], "withholdReward": false, "trial_id": "mdp_trial_39", "block": "test", "trialIndex": 40, "score": -10, "costs": 0, "simulationMode": [null, null, null, null, null], "rewards": [-2, -3, -5, 5, -5], "path": ["0", "0", "23", "24", "25", "30", "31"], "rt": [1584, 217, 87, 319, 10], "actions": ["left", "left", "left", "down", "right"], "actionTimes": [6123, 6876, 7504, 8340, 8893], "queries": {"click": {"state": {"target": [], "time": []}, "edge": {"target": [], "time": []}}, "mouseover": {"state": {"target": [], "time": []}, "edge": {"target": [], "time": []}}, "mouseout": {"state": {"target": [], "time": []}, "edge": {"target": [], "time": []}}}, "displayed_time": "18.59", "trialTime": 21456, "trial_type": "mouselab-mdp", "trial_index": 47, "time_elapsed": 1964114, "internal_node_id": "0.0-6.0-1.0-38.0"}}, {"uniqueid": "w59819534:a45428368", "current_trial": 48, "dateTime": 1693581926592, "trialdata": {"revealed_states": [], "clicked_states": [], "num_clicks_accrued": [0, 0, 0, 0, 0, 0, 0, 0, 0, 0, 0, 0, 0], "stateRewards": ["", 2, -1, 4, -9, -43, 7, 54, -13, 38, -40, -83, -1, 2, -8, -10, 34, -33, 11, -14, -79, 65, 26, 1, 2, 4, 10, 21, 1, 86, 4, -53, 28, -29], "withholdReward": false, "trial_id": "mdp_trial_40", "block": "test", "trialIndex": 41, "score": 44, "costs": 0, "simulationMode": [null, null, null, null, null], "rewards": [-1, 2, -8, -14, 65], "path": ["0", "0", "12", "13", "14", "19", "21"], "rt": [1338, 80, 117, 1770, 320], "actions": ["right", "right", "right", "down", "down"], "actionTimes": [4453, 5078, 5741, 8209, 9043], "queries": {"click": {"state": {"target": [], "time": []}, "edge": {"target": [], "time": []}}, "mouseover": {"state": {"target": [], "time": []}, "edge": {"target": [], "time": []}}, "mouseout": {"state": {"target": ["0", "12", "14"], "time": [17066, 17126, 17240]}, "edge": {"target": [], "time": []}}}, "displayed_time": "17.18", "trialTime": 20944, "trial_type": "mouselab-mdp", "trial_index": 48, "time_elapsed": 1987322, "internal_node_id": "0.0-6.0-1.0-39.0"}}, {"uniqueid": "w59819534:a45428368", "current_trial": 49, "dateTime": 1693582050918, "trialdata": {"rt": 120336, "response": {"Q0": "$-2 to $2", "Q1": "$-4 to $4", "Q2": "$-88 to $88", "Q3": "The cost for clicking on nodes varied between nodes.", "Q4": "Very motivated"}, "question_order": [0, 1, 2, 3, 4], "trial_id": "final_quiz_control", "trial_type": "survey-multi-choice", "trial_index": 49, "time_elapsed": 2111370, "internal_node_id": "0.0-6.0-2.0"}}, {"uniqueid": "w59819534:a45428368", "current_trial": 50, "dateTime": 1693582744615, "trialdata": {"rt": 680625, "response": {"Q0": "used strategyapproach", "Q1": "no", "Q2": "eas"}, "trial_id": "self_report_control", "trial_type": "survey-text", "trial_index": 50, "time_elapsed": 2805346, "internal_node_id": "0.0-6.0-3.0"}}, {"uniqueid": "w59819534:a45428368", "current_trial": 51, "dateTime": 1693582801179, "trialdata": {"rt": 56291, "response": {"gender": "female", "age": "25", "colorblind": "0", "effort": "0"}, "trial_type": "survey-html-form", "trial_index": 51, "time_elapsed": 2861910, "internal_node_id": "0.0-6.0-4.0"}}, {"uniqueid": "w59819534:a45428368", "current_trial": 52, "dateTime": 1693582946255, "trialdata": {"rt": 145033, "response": {"Q0": "no", "Q1": "no", "Q2": "no"}, "trial_type": "survey-text", "trial_index": 52, "time_elapsed": 3006985, "internal_node_id": "0.0-6.0-5.0"}}, {"uniqueid": "w59819534:a45428368", "current_trial": 53, "dateTime": 1693582980220, "trialdata": {"rt": 32921, "stimulus": "<h1>Completion Code Instructions (1/2)</h1>\n<br><br><br><br>\nYou have reached the end of the experiment! The completion code consists of two parts: (1) a code with 2 characters (2) a code with 6 characters. On this page, you will receive the second part of the code. The first part of the completion code will be on the next page.\n<br><br>\nThe second part of your completion code is: <b>EWEK22</b>\n<br><br>\nPlease note this down. Then, press 'Next' in order to find the first part of your completion code. Once the data has been saved, you will receive this code either in this window or in the original browser window where you started the experiment.\n <br><br>\n<h2 style='color: red;'>Note: this is <strong>NOT</strong> the full completion code. Copy this down and click 'Next' to get the full completion code on the next page.</h2>", "response": 0, "trial_type": "html-button-response", "trial_index": 53, "time_elapsed": 3040951, "internal_node_id": "0.0-6.0-6.0"}}, {"uniqueid": "w59819534:a45428368", "current_trial": 54, "dateTime": 1693582981271, "trialdata": {"success": true, "trial_type": "fullscreen", "trial_index": 54, "time_elapsed": 3042002, "internal_node_id": "0.0-7.0"}}], "questiondata": {"params": {"CODE": "C6DMOQA6", "MIN_TIME": 14, "inspectCost": 1, "startTime": "Fri Sep 01 2023 16:52:15 GMT+0200 (South Africa Standard Time)", "bonusRate": 0.002, "variance": "1_2_4_8_44", "branching": "31123"}, "final_score": 373}, "eventdata": [{"eventtype": "initialized", "value": null, "timestamp": 1693579934091, "interval": 0}, {"eventtype": "window_resize", "value": [1024, 654], "timestamp": 1693579934091, "interval": 0}, {"eventtype": "window_resize", "value": [1024, 654], "timestamp": 1693579935434, "interval": 1343}, {"eventtype": "window_resize", "value": [1366, 768], "timestamp": 1693579952875, "interval": 17441}, {"eventtype": "focus", "value": "off", "timestamp": 1693582108746, "interval": 2155871}, {"eventtype": "focus", "value": "on", "timestamp": 1693582108879, "interval": 133}, {"eventtype": "window_resize", "value": [1024, 654], "timestamp": 1693582129127, "interval": 20248}, {"eventtype": "focus", "value": "off", "timestamp": 1693582215121, "interval": 85994}, {"eventtype": "window_resize", "value": [1366, 670], "timestamp": 1693582216326, "interval": 1205}], "useragent": "Mozilla/5.0 (Windows NT 10.0; Win64; x64) AppleWebKit/537.36 (KHTML, like Gecko) Chrome/116.0.0.0 Safari/537.36", "mode": "live", "id": "w59819534:a45428368", "status": "user data saved", "Beginhit": "2023-09-01 14:52:06.131745", "Beginexp": "2023-09-01 14:52:34.61639", "Endhit": "2023-09-01 15:43:06.157676", "psiturkStatus": 3, "browser": "<redacted>", "platform": "windows", "language": "en-US"}