{"condition": 0, "counterbalance": 0, "assignmentId": "a76627894", "workerId": "w66729892", "hitId": "h82000379", "currenttrial": 55, "bonus": 0, "data": [{"uniqueid": "w66729892:a76627894", "current_trial": 0, "dateTime": 1693483527949, "trialdata": {"success": true, "trial_type": "fullscreen", "trial_index": 0, "time_elapsed": 8873, "internal_node_id": "0.0-0.0"}}, {"uniqueid": "w66729892:a76627894", "current_trial": 1, "dateTime": 1693483576095, "trialdata": {"view_history": [{"page_index": 0, "viewing_time": 48137}], "rt": 48138, "trial_id": "exp_instructions_control", "trial_type": "instructions", "trial_index": 1, "time_elapsed": 57020, "internal_node_id": "0.0-1.0"}}, {"uniqueid": "w66729892:a76627894", "current_trial": 2, "dateTime": 1693483999801, "trialdata": {"view_history": [{"page_index": 0, "viewing_time": 126777}, {"page_index": 1, "viewing_time": 165769}, {"page_index": 2, "viewing_time": 51428}, {"page_index": 3, "viewing_time": 79730}], "rt": 423705, "trial_id": "mouselab_instructions_1_control", "trial_type": "instructions", "trial_index": 2, "time_elapsed": 480726, "internal_node_id": "0.0-2.0-1.0"}}, {"uniqueid": "w66729892:a76627894", "current_trial": 3, "dateTime": 1693484038656, "trialdata": {"revealed_states": [], "clicked_states": ["2", "3", "8", "9"], "num_clicks_accrued": [0, 0, 0, 0, 0, 0, 0, 0, 0, 0, 0, 0, 0], "stateRewards": ["", -10, 10, -10, -10, -10, 10, 10, 10, -10, -10, 10, 10, 10, 10, -10, 10, -10, -10, 10, 10, 10, 10, -10, -10, -10, -10, -10, -10, 10, 10, -10, 10, -10], "withholdReward": false, "trial_id": "practice_1", "block": "test", "trialIndex": 0, "score": -8.5, "costs": -2, "simulationMode": [null, null, null, null, null], "rewards": [-10, 10, -10, 10, -10], "path": ["0", "0", "1", "2", "3", "8", "9"], "rt": [10553, 143, 243, 89, 171], "actions": ["up", "up", "up", "left", "up"], "actionTimes": [12307, 12949, 13715, 14312, 14978], "queries": {"click": {"state": {"target": ["2", "3", "8", "9"], "time": [3477, 5280, 7585, 8603]}, "edge": {"target": [], "time": []}}, "mouseover": {"state": {"target": ["1", "2", "10", "3", "10", "28", "8", "9", "10"], "time": [1787, 2616, 3866, 4614, 5700, 5921, 6848, 7950, 8918]}, "edge": {"target": [], "time": []}}, "mouseout": {"state": {"target": ["0", "1", "2", "10", "3", "3", "10", "28", "8", "9", "8", "10", "3", "2", "1", "0"], "time": [1783, 1897, 3802, 4499, 5335, 5633, 5802, 6794, 7643, 8868, 8901, 8935, 22805, 22889, 27090, 31060]}, "edge": {"target": [], "time": []}}}, "displayed_time": "15.47", "trialTime": 37578, "trial_type": "mouselab-mdp", "trial_index": 3, "time_elapsed": 519579, "internal_node_id": "0.0-2.0-2.0-0.0"}}, {"uniqueid": "w66729892:a76627894", "current_trial": 4, "dateTime": 1693484077928, "trialdata": {"revealed_states": [], "clicked_states": ["24", "1", "12", "13", "14", "19", "20"], "num_clicks_accrued": [0, 0, 0, 0, 0, 0, 0, 0, 0, 0, 0, 0, 0], "stateRewards": ["", -10, -10, -10, 10, 10, -10, 10, 10, 10, -10, 10, 10, -10, -10, 10, 10, 10, -10, 10, 10, 10, -10, -10, -10, -10, 10, 10, 10, 10, 10, 10, -10, 10], "withholdReward": false, "trial_id": "practice_2", "block": "test", "trialIndex": 1, "score": 10, "costs": -3.5, "simulationMode": [null, null, null, null, null], "rewards": [10, -10, -10, 10, 10], "path": ["0", "0", "12", "13", "14", "19", "20"], "rt": [21431, 151, 117, 151, 143], "actions": ["right", "right", "right", "down", "right"], "actionTimes": [26863, 27541, 28157, 28809, 29450], "queries": {"click": {"state": {"target": ["24", "1", "12", "13", "14", "19", "20"], "time": [7209, 9942, 12004, 14424, 16435, 19404, 23515]}, "edge": {"target": [], "time": []}}, "mouseover": {"state": {"target": ["23", "24", "23", "1", "1", "12", "13", "13", "18", "13", "14", "19", "15", "14", "13", "12", "0", "22", "21", "20", "21", "22", "0", "0"], "time": [6213, 6594, 8001, 8061, 9378, 11229, 12449, 12999, 13195, 13797, 14782, 17100, 20234, 21532, 21798, 21833, 21882, 22166, 22265, 22884, 24486, 25319, 25371, 25684]}, "edge": {"target": [], "time": []}}, "mouseout": {"state": {"target": ["0", "23", "24", "24", "23", "1", "1", "12", "13", "13", "18", "13", "14", "19", "15", "14", "13", "12", "0", "22", "21", "20", "21", "22", "0", "0"], "time": [1242, 6445, 7260, 7981, 8018, 8545, 10414, 12416, 12515, 13112, 13679, 14481, 16933, 19984, 21385, 21566, 21817, 21853, 22083, 22200, 22651, 24153, 25302, 25335, 25400, 25818]}, "edge": {"target": [], "time": []}}}, "displayed_time": "29.95", "trialTime": 38799, "trial_type": "mouselab-mdp", "trial_index": 4, "time_elapsed": 558852, "internal_node_id": "0.0-2.0-2.0-1.0"}}, {"uniqueid": "w66729892:a76627894", "current_trial": 5, "dateTime": 1693484170563, "trialdata": {"view_history": [{"page_index": 0, "viewing_time": 68046}, {"page_index": 1, "viewing_time": 24580}], "rt": 92626, "trial_id": "mouselab_instructions_2_control", "trial_type": "instructions", "trial_index": 5, "time_elapsed": 651488, "internal_node_id": "0.0-2.0-3.0"}}, {"uniqueid": "w66729892:a76627894", "current_trial": 6, "dateTime": 1693484263027, "trialdata": {"rt": 92458, "response": {"Q0": "The cost for clicking on nodes may vary between nodes.", "Q1": "The better I perform the higher my bonus will be.", "Q2": "No, the amount of cash at each node of the web may be different each time.", "Q3": "To get the highest total score.", "Q4": "Only before moving the spider.", "Q5": "3 seconds"}, "question_order": [0, 1, 2, 3, 4, 5], "correct": {"Q0": "The cost for clicking on nodes may vary between nodes.", "Q1": "The better I perform the higher my bonus will be.", "Q2": "No, the amount of cash at each node of the web may be different each time.", "Q3": "To get the highest total score.", "Q4": "Only before moving the spider.", "Q5": "3 seconds"}, "trial_id": "mouselab_quiz_control", "trial_type": "survey-multi-choice", "trial_index": 6, "time_elapsed": 743952, "internal_node_id": "0.0-2.0-4.0"}}, {"uniqueid": "w66729892:a76627894", "current_trial": 7, "dateTime": 1693484276506, "trialdata": {"rt": 13468, "response": {"Q0": "No"}, "question_order": [0], "trial_id": "repeat_check", "trial_type": "survey-multi-choice", "trial_index": 7, "time_elapsed": 757431, "internal_node_id": "0.0-4.0-0.0"}}, {"uniqueid": "w66729892:a76627894", "current_trial": 8, "dateTime": 1693484298784, "trialdata": {"rt": 22267, "stimulus": "\n<h1> Get ready to start the game! </h1>\n\nThank you for reading the instructions. Get ready start with the 40 rounds of this game.\n<br><br>\nIf you need to take a break, feel free to take one after the end of a round, before continuing to the next one.\n<br><br>\nRemember, the more money the spider gets, the bigger your bonus will be!\n<br><br>\n<div style='text-align: center;'>Press <code>space</code> to begin.</div>\n\n<br><br>\n(If, at any point, the <code>space</code> key does not take you to the next page, click once on the text and try again.)", "response": " ", "trial_id": "mdp_ready", "trial_type": "html-keyboard-response", "trial_index": 8, "time_elapsed": 779708, "internal_node_id": "0.0-6.0-0.0"}}, {"uniqueid": "w66729892:a76627894", "current_trial": 9, "dateTime": 1693484327367, "trialdata": {"revealed_states": [], "clicked_states": ["24", "26", "25", "30", "33"], "num_clicks_accrued": [0, 0, 0, 0, 0, 0, 0, 0, 0, 0, 0, 0, 0], "stateRewards": ["", 1, 1, 6, -14, -40, 37, 16, -13, 33, -68, 49, 2, 4, 3, 6, 55, 27, 32, 10, -65, 20, -87, 2, 1, -6, -5, -42, 12, 29, -8, 16, 76, -33], "withholdReward": false, "trial_id": "mdp_trial_1", "block": "test", "trialIndex": 2, "score": -53, "costs": -7, "simulationMode": [null, null, null, null, null], "rewards": [2, 4, 3, 10, -65], "path": ["0", "0", "12", "13", "14", "19", "20"], "rt": [12528, 173, 384, 5, 161], "actions": ["right", "right", "right", "down", "right"], "actionTimes": [16357, 17047, 17926, 18447, 19121], "queries": {"click": {"state": {"target": ["24", "26", "25", "30", "33"], "time": [5412, 7694, 9318, 11120, 13086]}, "edge": {"target": [], "time": []}}, "mouseover": {"state": {"target": ["23", "24", "23", "26", "25", "27", "29", "30", "33", "12", "0", "0"], "time": [4414, 4699, 5742, 6966, 8152, 9955, 10260, 10320, 11887, 14404, 14639, 15252]}, "edge": {"target": [], "time": []}}, "mouseout": {"state": {"target": ["23", "23", "24", "23", "26", "25", "26", "27", "29", "30", "33", "12", "0", "0"], "time": [536, 4648, 5684, 6635, 8103, 9903, 9940, 9971, 10275, 11772, 13452, 14571, 15168, 15268]}, "edge": {"target": [], "time": []}}}, "displayed_time": "19.63", "trialTime": 28108, "trial_type": "mouselab-mdp", "trial_index": 9, "time_elapsed": 808290, "internal_node_id": "0.0-6.0-1.0-0.0"}}, {"uniqueid": "w66729892:a76627894", "current_trial": 10, "dateTime": 1693484357688, "trialdata": {"revealed_states": [], "clicked_states": ["1", "23", "25", "26", "29"], "num_clicks_accrued": [0, 0, 0, 0, 0, 0, 0, 0, 0, 0, 0, 0, 0], "stateRewards": ["", -1, 1, 6, -6, 70, 66, 67, -16, -75, -35, 37, -1, 4, 4, -6, 47, -9, 63, 15, 21, -63, 13, 1, 3, -6, 10, 79, -29, 18, -15, 9, -67, -19], "withholdReward": false, "trial_id": "mdp_trial_2", "block": "test", "trialIndex": 3, "score": 19, "costs": -7, "simulationMode": [null, null, null, null, null], "rewards": [1, 3, -6, 10, 18], "path": ["0", "0", "23", "24", "25", "26", "29"], "rt": [14712, 30, 57, 226, 1107], "actions": ["left", "left", "left", "up", "left"], "actionTimes": [18490, 19023, 19586, 20317, 21931], "queries": {"click": {"state": {"target": ["1", "23", "25", "26", "29"], "time": [4862, 6783, 9394, 12304, 15524]}, "edge": {"target": [], "time": []}}, "mouseover": {"state": {"target": ["1", "2", "23", "24", "25", "26", "29", "29"], "time": [4280, 5499, 5777, 7352, 7901, 10022, 13842, 14802]}, "edge": {"target": [], "time": []}}, "mouseout": {"state": {"target": ["1", "2", "23", "24", "25", "26", "26", "29", "29", "29", "29"], "time": [5285, 5665, 7271, 7601, 9453, 13088, 13619, 14034, 16054, 17369, 26591]}, "edge": {"target": [], "time": []}}}, "displayed_time": "22.43", "trialTime": 29851, "trial_type": "mouselab-mdp", "trial_index": 10, "time_elapsed": 838612, "internal_node_id": "0.0-6.0-1.0-1.0"}}, {"uniqueid": "w66729892:a76627894", "current_trial": 11, "dateTime": 1693484389279, "trialdata": {"revealed_states": [], "clicked_states": ["1", "2", "3", "8", "11", "10"], "num_clicks_accrued": [0, 0, 0, 0, 0, 0, 0, 0, 0, 0, 0, 0, 0], "stateRewards": ["", 1, 4, -8, -5, -15, -7, 21, 13, -30, 40, -65, 1, 1, 5, -14, 35, 27, -38, -11, 36, -58, -47, -2, 4, -3, 13, -16, -49, 22, 15, -56, -44, -10], "withholdReward": false, "trial_id": "mdp_trial_3", "block": "test", "trialIndex": 4, "score": 41.6, "costs": -8.4, "simulationMode": [null, null, null, null, null], "rewards": [1, 4, -8, 13, 40], "path": ["0", "0", "1", "2", "3", "8", "10"], "rt": [18072, 86, 103, 26, 120], "actions": ["up", "up", "up", "left", "down"], "actionTimes": [21038, 21619, 22220, 22742, 23368], "queries": {"click": {"state": {"target": ["1", "2", "3", "8", "11", "10"], "time": [4623, 6900, 10112, 12330, 15364, 17771]}, "edge": {"target": [], "time": []}}, "mouseover": {"state": {"target": ["1", "2", "3", "8", "4", "4", "4", "11", "10", "8", "9"], "time": [3943, 5109, 7343, 10912, 13313, 13529, 13778, 14559, 16261, 18363, 18437]}, "edge": {"target": [], "time": []}}, "mouseout": {"state": {"target": ["29", "26", "0", "12", "1", "1", "2", "3", "8", "3", "4", "4", "4", "11", "10", "8", "9", "27", "28", "23"], "time": [656, 674, 720, 1022, 1322, 5058, 6949, 10167, 13261, 13296, 13363, 13678, 14393, 15963, 17809, 18398, 20241, 27465, 27549, 28015]}, "edge": {"target": [], "time": []}}}, "displayed_time": "23.88", "trialTime": 31121, "trial_type": "mouselab-mdp", "trial_index": 11, "time_elapsed": 870202, "internal_node_id": "0.0-6.0-1.0-2.0"}}, {"uniqueid": "w66729892:a76627894", "current_trial": 12, "dateTime": 1693484440393, "trialdata": {"revealed_states": [], "clicked_states": ["12", "13", "14", "15", "23", "24", "25", "2", "1", "3", "4", "6", "7", "5", "11", "8"], "num_clicks_accrued": [0, 0, 0, 0, 0, 0, 0, 0, 0, 0, 0, 0, 0], "stateRewards": ["", 2, -1, 3, -12, -83, 6, -33, 9, 28, 24, -50, -2, -1, -2, -5, -87, 37, 82, 12, 80, -5, 10, -2, -3, -6, 9, 22, -1, 16, 9, 77, -62, 58], "withholdReward": false, "trial_id": "mdp_trial_4", "block": "test", "trialIndex": 5, "score": -24.399999999999995, "costs": -22.399999999999995, "simulationMode": [null, null, null, null, null], "rewards": [2, -1, 3, -12, 6], "path": ["0", "0", "1", "2", "3", "4", "6"], "rt": [41136, 360, 76, 98, 106], "actions": ["up", "up", "up", "right", "right"], "actionTimes": [43583, 44444, 45026, 45631, 46240], "queries": {"click": {"state": {"target": ["12", "13", "14", "15", "23", "24", "25", "2", "1", "3", "4", "6", "7", "5", "11", "8"], "time": [3937, 6315, 8684, 11056, 14213, 16522, 18936, 21423, 23597, 25908, 28343, 30614, 33485, 35829, 38915, 41154]}, "edge": {"target": [], "time": []}}, "mouseover": {"state": {"target": ["12", "13", "14", "15", "15", "23", "1", "23", "24", "25", "30", "25", "1", "7", "2", "2", "1", "3", "3", "4", "6", "7", "4", "5", "8", "11", "8", "27"], "time": [3215, 4525, 6786, 9153, 9503, 11719, 12935, 13585, 14821, 17221, 17689, 18286, 19573, 19907, 20240, 20688, 22006, 24307, 25296, 26426, 28982, 31760, 34161, 34302, 38111, 38361, 39579, 42113]}, "edge": {"target": [], "time": []}}, "mouseout": {"state": {"target": ["0", "12", "13", "14", "15", "15", "23", "1", "23", "24", "25", "30", "25", "24", "1", "7", "2", "2", "1", "2", "3", "3", "4", "6", "6", "7", "4", "5", "8", "11", "8", "27", "25", "24"], "time": [1071, 4361, 6755, 9085, 9312, 11605, 12553, 13320, 14704, 17105, 17424, 17911, 19421, 19524, 19592, 19957, 20424, 21856, 23929, 24057, 25024, 25957, 28859, 30658, 31478, 33541, 34214, 36646, 38259, 38970, 41762, 42131, 49481, 49580]}, "edge": {"target": [], "time": []}}}, "displayed_time": "46.73", "trialTime": 50663, "trial_type": "mouselab-mdp", "trial_index": 12, "time_elapsed": 921317, "internal_node_id": "0.0-6.0-1.0-3.0"}}, {"uniqueid": "w66729892:a76627894", "current_trial": 13, "dateTime": 1693484464530, "trialdata": {"revealed_states": [], "clicked_states": ["23", "24", "25", "32"], "num_clicks_accrued": [0, 0, 0, 0, 0, 0, 0, 0, 0, 0, 0, 0, 0], "stateRewards": ["", 2, 3, 8, 14, 69, -27, 17, 2, -71, -65, -10, 2, -3, 7, 8, 65, -10, 65, -12, 73, -12, 13, -2, -2, 6, 10, -79, -69, -18, 10, -85, 67, 74], "withholdReward": false, "trial_id": "mdp_trial_5", "block": "test", "trialIndex": 6, "score": 73.4, "costs": -5.6, "simulationMode": [null, null, null, null, null], "rewards": [-2, -2, 6, 10, 67], "path": ["0", "0", "23", "24", "25", "30", "32"], "rt": [12743, 652, 137, 336, 119], "actions": ["left", "left", "left", "down", "down"], "actionTimes": [15518, 16681, 17332, 18166, 18783], "queries": {"click": {"state": {"target": ["23", "24", "25", "32"], "time": [4275, 6740, 9204, 12026]}, "edge": {"target": [], "time": []}}, "mouseover": {"state": {"target": ["23", "24", "25", "30", "32", "30"], "time": [3651, 4850, 7634, 9835, 10217, 12585]}, "edge": {"target": [], "time": []}}, "mouseout": {"state": {"target": ["23", "23", "24", "25", "30", "32", "30", "14"], "time": [662, 4784, 7414, 9669, 10055, 12081, 20507, 20910]}, "edge": {"target": [], "time": []}}}, "displayed_time": "19.28", "trialTime": 23693, "trial_type": "mouselab-mdp", "trial_index": 13, "time_elapsed": 945453, "internal_node_id": "0.0-6.0-1.0-4.0"}}, {"uniqueid": "w66729892:a76627894", "current_trial": 14, "dateTime": 1693484491236, "trialdata": {"revealed_states": [], "clicked_states": ["19", "13", "12", "14", "20"], "num_clicks_accrued": [0, 0, 0, 0, 0, 0, 0, 0, 0, 0, 0, 0, 0], "stateRewards": ["", 2, 4, 7, 7, -79, -2, -21, -5, -53, 47, -21, 1, -3, -1, 7, 83, 7, 84, -7, 80, -37, 69, 2, -4, 5, 2, 4, -20, -30, 7, 71, 44, -81], "withholdReward": false, "trial_id": "mdp_trial_6", "block": "test", "trialIndex": 7, "score": 63, "costs": -7, "simulationMode": [null, null, null, null, null], "rewards": [1, -3, -1, -7, 80], "path": ["0", "0", "12", "13", "14", "19", "20"], "rt": [15734, 35, 52, 94, 101], "actions": ["right", "right", "right", "down", "right"], "actionTimes": [18440, 18978, 19544, 20153, 20761], "queries": {"click": {"state": {"target": ["19", "13", "12", "14", "20"], "time": [5184, 7445, 9862, 12287, 15294]}, "edge": {"target": [], "time": []}}, "mouseover": {"state": {"target": ["23", "23", "12", "13", "19", "13", "12", "14", "20", "19", "24", "25", "25"], "time": [3400, 3752, 3951, 3988, 4416, 5770, 8088, 10772, 14638, 15658, 15757, 15779, 17187]}, "edge": {"target": [], "time": []}}, "mouseout": {"state": {"target": ["0", "23", "23", "12", "13", "19", "13", "12", "14", "20", "19", "24", "25", "25"], "time": [3255, 3582, 3771, 3969, 4004, 5686, 7486, 10223, 12756, 15641, 15677, 15776, 15809, 17337]}, "edge": {"target": [], "time": []}}}, "displayed_time": "21.26", "trialTime": 26270, "trial_type": "mouselab-mdp", "trial_index": 14, "time_elapsed": 972159, "internal_node_id": "0.0-6.0-1.0-5.0"}}, {"uniqueid": "w66729892:a76627894", "current_trial": 15, "dateTime": 1693484518418, "trialdata": {"revealed_states": [], "clicked_states": ["21"], "num_clicks_accrued": [0, 0, 0, 0, 0, 0, 0, 0, 0, 0, 0, 0, 0], "stateRewards": ["", -2, -3, -7, 7, -54, -69, -4, -14, -77, 22, 40, -2, -1, 5, 6, -35, 50, -60, 10, -28, 75, 57, 1, -4, -2, 2, 68, 34, -18, 12, 3, -21, -43], "withholdReward": false, "trial_id": "mdp_trial_7", "block": "test", "trialIndex": 8, "score": 85.6, "costs": -1.4, "simulationMode": [null, null, null, null, null], "rewards": [-2, -1, 5, 10, 75], "path": ["0", "0", "12", "13", "14", "19", "21"], "rt": [5843, 84, 150, 2, 22], "actions": ["right", "right", "right", "down", "down"], "actionTimes": [8096, 8679, 9328, 9847, 10383], "queries": {"click": {"state": {"target": ["21"], "time": [4560]}, "edge": {"target": [], "time": []}}, "mouseover": {"state": {"target": ["23", "30", "31", "20", "21", "20"], "time": [2857, 2987, 3109, 3688, 3955, 5023]}, "edge": {"target": [], "time": []}}, "mouseout": {"state": {"target": ["0", "23", "30", "31", "20", "21", "20", "17", "15"], "time": [789, 2875, 3106, 3123, 3772, 4874, 7074, 22711, 22747]}, "edge": {"target": [], "time": []}}}, "displayed_time": "16.26", "trialTime": 26719, "trial_type": "mouselab-mdp", "trial_index": 15, "time_elapsed": 999342, "internal_node_id": "0.0-6.0-1.0-6.0"}}, {"uniqueid": "w66729892:a76627894", "current_trial": 16, "dateTime": 1693484538229, "trialdata": {"revealed_states": [], "clicked_states": ["33", "32"], "num_clicks_accrued": [0, 0, 0, 0, 0, 0, 0, 0, 0, 0, 0, 0, 0], "stateRewards": ["", -2, -1, -4, -15, -14, -67, 32, -3, -59, 63, 31, 2, -1, -7, -15, 71, -66, -27, -3, -54, -39, 72, 2, 1, 1, -13, 77, -40, 35, -9, 35, 75, 57], "withholdReward": false, "trial_id": "mdp_trial_8", "block": "test", "trialIndex": 9, "score": 67.2, "costs": -2.8, "simulationMode": [null, null, null, null, null], "rewards": [2, 1, 1, -9, 75], "path": ["0", "0", "23", "24", "25", "30", "32"], "rt": [8171, 7, 94, 579, 71], "actions": ["left", "left", "left", "down", "down"], "actionTimes": [10624, 11138, 11741, 12844, 13436], "queries": {"click": {"state": {"target": ["33", "32"], "time": [4640, 8139]}, "edge": {"target": [], "time": []}}, "mouseover": {"state": {"target": ["23", "24", "32", "32", "33", "32"], "time": [2959, 3075, 3160, 3591, 4158, 5344]}, "edge": {"target": [], "time": []}}, "mouseout": {"state": {"target": ["23", "24", "32", "32", "33", "33", "32"], "time": [2992, 3110, 3177, 3656, 4693, 5177, 8592]}, "edge": {"target": [], "time": []}}}, "displayed_time": "16.46", "trialTime": 19319, "trial_type": "mouselab-mdp", "trial_index": 16, "time_elapsed": 1019151, "internal_node_id": "0.0-6.0-1.0-7.0"}}, {"uniqueid": "w66729892:a76627894", "current_trial": 17, "dateTime": 1693484571683, "trialdata": {"revealed_states": [], "clicked_states": ["32", "33", "20", "21", "22", "17", "16"], "num_clicks_accrued": [0, 0, 0, 0, 0, 0, 0, 0, 0, 0, 0, 0, 0], "stateRewards": ["", 2, 3, 3, 10, 19, -21, 6, 9, 54, 68, 16, 2, 2, -6, -8, 40, -2, -75, -2, -42, 55, 59, -1, 2, 4, -14, 11, -34, -30, -6, 61, -53, 13], "withholdReward": false, "trial_id": "mdp_trial_9", "block": "test", "trialIndex": 10, "score": 45.2, "costs": -9.8, "simulationMode": [null, null, null, null, null], "rewards": [2, 2, -6, -2, 59], "path": ["0", "0", "12", "13", "14", "19", "22"], "rt": [20168, 75, 164, 39, 116], "actions": ["right", "right", "right", "down", "left"], "actionTimes": [27481, 28081, 28769, 29309, 29939], "queries": {"click": {"state": {"target": ["32", "33", "20", "21", "22", "17", "16"], "time": [9728, 12081, 14411, 16653, 19188, 22377, 25198]}, "edge": {"target": [], "time": []}}, "mouseover": {"state": {"target": ["23", "30", "32", "32", "9", "11", "27", "33", "33", "24", "12", "20", "21", "22", "17", "16"], "time": [7364, 7995, 8260, 8594, 10247, 10431, 10453, 10520, 11315, 12430, 12482, 12914, 15431, 17533, 20350, 24599]}, "edge": {"target": [], "time": []}}, "mouseout": {"state": {"target": ["19", "20", "20", "12", "0", "23", "30", "32", "32", "9", "11", "27", "33", "33", "24", "12", "20", "21", "22", "17", "16"], "time": [1059, 1759, 2376, 3843, 5858, 7380, 8242, 8279, 9785, 10396, 10450, 10466, 10545, 12412, 12451, 12498, 14849, 17133, 19599, 22433, 25429]}, "edge": {"target": [], "time": []}}}, "displayed_time": "30.45", "trialTime": 32951, "trial_type": "mouselab-mdp", "trial_index": 17, "time_elapsed": 1052605, "internal_node_id": "0.0-6.0-1.0-8.0"}}, {"uniqueid": "w66729892:a76627894", "current_trial": 18, "dateTime": 1693484597871, "trialdata": {"revealed_states": [], "clicked_states": ["29", "27", "16", "17", "20"], "num_clicks_accrued": [0, 0, 0, 0, 0, 0, 0, 0, 0, 0, 0, 0, 0], "stateRewards": ["", 1, 1, 7, -11, 80, -20, -53, -14, 3, 31, 27, 2, -1, -8, -10, 33, 41, 86, 9, 78, -37, -13, -1, -2, -6, -8, -80, 75, 4, -16, -49, -74, 24], "withholdReward": false, "trial_id": "mdp_trial_10", "block": "test", "trialIndex": 11, "score": 73, "costs": -7, "simulationMode": [null, null, null, null, null], "rewards": [2, -1, -8, 9, 78], "path": ["0", "0", "12", "13", "14", "19", "20"], "rt": [16929, 29, 120, 52, 86], "actions": ["right", "right", "right", "down", "right"], "actionTimes": [19664, 20196, 20837, 21385, 21984], "queries": {"click": {"state": {"target": ["29", "27", "16", "17", "20"], "time": [5649, 7855, 11581, 14033, 16581]}, "edge": {"target": [], "time": []}}, "mouseover": {"state": {"target": ["24", "25", "33", "29", "27", "26", "24", "23", "17", "17", "16", "17", "20", "14", "18"], "time": [2763, 2793, 4023, 4972, 6643, 9551, 9875, 9895, 9977, 10309, 10940, 12111, 14964, 17197, 17830]}, "edge": {"target": [], "time": []}}, "mouseout": {"state": {"target": ["12", "0", "1", "24", "25", "33", "29", "27", "27", "26", "24", "23", "17", "17", "16", "17", "20", "14", "18", "0"], "time": [638, 857, 1386, 2778, 2823, 4522, 6192, 7894, 9531, 9576, 9893, 9911, 9996, 10326, 11910, 14547, 17129, 17314, 18776, 25113]}, "edge": {"target": [], "time": []}}}, "displayed_time": "22.50", "trialTime": 25694, "trial_type": "mouselab-mdp", "trial_index": 18, "time_elapsed": 1078794, "internal_node_id": "0.0-6.0-1.0-9.0"}}, {"uniqueid": "w66729892:a76627894", "current_trial": 19, "dateTime": 1693484629703, "trialdata": {"revealed_states": [], "clicked_states": ["33", "32", "31", "21", "20", "22", "16", "17", "18"], "num_clicks_accrued": [0, 0, 0, 0, 0, 0, 0, 0, 0, 0, 0, 0, 0], "stateRewards": ["", 1, 2, -3, -5, 66, -50, -47, -5, 1, 28, -27, 1, 1, -1, -6, 37, -25, 56, 1, -82, -66, -40, -1, -4, -7, 15, -61, -23, 26, 10, 14, -56, 29], "withholdReward": false, "trial_id": "mdp_trial_11", "block": "test", "trialIndex": 12, "score": 38.4, "costs": -12.600000000000001, "simulationMode": [null, null, null, null, null], "rewards": [1, 1, -1, -6, 56], "path": ["0", "0", "12", "13", "14", "15", "18"], "rt": [23530, 66, 175, 111, 72], "actions": ["right", "right", "right", "up", "left"], "actionTimes": [26092, 26664, 27340, 27959, 28554], "queries": {"click": {"state": {"target": ["33", "32", "31", "21", "20", "22", "16", "17", "18"], "time": [4453, 6770, 9126, 11460, 13673, 16033, 18187, 20507, 23096]}, "edge": {"target": [], "time": []}}, "mouseover": {"state": {"target": ["23", "24", "25", "30", "33", "32", "22", "19", "20", "21", "21", "31", "22", "19", "21", "20", "20", "19", "22", "15", "16", "17", "18"], "time": [3307, 3372, 3585, 3668, 3902, 5372, 7378, 7401, 7431, 7707, 7940, 8470, 9491, 9527, 9975, 11859, 12142, 14094, 14342, 16465, 17026, 19043, 22409]}, "edge": {"target": [], "time": []}}, "mouseout": {"state": {"target": ["1", "0", "23", "24", "25", "30", "33", "33", "32", "22", "19", "20", "21", "21", "31", "22", "19", "21", "20", "20", "20", "19", "22", "15", "16", "17", "17", "18"], "time": [809, 1101, 3354, 3453, 3620, 3719, 4501, 5073, 7272, 7398, 7416, 7522, 7806, 7957, 9390, 9512, 9559, 11757, 11925, 13731, 14076, 14277, 16306, 16498, 18477, 20562, 21377, 23496]}, "edge": {"target": [], "time": []}}}, "displayed_time": "29.05", "trialTime": 31344, "trial_type": "mouselab-mdp", "trial_index": 19, "time_elapsed": 1110625, "internal_node_id": "0.0-6.0-1.0-10.0"}}, {"uniqueid": "w66729892:a76627894", "current_trial": 20, "dateTime": 1693484656430, "trialdata": {"revealed_states": [], "clicked_states": ["9", "11", "10", "7", "6", "5"], "num_clicks_accrued": [0, 0, 0, 0, 0, 0, 0, 0, 0, 0, 0, 0, 0], "stateRewards": ["", 1, 1, 1, 15, -76, 52, -32, 14, -57, 37, 49, 1, -4, -3, 6, 83, -76, 25, 9, 36, -1, -17, -1, 4, 4, -2, -22, -21, 58, -15, -57, 49, -24], "withholdReward": false, "trial_id": "mdp_trial_12", "block": "test", "trialIndex": 13, "score": 61.6, "costs": -8.4, "simulationMode": [null, null, null, null, null], "rewards": [1, 1, 1, 15, 52], "path": ["0", "0", "1", "2", "3", "4", "6"], "rt": [17885, 556, 180, 99, 63], "actions": ["up", "up", "up", "right", "right"], "actionTimes": [19958, 21029, 21722, 22322, 22886], "queries": {"click": {"state": {"target": ["9", "11", "10", "7", "6", "5"], "time": [3812, 6134, 8758, 11060, 13300, 16461]}, "edge": {"target": [], "time": []}}, "mouseover": {"state": {"target": ["0", "23", "10", "3", "9", "11", "10", "7", "6", "5", "5"], "time": [2415, 2479, 2563, 2613, 3145, 4530, 8169, 9767, 11418, 15468, 15816]}, "edge": {"target": [], "time": []}}, "mouseout": {"state": {"target": ["0", "0", "23", "10", "3", "9", "11", "10", "7", "6", "5", "5"], "time": [845, 2432, 2514, 2583, 2647, 4382, 6583, 8809, 11301, 13653, 15500, 16753]}, "edge": {"target": [], "time": []}}}, "displayed_time": "23.39", "trialTime": 26237, "trial_type": "mouselab-mdp", "trial_index": 20, "time_elapsed": 1137353, "internal_node_id": "0.0-6.0-1.0-11.0"}}, {"uniqueid": "w66729892:a76627894", "current_trial": 21, "dateTime": 1693484677696, "trialdata": {"revealed_states": [], "clicked_states": ["33", "32", "31"], "num_clicks_accrued": [0, 0, 0, 0, 0, 0, 0, 0, 0, 0, 0, 0, 0], "stateRewards": ["", -1, 3, -7, 16, -32, -74, -48, 2, 10, 15, -30, 1, 1, -2, 10, 12, -83, 67, 13, -66, 47, 65, -2, 4, 2, -14, -8, -57, 24, 9, 65, 12, 46], "withholdReward": false, "trial_id": "mdp_trial_13", "block": "test", "trialIndex": 14, "score": 73.8, "costs": -4.199999999999999, "simulationMode": [null, null, null, null, null], "rewards": [-2, 4, 2, 9, 65], "path": ["0", "0", "23", "24", "25", "30", "31"], "rt": [10327, 31, 49, 55, 131], "actions": ["left", "left", "left", "down", "right"], "actionTimes": [14338, 14866, 15415, 15971, 16600], "queries": {"click": {"state": {"target": ["33", "32", "31"], "time": [6938, 9243, 11536]}, "edge": {"target": [], "time": []}}, "mouseover": {"state": {"target": ["23", "23", "23", "30", "33", "32", "31", "23", "23", "31", "22"], "time": [4028, 4330, 5528, 5893, 6310, 7664, 9581, 9617, 9851, 10098, 12767]}, "edge": {"target": [], "time": []}}, "mouseout": {"state": {"target": ["30", "24", "23", "23", "23", "23", "30", "33", "32", "31", "23", "23", "31"], "time": [2108, 2126, 2531, 4083, 4377, 5659, 6226, 7464, 9307, 9601, 9665, 9916, 11591]}, "edge": {"target": [], "time": []}}}, "displayed_time": "18.01", "trialTime": 20760, "trial_type": "mouselab-mdp", "trial_index": 21, "time_elapsed": 1158619, "internal_node_id": "0.0-6.0-1.0-12.0"}}, {"uniqueid": "w66729892:a76627894", "current_trial": 22, "dateTime": 1693484697474, "trialdata": {"revealed_states": [], "clicked_states": ["31", "33", "32"], "num_clicks_accrued": [0, 0, 0, 0, 0, 0, 0, 0, 0, 0, 0, 0, 0], "stateRewards": ["", 1, 1, -6, -2, 7, 77, 3, 16, -16, 66, 31, -1, 3, -8, -6, 33, -50, -48, 7, -60, -66, 36, 2, -3, 3, -7, -12, -61, -79, -4, 8, 74, -70], "withholdReward": false, "trial_id": "mdp_trial_14", "block": "test", "trialIndex": 15, "score": 67.8, "costs": -4.199999999999999, "simulationMode": [null, null, null, null, null], "rewards": [2, -3, 3, -4, 74], "path": ["0", "0", "23", "24", "25", "30", "32"], "rt": [9559, 67, 75, 445, 60], "actions": ["left", "left", "left", "down", "down"], "actionTimes": [12764, 13356, 13932, 14922, 15502], "queries": {"click": {"state": {"target": ["31", "33", "32"], "time": [5477, 7729, 9945]}, "edge": {"target": [], "time": []}}, "mouseover": {"state": {"target": ["23", "24", "33", "30", "31", "30", "33", "32", "19", "21"], "time": [3969, 4016, 4316, 4633, 4933, 6066, 6256, 8405, 10808, 11413]}, "edge": {"target": [], "time": []}}, "mouseout": {"state": {"target": ["12", "23", "24", "33", "30", "31", "30", "33", "32", "19", "21"], "time": [1432, 3986, 4167, 4583, 4765, 6024, 6171, 8255, 10489, 11250, 12152]}, "edge": {"target": [], "time": []}}}, "displayed_time": "17.20", "trialTime": 19269, "trial_type": "mouselab-mdp", "trial_index": 22, "time_elapsed": 1178397, "internal_node_id": "0.0-6.0-1.0-13.0"}}, {"uniqueid": "w66729892:a76627894", "current_trial": 23, "dateTime": 1693484718624, "trialdata": {"revealed_states": [], "clicked_states": ["21", "20", "22", "32"], "num_clicks_accrued": [0, 0, 0, 0, 0, 0, 0, 0, 0, 0, 0, 0, 0], "stateRewards": ["", 1, -2, -3, 14, -42, -87, -37, -11, -50, 33, -44, -2, 4, -7, 13, 48, -75, -66, 12, 23, -2, 82, 1, -4, 3, 12, 51, -15, -26, -11, -52, -29, 82], "withholdReward": false, "trial_id": "mdp_trial_15", "block": "test", "trialIndex": 16, "score": 83.4, "costs": -5.6, "simulationMode": [null, null, null, null, null], "rewards": [-2, 4, -7, 12, 82], "path": ["0", "0", "12", "13", "14", "19", "22"], "rt": [10619, 77, 114, 31, 120], "actions": ["right", "right", "right", "down", "left"], "actionTimes": [14372, 14957, 15595, 16129, 16751], "queries": {"click": {"state": {"target": ["21", "20", "22", "32"], "time": [5809, 8051, 10228, 12515]}, "edge": {"target": [], "time": []}}, "mouseover": {"state": {"target": ["21", "19", "20", "19", "22", "32"], "time": [5207, 6577, 6778, 8462, 8515, 11249]}, "edge": {"target": [], "time": []}}, "mouseout": {"state": {"target": ["0", "1", "21", "19", "20", "19", "22", "32"], "time": [1006, 1171, 6378, 6645, 8109, 8478, 10630, 18580]}, "edge": {"target": [], "time": []}}}, "displayed_time": "17.76", "trialTime": 20655, "trial_type": "mouselab-mdp", "trial_index": 23, "time_elapsed": 1199547, "internal_node_id": "0.0-6.0-1.0-14.0"}}, {"uniqueid": "w66729892:a76627894", "current_trial": 24, "dateTime": 1693484737918, "trialdata": {"revealed_states": [], "clicked_states": ["33", "31", "32"], "num_clicks_accrued": [0, 0, 0, 0, 0, 0, 0, 0, 0, 0, 0, 0, 0], "stateRewards": ["", -2, -1, -6, -14, -55, 78, -13, 11, 14, -71, 59, 2, 2, 6, -6, 9, 38, 14, 7, 85, 11, 68, 1, -4, -1, -3, -63, -85, 9, -2, 63, -86, -10], "withholdReward": false, "trial_id": "mdp_trial_16", "block": "test", "trialIndex": 17, "score": 52.8, "costs": -4.199999999999999, "simulationMode": [null, null, null, null, null], "rewards": [1, -4, -1, -2, 63], "path": ["0", "0", "23", "24", "25", "30", "31"], "rt": [9329, 93, 89, 36, 156], "actions": ["left", "left", "left", "down", "right"], "actionTimes": [12002, 12607, 13203, 13734, 14388], "queries": {"click": {"state": {"target": ["33", "31", "32"], "time": [4878, 7101, 9645]}, "edge": {"target": [], "time": []}}, "mouseover": {"state": {"target": ["23", "24", "30", "33", "30", "31", "32", "32", "32"], "time": [3360, 3400, 3539, 4390, 5410, 5568, 7678, 7964, 8650]}, "edge": {"target": [], "time": []}}, "mouseout": {"state": {"target": ["0", "23", "24", "30", "33", "30", "31", "32", "32", "32"], "time": [1392, 3380, 3414, 3706, 4933, 5477, 7595, 7744, 8093, 9706]}, "edge": {"target": [], "time": []}}}, "displayed_time": "16.68", "trialTime": 18773, "trial_type": "mouselab-mdp", "trial_index": 24, "time_elapsed": 1218841, "internal_node_id": "0.0-6.0-1.0-15.0"}}, {"uniqueid": "w66729892:a76627894", "current_trial": 25, "dateTime": 1693484757579, "trialdata": {"revealed_states": [], "clicked_states": ["31", "33"], "num_clicks_accrued": [0, 0, 0, 0, 0, 0, 0, 0, 0, 0, 0, 0, 0], "stateRewards": ["", 1, 2, 3, 16, 63, -25, 16, -4, -14, 82, -66, -1, -3, -3, -11, -14, 19, 46, 3, -34, -82, 66, -2, -3, 4, -5, -63, 77, -37, -1, -45, -41, 84], "withholdReward": false, "trial_id": "mdp_trial_17", "block": "test", "trialIndex": 18, "score": 79.2, "costs": -2.8, "simulationMode": [null, null, null, null, null], "rewards": [-2, -3, 4, -1, 84], "path": ["0", "0", "23", "24", "25", "30", "33"], "rt": [6715, 16, 41, 38, 68], "actions": ["left", "left", "left", "down", "left"], "actionTimes": [9729, 10251, 10824, 11371, 11952], "queries": {"click": {"state": {"target": ["31", "33"], "time": [4553, 6951]}, "edge": {"target": [], "time": []}}, "mouseover": {"state": {"target": ["23", "24", "31", "30", "33", "32"], "time": [3629, 3797, 3946, 4916, 5015, 7666]}, "edge": {"target": [], "time": []}}, "mouseout": {"state": {"target": ["0", "23", "24", "31", "30", "33", "32", "33", "33"], "time": [1509, 3713, 3846, 4881, 4951, 7349, 12970, 17634, 17817]}, "edge": {"target": [], "time": []}}}, "displayed_time": "17.02", "trialTime": 19118, "trial_type": "mouselab-mdp", "trial_index": 25, "time_elapsed": 1238502, "internal_node_id": "0.0-6.0-1.0-16.0"}}, {"uniqueid": "w66729892:a76627894", "current_trial": 26, "dateTime": 1693484778796, "trialdata": {"revealed_states": [], "clicked_states": ["33", "31", "32", "20"], "num_clicks_accrued": [0, 0, 0, 0, 0, 0, 0, 0, 0, 0, 0, 0, 0], "stateRewards": ["", 1, -1, 8, 4, 76, -33, -17, -3, -1, -54, -74, -2, 2, -5, 13, -51, 63, 83, 1, 84, 29, -36, 2, -1, 7, -12, -10, -44, -43, -14, 8, -69, 19], "withholdReward": false, "trial_id": "mdp_trial_18", "block": "test", "trialIndex": 19, "score": 74.4, "costs": -5.6, "simulationMode": [null, null, null, null, null], "rewards": [-2, 2, -5, 1, 84], "path": ["0", "0", "12", "13", "14", "19", "20"], "rt": [12418, 107, 13, 53, 165], "actions": ["right", "right", "right", "down", "right"], "actionTimes": [15711, 16329, 16835, 17423, 18087], "queries": {"click": {"state": {"target": ["33", "31", "32", "20"], "time": [5183, 7520, 10775, 13034]}, "edge": {"target": [], "time": []}}, "mouseover": {"state": {"target": ["23", "24", "25", "33", "30", "31", "32", "22", "19", "20", "20", "32", "22", "19", "20", "19", "22", "22"], "time": [3948, 3986, 4030, 4629, 5699, 6116, 8301, 9514, 9536, 9567, 9864, 10198, 11135, 11157, 11189, 13653, 13685, 14042]}, "edge": {"target": [], "time": []}}, "mouseout": {"state": {"target": ["0", "23", "24", "25", "33", "30", "31", "32", "22", "19", "20", "20", "32", "22", "19", "20", "19", "22", "22"], "time": [1062, 3967, 4000, 4313, 5666, 5734, 8051, 9406, 9531, 9550, 9614, 9881, 11018, 11151, 11172, 13084, 13668, 13737, 19406]}, "edge": {"target": [], "time": []}}}, "displayed_time": "18.59", "trialTime": 20694, "trial_type": "mouselab-mdp", "trial_index": 26, "time_elapsed": 1259719, "internal_node_id": "0.0-6.0-1.0-17.0"}}, {"uniqueid": "w66729892:a76627894", "current_trial": 27, "dateTime": 1693484797618, "trialdata": {"revealed_states": [], "clicked_states": ["20", "22", "21"], "num_clicks_accrued": [0, 0, 0, 0, 0, 0, 0, 0, 0, 0, 0, 0, 0], "stateRewards": ["", -1, 3, -4, -14, 78, 67, 2, 13, -32, 28, 39, -2, 1, -4, -4, -4, -42, -86, 11, 64, -29, -32, -1, -4, 2, -7, 5, 68, -61, 2, -21, 85, 50], "withholdReward": false, "trial_id": "mdp_trial_19", "block": "test", "trialIndex": 20, "score": 65.8, "costs": -4.199999999999999, "simulationMode": [null, null, null, null, null], "rewards": [-2, 1, -4, 11, 64], "path": ["0", "0", "12", "13", "14", "19", "20"], "rt": [9485, 549, 193, 155, 122], "actions": ["right", "right", "right", "down", "right"], "actionTimes": [11687, 12749, 13445, 14106, 14740], "queries": {"click": {"state": {"target": ["20", "22", "21"], "time": [4071, 7244, 9505]}, "edge": {"target": [], "time": []}}, "mouseover": {"state": {"target": ["20", "19", "22", "21"], "time": [3411, 4431, 4747, 7898]}, "edge": {"target": [], "time": []}}, "mouseout": {"state": {"target": ["0", "20", "19", "22", "21"], "time": [958, 4397, 4564, 7581, 9697]}, "edge": {"target": [], "time": []}}}, "displayed_time": "16.20", "trialTime": 18105, "trial_type": "mouselab-mdp", "trial_index": 27, "time_elapsed": 1278541, "internal_node_id": "0.0-6.0-1.0-18.0"}}, {"uniqueid": "w66729892:a76627894", "current_trial": 28, "dateTime": 1693484822290, "trialdata": {"revealed_states": [], "clicked_states": ["33", "32", "31", "22", "20", "21"], "num_clicks_accrued": [0, 0, 0, 0, 0, 0, 0, 0, 0, 0, 0, 0, 0], "stateRewards": ["", -1, 1, -1, 2, 19, 85, -18, 2, -3, -26, 36, 2, 4, 7, -9, -18, 70, 72, -5, 35, -20, -28, 1, -2, -4, -3, -59, -11, -63, -2, -72, 59, -69], "withholdReward": false, "trial_id": "mdp_trial_20", "block": "test", "trialIndex": 21, "score": 43.6, "costs": -8.4, "simulationMode": [null, null, null, null, null], "rewards": [1, -2, -4, -2, 59], "path": ["0", "0", "23", "24", "25", "30", "32"], "rt": [16029, 3, 52, 534, 28], "actions": ["left", "left", "left", "down", "down"], "actionTimes": [18586, 19103, 19669, 20716, 21245], "queries": {"click": {"state": {"target": ["33", "32", "31", "22", "20", "21"], "time": [4142, 6335, 8670, 11109, 13626, 15975]}, "edge": {"target": [], "time": []}}, "mouseover": {"state": {"target": ["23", "24", "30", "33", "32", "31", "12", "13", "22", "22", "24", "29", "29", "20", "21"], "time": [3065, 3108, 3273, 3490, 4827, 6912, 9063, 9100, 9361, 9896, 11614, 11663, 12130, 12976, 14767]}, "edge": {"target": [], "time": []}}, "mouseout": {"state": {"target": ["0", "23", "24", "30", "33", "33", "32", "31", "12", "13", "22", "22", "24", "29", "29", "20", "21", "20", "19", "22"], "time": [1338, 3082, 3125, 3457, 4190, 4510, 6373, 8719, 9097, 9147, 9613, 11547, 11630, 11681, 12185, 13879, 16012, 16215, 23379, 23530]}, "edge": {"target": [], "time": []}}}, "displayed_time": "21.75", "trialTime": 24053, "trial_type": "mouselab-mdp", "trial_index": 28, "time_elapsed": 1303213, "internal_node_id": "0.0-6.0-1.0-19.0"}}, {"uniqueid": "w66729892:a76627894", "current_trial": 29, "dateTime": 1693484842046, "trialdata": {"revealed_states": [], "clicked_states": ["33", "32", "31"], "num_clicks_accrued": [0, 0, 0, 0, 0, 0, 0, 0, 0, 0, 0, 0, 0], "stateRewards": ["", 1, -2, -2, 10, -31, -77, 35, 9, -47, 8, 48, -2, 1, -4, -3, -26, -50, 43, -11, 76, -38, 17, 1, -1, 6, 10, 15, -9, 12, -8, 85, 11, -55], "withholdReward": false, "trial_id": "mdp_trial_21", "block": "test", "trialIndex": 22, "score": 78.8, "costs": -4.199999999999999, "simulationMode": [null, null, null, null, null], "rewards": [1, -1, 6, -8, 85], "path": ["0", "0", "23", "24", "25", "30", "31"], "rt": [8264, 420, 61, 34, 147], "actions": ["left", "left", "left", "down", "right"], "actionTimes": [10392, 11318, 11872, 12410, 13073], "queries": {"click": {"state": {"target": ["33", "32", "31"], "time": [3468, 5729, 7933]}, "edge": {"target": [], "time": []}}, "mouseover": {"state": {"target": ["23", "30", "33", "33", "30", "32", "31", "22", "22"], "time": [2409, 2486, 2508, 2910, 4025, 4276, 6043, 8344, 8776]}, "edge": {"target": [], "time": []}}, "mouseout": {"state": {"target": ["0", "23", "30", "33", "33", "30", "32", "31", "22", "22"], "time": [2389, 2440, 2505, 2538, 3975, 4099, 5958, 8259, 8359, 15877]}, "edge": {"target": [], "time": []}}}, "displayed_time": "16.13", "trialTime": 19214, "trial_type": "mouselab-mdp", "trial_index": 29, "time_elapsed": 1322969, "internal_node_id": "0.0-6.0-1.0-20.0"}}, {"uniqueid": "w66729892:a76627894", "current_trial": 30, "dateTime": 1693484874179, "trialdata": {"revealed_states": [], "clicked_states": ["32", "31", "33", "29", "27", "28", "16", "20"], "num_clicks_accrued": [0, 0, 0, 0, 0, 0, 0, 0, 0, 0, 0, 0, 0], "stateRewards": ["", -1, 1, 8, -3, -24, 11, -65, -6, -77, 48, 44, -2, 1, -2, -7, -55, -35, 33, 8, -28, 19, -53, -1, -1, -5, -5, -70, 10, 44, 8, -58, -70, 51], "withholdReward": false, "trial_id": "mdp_trial_22", "block": "test", "trialIndex": 23, "score": 40.8, "costs": -11.200000000000001, "simulationMode": [null, null, null, null, null], "rewards": [-1, -1, -5, 8, 51], "path": ["0", "0", "23", "24", "25", "30", "33"], "rt": [23138, 535, 76, 10, 140], "actions": ["left", "left", "left", "down", "left"], "actionTimes": [26300, 27333, 27923, 28499, 29153], "queries": {"click": {"state": {"target": ["32", "31", "33", "29", "27", "28", "16", "20"], "time": [6053, 8253, 10415, 12980, 15279, 17551, 20792, 23110]}, "edge": {"target": [], "time": []}}, "mouseover": {"state": {"target": ["23", "25", "30", "32", "31", "30", "33", "33", "29", "27", "28", "18", "15", "15", "16", "20", "20"], "time": [4336, 4419, 5186, 5470, 6558, 8692, 8792, 9090, 11025, 13609, 15812, 17959, 17992, 19543, 20141, 21187, 21543]}, "edge": {"target": [], "time": []}}, "mouseout": {"state": {"target": ["0", "1", "23", "25", "30", "32", "31", "30", "33", "33", "29", "27", "28", "18", "15", "15", "16", "20", "20", "22"], "time": [804, 1083, 4356, 5169, 5204, 6117, 8673, 8741, 8924, 10757, 13031, 15575, 17892, 17975, 18028, 19957, 21026, 21208, 23546, 31178]}, "edge": {"target": [], "time": []}}}, "displayed_time": "29.68", "trialTime": 31508, "trial_type": "mouselab-mdp", "trial_index": 30, "time_elapsed": 1355103, "internal_node_id": "0.0-6.0-1.0-21.0"}}, {"uniqueid": "w66729892:a76627894", "current_trial": 31, "dateTime": 1693484896776, "trialdata": {"revealed_states": [], "clicked_states": ["31", "33", "32"], "num_clicks_accrued": [0, 0, 0, 0, 0, 0, 0, 0, 0, 0, 0, 0, 0], "stateRewards": ["", -1, -4, -3, 1, -45, -67, -24, 14, 32, 22, 22, -1, 1, -5, -7, 72, 84, -79, -5, 19, -40, -2, -1, -2, 8, -3, 84, -25, -28, 11, 64, -66, 77], "withholdReward": false, "trial_id": "mdp_trial_23", "block": "test", "trialIndex": 24, "score": 88.8, "costs": -4.199999999999999, "simulationMode": [null, null, null, null, null], "rewards": [-1, -2, 8, 11, 77], "path": ["0", "0", "23", "24", "25", "30", "33"], "rt": [9605, 409, 182, 61, 87], "actions": ["left", "left", "left", "down", "left"], "actionTimes": [15091, 16026, 16715, 17293, 17885], "queries": {"click": {"state": {"target": ["31", "33", "32"], "time": [7596, 9843, 13139]}, "edge": {"target": [], "time": []}}, "mouseover": {"state": {"target": ["23", "24", "31", "30", "30", "31", "30", "33", "33", "30", "32", "32"], "time": [6095, 6126, 6325, 6460, 6809, 6861, 8030, 8079, 8400, 10245, 12277, 12610]}, "edge": {"target": [], "time": []}}, "mouseout": {"state": {"target": ["0", "12", "23", "24", "31", "30", "30", "31", "30", "33", "33", "30", "31", "32", "32"], "time": [1107, 3909, 6118, 6242, 6425, 6575, 6842, 8012, 8062, 8214, 10230, 10262, 10295, 12395, 13314]}, "edge": {"target": [], "time": []}}}, "displayed_time": "19.49", "trialTime": 22059, "trial_type": "mouselab-mdp", "trial_index": 31, "time_elapsed": 1377697, "internal_node_id": "0.0-6.0-1.0-22.0"}}, {"uniqueid": "w66729892:a76627894", "current_trial": 32, "dateTime": 1693484917586, "trialdata": {"revealed_states": [], "clicked_states": ["33", "32", "31"], "num_clicks_accrued": [0, 0, 0, 0, 0, 0, 0, 0, 0, 0, 0, 0, 0], "stateRewards": ["", -2, 2, 5, -14, -56, 64, 84, -5, 52, 39, 85, -2, 1, 7, 8, 21, 29, -78, -9, -10, -69, 10, -2, -1, -7, 15, 72, 20, 41, -2, 52, 80, 22], "withholdReward": false, "trial_id": "mdp_trial_24", "block": "test", "trialIndex": 25, "score": 63.8, "costs": -4.199999999999999, "simulationMode": [null, null, null, null, null], "rewards": [-2, -1, -7, -2, 80], "path": ["0", "0", "23", "24", "25", "30", "32"], "rt": [7902, 88, 75, 460, 253], "actions": ["left", "left", "left", "down", "down"], "actionTimes": [10714, 11319, 11906, 12874, 13635], "queries": {"click": {"state": {"target": ["33", "32", "31"], "time": [4411, 6650, 8813]}, "edge": {"target": [], "time": []}}, "mouseover": {"state": {"target": ["30", "33", "32", "31", "31"], "time": [3538, 3740, 5060, 6928, 7466]}, "edge": {"target": [], "time": []}}, "mouseout": {"state": {"target": ["0", "30", "33", "32", "31", "31"], "time": [3484, 3590, 4861, 6696, 7096, 15162]}, "edge": {"target": [], "time": []}}}, "displayed_time": "16.81", "trialTime": 20130, "trial_type": "mouselab-mdp", "trial_index": 32, "time_elapsed": 1398509, "internal_node_id": "0.0-6.0-1.0-23.0"}}, {"uniqueid": "w66729892:a76627894", "current_trial": 33, "dateTime": 1693484944833, "trialdata": {"revealed_states": [], "clicked_states": ["22", "21", "20", "31", "32", "33", "29"], "num_clicks_accrued": [0, 0, 0, 0, 0, 0, 0, 0, 0, 0, 0, 0, 0], "stateRewards": ["", -2, -3, 1, -7, 39, -67, 16, 5, -20, 73, 66, -1, 4, 5, -3, 23, -68, -87, -8, 3, -3, 17, 1, -4, -2, -13, -32, 34, 61, -5, -11, -18, 12], "withholdReward": false, "trial_id": "mdp_trial_25", "block": "test", "trialIndex": 26, "score": 33.2, "costs": -9.8, "simulationMode": [null, null, null, null, null], "rewards": [1, -4, -2, -13, 61], "path": ["0", "0", "23", "24", "25", "26", "29"], "rt": [18572, 63, 148, 108, 24], "actions": ["left", "left", "left", "up", "left"], "actionTimes": [20835, 21421, 22070, 22685, 23212], "queries": {"click": {"state": {"target": ["22", "21", "20", "31", "32", "33", "29"], "time": [3793, 6133, 8365, 10662, 12947, 15282, 17675]}, "edge": {"target": [], "time": []}}, "mouseover": {"state": {"target": ["12", "19", "22", "21", "20", "20", "22", "31", "32", "33", "29", "27", "27"], "time": [2891, 2993, 3294, 4170, 6382, 6863, 8736, 8815, 11347, 13370, 15838, 18118, 18487]}, "edge": {"target": [], "time": []}}, "mouseout": {"state": {"target": ["0", "12", "19", "22", "21", "20", "20", "22", "31", "32", "33", "29", "27", "27", "26", "24"], "time": [2864, 2903, 3112, 4118, 6349, 6480, 8421, 8753, 11053, 12965, 15604, 18036, 18170, 25089, 25603, 25651]}, "edge": {"target": [], "time": []}}}, "displayed_time": "23.77", "trialTime": 26607, "trial_type": "mouselab-mdp", "trial_index": 33, "time_elapsed": 1425757, "internal_node_id": "0.0-6.0-1.0-24.0"}}, {"uniqueid": "w66729892:a76627894", "current_trial": 34, "dateTime": 1693484969855, "trialdata": {"revealed_states": [], "clicked_states": ["33", "32", "31", "22"], "num_clicks_accrued": [0, 0, 0, 0, 0, 0, 0, 0, 0, 0, 0, 0, 0], "stateRewards": ["", -2, -1, -3, -1, -78, -6, 2, -1, 22, -88, 32, 2, 2, -7, -8, -51, -17, 54, 2, -44, 54, 75, 2, -2, -8, -15, -29, 12, -67, 15, -1, -47, -47], "withholdReward": false, "trial_id": "mdp_trial_26", "block": "test", "trialIndex": 27, "score": 68.4, "costs": -5.6, "simulationMode": [null, null, null, null, null], "rewards": [2, 2, -7, 2, 75], "path": ["0", "0", "12", "13", "14", "19", "22"], "rt": [12969, 78, 119, 80, 122], "actions": ["right", "right", "right", "down", "left"], "actionTimes": [15948, 16555, 17168, 17763, 18387], "queries": {"click": {"state": {"target": ["33", "32", "31", "22"], "time": [6039, 8450, 10671, 12961]}, "edge": {"target": [], "time": []}}, "mouseover": {"state": {"target": ["31", "30", "33", "32", "31", "21", "19", "22", "19", "20"], "time": [4658, 4708, 5455, 6675, 9026, 11499, 11597, 11778, 13370, 13697]}, "edge": {"target": [], "time": []}}, "mouseout": {"state": {"target": ["0", "1", "0", "31", "30", "33", "32", "31", "21", "19", "22", "19", "20", "19", "22"], "time": [1222, 1506, 3190, 4690, 5390, 6527, 8928, 10973, 11529, 11679, 13312, 13498, 20247, 20265, 20299]}, "edge": {"target": [], "time": []}}}, "displayed_time": "18.88", "trialTime": 20668, "trial_type": "mouselab-mdp", "trial_index": 34, "time_elapsed": 1450779, "internal_node_id": "0.0-6.0-1.0-25.0"}}, {"uniqueid": "w66729892:a76627894", "current_trial": 35, "dateTime": 1693484989033, "trialdata": {"revealed_states": [], "clicked_states": ["33", "31"], "num_clicks_accrued": [0, 0, 0, 0, 0, 0, 0, 0, 0, 0, 0, 0, 0], "stateRewards": ["", 1, 1, -5, 8, -6, 45, 16, -6, -7, -22, -38, -1, -4, 8, -11, -16, 21, -45, -15, -59, -32, 42, -1, 3, 6, 11, -7, 34, -27, -8, 85, 43, -9], "withholdReward": false, "trial_id": "mdp_trial_27", "block": "test", "trialIndex": 28, "score": 82.2, "costs": -2.8, "simulationMode": [null, null, null, null, null], "rewards": [-1, 3, 6, -8, 85], "path": ["0", "0", "23", "24", "25", "30", "31"], "rt": [6475, 123, 57, 12, 131], "actions": ["left", "left", "left", "down", "right"], "actionTimes": [8836, 9453, 10005, 10524, 11176], "queries": {"click": {"state": {"target": ["33", "31"], "time": [3915, 6140]}, "edge": {"target": [], "time": []}}, "mouseover": {"state": {"target": ["0", "31", "25", "33", "30", "31", "32"], "time": [2499, 2793, 2990, 3340, 4345, 4695, 6777]}, "edge": {"target": [], "time": []}}, "mouseout": {"state": {"target": ["0", "0", "31", "25", "33", "30", "31", "32"], "time": [1123, 2558, 2808, 3141, 4326, 4445, 6551, 13889]}, "edge": {"target": [], "time": []}}}, "displayed_time": "16.36", "trialTime": 18465, "trial_type": "mouselab-mdp", "trial_index": 35, "time_elapsed": 1469954, "internal_node_id": "0.0-6.0-1.0-26.0"}}, {"uniqueid": "w66729892:a76627894", "current_trial": 36, "dateTime": 1693485022247, "trialdata": {"revealed_states": [], "clicked_states": ["33", "32", "31", "21", "22", "20", "16", "17", "18"], "num_clicks_accrued": [0, 0, 0, 0, 0, 0, 0, 0, 0, 0, 0, 0, 0], "stateRewards": ["", -2, 1, -7, -8, -37, -76, -87, 11, 30, -63, 80, -1, 4, 2, -1, 42, 17, 52, -3, -75, -80, -68, 2, -3, -5, -15, -48, 82, 24, -7, 5, -22, -71], "withholdReward": false, "trial_id": "mdp_trial_28", "block": "test", "trialIndex": 29, "score": 43.4, "costs": -12.600000000000001, "simulationMode": [null, null, null, null, null], "rewards": [-1, 4, 2, -1, 52], "path": ["0", "0", "12", "13", "14", "15", "18"], "rt": [23673, 559, 132, 216, 85], "actions": ["right", "right", "right", "up", "left"], "actionTimes": [26688, 27770, 28409, 29145, 29731], "queries": {"click": {"state": {"target": ["33", "32", "31", "21", "22", "20", "16", "17", "18"], "time": [4789, 7138, 9341, 11579, 13781, 15994, 18617, 21218, 23606]}, "edge": {"target": [], "time": []}}, "mouseover": {"state": {"target": ["0", "31", "30", "33", "33", "30", "32", "31", "22", "21", "22", "19", "20", "16", "17", "15", "18", "7", "2", "27", "27", "1"], "time": [3084, 3699, 3737, 3902, 4199, 5326, 5704, 7505, 9721, 10122, 12006, 14007, 14376, 16717, 20203, 21640, 22038, 24844, 24877, 24931, 25589, 25706]}, "edge": {"target": [], "time": []}}, "mouseout": {"state": {"target": ["0", "0", "31", "30", "33", "33", "30", "32", "31", "22", "21", "22", "19", "20", "16", "17", "15", "18", "7", "2", "27", "27", "1"], "time": [1516, 3599, 3719, 3752, 3952, 5239, 5371, 7443, 9390, 9750, 11626, 13975, 14206, 16047, 18857, 21271, 21687, 23659, 24861, 24894, 24962, 25657, 25740]}, "edge": {"target": [], "time": []}}}, "displayed_time": "30.23", "trialTime": 32555, "trial_type": "mouselab-mdp", "trial_index": 36, "time_elapsed": 1503171, "internal_node_id": "0.0-6.0-1.0-27.0"}}, {"uniqueid": "w66729892:a76627894", "current_trial": 37, "dateTime": 1693485046142, "trialdata": {"revealed_states": [], "clicked_states": ["33", "31", "32", "29", "27", "28"], "num_clicks_accrued": [0, 0, 0, 0, 0, 0, 0, 0, 0, 0, 0, 0, 0], "stateRewards": ["", -1, -3, -6, -2, -7, 80, -45, -3, -38, -72, 76, 2, 1, 7, 4, -62, 14, -74, 14, -87, -21, -88, -2, 1, -7, -10, 66, 56, -76, 10, -29, -72, -70], "withholdReward": false, "trial_id": "mdp_trial_29", "block": "test", "trialIndex": 30, "score": 39.6, "costs": -8.4, "simulationMode": [null, null, null, null, null], "rewards": [-2, 1, -7, -10, 66], "path": ["0", "0", "23", "24", "25", "26", "27"], "rt": [15624, 30, 53, 4, 3], "actions": ["left", "left", "left", "up", "up"], "actionTimes": [18621, 19150, 19705, 20223, 20741], "queries": {"click": {"state": {"target": ["33", "31", "32", "29", "27", "28"], "time": [4879, 7166, 9394, 12205, 14494, 16651]}, "edge": {"target": [], "time": []}}, "mouseover": {"state": {"target": ["23", "24", "25", "33", "30", "31", "32", "20", "16", "29", "29", "27", "28"], "time": [3561, 3585, 3675, 4342, 5544, 6380, 7645, 10149, 10197, 10729, 11595, 12634, 15049]}, "edge": {"target": [], "time": []}}, "mouseout": {"state": {"target": ["23", "24", "25", "33", "30", "31", "31", "32", "20", "16", "29", "29", "27", "28", "29"], "time": [3580, 3610, 3993, 4942, 5697, 7219, 7449, 9455, 10166, 10217, 10750, 12564, 14548, 16699, 22865]}, "edge": {"target": [], "time": []}}}, "displayed_time": "21.26", "trialTime": 23317, "trial_type": "mouselab-mdp", "trial_index": 37, "time_elapsed": 1527065, "internal_node_id": "0.0-6.0-1.0-28.0"}}, {"uniqueid": "w66729892:a76627894", "current_trial": 38, "dateTime": 1693485066262, "trialdata": {"revealed_states": [], "clicked_states": ["11", "10", "9"], "num_clicks_accrued": [0, 0, 0, 0, 0, 0, 0, 0, 0, 0, 0, 0, 0], "stateRewards": ["", -1, -3, 1, 13, -64, -29, 12, -4, -33, 50, 56, 2, -3, 4, 11, -64, -58, -55, 12, 47, 38, -25, -2, 2, 5, -15, 85, 7, 84, 10, 8, 57, 26], "withholdReward": false, "trial_id": "mdp_trial_30", "block": "test", "trialIndex": 31, "score": 44.8, "costs": -4.199999999999999, "simulationMode": [null, null, null, null, null], "rewards": [-1, -3, 1, -4, 56], "path": ["0", "0", "1", "2", "3", "8", "11"], "rt": [8309, 3, 19, 532, 78], "actions": ["up", "up", "up", "left", "left"], "actionTimes": [12203, 12730, 13260, 14325, 14903], "queries": {"click": {"state": {"target": ["11", "10", "9"], "time": [5468, 7774, 10105]}, "edge": {"target": [], "time": []}}, "mouseover": {"state": {"target": ["1", "10", "11", "10", "8", "9"], "time": [4234, 4352, 4967, 6122, 8035, 8246]}, "edge": {"target": [], "time": []}}, "mouseout": {"state": {"target": ["25", "31", "23", "12", "12", "0", "1", "10", "11", "10", "8", "9", "10"], "time": [210, 249, 581, 765, 1066, 3051, 4316, 4650, 5855, 7978, 8119, 10161, 18875]}, "edge": {"target": [], "time": []}}}, "displayed_time": "17.89", "trialTime": 19550, "trial_type": "mouselab-mdp", "trial_index": 38, "time_elapsed": 1547184, "internal_node_id": "0.0-6.0-1.0-29.0"}}, {"uniqueid": "w66729892:a76627894", "current_trial": 39, "dateTime": 1693485089867, "trialdata": {"revealed_states": [], "clicked_states": ["33", "31", "32", "27", "29"], "num_clicks_accrued": [0, 0, 0, 0, 0, 0, 0, 0, 0, 0, 0, 0, 0], "stateRewards": ["", 2, -1, 5, 6, 10, 86, 55, 10, -45, 63, -71, 1, -2, 5, -8, -50, -72, 36, 15, 61, 12, 33, -1, -4, 6, 5, 79, -56, -21, -16, -87, 60, -81], "withholdReward": false, "trial_id": "mdp_trial_31", "block": "test", "trialIndex": 32, "score": 78, "costs": -7, "simulationMode": [null, null, null, null, null], "rewards": [-1, -4, 6, 5, 79], "path": ["0", "0", "23", "24", "25", "26", "27"], "rt": [14261, 17, 45, 20, 15], "actions": ["left", "left", "left", "up", "up"], "actionTimes": [17694, 18184, 18745, 19318, 19832], "queries": {"click": {"state": {"target": ["33", "31", "32", "27", "29"], "time": [5447, 7804, 10046, 13161, 15297]}, "edge": {"target": [], "time": []}}, "mouseover": {"state": {"target": ["23", "24", "26", "29", "33", "30", "31", "31", "32", "30", "24", "9", "9", "26", "27", "27", "27", "29", "26"], "time": [4047, 4108, 4374, 4441, 4874, 5895, 6079, 6952, 8330, 10351, 10387, 10471, 10662, 10946, 11298, 12060, 12427, 14024, 15865]}, "edge": {"target": [], "time": []}}, "mouseout": {"state": {"target": ["0", "0", "1", "23", "24", "26", "29", "33", "30", "31", "31", "31", "32", "30", "24", "9", "9", "26", "27", "27", "27", "27", "29", "26", "29", "30"], "time": [774, 1005, 1608, 4076, 4342, 4392, 4593, 5859, 6062, 6280, 7871, 8163, 10335, 10370, 10404, 10508, 10765, 11095, 11336, 12244, 13197, 13614, 15356, 16033, 16051, 22163]}, "edge": {"target": [], "time": []}}}, "displayed_time": "20.35", "trialTime": 22973, "trial_type": "mouselab-mdp", "trial_index": 39, "time_elapsed": 1570791, "internal_node_id": "0.0-6.0-1.0-30.0"}}, {"uniqueid": "w66729892:a76627894", "current_trial": 40, "dateTime": 1693485110352, "trialdata": {"revealed_states": [], "clicked_states": ["16", "17", "18", "21", "20"], "num_clicks_accrued": [0, 0, 0, 0, 0, 0, 0, 0, 0, 0, 0, 0, 0], "stateRewards": ["", 2, -1, 8, -2, -16, 69, -39, -7, -13, -27, -86, 2, -2, 2, 13, -34, -16, -20, -5, 19, 81, 32, -2, -1, 2, -14, 20, 80, 58, 4, 70, 12, 73], "withholdReward": false, "trial_id": "mdp_trial_32", "block": "test", "trialIndex": 33, "score": 71, "costs": -7, "simulationMode": [null, null, null, null, null, null], "rewards": [2, -2, 2, -5, 81], "path": ["0", "0", "12", "13", "14", "19", "21"], "rt": [12348, 692, 68, 17, 4, 35], "actions": ["right", "right", "right", "right", "down", "down"], "actionTimes": [14715, 15415, 15995, 16513, 17032, 17578], "queries": {"click": {"state": {"target": ["16", "17", "18", "21", "20"], "time": [4279, 6477, 8703, 11355, 13493]}, "edge": {"target": [], "time": []}}, "mouseover": {"state": {"target": ["18", "16", "16", "17", "15", "18", "18", "19", "21", "20"], "time": [2938, 3219, 3680, 5289, 6908, 6946, 7418, 9127, 9574, 11941]}, "edge": {"target": [], "time": []}}, "mouseout": {"state": {"target": ["0", "18", "16", "16", "17", "15", "18", "18", "19", "21", "20"], "time": [1252, 2957, 3301, 4624, 6535, 6930, 7098, 9042, 9357, 11416, 19045]}, "edge": {"target": [], "time": []}}}, "displayed_time": "18.11", "trialTime": 19897, "trial_type": "mouselab-mdp", "trial_index": 40, "time_elapsed": 1591274, "internal_node_id": "0.0-6.0-1.0-31.0"}}, {"uniqueid": "w66729892:a76627894", "current_trial": 41, "dateTime": 1693485134427, "trialdata": {"revealed_states": [], "clicked_states": ["33", "31", "32", "21", "20", "22"], "num_clicks_accrued": [0, 0, 0, 0, 0, 0, 0, 0, 0, 0, 0, 0, 0], "stateRewards": ["", -2, -3, 7, -13, 60, 9, 37, -6, 37, 20, 1, 2, -2, -8, 6, -80, -31, -10, -7, 70, -65, -44, -1, 1, 7, 6, -11, 73, -85, 16, -21, 47, 34], "withholdReward": false, "trial_id": "mdp_trial_33", "block": "test", "trialIndex": 34, "score": 46.6, "costs": -8.4, "simulationMode": [null, null, null, null, null], "rewards": [2, -2, -8, -7, 70], "path": ["0", "0", "12", "13", "14", "19", "20"], "rt": [15752, 437, 109, 67, 57], "actions": ["right", "right", "right", "down", "right"], "actionTimes": [18379, 19318, 19940, 20514, 21071], "queries": {"click": {"state": {"target": ["33", "31", "32", "21", "20", "22"], "time": [4425, 6865, 9102, 11838, 14158, 16467]}, "edge": {"target": [], "time": []}}, "mouseover": {"state": {"target": ["25", "30", "33", "30", "31", "32", "21", "21", "20", "20", "19", "22"], "time": [3487, 3604, 3821, 4940, 5508, 7405, 10592, 11307, 12226, 12595, 14565, 14844]}, "edge": {"target": [], "time": []}}, "mouseout": {"state": {"target": ["0", "25", "30", "33", "30", "31", "32", "21", "21", "20", "20", "19", "22"], "time": [3240, 3521, 3669, 4479, 5145, 7240, 9158, 10624, 11892, 12409, 14513, 14728, 22547]}, "edge": {"target": [], "time": []}}}, "displayed_time": "21.58", "trialTime": 23500, "trial_type": "mouselab-mdp", "trial_index": 41, "time_elapsed": 1615351, "internal_node_id": "0.0-6.0-1.0-32.0"}}, {"uniqueid": "w66729892:a76627894", "current_trial": 42, "dateTime": 1693485153369, "trialdata": {"revealed_states": [], "clicked_states": ["33", "32"], "num_clicks_accrued": [0, 0, 0, 0, 0, 0, 0, 0, 0, 0, 0, 0, 0], "stateRewards": ["", 1, 1, -2, 7, -31, -6, 76, 1, -36, -16, -53, 2, 1, 7, 13, -47, -10, 47, -7, 72, 46, -56, -2, -2, -2, 11, -80, 44, 38, 16, 67, 85, -78], "withholdReward": false, "trial_id": "mdp_trial_34", "block": "test", "trialIndex": 35, "score": 92.2, "costs": -2.8, "simulationMode": [null, null, null, null, null], "rewards": [-2, -2, -2, 16, 85], "path": ["0", "0", "23", "24", "25", "30", "32"], "rt": [6241, 369, 57, 504, 159], "actions": ["left", "left", "left", "down", "down"], "actionTimes": [8328, 9217, 9772, 10786, 11442], "queries": {"click": {"state": {"target": ["33", "32"], "time": [3464, 5713]}, "edge": {"target": [], "time": []}}, "mouseover": {"state": {"target": ["31", "30", "30", "33", "32", "31"], "time": [2541, 2610, 2776, 2958, 4029, 6431]}, "edge": {"target": [], "time": []}}, "mouseout": {"state": {"target": ["0", "31", "30", "30", "33", "33", "32", "31"], "time": [2343, 2561, 2626, 2793, 3520, 3996, 6012, 13148]}, "edge": {"target": [], "time": []}}}, "displayed_time": "16.09", "trialTime": 18352, "trial_type": "mouselab-mdp", "trial_index": 42, "time_elapsed": 1634292, "internal_node_id": "0.0-6.0-1.0-33.0"}}, {"uniqueid": "w66729892:a76627894", "current_trial": 43, "dateTime": 1693485172195, "trialdata": {"revealed_states": [], "clicked_states": ["33", "32"], "num_clicks_accrued": [0, 0, 0, 0, 0, 0, 0, 0, 0, 0, 0, 0, 0], "stateRewards": ["", 2, 3, 6, -5, -74, -53, 17, -12, 46, 44, 18, -2, 4, 1, -8, 22, -23, -49, 9, -45, 55, 81, 1, -1, -7, -16, -83, -71, -45, 2, 51, 82, 61], "withholdReward": false, "trial_id": "mdp_trial_35", "block": "test", "trialIndex": 36, "score": 74.2, "costs": -2.8, "simulationMode": [null, null, null, null, null], "rewards": [1, -1, -7, 2, 82], "path": ["0", "0", "23", "24", "25", "30", "32"], "rt": [6896, 418, 53, 38, 416], "actions": ["left", "left", "left", "down", "down"], "actionTimes": [9533, 10466, 11017, 11568, 12514], "queries": {"click": {"state": {"target": ["33", "32"], "time": [4196, 6754]}, "edge": {"target": [], "time": []}}, "mouseover": {"state": {"target": ["0", "23", "24", "25", "33", "32", "31"], "time": [2790, 3108, 3146, 3274, 3591, 4847, 7278]}, "edge": {"target": [], "time": []}}, "mouseout": {"state": {"target": ["0", "0", "23", "24", "25", "33", "32", "31"], "time": [1475, 2841, 3127, 3177, 3508, 4594, 7029, 8959]}, "edge": {"target": [], "time": []}}}, "displayed_time": "16.64", "trialTime": 18205, "trial_type": "mouselab-mdp", "trial_index": 43, "time_elapsed": 1653118, "internal_node_id": "0.0-6.0-1.0-34.0"}}, {"uniqueid": "w66729892:a76627894", "current_trial": 44, "dateTime": 1693485196816, "trialdata": {"revealed_states": [], "clicked_states": ["33", "32", "31", "20", "21", "22"], "num_clicks_accrued": [0, 0, 0, 0, 0, 0, 0, 0, 0, 0, 0, 0, 0], "stateRewards": ["", -2, -3, 1, -14, 48, -49, 67, -1, -35, -48, 3, -2, 1, -4, -5, 86, -84, 39, 1, 48, 41, -42, -1, -4, 2, -7, 18, -86, 17, 7, -9, 57, -69], "withholdReward": false, "trial_id": "mdp_trial_36", "block": "test", "trialIndex": 37, "score": 52.6, "costs": -8.4, "simulationMode": [null, null, null, null, null], "rewards": [-1, -4, 2, 7, 57], "path": ["0", "0", "23", "24", "25", "30", "32"], "rt": [16093, 50, 666, 47, 316], "actions": ["left", "left", "left", "down", "down"], "actionTimes": [18193, 18764, 19946, 20494, 21343], "queries": {"click": {"state": {"target": ["33", "32", "31", "20", "21", "22"], "time": [3585, 6574, 8905, 11506, 13886, 16214]}, "edge": {"target": [], "time": []}}, "mouseover": {"state": {"target": ["30", "33", "32", "31", "14", "22", "22", "19", "20", "21", "22"], "time": [2586, 3002, 4163, 7241, 9344, 9661, 10120, 10525, 10704, 12051, 14427]}, "edge": {"target": [], "time": []}}, "mouseout": {"state": {"target": ["0", "30", "33", "32", "31", "14", "22", "22", "19", "20", "21", "22"], "time": [768, 2621, 3941, 6783, 9192, 9425, 9747, 10505, 10543, 11861, 14243, 16544]}, "edge": {"target": [], "time": []}}}, "displayed_time": "21.86", "trialTime": 23397, "trial_type": "mouselab-mdp", "trial_index": 44, "time_elapsed": 1677739, "internal_node_id": "0.0-6.0-1.0-35.0"}}, {"uniqueid": "w66729892:a76627894", "current_trial": 45, "dateTime": 1693485214951, "trialdata": {"revealed_states": [], "clicked_states": ["33", "32"], "num_clicks_accrued": [0, 0, 0, 0, 0, 0, 0, 0, 0, 0, 0, 0, 0], "stateRewards": ["", 2, -2, -8, 9, -20, 55, -58, 14, 42, 2, 36, 1, -3, -5, 5, -58, 57, 60, 16, 57, 30, -70, -2, 1, 3, 10, 59, 23, 77, -13, -26, 88, -72], "withholdReward": false, "trial_id": "mdp_trial_37", "block": "test", "trialIndex": 38, "score": 74.2, "costs": -2.8, "simulationMode": [null, null, null, null, null], "rewards": [-2, 1, 3, -13, 88], "path": ["0", "0", "23", "24", "25", "30", "32"], "rt": [6498, 434, 13, 400, 315], "actions": ["left", "left", "left", "down", "down"], "actionTimes": [8600, 9531, 10124, 11030, 11847], "queries": {"click": {"state": {"target": ["33", "32"], "time": [3736, 5953]}, "edge": {"target": [], "time": []}}, "mouseover": {"state": {"target": ["0", "33", "32", "31"], "time": [2407, 3123, 4462, 6361]}, "edge": {"target": [], "time": []}}, "mouseout": {"state": {"target": ["0", "0", "33", "32", "31"], "time": [875, 2555, 4093, 6008, 13655]}, "edge": {"target": [], "time": []}}}, "displayed_time": "16.10", "trialTime": 17447, "trial_type": "mouselab-mdp", "trial_index": 45, "time_elapsed": 1695874, "internal_node_id": "0.0-6.0-1.0-36.0"}}, {"uniqueid": "w66729892:a76627894", "current_trial": 46, "dateTime": 1693485233730, "trialdata": {"revealed_states": [], "clicked_states": ["33", "31"], "num_clicks_accrued": [0, 0, 0, 0, 0, 0, 0, 0, 0, 0, 0, 0, 0], "stateRewards": ["", 2, -1, -4, -13, 74, 77, 3, 2, -43, -2, -11, 2, 3, 7, 11, -26, -29, -33, -3, -3, -13, -3, 1, 3, -7, 14, -59, 33, 9, -5, 34, 79, 68], "withholdReward": false, "trial_id": "mdp_trial_38", "block": "test", "trialIndex": 39, "score": 57.2, "costs": -2.8, "simulationMode": [null, null, null, null, null], "rewards": [1, 3, -7, -5, 68], "path": ["0", "0", "23", "24", "25", "30", "33"], "rt": [7255, 19, 29, 275, 132], "actions": ["left", "left", "left", "down", "left"], "actionTimes": [9714, 10244, 10786, 11584, 12224], "queries": {"click": {"state": {"target": ["33", "31"], "time": [3739, 7643]}, "edge": {"target": [], "time": []}}, "mouseover": {"state": {"target": ["30", "33", "30", "31"], "time": [2967, 3169, 4129, 4202]}, "edge": {"target": [], "time": []}}, "mouseout": {"state": {"target": ["30", "33", "30", "31"], "time": [3102, 4111, 4165, 13456]}, "edge": {"target": [], "time": []}}}, "displayed_time": "16.46", "trialTime": 17998, "trial_type": "mouselab-mdp", "trial_index": 46, "time_elapsed": 1714653, "internal_node_id": "0.0-6.0-1.0-37.0"}}, {"uniqueid": "w66729892:a76627894", "current_trial": 47, "dateTime": 1693485252109, "trialdata": {"revealed_states": [], "clicked_states": ["33", "32", "31"], "num_clicks_accrued": [0, 0, 0, 0, 0, 0, 0, 0, 0, 0, 0, 0, 0], "stateRewards": ["", 2, -1, 1, 10, -52, 86, -22, -2, -14, -63, 38, 1, 3, 7, -8, 11, -32, -27, 9, -71, 40, -87, -2, -1, 5, -7, 12, 31, -57, 13, 86, -58, 29], "withholdReward": false, "trial_id": "mdp_trial_39", "block": "test", "trialIndex": 40, "score": 96.8, "costs": -4.199999999999999, "simulationMode": [null, null, null, null, null], "rewards": [-2, -1, 5, 13, 86], "path": ["0", "0", "23", "24", "25", "30", "31"], "rt": [9550, 46, 88, 13, 235], "actions": ["left", "left", "left", "down", "right"], "actionTimes": [11795, 12359, 12984, 13493, 14251], "queries": {"click": {"state": {"target": ["33", "32", "31"], "time": [3659, 6023, 9213]}, "edge": {"target": [], "time": []}}, "mouseover": {"state": {"target": ["23", "24", "33", "32", "31", "31", "22"], "time": [2824, 2847, 2906, 4359, 6284, 6719, 10031]}, "edge": {"target": [], "time": []}}, "mouseout": {"state": {"target": ["0", "23", "24", "33", "32", "31", "31", "22"], "time": [725, 2841, 2872, 4127, 6279, 6331, 9579, 15829]}, "edge": {"target": [], "time": []}}}, "displayed_time": "16.25", "trialTime": 17758, "trial_type": "mouselab-mdp", "trial_index": 47, "time_elapsed": 1733033, "internal_node_id": "0.0-6.0-1.0-38.0"}}, {"uniqueid": "w66729892:a76627894", "current_trial": 48, "dateTime": 1693485274876, "trialdata": {"revealed_states": [], "clicked_states": ["33", "32", "31"], "num_clicks_accrued": [0, 0, 0, 0, 0, 0, 0, 0, 0, 0, 0, 0, 0], "stateRewards": ["", 2, -1, -3, 16, -3, -16, -62, -1, 13, -26, 43, -1, 4, 3, -9, -54, -37, -3, -12, -71, -68, -57, 1, -3, 2, -9, 2, -2, -9, -11, 84, -52, 55], "withholdReward": false, "trial_id": "mdp_trial_40", "block": "test", "trialIndex": 41, "score": 68.8, "costs": -4.199999999999999, "simulationMode": [null, null, null, null, null], "rewards": [1, -3, 2, -11, 84], "path": ["0", "0", "23", "24", "25", "30", "31"], "rt": [8950, 72, 2746, 1800, 208], "actions": ["left", "left", "left", "down", "right"], "actionTimes": [11365, 11960, 15208, 17542, 18249], "queries": {"click": {"state": {"target": ["33", "32", "31"], "time": [4279, 6592, 8807]}, "edge": {"target": [], "time": []}}, "mouseover": {"state": {"target": ["23", "24", "30", "33", "32", "31", "22"], "time": [2981, 3179, 3613, 3714, 4804, 6973, 9769]}, "edge": {"target": [], "time": []}}, "mouseout": {"state": {"target": ["0", "23", "24", "30", "33", "32", "31", "22"], "time": [2927, 3030, 3314, 3633, 4737, 6957, 8844, 20619]}, "edge": {"target": [], "time": []}}}, "displayed_time": "18.76", "trialTime": 22123, "trial_type": "mouselab-mdp", "trial_index": 48, "time_elapsed": 1755798, "internal_node_id": "0.0-6.0-1.0-39.0"}}, {"uniqueid": "w66729892:a76627894", "current_trial": 49, "dateTime": 1693485436492, "trialdata": {"rt": 157095, "response": {"Q0": "$-16 to 16", "Q1": "$-32 to $32", "Q2": "$-88 to $88", "Q3": "The cost for clicking on nodes varied between nodes.", "Q4": "Very motivated"}, "question_order": [0, 1, 2, 3, 4], "trial_id": "final_quiz_control", "trial_type": "survey-multi-choice", "trial_index": 49, "time_elapsed": 1917416, "internal_node_id": "0.0-6.0-2.0"}}, {"uniqueid": "w66729892:a76627894", "current_trial": 50, "dateTime": 1693485742849, "trialdata": {"rt": 306217, "response": {"Q0": "To view the last nodes and see which one has the highest amount. I was willing to use not more than 10 dollars to view those nodes and I would go to the last node that had more than 50 dollars.", "Q1": "I just went to the last node which had more than 50 dollars. If it was less, I would view more nodes not spending more than 10 dollars.", "Q2": "I did not find it difficult to improve."}, "trial_id": "self_report_control", "trial_type": "survey-text", "trial_index": 50, "time_elapsed": 2223774, "internal_node_id": "0.0-6.0-3.0"}}, {"uniqueid": "w66729892:a76627894", "current_trial": 51, "dateTime": 1693485801090, "trialdata": {"rt": 58233, "response": {"gender": "male", "age": "19", "colorblind": "0", "effort": "0"}, "trial_type": "survey-html-form", "trial_index": 51, "time_elapsed": 2282015, "internal_node_id": "0.0-6.0-4.0"}}, {"uniqueid": "w66729892:a76627894", "current_trial": 52, "dateTime": 1693485857975, "trialdata": {"rt": 56875, "response": {"Q0": "No", "Q1": "No", "Q2": ""}, "trial_type": "survey-text", "trial_index": 52, "time_elapsed": 2338900, "internal_node_id": "0.0-6.0-5.0"}}, {"uniqueid": "w66729892:a76627894", "current_trial": 53, "dateTime": 1693485924960, "trialdata": {"rt": 66956, "stimulus": "<h1>Completion Code Instructions (1/2)</h1>\n<br><br><br><br>\nYou have reached the end of the experiment! The completion code consists of two parts: (1) a code with 2 characters (2) a code with 6 characters. On this page, you will receive the second part of the code. The first part of the completion code will be on the next page.\n<br><br>\nThe second part of your completion code is: <b>EWEK22</b>\n<br><br>\nPlease note this down. Then, press 'Finish HIT' in order to find the first part of your completion code. Once the data has been saved, you will receive this code either in this window or in the original browser window where you started the experiment.\n", "response": 0, "trial_type": "html-button-response", "trial_index": 53, "time_elapsed": 2405885, "internal_node_id": "0.0-6.0-6.0"}}, {"uniqueid": "w66729892:a76627894", "current_trial": 54, "dateTime": 1693485926073, "trialdata": {"success": true, "trial_type": "fullscreen", "trial_index": 54, "time_elapsed": 2406998, "internal_node_id": "0.0-7.0"}}], "questiondata": {"params": {"CODE": "C6DMOQA6", "MIN_TIME": 14, "inspectCost": 1, "startTime": "Thu Aug 31 2023 14:05:16 GMT+0200 (South Africa Standard Time)", "bonusRate": 0.002, "variance": "1_2_4_8_44", "branching": "31123"}}, "eventdata": [{"eventtype": "initialized", "value": null, "timestamp": 1693483515400, "interval": 0}, {"eventtype": "window_resize", "value": [1024, 654], "timestamp": 1693483515400, "interval": 0}, {"eventtype": "window_resize", "value": [1024, 654], "timestamp": 1693483516093, "interval": 693}, {"eventtype": "window_resize", "value": [1366, 768], "timestamp": 1693483527188, "interval": 11095}], "useragent": "Mozilla/5.0 (Windows NT 10.0; Win64; x64) AppleWebKit/537.36 (KHTML, like Gecko) Chrome/116.0.0.0 Safari/537.36", "mode": "live", "id": "w66729892:a76627894", "status": "user data saved", "Beginhit": "2023-08-31 12:05:12.216089", "Beginexp": "2023-08-31 12:05:28.770878", "Endhit": "2023-08-31 12:45:28.451606", "psiturkStatus": 3, "browser": "<redacted>", "platform": "windows", "language": "en-US"}