{"condition": 0, "counterbalance": 0, "assignmentId": "a45342599", "workerId": "w73380017", "hitId": "h43196469", "currenttrial": 7, "bonus": 0, "data": [{"uniqueid": "w73380017:a45342599", "current_trial": 0, "dateTime": 1693389170584, "trialdata": {"success": true, "trial_type": "fullscreen", "trial_index": 0, "time_elapsed": 7050, "internal_node_id": "0.0-0.0"}}, {"uniqueid": "w73380017:a45342599", "current_trial": 1, "dateTime": 1693389190156, "trialdata": {"view_history": [{"page_index": 0, "viewing_time": 19566}], "rt": 19566, "trial_id": "exp_instructions_control", "trial_type": "instructions", "trial_index": 1, "time_elapsed": 26623, "internal_node_id": "0.0-1.0"}}, {"uniqueid": "w73380017:a45342599", "current_trial": 2, "dateTime": 1693389333373, "trialdata": {"view_history": [{"page_index": 0, "viewing_time": 38090}, {"page_index": 1, "viewing_time": 75709}, {"page_index": 2, "viewing_time": 14540}, {"page_index": 3, "viewing_time": 14876}], "rt": 143215, "trial_id": "mouselab_instructions_1_control", "trial_type": "instructions", "trial_index": 2, "time_elapsed": 169840, "internal_node_id": "0.0-2.0-1.0"}}, {"uniqueid": "w73380017:a45342599", "current_trial": 3, "dateTime": 1693389357919, "trialdata": {"revealed_states": [], "clicked_states": [], "num_clicks_accrued": [0, 0, 0, 0, 0, 0, 0, 0, 0, 0, 0, 0, 0], "stateRewards": ["", -10, 10, 10, -10, 10, -10, 10, 10, -10, -10, 10, -10, -10, -10, 10, -10, 10, -10, -10, -10, 10, 10, 10, -10, 10, -10, -10, 10, 10, 10, 10, 10, -10], "withholdReward": false, "trial_id": "practice_1", "block": "test", "trialIndex": 0, "score": -6.5, "costs": 0, "simulationMode": [null, null, null, null, null], "rewards": [10, -10, 10, -10, -10], "path": ["0", "0", "23", "24", "25", "26", "27"], "rt": [4348, 1391, 46, 207, 747], "actions": ["left", "left", "left", "up", "up"], "actionTimes": [12637, 14576, 15181, 15925, 17213], "queries": {"click": {"state": {"target": [], "time": []}, "edge": {"target": [], "time": []}}, "mouseover": {"state": {"target": [], "time": []}, "edge": {"target": [], "time": []}}, "mouseout": {"state": {"target": ["0"], "time": [7230]}, "edge": {"target": [], "time": []}}}, "displayed_time": "17.75", "trialTime": 24082, "trial_type": "mouselab-mdp", "trial_index": 3, "time_elapsed": 194386, "internal_node_id": "0.0-2.0-2.0-0.0"}}, {"uniqueid": "w73380017:a45342599", "current_trial": 4, "dateTime": 1693389391672, "trialdata": {"revealed_states": [], "clicked_states": ["23"], "num_clicks_accrued": [0, 0, 0, 0, 0, 0, 0, 0, 0, 0, 0, 0, 0], "stateRewards": ["", -10, -10, 10, -10, 10, -10, 10, 10, -10, 10, 10, -10, 10, -10, 10, -10, -10, 10, 10, -10, -10, -10, 10, -10, 10, 10, -10, -10, -10, -10, 10, 10, 10], "withholdReward": false, "trial_id": "practice_2", "block": "test", "trialIndex": 1, "score": 13, "costs": -0.5, "simulationMode": [null, null, null, null, null], "rewards": [10, -10, 10, -10, 10], "path": ["0", "0", "23", "24", "25", "30", "32"], "rt": [8983, 697, 4583, 281, 328], "actions": ["left", "left", "left", "down", "down"], "actionTimes": [17480, 18719, 23855, 24687, 25551], "queries": {"click": {"state": {"target": ["23"], "time": [14208]}, "edge": {"target": [], "time": []}}, "mouseover": {"state": {"target": ["23", "0"], "time": [13182, 16706]}, "edge": {"target": [], "time": []}}, "mouseout": {"state": {"target": ["1", "0", "23", "0", "23"], "time": [1646, 2182, 15958, 16712, 36256]}, "edge": {"target": [], "time": []}}}, "displayed_time": "26.09", "trialTime": 33335, "trial_type": "mouselab-mdp", "trial_index": 4, "time_elapsed": 228139, "internal_node_id": "0.0-2.0-2.0-1.0"}}, {"uniqueid": "w73380017:a45342599", "current_trial": 5, "dateTime": 1693389428517, "trialdata": {"view_history": [{"page_index": 0, "viewing_time": 22888}, {"page_index": 1, "viewing_time": 13954}], "rt": 36843, "trial_id": "mouselab_instructions_2_control", "trial_type": "instructions", "trial_index": 5, "time_elapsed": 264984, "internal_node_id": "0.0-2.0-3.0"}}, {"uniqueid": "w73380017:a45342599", "current_trial": 6, "dateTime": 1693389490875, "trialdata": {"rt": 62354, "response": {"Q0": "There is no cost for clicking on nodes.", "Q1": "The better I perform the higher my bonus will be.", "Q2": "No, the structure of the web will be different each time.", "Q3": "To get the highest total score.", "Q4": "Only before moving the spider.", "Q5": "3 seconds"}, "question_order": [0, 1, 2, 3, 4, 5], "correct": {"Q0": "The cost for clicking on nodes may vary between nodes.", "Q1": "The better I perform the higher my bonus will be.", "Q2": "No, the amount of cash at each node of the web may be different each time.", "Q3": "To get the highest total score.", "Q4": "Only before moving the spider.", "Q5": "3 seconds"}, "trial_id": "mouselab_quiz_control", "trial_type": "survey-multi-choice", "trial_index": 6, "time_elapsed": 327342, "internal_node_id": "0.0-2.0-4.0"}}], "questiondata": {"params": {"CODE": "C6DMOQA6", "MIN_TIME": 14, "inspectCost": 1, "startTime": "Wed Aug 30 2023 11:52:37 GMT+0200 (SAST)", "bonusRate": 0.002, "variance": "1_2_4_8_44", "branching": "31123"}}, "eventdata": [{"eventtype": "initialized", "value": null, "timestamp": 1693389156522, "interval": 0}, {"eventtype": "window_resize", "value": [1440, 900], "timestamp": 1693389156522, "interval": 0}, {"eventtype": "window_resize", "value": [1440, 900], "timestamp": 1693389157489, "interval": 967}, {"eventtype": "window_resize", "value": [1024, 740], "timestamp": 1693389528254, "interval": 370765}], "useragent": "Mozilla/5.0 (Macintosh; Intel Mac OS X 10_15_7) AppleWebKit/605.1.15 (KHTML, like Gecko) Version/15.4 Safari/605.1.15", "mode": "live", "id": "w73380017:a45342599", "status": "user data saved", "Beginhit": "2023-08-30 09:51:54.562662", "Beginexp": "2023-08-30 09:52:50.707653", "Endhit": null, "psiturkStatus": 6, "browser": "<redacted>", "platform": "macos", "language": "xh-za", "excludeReason": "quizfail"}