{"condition": 1, "counterbalance": 0, "assignmentId": "a18241654", "workerId": "w92755292", "hitId": "h62214484", "currenttrial": 62, "bonus": 0, "data": [{"uniqueid": "w92755292:a18241654", "current_trial": 0, "dateTime": 1693566265560, "trialdata": {"success": true, "trial_type": "fullscreen", "trial_index": 0, "time_elapsed": 9368, "internal_node_id": "0.0-0.0"}}, {"uniqueid": "w92755292:a18241654", "current_trial": 1, "dateTime": 1693566290974, "trialdata": {"view_history": [{"page_index": 0, "viewing_time": 25401}], "rt": 25403, "trial_id": "exp_instructions_misaligned", "trial_type": "instructions", "trial_index": 1, "time_elapsed": 34782, "internal_node_id": "0.0-1.0"}}, {"uniqueid": "w92755292:a18241654", "current_trial": 2, "dateTime": 1693566655612, "trialdata": {"view_history": [{"page_index": 0, "viewing_time": 113675}, {"page_index": 1, "viewing_time": 125232}, {"page_index": 2, "viewing_time": 47928}, {"page_index": 3, "viewing_time": 77800}], "rt": 364635, "trial_id": "mouselab_instructions_1_misaligned", "trial_type": "instructions", "trial_index": 2, "time_elapsed": 399421, "internal_node_id": "0.0-2.0-1.0"}}, {"uniqueid": "w92755292:a18241654", "current_trial": 3, "dateTime": 1693566693595, "trialdata": {"revealed_states": [], "clicked_states": ["12", "23", "1"], "num_clicks_accrued": [0, 0, 0, 0, 0, 0, 0, 0, 0, 0, 0, 0, 0], "stateRewards": ["", -10, 10, 10, -10, 10, 10, 10, -10, 10, -10, 10, 10, 10, -10, 10, -10, -10, 10, 10, -10, 10, 10, -10, -10, -10, -10, 10, 10, 10, -10, 10, -10, 10], "withholdReward": false, "trial_id": "practice_1", "block": "test", "trialIndex": 0, "score": 12, "costs": -1.5, "simulationMode": [null, null, null, null, null], "rewards": [10, 10, -10, 10, -10], "path": ["0", "0", "12", "13", "14", "15", "16"], "rt": [8026, 4715, 1568, 1469, 733], "actions": ["right", "right", "right", "up", "up"], "actionTimes": [15366, 20585, 22671, 24670, 25936], "queries": {"click": {"state": {"target": ["12", "23", "1"], "time": [11150, 12391, 14212]}, "edge": {"target": [], "time": []}}, "mouseover": {"state": {"target": ["0", "12", "23", "0", "1"], "time": [7447, 8613, 12123, 13444, 13695]}, "edge": {"target": [], "time": []}}, "mouseout": {"state": {"target": ["0", "28", "26", "24", "31", "0", "0", "12", "23", "0", "1", "12", "18", "18", "18", "13", "18", "13", "12"], "time": [1529, 2546, 2613, 4046, 4096, 6765, 8579, 12059, 13415, 13595, 14581, 16945, 17628, 18112, 18412, 19395, 20399, 31562, 31862]}, "edge": {"target": [], "time": []}}}, "displayed_time": "26.48", "trialTime": 36832, "trial_type": "mouselab-mdp", "trial_index": 3, "time_elapsed": 437402, "internal_node_id": "0.0-2.0-2.0-0.0"}}, {"uniqueid": "w92755292:a18241654", "current_trial": 4, "dateTime": 1693566714838, "trialdata": {"revealed_states": [], "clicked_states": ["3", "23", "12"], "num_clicks_accrued": [0, 0, 0, 0, 0, 0, 0, 0, 0, 0, 0, 0, 0], "stateRewards": ["", 10, 10, 10, 10, 10, 10, -10, 10, -10, -10, 10, 10, -10, -10, -10, 10, 10, 10, 10, 10, 10, -10, -10, 10, 10, 10, -10, 10, 10, -10, -10, -10, -10], "withholdReward": false, "trial_id": "practice_2", "block": "test", "trialIndex": 1, "score": -8, "costs": -1.5, "simulationMode": [null, null, null, null, null, null], "rewards": [10, -10, -10, 10, -10], "path": ["0", "0", "12", "13", "14", "19", "22"], "rt": [6716, 2037, 1067, 983, 528, 597], "actions": ["right", "right", "right", "right", "down", "left"], "actionTimes": [8393, 10439, 12029, 13529, 14574, 15696], "queries": {"click": {"state": {"target": ["3", "23", "12"], "time": [3062, 6636, 7689]}, "edge": {"target": [], "time": []}}, "mouseover": {"state": {"target": ["0", "1", "2", "3", "2", "1", "26", "25", "24", "23", "0", "12"], "time": [1687, 2439, 2490, 2740, 3590, 4940, 5606, 5656, 6040, 6255, 7121, 7340]}, "edge": {"target": [], "time": []}}, "mouseout": {"state": {"target": ["0", "0", "1", "2", "3", "2", "1", "26", "25", "24", "23", "23", "0", "12", "12", "12", "13"], "time": [1288, 2392, 2473, 2523, 3524, 4690, 5323, 5640, 5973, 6140, 6757, 7104, 7176, 8082, 10542, 11222, 14339]}, "edge": {"target": [], "time": []}}}, "displayed_time": "16.23", "trialTime": 20804, "trial_type": "mouselab-mdp", "trial_index": 4, "time_elapsed": 458645, "internal_node_id": "0.0-2.0-2.0-1.0"}}, {"uniqueid": "w92755292:a18241654", "current_trial": 5, "dateTime": 1693566798548, "trialdata": {"view_history": [{"page_index": 0, "viewing_time": 60550}, {"page_index": 1, "viewing_time": 23152}], "rt": 83702, "trial_id": "mouselab_instructions_2_misaligned", "trial_type": "instructions", "trial_index": 5, "time_elapsed": 542357, "internal_node_id": "0.0-2.0-3.0"}}, {"uniqueid": "w92755292:a18241654", "current_trial": 6, "dateTime": 1693566873885, "trialdata": {"rt": 75331, "response": {"Q0": "The cost for clicking on nodes may vary between nodes.", "Q1": "The better I perform the higher my bonus will be.", "Q2": "No, the amount of cash at each node of the web may be different each time.", "Q3": "To get the highest total score.", "Q4": "Only before moving the spider.", "Q5": "10 seconds"}, "question_order": [0, 1, 2, 3, 4, 5], "correct": {"Q0": "The cost for clicking on nodes may vary between nodes.", "Q1": "The better I perform the higher my bonus will be.", "Q2": "No, the amount of cash at each node of the web may be different each time.", "Q3": "To get the highest total score.", "Q4": "Only before moving the spider.", "Q5": "3 seconds"}, "trial_id": "mouselab_quiz_misaligned", "trial_type": "survey-multi-choice", "trial_index": 6, "time_elapsed": 617694, "internal_node_id": "0.0-2.0-4.0"}}, {"uniqueid": "w92755292:a18241654", "current_trial": 7, "dateTime": 1693566884039, "trialdata": {"success": true, "trial_type": "fullscreen", "trial_index": 7, "time_elapsed": 627847, "internal_node_id": "0.0-2.1-0.1-0.1"}}, {"uniqueid": "w92755292:a18241654", "current_trial": 8, "dateTime": 1693566905268, "trialdata": {"view_history": [{"page_index": 0, "viewing_time": 3544}, {"page_index": 1, "viewing_time": 13936}, {"page_index": 2, "viewing_time": 2600}, {"page_index": 3, "viewing_time": 1144}], "rt": 21224, "trial_id": "mouselab_instructions_1_misaligned", "trial_type": "instructions", "trial_index": 8, "time_elapsed": 649076, "internal_node_id": "0.0-2.1-1.1"}}, {"uniqueid": "w92755292:a18241654", "current_trial": 9, "dateTime": 1693566931854, "trialdata": {"revealed_states": [], "clicked_states": ["12", "13", "14", "15", "18"], "num_clicks_accrued": [0, 0, 0, 0, 0, 0, 0, 0, 0, 0, 0, 0, 0], "stateRewards": ["", -10, 10, 10, -10, 10, 10, 10, -10, 10, -10, 10, 10, 10, -10, 10, -10, -10, 10, 10, -10, 10, 10, -10, -10, -10, -10, 10, 10, 10, -10, 10, -10, 10], "withholdReward": false, "trial_id": "practice_1", "block": "test", "trialIndex": 2, "score": 31, "costs": -2.5, "simulationMode": [null, null, null, null, null, null], "rewards": [10, 10, -10, 10, 10], "path": ["0", "0", "12", "13", "14", "15", "18"], "rt": [8523, 1069, 477, 419, 1177, 322], "actions": ["right", "right", "right", "right", "up", "left"], "actionTimes": [9977, 11056, 12073, 13029, 14738, 15581], "queries": {"click": {"state": {"target": ["12", "13", "14", "15", "18"], "time": [2959, 4492, 5772, 7398, 9331]}, "edge": {"target": [], "time": []}}, "mouseover": {"state": {"target": ["12", "13", "14", "13", "14", "15", "18", "13"], "time": [2753, 3304, 3754, 4170, 4741, 6270, 8687, 10986]}, "edge": {"target": [], "time": []}}, "mouseout": {"state": {"target": ["0", "12", "13", "14", "13", "14", "15", "18", "13", "12"], "time": [2577, 3266, 3704, 4020, 4707, 6204, 8569, 9905, 11019, 19152]}, "edge": {"target": [], "time": []}}}, "displayed_time": "16.11", "trialTime": 26094, "trial_type": "mouselab-mdp", "trial_index": 9, "time_elapsed": 675661, "internal_node_id": "0.0-2.1-2.1-0.1"}}, {"uniqueid": "w92755292:a18241654", "current_trial": 10, "dateTime": 1693566956845, "trialdata": {"revealed_states": [], "clicked_states": ["23", "24", "26", "27", "29", "28"], "num_clicks_accrued": [0, 0, 0, 0, 0, 0, 0, 0, 0, 0, 0, 0, 0], "stateRewards": ["", 10, 10, 10, 10, 10, 10, -10, 10, -10, -10, 10, 10, -10, -10, -10, 10, 10, 10, 10, 10, 10, -10, -10, 10, 10, 10, -10, 10, 10, -10, -10, -10, -10], "withholdReward": false, "trial_id": "practice_2", "block": "test", "trialIndex": 3, "score": 30.5, "costs": -3, "simulationMode": [null, null, null, null, null], "rewards": [-10, 10, 10, 10, 10], "path": ["0", "0", "23", "24", "25", "26", "28"], "rt": [10189, 2, 183, 1169, 734], "actions": ["left", "left", "left", "up", "right"], "actionTimes": [15650, 16176, 16901, 18588, 19842], "queries": {"click": {"state": {"target": ["23", "24", "26", "27", "29", "28"], "time": [6384, 7606, 9117, 10236, 11486, 12946]}, "edge": {"target": [], "time": []}}, "mouseover": {"state": {"target": ["23", "23", "24", "25", "26", "27", "29", "28", "25"], "time": [5946, 6213, 6854, 7980, 8879, 9914, 11312, 11933, 14612]}, "edge": {"target": [], "time": []}}, "mouseout": {"state": {"target": ["0", "0", "23", "23", "24", "25", "26", "27", "26", "29", "26", "28", "25", "25"], "time": [4661, 5913, 6013, 6747, 7930, 8812, 9680, 10897, 11130, 11830, 11902, 14545, 15378, 21830]}, "edge": {"target": [], "time": []}}}, "displayed_time": "20.37", "trialTime": 24230, "trial_type": "mouselab-mdp", "trial_index": 10, "time_elapsed": 700653, "internal_node_id": "0.0-2.1-2.1-1.1"}}, {"uniqueid": "w92755292:a18241654", "current_trial": 11, "dateTime": 1693566959947, "trialdata": {"view_history": [{"page_index": 0, "viewing_time": 1525}, {"page_index": 1, "viewing_time": 1568}], "rt": 3094, "trial_id": "mouselab_instructions_2_misaligned", "trial_type": "instructions", "trial_index": 11, "time_elapsed": 703756, "internal_node_id": "0.0-2.1-3.1"}}, {"uniqueid": "w92755292:a18241654", "current_trial": 12, "dateTime": 1693566985205, "trialdata": {"rt": 25253, "response": {"Q0": "The cost for clicking on nodes may vary between nodes.", "Q1": "The better I perform the higher my bonus will be.", "Q2": "No, the amount of cash at each node of the web may be different each time.", "Q3": "To get the highest total score.", "Q4": "Only before moving the spider.", "Q5": "3 seconds"}, "question_order": [0, 1, 2, 3, 4, 5], "correct": {"Q0": "The cost for clicking on nodes may vary between nodes.", "Q1": "The better I perform the higher my bonus will be.", "Q2": "No, the amount of cash at each node of the web may be different each time.", "Q3": "To get the highest total score.", "Q4": "Only before moving the spider.", "Q5": "3 seconds"}, "trial_id": "mouselab_quiz_misaligned", "trial_type": "survey-multi-choice", "trial_index": 12, "time_elapsed": 729014, "internal_node_id": "0.0-2.1-4.1"}}, {"uniqueid": "w92755292:a18241654", "current_trial": 13, "dateTime": 1693566994412, "trialdata": {"rt": 9197, "response": {"Q0": "No"}, "question_order": [0], "trial_id": "repeat_check", "trial_type": "survey-multi-choice", "trial_index": 13, "time_elapsed": 738221, "internal_node_id": "0.0-4.0-0.0"}}, {"uniqueid": "w92755292:a18241654", "current_trial": 14, "dateTime": 1693567019624, "trialdata": {"rt": 25202, "stimulus": "\n<h1> Get ready to start the game! </h1>\n\nThank you for reading the instructions. Get ready start with the 40 rounds of this game.\n<br><br>\nIf you need to take a break, feel free to take one after the end of a round, before continuing to the next one.\n<br><br>\nRemember, the more money the spider gets, the bigger your bonus will be!\n<br><br>\n<div style='text-align: center;'>Press <code>space</code> to begin.</div>\n\n<br><br>\n(If, at any point, the <code>space</code> key does not take you to the next page, click once on the text and try again.)", "response": " ", "trial_id": "mdp_ready", "trial_type": "html-keyboard-response", "trial_index": 14, "time_elapsed": 763433, "internal_node_id": "0.0-6.0-0.0"}}, {"uniqueid": "w92755292:a18241654", "current_trial": 15, "dateTime": 1693567039444, "trialdata": {"revealed_states": [], "clicked_states": ["23", "24", "25", "26", "12", "13"], "num_clicks_accrued": [0, 0, 0, 0, 0, 0, 0, 0, 0, 0, 0, 0, 0], "stateRewards": ["", -2, 2, 8, -6, -25, 3, 87, 2, -62, -2, 74, -2, -1, 2, -1, 79, 49, -37, -14, 5, 67, -9, -1, 2, -2, 5, 15, 38, 32, -14, -38, -38, 30], "withholdReward": false, "trial_id": "mdp_trial_1", "block": "test", "trialIndex": 4, "score": 49.3, "costs": -2.6999999999999997, "simulationMode": [null, null, null, null, null], "rewards": [-2, -1, 2, -14, 67], "path": ["0", "0", "12", "13", "14", "19", "21"], "rt": [7350, 766, 442, 226, 436], "actions": ["right", "right", "right", "down", "down"], "actionTimes": [9617, 10969, 11954, 12708, 13665], "queries": {"click": {"state": {"target": ["23", "24", "25", "26", "12", "13"], "time": [3449, 5306, 6209, 7560, 8823, 9513]}, "edge": {"target": [], "time": []}}, "mouseover": {"state": {"target": ["0", "23", "23", "24", "25", "26", "28", "22", "22", "12", "13"], "time": [2755, 2922, 3258, 5074, 5720, 7010, 7863, 8139, 8409, 8672, 9355]}, "edge": {"target": [], "time": []}}, "mouseout": {"state": {"target": ["9", "9", "1", "0", "23", "23", "24", "25", "26", "28", "22", "22", "12", "13", "14"], "time": [1071, 1220, 1553, 2872, 3055, 4474, 5654, 6294, 7824, 8073, 8159, 8436, 9107, 10705, 15627]}, "edge": {"target": [], "time": []}}}, "displayed_time": "16.27", "trialTime": 19358, "trial_type": "mouselab-mdp", "trial_index": 15, "time_elapsed": 783251, "internal_node_id": "0.0-6.0-1.0-0.0"}}, {"uniqueid": "w92755292:a18241654", "current_trial": 16, "dateTime": 1693567062299, "trialdata": {"revealed_states": [], "clicked_states": ["1", "2", "3", "4", "6"], "num_clicks_accrued": [0, 0, 0, 0, 0, 0, 0, 0, 0, 0, 0, 0, 0], "stateRewards": ["", 2, -4, 4, 9, 69, 9, -75, 12, -86, 66, 25, -1, 3, 2, -13, -88, -3, 1, 4, -69, 49, -84, 2, -1, 4, 2, -18, -81, -52, -15, -69, -54, 25], "withholdReward": false, "trial_id": "mdp_trial_2", "block": "test", "trialIndex": 5, "score": 15.25, "costs": -4.75, "simulationMode": [null, null, null, null, null], "rewards": [2, -4, 4, 9, 9], "path": ["0", "0", "1", "2", "3", "4", "6"], "rt": [8014, 386, 473, 315, 276], "actions": ["up", "up", "up", "right", "right"], "actionTimes": [9811, 10725, 11729, 12574, 13382], "queries": {"click": {"state": {"target": ["1", "2", "3", "4", "6"], "time": [3755, 4452, 5453, 6308, 7018]}, "edge": {"target": [], "time": []}}, "mouseover": {"state": {"target": ["1", "2", "3", "4", "6", "5"], "time": [2616, 4132, 4968, 6143, 6815, 7566]}, "edge": {"target": [], "time": []}}, "mouseout": {"state": {"target": ["13", "12", "0", "1", "2", "3", "4", "6", "5", "6"], "time": [648, 714, 2366, 3901, 4870, 6068, 6680, 7128, 9299, 15894]}, "edge": {"target": [], "time": []}}}, "displayed_time": "15.80", "trialTime": 22208, "trial_type": "mouselab-mdp", "trial_index": 16, "time_elapsed": 806106, "internal_node_id": "0.0-6.0-1.0-1.0"}}, {"uniqueid": "w92755292:a18241654", "current_trial": 17, "dateTime": 1693567082477, "trialdata": {"revealed_states": [], "clicked_states": ["23", "24", "25", "26", "27"], "num_clicks_accrued": [0, 0, 0, 0, 0, 0, 0, 0, 0, 0, 0, 0, 0], "stateRewards": ["", 1, -1, 8, -3, 38, 85, -20, -4, 8, 23, 73, 2, -4, 6, -13, 44, 7, -28, -11, -77, 45, -69, 1, -1, -7, -11, 75, -51, -87, 7, 36, -53, -26], "withholdReward": false, "trial_id": "mdp_trial_3", "block": "test", "trialIndex": 6, "score": 30.25, "costs": -4.75, "simulationMode": [null, null, null, null, null, null], "rewards": [2, -4, 6, -13, 44], "path": ["0", "0", "12", "13", "14", "15", "16"], "rt": [5063, 704, 228, 390, 1340, 305], "actions": ["right", "right", "right", "right", "up", "up"], "actionTimes": [6854, 7576, 8335, 9242, 11111, 11944], "queries": {"click": {"state": {"target": ["23", "24", "25", "26", "27"], "time": [2553, 3200, 3884, 4375, 4866]}, "edge": {"target": [], "time": []}}, "mouseover": {"state": {"target": ["23", "24", "25", "26", "27", "1", "0", "12", "12"], "time": [2315, 2779, 3479, 4162, 4629, 5696, 6113, 6214, 7531]}, "edge": {"target": [], "time": []}}, "mouseout": {"state": {"target": ["7", "1", "0", "23", "24", "25", "26", "27", "1", "0", "12", "12"], "time": [763, 813, 1803, 2729, 3412, 4090, 4464, 5480, 5713, 6163, 7333, 16565]}, "edge": {"target": [], "time": []}}}, "displayed_time": "15.79", "trialTime": 19737, "trial_type": "mouselab-mdp", "trial_index": 17, "time_elapsed": 826285, "internal_node_id": "0.0-6.0-1.0-2.0"}}, {"uniqueid": "w92755292:a18241654", "current_trial": 18, "dateTime": 1693567115605, "trialdata": {"revealed_states": [], "clicked_states": ["23", "24", "25", "30"], "num_clicks_accrued": [0, 0, 0, 0, 0, 0, 0, 0, 0, 0, 0, 0, 0], "stateRewards": ["", -2, 3, -1, -9, 44, 48, -37, -3, 71, -39, 87, -1, 3, -4, 4, -21, 59, -15, -8, -1, 28, -38, 2, 4, 4, 8, -85, -72, -63, 14, 58, 63, -46], "withholdReward": false, "trial_id": "mdp_trial_4", "block": "test", "trialIndex": 7, "score": 84.4, "costs": -2.5999999999999996, "simulationMode": [null, null, null, null, null], "rewards": [2, 4, 4, 14, 63], "path": ["0", "0", "23", "24", "25", "30", "32"], "rt": [5860, 61, 385, 185, 324], "actions": ["left", "left", "left", "down", "down"], "actionTimes": [8568, 9147, 10055, 10786, 11647], "queries": {"click": {"state": {"target": ["23", "24", "25", "30"], "time": [4617, 5185, 6253, 7955]}, "edge": {"target": [], "time": []}}, "mouseover": {"state": {"target": ["23", "23", "23", "24", "25", "30"], "time": [3981, 4147, 4430, 5029, 5561, 7247]}, "edge": {"target": [], "time": []}}, "mouseout": {"state": {"target": ["0", "23", "23", "23", "24", "25", "30", "30"], "time": [3780, 4046, 4247, 4845, 5478, 6835, 8051, 18879]}, "edge": {"target": [], "time": []}}}, "displayed_time": "16.71", "trialTime": 32530, "trial_type": "mouselab-mdp", "trial_index": 18, "time_elapsed": 859412, "internal_node_id": "0.0-6.0-1.0-3.0"}}, {"uniqueid": "w92755292:a18241654", "current_trial": 19, "dateTime": 1693567134964, "trialdata": {"revealed_states": [], "clicked_states": ["1", "2", "3", "8"], "num_clicks_accrued": [0, 0, 0, 0, 0, 0, 0, 0, 0, 0, 0, 0, 0], "stateRewards": ["", 1, -3, 4, 13, -72, 52, 5, 5, -58, 5, 14, 2, 1, 3, -14, -86, -4, 73, 6, -58, -50, 49, 2, -3, -4, 2, 33, -41, 42, -11, 81, 45, 53], "withholdReward": false, "trial_id": "mdp_trial_5", "block": "test", "trialIndex": 8, "score": 9.4, "costs": -2.5999999999999996, "simulationMode": [null, null, null, null, null], "rewards": [1, -3, 4, 5, 5], "path": ["0", "0", "1", "2", "3", "8", "10"], "rt": [6005, 334, 291, 324, 817], "actions": ["up", "up", "up", "left", "down"], "actionTimes": [7613, 8473, 9292, 10143, 11450], "queries": {"click": {"state": {"target": ["1", "2", "3", "8"], "time": [3991, 5142, 6079, 7123]}, "edge": {"target": [], "time": []}}, "mouseover": {"state": {"target": ["1", "2", "3", "8"], "time": [3293, 4335, 5948, 6832]}, "edge": {"target": [], "time": []}}, "mouseout": {"state": {"target": ["31", "23", "0", "1", "2", "3", "8"], "time": [690, 898, 2792, 4226, 5595, 6512, 12963]}, "edge": {"target": [], "time": []}}}, "displayed_time": "15.61", "trialTime": 18687, "trial_type": "mouselab-mdp", "trial_index": 19, "time_elapsed": 878772, "internal_node_id": "0.0-6.0-1.0-4.0"}}, {"uniqueid": "w92755292:a18241654", "current_trial": 20, "dateTime": 1693567161345, "trialdata": {"revealed_states": [], "clicked_states": ["12", "13", "14", "15", "16", "23"], "num_clicks_accrued": [0, 0, 0, 0, 0, 0, 0, 0, 0, 0, 0, 0, 0], "stateRewards": ["", 1, 2, -3, 6, -88, 74, -45, 7, -46, 40, -77, 1, -4, 4, 3, 22, -25, -59, 8, -83, 19, -60, -1, -1, -1, -8, 26, -29, 64, -7, -88, -51, -55], "withholdReward": false, "trial_id": "mdp_trial_6", "block": "test", "trialIndex": 9, "score": -44.5, "costs": -4.5, "simulationMode": [null, null, null, null, null, null], "rewards": [-1, -1, -1, -8, -29], "path": ["0", "0", "23", "24", "25", "26", "28"], "rt": [6298, 1410, 319, 318, 1755, 352], "actions": ["left", "left", "left", "left", "up", "right"], "actionTimes": [8447, 9866, 10703, 11537, 13823, 14687], "queries": {"click": {"state": {"target": ["12", "13", "14", "15", "16", "23"], "time": [3329, 4066, 4952, 5615, 6138, 9022]}, "edge": {"target": [], "time": []}}, "mouseover": {"state": {"target": ["12", "13", "14", "15", "16", "18", "23", "23"], "time": [3113, 3753, 4443, 5314, 5959, 6551, 7018, 7945]}, "edge": {"target": [], "time": []}}, "mouseout": {"state": {"target": ["5", "2", "0", "12", "13", "14", "15", "16", "18", "23", "23", "0"], "time": [1194, 1344, 3046, 3547, 4376, 5063, 5792, 6489, 6576, 7446, 18849, 22261]}, "edge": {"target": [], "time": []}}}, "displayed_time": "16.15", "trialTime": 25605, "trial_type": "mouselab-mdp", "trial_index": 20, "time_elapsed": 905152, "internal_node_id": "0.0-6.0-1.0-5.0"}}, {"uniqueid": "w92755292:a18241654", "current_trial": 21, "dateTime": 1693567180886, "trialdata": {"revealed_states": [], "clicked_states": ["1", "2", "3", "8", "11"], "num_clicks_accrued": [0, 0, 0, 0, 0, 0, 0, 0, 0, 0, 0, 0, 0], "stateRewards": ["", 2, 4, -3, 16, -58, 30, -35, 11, -60, 47, 27, -2, -1, -7, -16, 23, -70, 68, -10, -65, -43, -34, -2, 1, 7, 9, -63, 34, -31, -8, -12, -86, 59], "withholdReward": false, "trial_id": "mdp_trial_7", "block": "test", "trialIndex": 10, "score": -50.75, "costs": -4.75, "simulationMode": [null, null, null, null, null, null], "rewards": [2, 4, -3, 11, -60], "path": ["0", "0", "1", "2", "3", "8", "9"], "rt": [5190, 1497, 218, 198, 146, 100], "actions": ["up", "up", "up", "up", "left", "up"], "actionTimes": [7832, 9338, 10126, 10855, 11532, 12147], "queries": {"click": {"state": {"target": ["1", "2", "3", "8", "11"], "time": [3539, 4139, 4940, 6674, 7415]}, "edge": {"target": [], "time": []}}, "mouseover": {"state": {"target": ["1", "2", "3", "8", "4", "8", "8", "11", "10"], "time": [3403, 3940, 4550, 5244, 5757, 6237, 6485, 7209, 8403]}, "edge": {"target": [], "time": []}}, "mouseout": {"state": {"target": ["12", "0", "0", "1", "2", "3", "8", "3", "4", "3", "8", "8", "11", "8", "10"], "time": [1767, 1800, 3035, 3820, 4499, 5206, 5641, 5733, 6169, 6218, 6256, 7043, 8203, 8381, 8426]}, "edge": {"target": [], "time": []}}}, "displayed_time": "16.64", "trialTime": 18554, "trial_type": "mouselab-mdp", "trial_index": 21, "time_elapsed": 924693, "internal_node_id": "0.0-6.0-1.0-6.0"}}, {"uniqueid": "w92755292:a18241654", "current_trial": 22, "dateTime": 1693567201546, "trialdata": {"revealed_states": [], "clicked_states": ["23", "24", "25", "30", "32"], "num_clicks_accrued": [0, 0, 0, 0, 0, 0, 0, 0, 0, 0, 0, 0, 0], "stateRewards": ["", 1, -4, 6, -3, 40, 76, -51, 5, -24, -63, 44, -2, -2, 8, 1, 76, -85, -58, 10, 59, 20, 11, -2, 3, -3, 3, -82, -10, 54, -7, -57, -6, -32], "withholdReward": false, "trial_id": "mdp_trial_8", "block": "test", "trialIndex": 11, "score": 35.25, "costs": -4.75, "simulationMode": [null, null, null, null, null], "rewards": [1, -4, 6, -3, 40], "path": ["0", "0", "1", "2", "3", "4", "5"], "rt": [7566, 306, 315, 678, 480], "actions": ["up", "up", "up", "right", "up"], "actionTimes": [9535, 10375, 11212, 12409, 13410], "queries": {"click": {"state": {"target": ["23", "24", "25", "30", "32"], "time": [3110, 4255, 5127, 5913, 6727]}, "edge": {"target": [], "time": []}}, "mouseover": {"state": {"target": ["0", "23", "23", "24", "25", "30", "32", "31", "13", "12", "13", "13"], "time": [2395, 2490, 2773, 3657, 4907, 5621, 6388, 7084, 7378, 7543, 7990, 9323]}, "edge": {"target": [], "time": []}}, "mouseout": {"state": {"target": ["1", "0", "0", "23", "23", "24", "25", "30", "32", "31", "13", "12", "13", "13", "12", "12"], "time": [755, 2379, 2457, 2523, 3474, 4709, 5476, 6272, 7024, 7108, 7436, 7910, 9189, 9577, 9737, 19490]}, "edge": {"target": [], "time": []}}}, "displayed_time": "15.97", "trialTime": 20037, "trial_type": "mouselab-mdp", "trial_index": 22, "time_elapsed": 945354, "internal_node_id": "0.0-6.0-1.0-7.0"}}, {"uniqueid": "w92755292:a18241654", "current_trial": 23, "dateTime": 1693567219811, "trialdata": {"revealed_states": [], "clicked_states": [], "num_clicks_accrued": [0, 0, 0, 0, 0, 0, 0, 0, 0, 0, 0, 0, 0], "stateRewards": ["", 1, 1, 4, 11, 83, -66, 18, -16, -23, 5, 25, 1, -3, 1, -12, 18, 24, -86, -11, -64, 36, 40, 2, 1, -6, 13, 55, 29, 72, -2, 81, -72, -41], "withholdReward": false, "trial_id": "mdp_trial_9", "block": "test", "trialIndex": 12, "score": -49, "costs": 0, "simulationMode": [null, null, null, null, null], "rewards": [1, 1, 4, 11, -66], "path": ["0", "0", "1", "2", "3", "4", "6"], "rt": [2383, 213, 245, 350, 197], "actions": ["up", "up", "up", "right", "right"], "actionTimes": [3847, 4609, 5357, 6230, 6942], "queries": {"click": {"state": {"target": [], "time": []}, "edge": {"target": [], "time": []}}, "mouseover": {"state": {"target": [], "time": []}, "edge": {"target": [], "time": []}}, "mouseout": {"state": {"target": ["14", "14", "13", "12", "0", "0", "12", "17", "15", "7"], "time": [105, 438, 455, 487, 1606, 11290, 11339, 14839, 14939, 15339]}, "edge": {"target": [], "time": []}}}, "displayed_time": "15.47", "trialTime": 17619, "trial_type": "mouselab-mdp", "trial_index": 23, "time_elapsed": 963619, "internal_node_id": "0.0-6.0-1.0-8.0"}}, {"uniqueid": "w92755292:a18241654", "current_trial": 24, "dateTime": 1693567243366, "trialdata": {"revealed_states": [], "clicked_states": ["12", "13", "14", "19", "22"], "num_clicks_accrued": [0, 0, 0, 0, 0, 0, 0, 0, 0, 0, 0, 0, 0], "stateRewards": ["", 2, -2, 7, -11, -76, -65, -23, 16, -58, 30, 81, 1, 2, 7, 14, 9, 55, -2, 6, 11, -15, 31, -1, -1, -3, 2, 15, 2, 46, 15, 18, 45, -34], "withholdReward": false, "trial_id": "mdp_trial_10", "block": "test", "trialIndex": 13, "score": -5.75, "costs": -4.75, "simulationMode": [null, null, null, null, null, null], "rewards": [-1, -1, -3, 2, 2], "path": ["0", "0", "23", "24", "25", "26", "28"], "rt": [5919, 1088, 263, 242, 283, 1906], "actions": ["left", "left", "left", "left", "up", "right"], "actionTimes": [7601, 8696, 9503, 10264, 11068, 13495], "queries": {"click": {"state": {"target": ["12", "13", "14", "19", "22"], "time": [2370, 2959, 3807, 4457, 5180]}, "edge": {"target": [], "time": []}}, "mouseover": {"state": {"target": ["12", "13", "14", "19", "22", "21", "0"], "time": [2100, 2793, 3462, 4185, 4897, 5510, 8382]}, "edge": {"target": [], "time": []}}, "mouseout": {"state": {"target": ["7", "1", "0", "12", "13", "14", "19", "22", "21", "22", "0", "23", "23", "0", "12", "20"], "time": [730, 930, 2049, 2747, 3351, 4033, 4803, 5461, 6224, 6384, 8598, 9495, 15960, 16048, 16066, 16116]}, "edge": {"target": [], "time": []}}}, "displayed_time": "15.70", "trialTime": 23084, "trial_type": "mouselab-mdp", "trial_index": 24, "time_elapsed": 987174, "internal_node_id": "0.0-6.0-1.0-9.0"}}, {"uniqueid": "w92755292:a18241654", "current_trial": 25, "dateTime": 1693567261476, "trialdata": {"revealed_states": [], "clicked_states": ["23", "24", "25", "30", "32"], "num_clicks_accrued": [0, 0, 0, 0, 0, 0, 0, 0, 0, 0, 0, 0, 0], "stateRewards": ["", 1, 4, -8, -13, -13, -87, -77, -10, -44, 54, 42, 2, -3, -4, 12, -9, -80, 52, 9, 84, -2, -65, 1, -4, -5, -6, 8, 80, 32, 13, -59, -5, -13], "withholdReward": false, "trial_id": "mdp_trial_11", "block": "test", "trialIndex": 14, "score": 24.25, "costs": -4.75, "simulationMode": [null, null, null, null, null, null], "rewards": [1, 4, -8, -10, 42], "path": ["0", "0", "1", "2", "3", "8", "11"], "rt": [4586, 617, 182, 145, 126, 398], "actions": ["up", "up", "up", "up", "left", "left"], "actionTimes": [6832, 7456, 8165, 8845, 9493, 10416], "queries": {"click": {"state": {"target": ["23", "24", "25", "30", "32"], "time": [3020, 3665, 4274, 5021, 5671]}, "edge": {"target": [], "time": []}}, "mouseover": {"state": {"target": ["23", "24", "25", "30", "32", "31", "1"], "time": [2828, 3484, 4063, 4756, 5241, 5943, 6124]}, "edge": {"target": [], "time": []}}, "mouseout": {"state": {"target": ["0", "23", "24", "25", "25", "30", "32", "31", "23", "1", "15", "17", "17", "17"], "time": [2796, 3331, 4016, 4385, 4649, 5180, 5813, 5976, 6026, 14161, 14228, 14244, 15578, 15978]}, "edge": {"target": [], "time": []}}}, "displayed_time": "16.25", "trialTime": 17540, "trial_type": "mouselab-mdp", "trial_index": 25, "time_elapsed": 1005283, "internal_node_id": "0.0-6.0-1.0-10.0"}}, {"uniqueid": "w92755292:a18241654", "current_trial": 26, "dateTime": 1693567279280, "trialdata": {"revealed_states": [], "clicked_states": [], "num_clicks_accrued": [0, 0, 0, 0, 0, 0, 0, 0, 0, 0, 0, 0, 0], "stateRewards": ["", 1, 2, -8, 9, 18, -83, -11, 6, -64, -48, 17, -2, -2, -5, -3, -24, -3, -86, -2, 48, -41, -22, -2, 4, 7, 8, 81, 13, -48, 10, 61, 19, 57], "withholdReward": false, "trial_id": "mdp_trial_12", "block": "test", "trialIndex": 15, "score": -63, "costs": 0, "simulationMode": [null, null, null, null, null], "rewards": [1, 2, -8, 6, -64], "path": ["0", "0", "1", "2", "3", "8", "9"], "rt": [702, 126, 145, 120, 281], "actions": ["up", "up", "up", "left", "up"], "actionTimes": [2384, 3050, 3735, 4372, 5183], "queries": {"click": {"state": {"target": [], "time": []}, "edge": {"target": [], "time": []}}, "mouseover": {"state": {"target": [], "time": []}, "edge": {"target": [], "time": []}}, "mouseout": {"state": {"target": ["18", "0", "1", "1", "17", "15", "12"], "time": [744, 1696, 3392, 5846, 15025, 15058, 15258]}, "edge": {"target": [], "time": []}}}, "displayed_time": "15.68", "trialTime": 17263, "trial_type": "mouselab-mdp", "trial_index": 26, "time_elapsed": 1023088, "internal_node_id": "0.0-6.0-1.0-11.0"}}, {"uniqueid": "w92755292:a18241654", "current_trial": 27, "dateTime": 1693567300678, "trialdata": {"revealed_states": [], "clicked_states": ["12", "13", "14", "15", "16", "23"], "num_clicks_accrued": [0, 0, 0, 0, 0, 0, 0, 0, 0, 0, 0, 0, 0], "stateRewards": ["", -1, -3, -6, 14, 41, 18, 63, -14, 80, 21, 17, -2, -4, -2, -5, 13, 70, 8, -4, -64, -10, -20, 2, -1, 4, -1, -17, -55, 42, -7, 47, 54, 15], "withholdReward": false, "trial_id": "mdp_trial_13", "block": "test", "trialIndex": 16, "score": -17.5, "costs": -4.5, "simulationMode": [null, null, null, null, null, null], "rewards": [2, -1, 4, -1, -17], "path": ["0", "0", "23", "24", "25", "26", "27"], "rt": [6109, 1834, 325, 398, 1587, 561], "actions": ["left", "left", "left", "left", "up", "up"], "actionTimes": [8519, 10362, 11231, 12154, 14259, 15354], "queries": {"click": {"state": {"target": ["12", "13", "14", "15", "16", "23"], "time": [3491, 4149, 4820, 5561, 6119, 9336]}, "edge": {"target": [], "time": []}}, "mouseover": {"state": {"target": ["19", "22", "13", "12", "13", "14", "15", "16", "22", "0", "23", "24"], "time": [2832, 3032, 3132, 3265, 3769, 4429, 5415, 5896, 6747, 7363, 7733, 10190]}, "edge": {"target": [], "time": []}}, "mouseout": {"state": {"target": ["0", "19", "22", "13", "12", "13", "14", "15", "16", "15", "14", "22", "0", "23", "23", "24", "23", "20"], "time": [2437, 2865, 3082, 3165, 3746, 4385, 5046, 5678, 6345, 6396, 6447, 7174, 7649, 9441, 9870, 10334, 19398, 19831]}, "edge": {"target": [], "time": []}}}, "displayed_time": "16.41", "trialTime": 20532, "trial_type": "mouselab-mdp", "trial_index": 27, "time_elapsed": 1044486, "internal_node_id": "0.0-6.0-1.0-12.0"}}, {"uniqueid": "w92755292:a18241654", "current_trial": 28, "dateTime": 1693567318992, "trialdata": {"revealed_states": [], "clicked_states": ["12", "13", "14", "19", "22"], "num_clicks_accrued": [0, 0, 0, 0, 0, 0, 0, 0, 0, 0, 0, 0, 0], "stateRewards": ["", -2, 1, -3, -16, -39, -52, 30, -7, -41, -59, 11, 2, 1, 8, 2, -11, -26, -42, -13, 87, -59, -48, -1, -1, -1, 16, -79, 31, 50, -1, -84, 34, -82], "withholdReward": false, "trial_id": "mdp_trial_14", "block": "test", "trialIndex": 17, "score": -76.75, "costs": -4.75, "simulationMode": [null, null, null, null, null, null], "rewards": [-2, 1, -3, -16, -52], "path": ["0", "0", "1", "2", "3", "4", "6"], "rt": [5033, 2235, 251, 201, 578, 677], "actions": ["right", "up", "up", "up", "right", "right"], "actionTimes": [6525, 8767, 9570, 10292, 11390, 12586], "queries": {"click": {"state": {"target": ["12", "13", "14", "19", "22"], "time": [2966, 3542, 4550, 5259, 5808]}, "edge": {"target": [], "time": []}}, "mouseover": {"state": {"target": ["0", "12", "12", "13", "14", "19", "22", "13"], "time": [2337, 2571, 2754, 3438, 4383, 4930, 5617, 8072]}, "edge": {"target": [], "time": []}}, "mouseout": {"state": {"target": ["16", "0", "0", "12", "12", "13", "14", "19", "22", "13", "12", "1", "1", "0", "0", "12"], "time": [519, 2112, 2554, 2621, 3267, 3985, 4847, 5584, 7303, 8606, 9008, 10446, 11020, 13654, 14137, 14953]}, "edge": {"target": [], "time": []}}}, "displayed_time": "15.49", "trialTime": 17552, "trial_type": "mouselab-mdp", "trial_index": 28, "time_elapsed": 1062800, "internal_node_id": "0.0-6.0-1.0-13.0"}}, {"uniqueid": "w92755292:a18241654", "current_trial": 29, "dateTime": 1693567338279, "trialdata": {"revealed_states": [], "clicked_states": [], "num_clicks_accrued": [0, 0, 0, 0, 0, 0, 0, 0, 0, 0, 0, 0, 0], "stateRewards": ["", 2, 3, -3, 4, 72, -28, 34, -12, 57, -64, -15, 2, 1, -4, -15, 2, 49, 31, -1, -42, -58, 31, -2, 1, -2, -13, -75, -19, -22, -6, 61, 10, -56], "withholdReward": false, "trial_id": "mdp_trial_15", "block": "test", "trialIndex": 18, "score": -65, "costs": 0, "simulationMode": [null, null, null, null, null], "rewards": [-2, 1, -2, -6, -56], "path": ["0", "0", "23", "24", "25", "30", "33"], "rt": [591, 373, 254, 181, 688], "actions": ["left", "left", "left", "down", "left"], "actionTimes": [2219, 3134, 3925, 4627, 5833], "queries": {"click": {"state": {"target": [], "time": []}, "edge": {"target": [], "time": []}}, "mouseover": {"state": {"target": ["0", "23"], "time": [2054, 2104]}, "edge": {"target": [], "time": []}}, "mouseout": {"state": {"target": ["20", "0", "0", "23", "0", "19", "20", "21"], "time": [303, 968, 2071, 7037, 7087, 7137, 7154, 17403]}, "edge": {"target": [], "time": []}}}, "displayed_time": "15.63", "trialTime": 18456, "trial_type": "mouselab-mdp", "trial_index": 29, "time_elapsed": 1082087, "internal_node_id": "0.0-6.0-1.0-14.0"}}, {"uniqueid": "w92755292:a18241654", "current_trial": 30, "dateTime": 1693567361006, "trialdata": {"revealed_states": [], "clicked_states": ["12", "13", "14", "19", "23", "24", "25", "30"], "num_clicks_accrued": [0, 0, 0, 0, 0, 0, 0, 0, 0, 0, 0, 0, 0], "stateRewards": ["", 1, -1, -7, -7, -22, 15, -13, 13, 26, -32, 38, -1, 1, -7, -4, 16, -62, 86, 12, -54, 56, 64, -2, -1, 6, 14, -57, 37, 62, -6, -25, 50, -70], "withholdReward": false, "trial_id": "mdp_trial_16", "block": "test", "trialIndex": 19, "score": 26.8, "costs": -5.199999999999999, "simulationMode": [null, null, null, null, null], "rewards": [1, -1, -7, 13, 26], "path": ["0", "0", "1", "2", "3", "8", "9"], "rt": [10897, 299, 232, 33, 75], "actions": ["up", "up", "up", "left", "up"], "actionTimes": [13317, 14141, 14890, 15442, 16039], "queries": {"click": {"state": {"target": ["12", "13", "14", "19", "23", "24", "25", "30"], "time": [4188, 5491, 6414, 7259, 8811, 9355, 10334, 11399]}, "edge": {"target": [], "time": []}}, "mouseover": {"state": {"target": ["0", "12", "12", "13", "14", "14", "19", "21", "0", "23", "24", "25", "30", "30", "1"], "time": [2652, 3885, 4052, 5035, 5750, 6017, 6915, 7922, 8468, 8602, 9217, 10100, 10915, 11166, 12300]}, "edge": {"target": [], "time": []}}, "mouseout": {"state": {"target": ["32", "24", "23", "0", "0", "0", "12", "12", "13", "13", "14", "14", "19", "19", "21", "0", "23", "24", "25", "30", "30", "24", "1", "0", "0"], "time": [1200, 1450, 1533, 1766, 2433, 3769, 3935, 4369, 5563, 5719, 5770, 6842, 7346, 7582, 8385, 8487, 9100, 9813, 10832, 10965, 11815, 12211, 17951, 18168, 21118]}, "edge": {"target": [], "time": []}}}, "displayed_time": "16.56", "trialTime": 21982, "trial_type": "mouselab-mdp", "trial_index": 30, "time_elapsed": 1104814, "internal_node_id": "0.0-6.0-1.0-15.0"}}, {"uniqueid": "w92755292:a18241654", "current_trial": 31, "dateTime": 1693567378574, "trialdata": {"revealed_states": [], "clicked_states": ["23", "24", "25", "12", "13", "14"], "num_clicks_accrued": [0, 0, 0, 0, 0, 0, 0, 0, 0, 0, 0, 0, 0], "stateRewards": ["", 2, -1, 3, -12, -83, 6, -33, 9, 28, 24, -50, -2, -1, -2, -5, -87, 37, 82, 12, 80, -5, 10, -2, -3, -6, 9, 22, -1, 16, 9, 77, -62, 58], "withholdReward": false, "trial_id": "mdp_trial_17", "block": "test", "trialIndex": 20, "score": 34.9, "costs": -2.0999999999999996, "simulationMode": [null, null, null, null, null], "rewards": [2, -1, 3, 9, 24], "path": ["0", "0", "1", "2", "3", "8", "10"], "rt": [5983, 276, 413, 100, 395], "actions": ["up", "up", "up", "left", "down"], "actionTimes": [7476, 8276, 9211, 9815, 10728], "queries": {"click": {"state": {"target": ["23", "24", "25", "12", "13", "14"], "time": [2116, 2754, 3430, 4680, 5315, 6030]}, "edge": {"target": [], "time": []}}, "mouseover": {"state": {"target": ["23", "24", "25", "31", "22", "12", "13", "14", "1"], "time": [1910, 2441, 3142, 4057, 4262, 4490, 4983, 5746, 7208]}, "edge": {"target": [], "time": []}}, "mouseout": {"state": {"target": ["0", "23", "24", "23", "23", "24", "25", "25", "31", "22", "12", "13", "14", "1"], "time": [590, 607, 676, 925, 2393, 3100, 3566, 3891, 4076, 4340, 4937, 5712, 6627, 12958]}, "edge": {"target": [], "time": []}}}, "displayed_time": "15.50", "trialTime": 16924, "trial_type": "mouselab-mdp", "trial_index": 31, "time_elapsed": 1122381, "internal_node_id": "0.0-6.0-1.0-16.0"}}, {"uniqueid": "w92755292:a18241654", "current_trial": 32, "dateTime": 1693567396753, "trialdata": {"revealed_states": [], "clicked_states": ["23", "24", "25", "26", "12", "13", "14", "15"], "num_clicks_accrued": [0, 0, 0, 0, 0, 0, 0, 0, 0, 0, 0, 0, 0], "stateRewards": ["", 1, 1, -3, 2, 22, -25, -11, -5, 50, 49, 3, 1, -1, 8, 14, -85, -30, 57, -6, -39, -16, 59, -2, -1, 5, 5, 59, -16, 8, 4, 67, 56, -9], "withholdReward": false, "trial_id": "mdp_trial_18", "block": "test", "trialIndex": 21, "score": -29.2, "costs": -5.199999999999999, "simulationMode": [null, null, null, null, null], "rewards": [1, 1, -3, 2, -25], "path": ["0", "0", "1", "2", "3", "4", "6"], "rt": [6448, 240, 148, 560, 82], "actions": ["up", "up", "up", "right", "right"], "actionTimes": [8239, 8993, 9682, 10760, 11369], "queries": {"click": {"state": {"target": ["23", "24", "25", "26", "12", "13", "14", "15"], "time": [2346, 2918, 3502, 4459, 5318, 5941, 6616, 7344]}, "edge": {"target": [], "time": []}}, "mouseover": {"state": {"target": ["0", "23", "24", "25", "26", "12", "13", "14", "15", "18", "1", "1"], "time": [1842, 1997, 2685, 3226, 4211, 4924, 5827, 6410, 7194, 7909, 7974, 8169]}, "edge": {"target": [], "time": []}}, "mouseout": {"state": {"target": ["7", "0", "0", "23", "23", "24", "25", "26", "12", "13", "14", "15", "18", "1", "1", "16"], "time": [812, 1411, 1860, 2444, 2601, 3193, 3905, 4799, 5610, 6276, 7060, 7885, 7932, 7997, 14297, 14381]}, "edge": {"target": [], "time": []}}}, "displayed_time": "15.79", "trialTime": 17558, "trial_type": "mouselab-mdp", "trial_index": 32, "time_elapsed": 1140560, "internal_node_id": "0.0-6.0-1.0-17.0"}}, {"uniqueid": "w92755292:a18241654", "current_trial": 33, "dateTime": 1693567415096, "trialdata": {"revealed_states": [], "clicked_states": [], "num_clicks_accrued": [0, 0, 0, 0, 0, 0, 0, 0, 0, 0, 0, 0, 0], "stateRewards": ["", -1, -3, -3, 1, -38, 2, -53, -2, -1, -81, 70, -1, 1, -5, -9, 46, 15, 35, -1, -22, 38, 59, -2, 4, -8, 13, 1, -83, -43, 4, 76, 13, 48], "withholdReward": false, "trial_id": "mdp_trial_19", "block": "test", "trialIndex": 22, "score": 46, "costs": 0, "simulationMode": [null, null, null, null, null], "rewards": [-2, 4, -8, 4, 48], "path": ["0", "0", "23", "24", "25", "30", "33"], "rt": [549, 1247, 394, 200, 385], "actions": ["left", "left", "left", "down", "left"], "actionTimes": [2591, 4358, 5285, 6006, 6913], "queries": {"click": {"state": {"target": [], "time": []}, "edge": {"target": [], "time": []}}, "mouseover": {"state": {"target": [], "time": []}, "edge": {"target": [], "time": []}}, "mouseout": {"state": {"target": ["3", "10", "1", "0", "23", "24", "23", "0", "12"], "time": [949, 999, 1299, 3366, 3599, 7550, 7584, 7605, 7627]}, "edge": {"target": [], "time": []}}}, "displayed_time": "16.04", "trialTime": 17806, "trial_type": "mouselab-mdp", "trial_index": 33, "time_elapsed": 1158903, "internal_node_id": "0.0-6.0-1.0-18.0"}}, {"uniqueid": "w92755292:a18241654", "current_trial": 34, "dateTime": 1693567434224, "trialdata": {"revealed_states": [], "clicked_states": ["12", "13", "14", "19", "23", "24", "25"], "num_clicks_accrued": [0, 0, 0, 0, 0, 0, 0, 0, 0, 0, 0, 0, 0], "stateRewards": ["", 1, -2, 7, -14, 88, -56, -44, -14, 64, -51, -57, -2, 3, -4, -9, -11, 19, -77, -1, 68, 75, -67, -1, 1, -2, 5, -37, 70, -34, -10, -72, 63, -41], "withholdReward": false, "trial_id": "mdp_trial_20", "block": "test", "trialIndex": 23, "score": 52.35, "costs": -3.6499999999999995, "simulationMode": [null, null, null, null, null], "rewards": [1, -2, 7, -14, 64], "path": ["0", "0", "1", "2", "3", "8", "9"], "rt": [6980, 469, 328, 379, 688], "actions": ["up", "up", "up", "left", "up"], "actionTimes": [8824, 9820, 10672, 11572, 12781], "queries": {"click": {"state": {"target": ["12", "13", "14", "19", "23", "24", "25"], "time": [2592, 3163, 4001, 5156, 6019, 7066, 7672]}, "edge": {"target": [], "time": []}}, "mouseover": {"state": {"target": ["12", "13", "14", "19", "19", "22", "23", "24", "25", "31", "0", "1"], "time": [2420, 3034, 3502, 4779, 5018, 5468, 5652, 6355, 7385, 8236, 8368, 8452]}, "edge": {"target": [], "time": []}}, "mouseout": {"state": {"target": ["10", "0", "12", "13", "14", "19", "19", "22", "23", "24", "25", "31", "0", "1", "1", "0", "12", "14"], "time": [902, 2370, 2911, 3478, 4755, 4824, 5401, 5519, 6218, 7273, 8121, 8285, 8387, 9522, 13620, 14220, 16737, 16786]}, "edge": {"target": [], "time": []}}}, "displayed_time": "15.85", "trialTime": 18555, "trial_type": "mouselab-mdp", "trial_index": 34, "time_elapsed": 1178031, "internal_node_id": "0.0-6.0-1.0-19.0"}}, {"uniqueid": "w92755292:a18241654", "current_trial": 35, "dateTime": 1693567457202, "trialdata": {"revealed_states": [], "clicked_states": ["12", "13", "14", "19", "23", "24", "25", "26", "1", "2", "3", "8", "4"], "num_clicks_accrued": [0, 0, 0, 0, 0, 0, 0, 0, 0, 0, 0, 0, 0], "stateRewards": ["", -2, -4, -6, 12, -58, -70, -80, 2, 16, -88, -62, 1, 2, -5, 11, 77, -35, -44, -5, 18, -83, 87, 1, -3, -5, 13, -44, -21, -86, 10, -52, 8, 29], "withholdReward": false, "trial_id": "mdp_trial_21", "block": "test", "trialIndex": 24, "score": -89.35, "costs": -9.35, "simulationMode": [null, null, null, null, null], "rewards": [-2, -4, -6, 12, -80], "path": ["0", "0", "1", "2", "3", "4", "7"], "rt": [9916, 239, 285, 127, 590], "actions": ["up", "up", "up", "right", "down"], "actionTimes": [11596, 12341, 13153, 13797, 14905], "queries": {"click": {"state": {"target": ["12", "13", "14", "19", "23", "24", "25", "26", "1", "2", "3", "8", "4"], "time": [2655, 3239, 3910, 4434, 5744, 6210, 6775, 7825, 8638, 9366, 9966, 10530, 11066]}, "edge": {"target": [], "time": []}}, "mouseover": {"state": {"target": ["12", "13", "14", "14", "19", "22", "28", "23", "24", "25", "26", "28", "1", "2", "3", "8", "4"], "time": [2329, 2884, 3497, 3760, 4225, 5184, 5325, 5528, 5942, 6643, 7687, 8144, 8430, 9262, 9796, 10243, 10763]}, "edge": {"target": [], "time": []}}, "mouseout": {"state": {"target": ["0", "12", "13", "14", "14", "19", "22", "28", "23", "24", "25", "26", "28", "1", "2", "3", "3", "8", "3", "4", "7", "7", "1", "0"], "time": [1997, 2842, 3459, 3546, 4159, 4693, 5209, 5413, 5875, 6525, 7536, 8118, 8174, 9152, 9726, 10006, 10192, 10649, 10744, 11806, 11959, 13757, 20212, 20236]}, "edge": {"target": [], "time": []}}}, "displayed_time": "15.68", "trialTime": 22309, "trial_type": "mouselab-mdp", "trial_index": 35, "time_elapsed": 1201009, "internal_node_id": "0.0-6.0-1.0-20.0"}}, {"uniqueid": "w92755292:a18241654", "current_trial": 36, "dateTime": 1693567474607, "trialdata": {"revealed_states": [], "clicked_states": ["23", "24", "25", "30", "32"], "num_clicks_accrued": [0, 0, 0, 0, 0, 0, 0, 0, 0, 0, 0, 0, 0], "stateRewards": ["", -1, 1, -5, -6, -78, 47, -13, 12, 48, -88, 20, 2, -3, -2, 13, -20, 37, -57, 14, -38, 30, 31, -2, -2, 8, 2, -23, 78, 28, 12, -74, -88, 8], "withholdReward": false, "trial_id": "mdp_trial_22", "block": "test", "trialIndex": 25, "score": 31.25, "costs": -4.75, "simulationMode": [null, null, null, null, null], "rewards": [-1, 1, -5, -6, 47], "path": ["0", "0", "1", "2", "3", "4", "6"], "rt": [7672, 330, 171, 512, 12], "actions": ["up", "up", "up", "right", "right"], "actionTimes": [9083, 9928, 10604, 11654, 12195], "queries": {"click": {"state": {"target": ["23", "24", "25", "30", "32"], "time": [2226, 3206, 4197, 5198, 6289]}, "edge": {"target": [], "time": []}}, "mouseover": {"state": {"target": ["23", "24", "25", "30", "32", "0", "0", "12", "13", "12"], "time": [1976, 2663, 3592, 4737, 6083, 6642, 6992, 7390, 7907, 8042]}, "edge": {"target": [], "time": []}}, "mouseout": {"state": {"target": ["23", "0", "23", "24", "25", "30", "30", "32", "32", "0", "0", "12", "13", "12", "12", "21"], "time": [424, 1425, 2610, 3483, 4614, 5273, 5678, 6396, 6527, 6671, 7340, 7824, 8007, 9366, 13060, 14358]}, "edge": {"target": [], "time": []}}}, "displayed_time": "15.41", "trialTime": 16812, "trial_type": "mouselab-mdp", "trial_index": 36, "time_elapsed": 1218414, "internal_node_id": "0.0-6.0-1.0-21.0"}}, {"uniqueid": "w92755292:a18241654", "current_trial": 37, "dateTime": 1693567492381, "trialdata": {"revealed_states": [], "clicked_states": ["12", "13", "14", "24", "23", "25", "30"], "num_clicks_accrued": [0, 0, 0, 0, 0, 0, 0, 0, 0, 0, 0, 0, 0], "stateRewards": ["", -2, 2, -1, -6, 22, 6, 6, -5, 70, -42, 65, 1, 3, 5, -6, -67, -9, 3, 14, 7, -62, -13, -2, 4, 1, 16, 42, -21, -52, -8, 32, 53, 81], "withholdReward": false, "trial_id": "mdp_trial_23", "block": "test", "trialIndex": 26, "score": 11.350000000000001, "costs": -3.6499999999999995, "simulationMode": [null, null, null, null, null], "rewards": [-2, 2, -1, -6, 22], "path": ["0", "0", "1", "2", "3", "4", "5"], "rt": [6821, 317, 241, 142, 199], "actions": ["up", "up", "up", "right", "up"], "actionTimes": [8790, 9633, 10390, 11060, 11784], "queries": {"click": {"state": {"target": ["12", "13", "14", "24", "23", "25", "30"], "time": [2561, 3384, 4118, 5304, 5800, 6774, 7618]}, "edge": {"target": [], "time": []}}, "mouseover": {"state": {"target": ["12", "13", "14", "22", "23", "24", "23", "25", "30", "28"], "time": [2411, 3058, 3809, 4709, 4784, 4839, 5624, 6524, 7331, 8158]}, "edge": {"target": [], "time": []}}, "mouseout": {"state": {"target": ["20", "15", "12", "12", "13", "14", "22", "23", "24", "23", "23", "24", "25", "25", "30", "24", "28", "0", "13"], "time": [826, 1258, 2672, 2943, 3759, 4639, 4735, 4812, 5384, 5872, 6142, 6400, 6897, 7197, 7790, 7908, 8510, 12678, 12761]}, "edge": {"target": [], "time": []}}}, "displayed_time": "15.97", "trialTime": 17106, "trial_type": "mouselab-mdp", "trial_index": 37, "time_elapsed": 1236189, "internal_node_id": "0.0-6.0-1.0-22.0"}}, {"uniqueid": "w92755292:a18241654", "current_trial": 38, "dateTime": 1693567510255, "trialdata": {"revealed_states": [], "clicked_states": ["12", "13", "14", "23", "24", "25", "30"], "num_clicks_accrued": [0, 0, 0, 0, 0, 0, 0, 0, 0, 0, 0, 0, 0], "stateRewards": ["", 2, 3, -3, 12, -43, 81, -82, -15, 58, -7, -75, -1, -1, 3, -5, 50, -25, -8, 4, 66, 65, -66, 2, -4, 2, -1, -10, 10, 37, 11, 88, -37, 8], "withholdReward": false, "trial_id": "mdp_trial_24", "block": "test", "trialIndex": 27, "score": 95.35, "costs": -3.6499999999999995, "simulationMode": [null, null, null, null, null], "rewards": [2, -4, 2, 11, 88], "path": ["0", "0", "23", "24", "25", "30", "31"], "rt": [7894, 204, 239, 116, 288], "actions": ["left", "left", "left", "down", "right"], "actionTimes": [9390, 10107, 10870, 11524, 12339], "queries": {"click": {"state": {"target": ["12", "13", "14", "23", "24", "25", "30"], "time": [2408, 3235, 4096, 5413, 6288, 6960, 7952]}, "edge": {"target": [], "time": []}}, "mouseover": {"state": {"target": ["13", "12", "13", "14", "14", "19", "22", "0", "23", "24", "25", "30", "1", "1", "1"], "time": [1961, 2145, 2813, 3563, 3761, 4512, 4779, 4891, 5277, 5872, 6575, 7246, 8495, 8616, 8804]}, "edge": {"target": [], "time": []}}, "mouseout": {"state": {"target": ["15", "0", "13", "12", "13", "14", "14", "19", "22", "12", "0", "23", "24", "25", "30", "24", "1", "1", "1", "0", "23", "23", "23"], "time": [610, 1510, 2112, 2781, 3543, 3598, 4477, 4760, 4799, 4869, 4946, 5727, 6510, 7227, 8283, 8377, 8524, 8643, 9448, 9551, 9917, 10955, 13163]}, "edge": {"target": [], "time": []}}}, "displayed_time": "15.50", "trialTime": 17281, "trial_type": "mouselab-mdp", "trial_index": 38, "time_elapsed": 1254063, "internal_node_id": "0.0-6.0-1.0-23.0"}}, {"uniqueid": "w92755292:a18241654", "current_trial": 39, "dateTime": 1693567529524, "trialdata": {"revealed_states": [], "clicked_states": ["23", "24", "25", "30", "33"], "num_clicks_accrued": [0, 0, 0, 0, 0, 0, 0, 0, 0, 0, 0, 0, 0], "stateRewards": ["", -1, 3, 1, -11, -22, -36, 19, -5, -70, -52, 50, -2, -4, 4, -2, -41, -83, 29, -2, 22, 10, -6, -2, 3, -2, 14, 54, 44, 77, -9, -65, -37, -40], "withholdReward": false, "trial_id": "mdp_trial_25", "block": "test", "trialIndex": 28, "score": -49.75, "costs": -4.75, "simulationMode": [null, null, null, null, null], "rewards": [-2, -4, 4, -2, -41], "path": ["0", "0", "12", "13", "14", "15", "16"], "rt": [6839, 96, 208, 91, 91], "actions": ["right", "right", "right", "up", "up"], "actionTimes": [9335, 9961, 10688, 11305, 11926], "queries": {"click": {"state": {"target": ["23", "24", "25", "30", "33"], "time": [3076, 3805, 4527, 5402, 6191]}, "edge": {"target": [], "time": []}}, "mouseover": {"state": {"target": ["23", "24", "25", "30", "33", "31", "31", "12"], "time": [2874, 3395, 4155, 4933, 5855, 6538, 6821, 7822]}, "edge": {"target": [], "time": []}}, "mouseout": {"state": {"target": ["0", "23", "24", "25", "30", "30", "33", "30", "31", "31", "12"], "time": [2575, 3333, 4107, 4873, 5466, 5769, 6489, 6521, 6571, 7704, 15924]}, "edge": {"target": [], "time": []}}}, "displayed_time": "16.50", "trialTime": 18565, "trial_type": "mouselab-mdp", "trial_index": 39, "time_elapsed": 1273332, "internal_node_id": "0.0-6.0-1.0-24.0"}}, {"uniqueid": "w92755292:a18241654", "current_trial": 40, "dateTime": 1693567547289, "trialdata": {"revealed_states": [], "clicked_states": ["12", "13", "14", "19", "21"], "num_clicks_accrued": [0, 0, 0, 0, 0, 0, 0, 0, 0, 0, 0, 0, 0], "stateRewards": ["", 1, -2, -2, 10, -31, -77, 35, 9, -47, 8, 48, -2, 1, -4, -3, -26, -50, 43, -11, 76, -38, 17, 1, -1, 6, 10, 15, -9, 12, -8, 85, 11, -55], "withholdReward": false, "trial_id": "mdp_trial_26", "block": "test", "trialIndex": 29, "score": 23.25, "costs": -4.75, "simulationMode": [null, null, null, null, null], "rewards": [1, -1, 6, 10, 12], "path": ["0", "0", "23", "24", "25", "26", "29"], "rt": [6805, 113, 288, 58, 34], "actions": ["left", "left", "left", "up", "left"], "actionTimes": [8210, 8850, 9659, 10250, 10821], "queries": {"click": {"state": {"target": ["12", "13", "14", "19", "21"], "time": [2937, 3598, 4272, 4713, 5326]}, "edge": {"target": [], "time": []}}, "mouseover": {"state": {"target": ["12", "12", "13", "14", "19", "21", "15", "18", "23", "23", "24", "23"], "time": [2549, 2749, 3555, 3963, 4478, 5114, 6027, 6796, 6912, 7062, 7645, 7929]}, "edge": {"target": [], "time": []}}, "mouseout": {"state": {"target": ["18", "13", "12", "0", "12", "12", "13", "14", "14", "19", "21", "19", "14", "15", "18", "23", "23", "24", "23"], "time": [664, 780, 847, 2166, 2599, 3129, 3839, 4354, 4451, 4979, 5439, 5662, 5715, 6762, 6812, 6929, 7592, 7896, 13082]}, "edge": {"target": [], "time": []}}}, "displayed_time": "15.42", "trialTime": 16854, "trial_type": "mouselab-mdp", "trial_index": 40, "time_elapsed": 1291097, "internal_node_id": "0.0-6.0-1.0-25.0"}}, {"uniqueid": "w92755292:a18241654", "current_trial": 41, "dateTime": 1693567565162, "trialdata": {"revealed_states": [], "clicked_states": ["1", "2", "3", "4", "6"], "num_clicks_accrued": [0, 0, 0, 0, 0, 0, 0, 0, 0, 0, 0, 0, 0], "stateRewards": ["", 1, -4, -4, 8, 1, -79, 68, -10, -79, 8, -74, -1, -3, -6, 14, 43, 23, 9, 5, -51, 63, 61, -2, 4, 6, -10, 69, -32, 57, 15, -80, -80, -77], "withholdReward": false, "trial_id": "mdp_trial_27", "block": "test", "trialIndex": 30, "score": 64.25, "costs": -4.75, "simulationMode": [null, null, null, null, null, null], "rewards": [1, -4, -4, 8, 68], "path": ["0", "0", "1", "2", "3", "4", "7"], "rt": [5207, 1070, 44, 52, 78, 120], "actions": ["up", "up", "up", "up", "right", "down"], "actionTimes": [7072, 8151, 8717, 9291, 9885, 10528], "queries": {"click": {"state": {"target": ["1", "2", "3", "4", "6"], "time": [2473, 3048, 3728, 4407, 4866]}, "edge": {"target": [], "time": []}}, "mouseover": {"state": {"target": ["1", "2", "3", "4", "6", "8", "11", "10", "2", "1", "1"], "time": [2267, 2761, 3450, 4150, 4720, 5370, 6225, 6829, 7351, 7622, 7886]}, "edge": {"target": [], "time": []}}, "mouseout": {"state": {"target": ["4", "7", "0", "1", "2", "3", "4", "6", "4", "3", "8", "11", "10", "2", "1", "1", "18"], "time": [1000, 1082, 2202, 2580, 3171, 3873, 4695, 5178, 5255, 5314, 6149, 6683, 7043, 7569, 7800, 12168, 12283]}, "edge": {"target": [], "time": []}}}, "displayed_time": "15.87", "trialTime": 17280, "trial_type": "mouselab-mdp", "trial_index": 41, "time_elapsed": 1308969, "internal_node_id": "0.0-6.0-1.0-26.0"}}, {"uniqueid": "w92755292:a18241654", "current_trial": 42, "dateTime": 1693567585915, "trialdata": {"revealed_states": [], "clicked_states": ["23", "24", "25", "30", "33"], "num_clicks_accrued": [0, 0, 0, 0, 0, 0, 0, 0, 0, 0, 0, 0, 0], "stateRewards": ["", 1, -1, 1, -14, -10, 67, -28, -11, 72, 40, -65, -1, 1, 1, -2, 8, -55, 34, -10, 61, 33, -15, 2, -4, 7, 4, -75, 63, -21, -16, 61, 19, 21], "withholdReward": false, "trial_id": "mdp_trial_28", "block": "test", "trialIndex": 31, "score": 5.25, "costs": -4.75, "simulationMode": [null, null, null, null, null, null], "rewards": [2, -4, 7, -16, 21], "path": ["0", "0", "23", "24", "25", "30", "33"], "rt": [4791, 769, 67, 275, 410, 122], "actions": ["left", "left", "left", "left", "down", "left"], "actionTimes": [6206, 6984, 7574, 8368, 10752, 11374], "queries": {"click": {"state": {"target": ["23", "24", "25", "30", "33"], "time": [1928, 2564, 3245, 3970, 4701]}, "edge": {"target": [], "time": []}}, "mouseover": {"state": {"target": ["23", "24", "25", "30", "33", "31", "0"], "time": [1734, 2282, 2867, 3601, 4495, 5163, 6974]}, "edge": {"target": [], "time": []}}, "mouseout": {"state": {"target": ["16", "7", "0", "23", "24", "25", "30", "33", "30", "31", "0", "11", "8", "6", "17", "13"], "time": [515, 649, 1701, 2198, 2831, 3514, 4391, 5063, 5128, 6111, 15266, 15384, 15408, 15445, 19087, 19153]}, "edge": {"target": [], "time": []}}}, "displayed_time": "15.43", "trialTime": 20150, "trial_type": "mouselab-mdp", "trial_index": 42, "time_elapsed": 1329723, "internal_node_id": "0.0-6.0-1.0-27.0"}}, {"uniqueid": "w92755292:a18241654", "current_trial": 43, "dateTime": 1693567603127, "trialdata": {"revealed_states": [], "clicked_states": ["1", "2", "3", "4", "5"], "num_clicks_accrued": [0, 0, 0, 0, 0, 0, 0, 0, 0, 0, 0, 0, 0], "stateRewards": ["", -2, -3, 8, 14, -73, 73, 84, -12, -2, -50, -17, 2, 1, -2, -9, -44, -27, -33, 16, -63, -47, -66, -2, 1, 4, -5, -33, -11, 50, 9, 38, -79, 31], "withholdReward": false, "trial_id": "mdp_trial_29", "block": "test", "trialIndex": 32, "score": 85.25, "costs": -4.75, "simulationMode": [null, null, null, null, null, null], "rewards": [-2, -3, 8, 14, 73], "path": ["0", "0", "1", "2", "3", "4", "6"], "rt": [4076, 626, 61, 110, 8, 45], "actions": ["up", "up", "up", "up", "right", "right"], "actionTimes": [5364, 5999, 6613, 7242, 7770, 8356], "queries": {"click": {"state": {"target": ["1", "2", "3", "4", "5"], "time": [1963, 2492, 3069, 3747, 4449]}, "edge": {"target": [], "time": []}}, "mouseover": {"state": {"target": ["1", "2", "3", "4", "5", "6"], "time": [1739, 2323, 2866, 3337, 4225, 5053]}, "edge": {"target": [], "time": []}}, "mouseout": {"state": {"target": ["7", "2", "1", "0", "1", "2", "3", "4", "5", "6", "4", "18", "15", "17"], "time": [370, 505, 571, 1672, 2221, 2792, 3299, 3821, 4807, 5721, 5809, 9573, 12705, 12727]}, "edge": {"target": [], "time": []}}}, "displayed_time": "15.29", "trialTime": 16534, "trial_type": "mouselab-mdp", "trial_index": 43, "time_elapsed": 1346935, "internal_node_id": "0.0-6.0-1.0-28.0"}}, {"uniqueid": "w92755292:a18241654", "current_trial": 44, "dateTime": 1693567622140, "trialdata": {"revealed_states": [], "clicked_states": ["23", "24", "25", "26", "29"], "num_clicks_accrued": [0, 0, 0, 0, 0, 0, 0, 0, 0, 0, 0, 0, 0], "stateRewards": ["", 2, -1, 4, -9, -43, 7, 54, -13, 38, -40, -83, -1, 2, -8, -10, 34, -33, 11, -14, -79, 65, 26, 1, 2, 4, 10, 21, 1, 86, 4, -53, 28, -29], "withholdReward": false, "trial_id": "mdp_trial_30", "block": "test", "trialIndex": 33, "score": 98.25, "costs": -4.75, "simulationMode": [null, null, null, null, null, null], "rewards": [1, 2, 4, 10, 86], "path": ["0", "0", "23", "24", "25", "26", "29"], "rt": [5996, 724, 119, 215, 183, 97], "actions": ["left", "left", "left", "left", "up", "left"], "actionTimes": [7428, 8160, 8801, 9544, 10250, 10862], "queries": {"click": {"state": {"target": ["23", "24", "25", "26", "29"], "time": [2066, 2773, 3443, 4790, 6104]}, "edge": {"target": [], "time": []}}, "mouseover": {"state": {"target": ["23", "24", "25", "26", "27", "29", "23"], "time": [1877, 2485, 3191, 4342, 5433, 5892, 8078]}, "edge": {"target": [], "time": []}}, "mouseout": {"state": {"target": ["17", "14", "0", "23", "24", "25", "25", "26", "27", "29", "26", "23", "21"], "time": [592, 674, 992, 2446, 3107, 3892, 4310, 5365, 5806, 6767, 6842, 8108, 16660]}, "edge": {"target": [], "time": []}}}, "displayed_time": "15.43", "trialTime": 18336, "trial_type": "mouselab-mdp", "trial_index": 44, "time_elapsed": 1365947, "internal_node_id": "0.0-6.0-1.0-29.0"}}, {"uniqueid": "w92755292:a18241654", "current_trial": 45, "dateTime": 1693567640376, "trialdata": {"revealed_states": [], "clicked_states": ["12", "13", "14", "19", "21"], "num_clicks_accrued": [0, 0, 0, 0, 0, 0, 0, 0, 0, 0, 0, 0, 0], "stateRewards": ["", -1, -3, -5, -14, -13, -47, 79, 8, -60, -64, 41, -1, 2, 3, 13, -46, 61, -79, -11, -64, -65, 23, 1, -2, 6, -14, 46, 32, 21, 7, 75, -66, 15], "withholdReward": false, "trial_id": "mdp_trial_31", "block": "test", "trialIndex": 34, "score": 22.25, "costs": -4.75, "simulationMode": [null, null, null, null, null, null], "rewards": [1, -2, 6, 7, 15], "path": ["0", "0", "23", "24", "25", "30", "33"], "rt": [4752, 588, 137, 450, 342, 2699], "actions": ["left", "left", "left", "left", "down", "left"], "actionTimes": [6146, 6739, 7418, 8382, 9243, 12473], "queries": {"click": {"state": {"target": ["12", "13", "14", "19", "21"], "time": [2244, 2811, 3678, 4506, 5069]}, "edge": {"target": [], "time": []}}, "mouseover": {"state": {"target": ["12", "13", "14", "19", "21", "0"], "time": [2029, 2642, 3161, 4249, 5008, 6342]}, "edge": {"target": [], "time": []}}, "mouseout": {"state": {"target": ["0", "12", "13", "14", "19", "21", "0", "23", "0"], "time": [826, 2560, 3125, 4197, 4795, 5185, 6897, 9110, 13777]}, "edge": {"target": [], "time": []}}}, "displayed_time": "15.40", "trialTime": 17559, "trial_type": "mouselab-mdp", "trial_index": 45, "time_elapsed": 1384184, "internal_node_id": "0.0-6.0-1.0-30.0"}}, {"uniqueid": "w92755292:a18241654", "current_trial": 46, "dateTime": 1693567662453, "trialdata": {"revealed_states": [], "clicked_states": ["1", "2", "3", "8", "11", "12"], "num_clicks_accrued": [0, 0, 0, 0, 0, 0, 0, 0, 0, 0, 0, 0, 0], "stateRewards": ["", -2, -2, -3, -6, -15, -11, 41, -12, -63, -76, 2, -2, -3, 8, 9, -36, -2, -18, -16, -32, -85, -17, -2, 1, 5, -16, 82, 35, -88, -1, 80, -82, -20], "withholdReward": false, "trial_id": "mdp_trial_32", "block": "test", "trialIndex": 35, "score": -34.5, "costs": -4.5, "simulationMode": [null, null, null, null, null, null], "rewards": [-2, -3, 8, -16, -17], "path": ["0", "0", "12", "13", "14", "19", "22"], "rt": [5888, 1853, 316, 414, 478, 981], "actions": ["right", "right", "right", "right", "down", "left"], "actionTimes": [7326, 9188, 10024, 10957, 11948, 13456], "queries": {"click": {"state": {"target": ["1", "2", "3", "8", "11", "12"], "time": [2036, 2910, 3893, 4636, 5208, 8143]}, "edge": {"target": [], "time": []}}, "mouseover": {"state": {"target": ["1", "2", "3", "8", "11", "12", "13"], "time": [1819, 2742, 3614, 4354, 5012, 6386, 8947]}, "edge": {"target": [], "time": []}}, "mouseout": {"state": {"target": ["22", "0", "1", "2", "3", "8", "8", "11", "12", "13", "13", "12"], "time": [701, 1736, 2556, 3492, 4011, 4739, 4979, 5867, 8903, 13808, 18922, 18966]}, "edge": {"target": [], "time": []}}}, "displayed_time": "15.44", "trialTime": 21411, "trial_type": "mouselab-mdp", "trial_index": 46, "time_elapsed": 1406260, "internal_node_id": "0.0-6.0-1.0-31.0"}}, {"uniqueid": "w92755292:a18241654", "current_trial": 47, "dateTime": 1693567682091, "trialdata": {"revealed_states": [], "clicked_states": [], "num_clicks_accrued": [0, 0, 0, 0, 0, 0, 0, 0, 0, 0, 0, 0, 0], "stateRewards": ["", -1, -4, -6, -15, 21, -67, -63, 9, 51, 69, -14, -1, 3, 8, -8, 39, 72, 63, 15, 19, 47, 15, 1, 4, 5, 16, -18, 34, 35, -14, -80, 40, 1], "withholdReward": false, "trial_id": "mdp_trial_33", "block": "test", "trialIndex": 36, "score": 49, "costs": 0, "simulationMode": [null, null, null, null, null], "rewards": [-1, -4, -6, 9, 51], "path": ["0", "0", "1", "2", "3", "8", "9"], "rt": [506, 411, 168, 258, 86], "actions": ["up", "up", "up", "left", "up"], "actionTimes": [3756, 4669, 5347, 6125, 6741], "queries": {"click": {"state": {"target": [], "time": []}, "edge": {"target": [], "time": []}}, "mouseover": {"state": {"target": ["0", "1"], "time": [3378, 3661]}, "edge": {"target": [], "time": []}}, "mouseout": {"state": {"target": ["20", "19", "0", "0", "1", "1", "7", "7", "4", "7", "7", "16", "17", "20"], "time": [2376, 2459, 3267, 3594, 3728, 4311, 7862, 7962, 7984, 8111, 8144, 8178, 8212, 11428]}, "edge": {"target": [], "time": []}}}, "displayed_time": "17.25", "trialTime": 19025, "trial_type": "mouselab-mdp", "trial_index": 47, "time_elapsed": 1425898, "internal_node_id": "0.0-6.0-1.0-32.0"}}, {"uniqueid": "w92755292:a18241654", "current_trial": 48, "dateTime": 1693567700886, "trialdata": {"revealed_states": [], "clicked_states": ["23", "24", "25", "30", "31"], "num_clicks_accrued": [0, 0, 0, 0, 0, 0, 0, 0, 0, 0, 0, 0, 0], "stateRewards": ["", 1, -3, -1, 9, -34, -40, 22, -7, 45, 53, -11, 2, 4, 5, 15, 21, 37, -49, -3, 80, -28, -34, 1, -3, 1, 1, -40, -6, -5, -16, -85, -86, 59], "withholdReward": false, "trial_id": "mdp_trial_34", "block": "test", "trialIndex": 37, "score": -24.75, "costs": -4.75, "simulationMode": [null, null, null, null, null, null], "rewards": [2, 4, 5, -3, -28], "path": ["0", "0", "12", "13", "14", "19", "21"], "rt": [6448, 1360, 233, 257, 69, 199], "actions": ["left", "right", "right", "right", "down", "down"], "actionTimes": [7908, 9272, 10052, 10857, 11432, 12161], "queries": {"click": {"state": {"target": ["23", "24", "25", "30", "31"], "time": [2254, 3414, 4141, 5237, 6310]}, "edge": {"target": [], "time": []}}, "mouseover": {"state": {"target": ["23", "24", "25", "30", "31", "33", "30", "12"], "time": [2007, 3075, 3838, 4602, 5874, 7630, 8330, 8985]}, "edge": {"target": [], "time": []}}, "mouseout": {"state": {"target": ["14", "13", "12", "0", "23", "24", "25", "25", "30", "31", "30", "33", "30", "12", "13", "20"], "time": [390, 487, 671, 1972, 2667, 3702, 4238, 4519, 5352, 6953, 7235, 8216, 8383, 14289, 14339, 17089]}, "edge": {"target": [], "time": []}}}, "displayed_time": "15.48", "trialTime": 18082, "trial_type": "mouselab-mdp", "trial_index": 48, "time_elapsed": 1444693, "internal_node_id": "0.0-6.0-1.0-33.0"}}, {"uniqueid": "w92755292:a18241654", "current_trial": 49, "dateTime": 1693567721537, "trialdata": {"revealed_states": [], "clicked_states": ["1", "2", "3", "4", "6"], "num_clicks_accrued": [0, 0, 0, 0, 0, 0, 0, 0, 0, 0, 0, 0, 0], "stateRewards": ["", 2, 4, 7, 7, -79, -2, -21, -5, -53, 47, -21, 1, -3, -1, 7, 83, 7, 84, -7, 80, -37, 69, 2, -4, 5, 2, 4, -20, -30, 7, 71, 44, -81], "withholdReward": false, "trial_id": "mdp_trial_35", "block": "test", "trialIndex": 38, "score": -63.75, "costs": -4.75, "simulationMode": [null, null, null, null, null], "rewards": [2, 4, 7, 7, -79], "path": ["0", "0", "1", "2", "3", "4", "5"], "rt": [8504, 124, 247, 241, 213], "actions": ["up", "up", "up", "right", "up"], "actionTimes": [10511, 11179, 11958, 12693, 13442], "queries": {"click": {"state": {"target": ["1", "2", "3", "4", "6"], "time": [2862, 3484, 4359, 5472, 6223]}, "edge": {"target": [], "time": []}}, "mouseover": {"state": {"target": ["0", "1", "2", "3", "4", "6", "7"], "time": [2027, 2451, 3250, 3915, 5050, 6002, 7264]}, "edge": {"target": [], "time": []}}, "mouseout": {"state": {"target": ["25", "24", "23", "0", "1", "2", "3", "4", "6", "6", "7", "18", "15", "17", "21"], "time": [1049, 1099, 1182, 2301, 3169, 3815, 5017, 5974, 6326, 6686, 10333, 15018, 15043, 15069, 18967]}, "edge": {"target": [], "time": []}}}, "displayed_time": "16.01", "trialTime": 19912, "trial_type": "mouselab-mdp", "trial_index": 49, "time_elapsed": 1465344, "internal_node_id": "0.0-6.0-1.0-34.0"}}, {"uniqueid": "w92755292:a18241654", "current_trial": 50, "dateTime": 1693567739193, "trialdata": {"revealed_states": [], "clicked_states": ["23", "24", "25", "30", "32"], "num_clicks_accrued": [0, 0, 0, 0, 0, 0, 0, 0, 0, 0, 0, 0, 0], "stateRewards": ["", -2, 1, 6, -2, -10, -78, -69, 14, -15, 7, -1, 1, -1, -2, 13, 77, 32, 87, 5, -74, 30, -26, 1, 3, 4, 12, 39, 54, -43, 2, 10, 23, 13], "withholdReward": false, "trial_id": "mdp_trial_36", "block": "test", "trialIndex": 39, "score": -27.75, "costs": -4.75, "simulationMode": [null, null, null, null, null, null], "rewards": [1, 3, 4, 12, -43], "path": ["0", "0", "23", "24", "25", "26", "29"], "rt": [5909, 1125, 276, 107, 243, 705], "actions": ["left", "left", "left", "left", "up", "left"], "actionTimes": [7342, 8475, 9247, 9879, 10648, 11898], "queries": {"click": {"state": {"target": ["23", "24", "25", "30", "32"], "time": [1918, 2548, 3350, 4303, 5506]}, "edge": {"target": [], "time": []}}, "mouseover": {"state": {"target": ["23", "24", "25", "30", "32"], "time": [1752, 2361, 2999, 4036, 5053]}, "edge": {"target": [], "time": []}}, "mouseout": {"state": {"target": ["0", "23", "24", "25", "30", "32", "30", "31", "31"], "time": [1458, 2279, 2905, 3800, 4736, 5799, 6017, 8647, 14753]}, "edge": {"target": [], "time": []}}}, "displayed_time": "15.44", "trialTime": 16953, "trial_type": "mouselab-mdp", "trial_index": 50, "time_elapsed": 1483000, "internal_node_id": "0.0-6.0-1.0-35.0"}}, {"uniqueid": "w92755292:a18241654", "current_trial": 51, "dateTime": 1693567759278, "trialdata": {"revealed_states": [], "clicked_states": ["23", "24", "25", "30", "33"], "num_clicks_accrued": [0, 0, 0, 0, 0, 0, 0, 0, 0, 0, 0, 0, 0], "stateRewards": ["", 2, -4, 7, 3, 23, -42, 4, 7, -81, -33, 7, -2, -4, 5, -1, 50, -57, -14, -13, -14, 44, 55, -2, -2, 5, -2, 33, 1, 57, -13, -7, 58, 87], "withholdReward": false, "trial_id": "mdp_trial_37", "block": "test", "trialIndex": 40, "score": 70.25, "costs": -4.75, "simulationMode": [null, null, null, null, null], "rewards": [-2, -2, 5, -13, 87], "path": ["0", "0", "23", "24", "25", "30", "33"], "rt": [8105, 58, 347, 109, 179], "actions": ["left", "left", "left", "down", "left"], "actionTimes": [11493, 12093, 12972, 13617, 14298], "queries": {"click": {"state": {"target": ["23", "24", "25", "30", "33"], "time": [5120, 5795, 6419, 7038, 7666]}, "edge": {"target": [], "time": []}}, "mouseover": {"state": {"target": ["0", "23", "24", "25", "30", "33", "32", "12", "12", "0"], "time": [4586, 4952, 5499, 6155, 6745, 7361, 8154, 9614, 9915, 10684]}, "edge": {"target": [], "time": []}}, "mouseout": {"state": {"target": ["17", "18", "12", "0", "0", "23", "24", "25", "30", "33", "32", "12", "12", "0", "12"], "time": [2113, 2233, 2650, 4061, 4752, 5399, 6102, 6687, 7305, 8078, 9082, 9631, 10617, 15839, 18070]}, "edge": {"target": [], "time": []}}}, "displayed_time": "17.39", "trialTime": 19489, "trial_type": "mouselab-mdp", "trial_index": 51, "time_elapsed": 1503085, "internal_node_id": "0.0-6.0-1.0-36.0"}}, {"uniqueid": "w92755292:a18241654", "current_trial": 52, "dateTime": 1693567780291, "trialdata": {"revealed_states": [], "clicked_states": ["12", "13", "14", "15", "17"], "num_clicks_accrued": [0, 0, 0, 0, 0, 0, 0, 0, 0, 0, 0, 0, 0], "stateRewards": ["", -1, -4, -1, -11, 43, 69, 39, 4, 17, -20, -82, -2, -1, 4, 8, -79, 24, -79, 11, 36, 64, 41, 2, 4, -1, 11, -79, -47, 75, -3, 63, -36, -19], "withholdReward": false, "trial_id": "mdp_trial_38", "block": "test", "trialIndex": 41, "score": 28.25, "costs": -4.75, "simulationMode": [null, null, null, null, null], "rewards": [-2, -1, 4, 8, 24], "path": ["0", "0", "12", "13", "14", "15", "17"], "rt": [8691, 155, 225, 159, 129], "actions": ["right", "right", "right", "up", "right"], "actionTimes": [13448, 14122, 14900, 15572, 16229], "queries": {"click": {"state": {"target": ["12", "13", "14", "15", "17"], "time": [6140, 6987, 8012, 8909, 10038]}, "edge": {"target": [], "time": []}}, "mouseover": {"state": {"target": ["12", "13", "14", "15", "17"], "time": [5185, 6519, 7471, 8501, 9904]}, "edge": {"target": [], "time": []}}, "mouseout": {"state": {"target": ["0", "12", "13", "14", "15", "17", "15"], "time": [5161, 6458, 7389, 8331, 9624, 11215, 11438]}, "edge": {"target": [], "time": []}}}, "displayed_time": "18.76", "trialTime": 20363, "trial_type": "mouselab-mdp", "trial_index": 52, "time_elapsed": 1524099, "internal_node_id": "0.0-6.0-1.0-37.0"}}, {"uniqueid": "w92755292:a18241654", "current_trial": 53, "dateTime": 1693567798898, "trialdata": {"revealed_states": [], "clicked_states": ["1", "2", "3", "8", "11"], "num_clicks_accrued": [0, 0, 0, 0, 0, 0, 0, 0, 0, 0, 0, 0, 0], "stateRewards": ["", 1, -1, 1, 13, 31, -56, 72, 2, 41, 5, 63, -2, -3, -2, 3, -71, -26, 52, 13, -31, 24, -67, 2, -2, 5, 4, 66, 43, 72, 9, 86, -26, 44], "withholdReward": false, "trial_id": "mdp_trial_39", "block": "test", "trialIndex": 42, "score": 61.25, "costs": -4.75, "simulationMode": [null, null, null, null, null], "rewards": [1, -1, 1, 2, 63], "path": ["0", "0", "1", "2", "3", "8", "11"], "rt": [7680, 526, 103, 13, 82], "actions": ["up", "up", "up", "left", "left"], "actionTimes": [9742, 11535, 12158, 12690, 13294], "queries": {"click": {"state": {"target": ["1", "2", "3", "8", "11"], "time": [2741, 3519, 4370, 5540, 6530]}, "edge": {"target": [], "time": []}}, "mouseover": {"state": {"target": ["1", "2", "3", "8", "11", "7"], "time": [2572, 3147, 4173, 5074, 6249, 7214]}, "edge": {"target": [], "time": []}}, "mouseout": {"state": {"target": ["14", "12", "0", "1", "2", "3", "8", "11", "3", "7"], "time": [1103, 1420, 2438, 3109, 4111, 5017, 6176, 6896, 6980, 7332]}, "edge": {"target": [], "time": []}}}, "displayed_time": "16.06", "trialTime": 17948, "trial_type": "mouselab-mdp", "trial_index": 53, "time_elapsed": 1542706, "internal_node_id": "0.0-6.0-1.0-38.0"}}, {"uniqueid": "w92755292:a18241654", "current_trial": 54, "dateTime": 1693567816210, "trialdata": {"revealed_states": [], "clicked_states": ["23", "24", "25", "26", "29"], "num_clicks_accrued": [0, 0, 0, 0, 0, 0, 0, 0, 0, 0, 0, 0, 0], "stateRewards": ["", 1, 2, 7, 13, 88, -71, 27, 3, 60, 5, -53, -2, 2, -6, -1, -30, 79, 47, -4, -14, 46, 68, 1, 1, 8, 10, -14, 86, 48, -11, -67, -44, 5], "withholdReward": false, "trial_id": "mdp_trial_40", "block": "test", "trialIndex": 43, "score": 63.25, "costs": -4.75, "simulationMode": [null, null, null, null, null], "rewards": [1, 1, 8, 10, 48], "path": ["0", "0", "23", "24", "25", "26", "29"], "rt": [8934, 79, 140, 90, 63], "actions": ["left", "left", "left", "up", "left"], "actionTimes": [10241, 10836, 11494, 12112, 12698], "queries": {"click": {"state": {"target": ["23", "24", "25", "26", "29"], "time": [3665, 4430, 5252, 6120, 6943]}, "edge": {"target": [], "time": []}}, "mouseover": {"state": {"target": ["12", "13", "13", "12", "0", "23", "24", "23", "24", "25", "26", "29", "28"], "time": [1737, 1789, 2152, 2535, 2836, 2910, 2976, 3452, 3984, 4898, 5868, 6685, 7681]}, "edge": {"target": [], "time": []}}, "mouseout": {"state": {"target": ["1", "12", "13", "13", "12", "0", "23", "24", "23", "23", "24", "25", "26", "29", "26", "28"], "time": [617, 1764, 1816, 2403, 2769, 2885, 2952, 3252, 3759, 3915, 4705, 5682, 6642, 7615, 7676, 7715]}, "edge": {"target": [], "time": []}}}, "displayed_time": "15.31", "trialTime": 16592, "trial_type": "mouselab-mdp", "trial_index": 54, "time_elapsed": 1560018, "internal_node_id": "0.0-6.0-1.0-39.0"}}, {"uniqueid": "w92755292:a18241654", "current_trial": 55, "dateTime": 1693567881757, "trialdata": {"rt": 65424, "response": {"Q0": "$-2 to $2", "Q1": "$-4 to $4", "Q2": "$-32 to $32", "Q3": "It was less costly to inspect further nodes.", "Q4": "Very motivated"}, "question_order": [0, 1, 2, 3, 4], "trial_id": "final_quiz_control", "trial_type": "survey-multi-choice", "trial_index": 55, "time_elapsed": 1625565, "internal_node_id": "0.0-6.0-2.0"}}, {"uniqueid": "w92755292:a18241654", "current_trial": 56, "dateTime": 1693567984396, "trialdata": {"rt": 102601, "response": {"Q0": "I relied on the inspections to choose nodes with the highest possible return.", "Q1": "I sometimes moved the spider in contrast to the inspection.", "Q2": "Slightly difficult."}, "trial_id": "self_report_control", "trial_type": "survey-text", "trial_index": 56, "time_elapsed": 1728205, "internal_node_id": "0.0-6.0-3.0"}}, {"uniqueid": "w92755292:a18241654", "current_trial": 57, "dateTime": 1693568035204, "trialdata": {"rt": 50801, "response": {"Q0": "Agree", "Q1": "Agree", "Q2": "Agree", "Q3": "Agree", "Q4": "Disagree", "Q5": "Agree", "Q6": "Disagree"}, "question_order": [0, 1, 2, 3, 4, 5, 6], "trial_id": "self_report_2", "trial_type": "survey-multi-choice", "trial_index": 57, "time_elapsed": 1779013, "internal_node_id": "0.0-6.0-4.0"}}, {"uniqueid": "w92755292:a18241654", "current_trial": 58, "dateTime": 1693568062435, "trialdata": {"rt": 27222, "response": {"gender": "male", "age": "22", "colorblind": "0", "effort": "0"}, "trial_type": "survey-html-form", "trial_index": 58, "time_elapsed": 1806244, "internal_node_id": "0.0-6.0-5.0"}}, {"uniqueid": "w92755292:a18241654", "current_trial": 59, "dateTime": 1693568087850, "trialdata": {"rt": 25407, "response": {"Q0": "No", "Q1": "No", "Q2": ""}, "trial_type": "survey-text", "trial_index": 59, "time_elapsed": 1831659, "internal_node_id": "0.0-6.0-6.0"}}, {"uniqueid": "w92755292:a18241654", "current_trial": 60, "dateTime": 1693568127555, "trialdata": {"rt": 39674, "stimulus": "<h1>Completion Code Instructions (1/2)</h1>\n<br><br><br><br>\nYou have reached the end of the experiment! The completion code consists of two parts: (1) a code with 2 characters (2) a code with 6 characters. On this page, you will receive the second part of the code. The first part of the completion code will be on the next page.\n<br><br>\nThe second part of your completion code is: <b>EWEK22</b>\n<br><br>\nPlease note this down. Then, press 'Finish HIT' in order to find the first part of your completion code. Once the data has been saved, you will receive this code either in this window or in the original browser window where you started the experiment.\n", "response": 0, "trial_type": "html-button-response", "trial_index": 60, "time_elapsed": 1871364, "internal_node_id": "0.0-6.0-7.0"}}, {"uniqueid": "w92755292:a18241654", "current_trial": 61, "dateTime": 1693568128561, "trialdata": {"success": true, "trial_type": "fullscreen", "trial_index": 61, "time_elapsed": 1872369, "internal_node_id": "0.0-7.0"}}], "questiondata": {"params": {"CODE": "C6DMOQA6", "MIN_TIME": 14, "inspectCost": 1, "startTime": "Fri Sep 01 2023 13:04:12 GMT+0200 (South Africa Standard Time)", "bonusRate": 0.002, "variance": "1_2_4_8_44", "branching": "31123"}, "final_score": 425.3}, "eventdata": [{"eventtype": "initialized", "value": null, "timestamp": 1693566251633, "interval": 0}, {"eventtype": "window_resize", "value": [1366, 670], "timestamp": 1693566251633, "interval": 0}, {"eventtype": "window_resize", "value": [1366, 670], "timestamp": 1693566252135, "interval": 502}, {"eventtype": "window_resize", "value": [1366, 768], "timestamp": 1693566264771, "interval": 12636}, {"eventtype": "focus", "value": "off", "timestamp": 1693566575436, "interval": 310665}, {"eventtype": "window_resize", "value": [1366, 767], "timestamp": 1693566575652, "interval": 216}, {"eventtype": "focus", "value": "on", "timestamp": 1693566576863, "interval": 1211}, {"eventtype": "window_resize", "value": [1366, 768], "timestamp": 1693566577069, "interval": 206}, {"eventtype": "focus", "value": "off", "timestamp": 1693566581276, "interval": 4207}, {"eventtype": "window_resize", "value": [1366, 767], "timestamp": 1693566581490, "interval": 214}, {"eventtype": "focus", "value": "on", "timestamp": 1693566582177, "interval": 687}, {"eventtype": "window_resize", "value": [1366, 768], "timestamp": 1693566582401, "interval": 224}, {"eventtype": "focus", "value": "off", "timestamp": 1693566878545, "interval": 296144}, {"eventtype": "focus", "value": "on", "timestamp": 1693566878545, "interval": 0}, {"eventtype": "window_resize", "value": [1366, 670], "timestamp": 1693566878754, "interval": 209}, {"eventtype": "window_resize", "value": [1366, 768], "timestamp": 1693566883262, "interval": 4508}, {"eventtype": "window_resize", "value": [1366, 670], "timestamp": 1693568127836, "interval": 1244574}], "useragent": "Mozilla/5.0 (Windows NT 10.0; Win64; x64) AppleWebKit/537.36 (KHTML, like Gecko) Chrome/116.0.0.0 Safari/537.36", "mode": "live", "id": "w92755292:a18241654", "status": "user data saved", "Beginhit": "2023-09-01 11:04:07.214745", "Beginexp": "2023-09-01 11:04:26.691796", "Endhit": "2023-09-01 11:35:30.705191", "psiturkStatus": 3, "browser": "<redacted>", "platform": "windows", "language": "en-US"}