{"condition": 1, "counterbalance": 0, "assignmentId": "a38349902", "workerId": "w58095681", "hitId": "h34786446", "currenttrial": 61, "bonus": 0, "data": [{"uniqueid": "w58095681:a38349902", "current_trial": 0, "dateTime": 1693481001816, "trialdata": {"success": true, "trial_type": "fullscreen", "trial_index": 0, "time_elapsed": 7060, "internal_node_id": "0.0-0.0"}}, {"uniqueid": "w58095681:a38349902", "current_trial": 1, "dateTime": 1693481029424, "trialdata": {"view_history": [{"page_index": 0, "viewing_time": 27594}], "rt": 27594, "trial_id": "exp_instructions_misaligned", "trial_type": "instructions", "trial_index": 1, "time_elapsed": 34670, "internal_node_id": "0.0-1.0"}}, {"uniqueid": "w58095681:a38349902", "current_trial": 2, "dateTime": 1693481328397, "trialdata": {"view_history": [{"page_index": 0, "viewing_time": 78727}, {"page_index": 1, "viewing_time": 95480}, {"page_index": 2, "viewing_time": 59664}, {"page_index": 3, "viewing_time": 65090}], "rt": 298961, "trial_id": "mouselab_instructions_1_misaligned", "trial_type": "instructions", "trial_index": 2, "time_elapsed": 333643, "internal_node_id": "0.0-2.0-1.0"}}, {"uniqueid": "w58095681:a38349902", "current_trial": 3, "dateTime": 1693481386149, "trialdata": {"revealed_states": [], "clicked_states": ["25", "14", "15", "26", "27", "19", "21", "32", "2", "3", "4", "5", "9", "8", "16"], "num_clicks_accrued": [0, 0, 0, 0, 0, 0, 0, 0, 0, 0, 0, 0, 0], "stateRewards": ["", 10, 10, -10, 10, 10, 10, -10, -10, -10, -10, 10, -10, -10, 10, 10, 10, 10, -10, 10, 10, -10, 10, -10, 10, 10, 10, -10, 10, -10, -10, 10, -10, 10], "withholdReward": false, "trial_id": "practice_1", "block": "test", "trialIndex": 0, "score": 26, "costs": -7.5, "simulationMode": [null, null, null, null, null], "rewards": [10, 10, -10, 10, 10], "path": ["0", "0", "1", "2", "3", "4", "5"], "rt": [45437, 308, 103, 202, 310], "actions": ["up", "up", "up", "right", "up"], "actionTimes": [49853, 50680, 51307, 52006, 52828], "queries": {"click": {"state": {"target": ["25", "14", "15", "26", "27", "19", "21", "32", "2", "3", "4", "5", "9", "8", "16"], "time": [8246, 10718, 13380, 15048, 16681, 19136, 20223, 21359, 23561, 24636, 26326, 28144, 29556, 30985, 35116]}, "edge": {"target": [], "time": []}}, "mouseover": {"state": {"target": ["23", "25", "26", "13", "14", "15", "15", "7", "2", "27", "26", "27", "10", "1", "12", "22", "19", "21", "19", "21", "32", "30", "28", "10", "2", "3", "4", "5", "9", "8", "3", "3", "2", "3", "4", "6", "16", "18", "20", "18", "1", "0", "12", "2", "1", "0"], "time": [7283, 7531, 8697, 9748, 9916, 11144, 12097, 14043, 14077, 14209, 14780, 15510, 18045, 18116, 18214, 18345, 18514, 18780, 18919, 19591, 21073, 21839, 22927, 22994, 23260, 23976, 24955, 27088, 28555, 30322, 31995, 32592, 32773, 33008, 34374, 34476, 34821, 35820, 39640, 39979, 40889, 41754, 45505, 45738, 47070, 47220]}, "edge": {"target": [], "time": []}}, "mouseout": {"state": {"target": ["12", "0", "23", "25", "26", "13", "14", "15", "15", "7", "2", "27", "26", "27", "10", "1", "12", "22", "19", "21", "19", "21", "32", "30", "28", "10", "2", "3", "4", "5", "9", "8", "3", "3", "2", "3", "4", "6", "16", "18", "20", "18", "1", "0", "12", "2", "1", "0"], "time": [3281, 7234, 7319, 8484, 9164, 9881, 11044, 11593, 13561, 14060, 14093, 14311, 15226, 17592, 18081, 18178, 18261, 18446, 18562, 18877, 19358, 20406, 21639, 22421, 22948, 23175, 23707, 24855, 26925, 28473, 30013, 31973, 32374, 32611, 32942, 34307, 34440, 34555, 35499, 36185, 39689, 40241, 41654, 41805, 45553, 46937, 47153, 47241]}, "edge": {"target": [], "time": []}}}, "displayed_time": "53.36", "trialTime": 56542, "trial_type": "mouselab-mdp", "trial_index": 3, "time_elapsed": 391394, "internal_node_id": "0.0-2.0-2.0-0.0"}}, {"uniqueid": "w58095681:a38349902", "current_trial": 4, "dateTime": 1693481418599, "trialdata": {"revealed_states": [], "clicked_states": ["27", "25", "14", "15", "16", "19", "21", "30", "32"], "num_clicks_accrued": [0, 0, 0, 0, 0, 0, 0, 0, 0, 0, 0, 0, 0], "stateRewards": ["", -10, -10, -10, 10, -10, -10, -10, 10, -10, -10, 10, 10, -10, 10, -10, 10, -10, -10, 10, 10, -10, -10, 10, -10, -10, -10, 10, -10, -10, 10, -10, 10, 10], "withholdReward": false, "trial_id": "practice_2", "block": "test", "trialIndex": 1, "score": 9, "costs": -4.5, "simulationMode": [null, null, null, null, null], "rewards": [10, -10, -10, 10, 10], "path": ["0", "0", "23", "24", "25", "30", "32"], "rt": [19747, 111, 124, 123, 133], "actions": ["left", "left", "left", "down", "down"], "actionTimes": [23901, 24527, 25176, 25825, 26494], "queries": {"click": {"state": {"target": ["27", "25", "14", "15", "16", "19", "21", "30", "32"], "time": [6304, 8139, 9714, 11024, 12113, 14735, 16072, 18670, 19995]}, "edge": {"target": [], "time": []}}, "mouseover": {"state": {"target": ["0", "23", "24", "26", "27", "26", "25", "23", "0", "0", "12", "13", "14", "15", "16", "14", "19", "19", "21", "12", "0", "23", "30", "30", "32", "31", "0"], "time": [4168, 4822, 4873, 5257, 5638, 6987, 7803, 8866, 8917, 9069, 9209, 9243, 9533, 10132, 11700, 13989, 14070, 14552, 15266, 17902, 18026, 18092, 18168, 18518, 19147, 20465, 22533]}, "edge": {"target": [], "time": []}}, "mouseout": {"state": {"target": ["0", "0", "23", "24", "26", "27", "26", "25", "23", "0", "0", "12", "13", "14", "15", "16", "15", "14", "19", "19", "21", "19", "12", "0", "23", "30", "30", "32", "31", "0", "0", "21", "22"], "time": [3549, 4756, 4843, 4908, 5322, 6646, 7655, 8685, 8903, 8968, 9205, 9235, 9471, 9884, 11542, 13870, 13953, 14022, 14189, 15201, 16606, 16700, 18002, 18070, 18116, 18283, 18931, 20331, 20731, 22556, 30014, 30882, 31081]}, "edge": {"target": [], "time": []}}}, "displayed_time": "27.02", "trialTime": 31944, "trial_type": "mouselab-mdp", "trial_index": 4, "time_elapsed": 423843, "internal_node_id": "0.0-2.0-2.0-1.0"}}, {"uniqueid": "w58095681:a38349902", "current_trial": 5, "dateTime": 1693481474332, "trialdata": {"view_history": [{"page_index": 0, "viewing_time": 42666}, {"page_index": 1, "viewing_time": 13064}], "rt": 55731, "trial_id": "mouselab_instructions_2_misaligned", "trial_type": "instructions", "trial_index": 5, "time_elapsed": 479578, "internal_node_id": "0.0-2.0-3.0"}}, {"uniqueid": "w58095681:a38349902", "current_trial": 6, "dateTime": 1693481528119, "trialdata": {"rt": 53781, "response": {"Q0": "The cost for clicking on nodes may vary between nodes.", "Q1": "The better I perform the higher my bonus will be.", "Q2": "No, the amount of cash at each node of the web may be different each time.", "Q3": "To get the highest total score.", "Q4": "Only before moving the spider.", "Q5": "10 seconds"}, "question_order": [0, 1, 2, 3, 4, 5], "correct": {"Q0": "The cost for clicking on nodes may vary between nodes.", "Q1": "The better I perform the higher my bonus will be.", "Q2": "No, the amount of cash at each node of the web may be different each time.", "Q3": "To get the highest total score.", "Q4": "Only before moving the spider.", "Q5": "3 seconds"}, "trial_id": "mouselab_quiz_misaligned", "trial_type": "survey-multi-choice", "trial_index": 6, "time_elapsed": 533365, "internal_node_id": "0.0-2.0-4.0"}}, {"uniqueid": "w58095681:a38349902", "current_trial": 7, "dateTime": 1693481540126, "trialdata": {"success": true, "trial_type": "fullscreen", "trial_index": 7, "time_elapsed": 545371, "internal_node_id": "0.0-2.1-0.1-0.1"}}, {"uniqueid": "w58095681:a38349902", "current_trial": 8, "dateTime": 1693481575837, "trialdata": {"view_history": [{"page_index": 0, "viewing_time": 10597}, {"page_index": 1, "viewing_time": 10026}, {"page_index": 2, "viewing_time": 11984}, {"page_index": 3, "viewing_time": 3096}], "rt": 35703, "trial_id": "mouselab_instructions_1_misaligned", "trial_type": "instructions", "trial_index": 8, "time_elapsed": 581083, "internal_node_id": "0.0-2.1-1.1"}}, {"uniqueid": "w58095681:a38349902", "current_trial": 9, "dateTime": 1693481607743, "trialdata": {"revealed_states": [], "clicked_states": ["25", "26", "28", "13", "15", "23"], "num_clicks_accrued": [0, 0, 0, 0, 0, 0, 0, 0, 0, 0, 0, 0, 0], "stateRewards": ["", 10, 10, -10, 10, 10, 10, -10, -10, -10, -10, 10, -10, -10, 10, 10, 10, 10, -10, 10, 10, -10, 10, -10, 10, 10, 10, -10, 10, -10, -10, 10, -10, 10], "withholdReward": false, "trial_id": "practice_1", "block": "test", "trialIndex": 2, "score": 30.5, "costs": -3, "simulationMode": [null, null, null, null, null, null], "rewards": [-10, 10, 10, 10, 10], "path": ["0", "0", "23", "24", "25", "26", "28"], "rt": [21536, 330, 86, 224, 972, 315], "actions": ["left", "left", "left", "left", "up", "right"], "actionTimes": [24589, 24932, 25542, 26293, 27786, 28618], "queries": {"click": {"state": {"target": ["25", "26", "28", "13", "15", "23"], "time": [6194, 7909, 11135, 15234, 17886, 23884]}, "edge": {"target": [], "time": []}}, "mouseover": {"state": {"target": ["0", "23", "24", "25", "26", "27", "26", "27", "27", "28", "27", "24", "25", "30", "13", "14", "13", "14", "15", "15", "18", "24", "24", "23", "23"], "time": [5456, 5503, 5605, 5972, 6419, 7386, 7489, 8317, 10085, 10902, 11667, 13322, 13521, 13787, 14520, 14772, 14954, 15683, 16653, 17725, 18538, 20131, 20334, 20393, 21749]}, "edge": {"target": [], "time": []}}, "mouseout": {"state": {"target": ["22", "19", "20", "19", "22", "0", "0", "23", "24", "25", "26", "27", "26", "27", "26", "27", "28", "27", "28", "24", "25", "30", "13", "14", "13", "13", "14", "15", "15", "18", "24", "24", "23", "23"], "time": [1055, 1089, 1954, 1982, 2006, 3063, 5493, 5534, 5838, 6356, 7071, 7440, 8151, 9621, 10022, 10804, 11574, 13121, 13286, 13370, 13737, 14035, 14736, 14919, 15257, 15534, 16419, 17399, 17908, 19636, 20197, 20363, 20754, 30018]}, "edge": {"target": [], "time": []}}}, "displayed_time": "29.13", "trialTime": 31581, "trial_type": "mouselab-mdp", "trial_index": 9, "time_elapsed": 612988, "internal_node_id": "0.0-2.1-2.1-0.1"}}, {"uniqueid": "w58095681:a38349902", "current_trial": 10, "dateTime": 1693481640136, "trialdata": {"revealed_states": [], "clicked_states": ["3", "8", "26", "13", "15", "18", "19", "30", "32", "31", "25"], "num_clicks_accrued": [0, 0, 0, 0, 0, 0, 0, 0, 0, 0, 0, 0, 0], "stateRewards": ["", -10, -10, -10, 10, -10, -10, -10, 10, -10, -10, 10, 10, -10, 10, -10, 10, -10, -10, 10, 10, -10, -10, 10, -10, -10, -10, 10, -10, -10, 10, -10, 10, 10], "withholdReward": false, "trial_id": "practice_2", "block": "test", "trialIndex": 3, "score": 8, "costs": -5.5, "simulationMode": [null, null, null, null, null], "rewards": [10, -10, -10, 10, 10], "path": ["0", "0", "23", "24", "25", "30", "32"], "rt": [22364, 62, 94, 184, 1891], "actions": ["left", "left", "left", "down", "down"], "actionTimes": [24654, 25240, 25849, 26560, 28979], "queries": {"click": {"state": {"target": ["3", "8", "26", "13", "15", "18", "19", "30", "32", "31", "25"], "time": [3434, 5012, 7593, 9348, 11084, 12794, 14509, 16569, 18700, 20256, 21901]}, "edge": {"target": [], "time": []}}, "mouseover": {"state": {"target": ["1", "2", "3", "2", "8", "9", "11", "27", "26", "28", "1", "18", "13", "13", "14", "15", "16", "18", "17", "14", "19", "21", "33", "30", "32", "31", "25", "24"], "time": [2826, 2860, 2907, 4020, 4603, 5503, 6623, 6756, 7006, 8381, 8435, 8489, 8922, 9154, 9787, 10871, 11617, 12498, 13369, 14085, 14301, 15083, 16170, 16287, 16950, 19234, 21587, 22467]}, "edge": {"target": [], "time": []}}, "mouseout": {"state": {"target": ["20", "13", "12", "12", "0", "1", "2", "3", "2", "8", "9", "11", "27", "26", "28", "1", "18", "13", "13", "14", "15", "16", "18", "15", "17", "14", "19", "21", "33", "30", "32", "31", "25", "24", "22", "20"], "time": [756, 872, 1072, 1138, 2792, 2851, 2887, 3773, 4502, 5402, 6539, 6673, 6807, 8334, 8402, 8453, 8627, 8989, 9652, 10738, 11334, 12408, 13269, 13321, 13968, 14118, 14958, 15619, 16220, 16850, 19104, 21386, 22333, 30533, 30617, 30642]}, "edge": {"target": [], "time": []}}}, "displayed_time": "29.50", "trialTime": 31954, "trial_type": "mouselab-mdp", "trial_index": 10, "time_elapsed": 645382, "internal_node_id": "0.0-2.1-2.1-1.1"}}, {"uniqueid": "w58095681:a38349902", "current_trial": 11, "dateTime": 1693481647833, "trialdata": {"view_history": [{"page_index": 0, "viewing_time": 5987}, {"page_index": 1, "viewing_time": 1706}], "rt": 7693, "trial_id": "mouselab_instructions_2_misaligned", "trial_type": "instructions", "trial_index": 11, "time_elapsed": 653079, "internal_node_id": "0.0-2.1-3.1"}}, {"uniqueid": "w58095681:a38349902", "current_trial": 12, "dateTime": 1693481671112, "trialdata": {"rt": 23276, "response": {"Q0": "The cost for clicking on nodes may vary between nodes.", "Q1": "The better I perform the higher my bonus will be.", "Q2": "No, the amount of cash at each node of the web may be different each time.", "Q3": "To get the highest total score.", "Q4": "Only before moving the spider.", "Q5": "3 seconds"}, "question_order": [0, 1, 2, 3, 4, 5], "correct": {"Q0": "The cost for clicking on nodes may vary between nodes.", "Q1": "The better I perform the higher my bonus will be.", "Q2": "No, the amount of cash at each node of the web may be different each time.", "Q3": "To get the highest total score.", "Q4": "Only before moving the spider.", "Q5": "3 seconds"}, "trial_id": "mouselab_quiz_misaligned", "trial_type": "survey-multi-choice", "trial_index": 12, "time_elapsed": 676358, "internal_node_id": "0.0-2.1-4.1"}}, {"uniqueid": "w58095681:a38349902", "current_trial": 13, "dateTime": 1693481679433, "trialdata": {"rt": 8314, "response": {"Q0": "No"}, "question_order": [0], "trial_id": "repeat_check", "trial_type": "survey-multi-choice", "trial_index": 13, "time_elapsed": 684679, "internal_node_id": "0.0-4.0-0.0"}}, {"uniqueid": "w58095681:a38349902", "current_trial": 14, "dateTime": 1693481701593, "trialdata": {"rt": 22155, "stimulus": "\n<h1> Get ready to start the game! </h1>\n\nThank you for reading the instructions. Get ready start with the 40 rounds of this game.\n<br><br>\nIf you need to take a break, feel free to take one after the end of a round, before continuing to the next one.\n<br><br>\nRemember, the more money the spider gets, the bigger your bonus will be!\n<br><br>\n<div style='text-align: center;'>Press <code>space</code> to begin.</div>\n\n<br><br>\n(If, at any point, the <code>space</code> key does not take you to the next page, click once on the text and try again.)", "response": " ", "trial_id": "mdp_ready", "trial_type": "html-keyboard-response", "trial_index": 14, "time_elapsed": 706839, "internal_node_id": "0.0-6.0-0.0"}}, {"uniqueid": "w58095681:a38349902", "current_trial": 15, "dateTime": 1693481762166, "trialdata": {"revealed_states": [], "clicked_states": ["2", "3", "8", "9", "4", "5", "14", "19", "21", "32", "30", "25", "29", "26", "28", "15", "17", "16", "18"], "num_clicks_accrued": [0, 0, 0, 0, 0, 0, 0, 0, 0, 0, 0, 0, 0], "stateRewards": ["", -2, -1, -3, -1, -78, -6, 2, -1, 22, -88, 32, 2, 2, -7, -8, -51, -17, 54, 2, -44, 54, 75, 2, -2, -8, -15, -29, 12, -67, 15, -1, -47, -47], "withholdReward": false, "trial_id": "mdp_trial_1", "block": "test", "trialIndex": 4, "score": 21.150000000000006, "costs": -31.849999999999994, "simulationMode": [null, null, null, null, null], "rewards": [2, 2, -7, 2, 54], "path": ["0", "0", "12", "13", "14", "19", "21"], "rt": [50604, 80, 356, 486, 95], "actions": ["right", "right", "right", "down", "down"], "actionTimes": [53616, 54217, 55107, 56103, 56713], "queries": {"click": {"state": {"target": ["2", "3", "8", "9", "4", "5", "14", "19", "21", "32", "30", "25", "29", "26", "28", "15", "17", "16", "18"], "time": [4766, 5650, 6467, 7153, 12355, 13506, 17222, 18502, 19357, 24716, 28055, 29813, 31845, 35016, 37425, 41540, 43461, 46647, 50563]}, "edge": {"target": [], "time": []}}, "mouseover": {"state": {"target": ["0", "10", "2", "3", "8", "9", "4", "7", "13", "18", "4", "4", "5", "18", "15", "14", "13", "19", "21", "22", "22", "31", "32", "30", "25", "29", "26", "28", "1", "18", "15", "17", "16", "16", "18", "12"], "time": [4089, 4421, 4506, 5336, 6236, 6868, 7903, 7968, 8236, 8400, 8769, 9981, 13000, 14347, 14386, 16918, 17497, 18021, 18931, 19699, 23582, 23883, 24233, 25063, 28495, 30678, 32776, 35591, 38177, 38278, 38724, 42044, 44038, 44356, 47069, 53150]}, "edge": {"target": [], "time": []}}, "mouseout": {"state": {"target": ["4", "0", "0", "10", "2", "2", "3", "8", "9", "4", "7", "13", "18", "4", "4", "5", "4", "18", "15", "14", "13", "14", "19", "21", "22", "22", "31", "32", "30", "25", "29", "26", "28", "1", "18", "15", "17", "16", "16", "18", "12"], "time": [1403, 3084, 4115, 4457, 5149, 5269, 6137, 6801, 7770, 7936, 8002, 8267, 8584, 9641, 12851, 14134, 14203, 14371, 16869, 17456, 17877, 17924, 18832, 19651, 23082, 23698, 24050, 24896, 28295, 30312, 32544, 35508, 38115, 38209, 38657, 41993, 43970, 44140, 46985, 51153, 58246]}, "edge": {"target": [], "time": []}}}, "displayed_time": "57.24", "trialTime": 60068, "trial_type": "mouselab-mdp", "trial_index": 15, "time_elapsed": 767411, "internal_node_id": "0.0-6.0-1.0-0.0"}}, {"uniqueid": "w58095681:a38349902", "current_trial": 16, "dateTime": 1693481793716, "trialdata": {"revealed_states": [], "clicked_states": ["8", "3", "11", "6", "5", "7", "4"], "num_clicks_accrued": [0, 0, 0, 0, 0, 0, 0, 0, 0, 0, 0, 0, 0], "stateRewards": ["", 1, -1, 8, 4, 76, -33, -17, -3, -1, -54, -74, -2, 2, -5, 13, -51, 63, 83, 1, 84, 29, -36, 2, -1, 7, -12, -10, -44, -43, -14, 8, -69, 19], "withholdReward": false, "trial_id": "mdp_trial_2", "block": "test", "trialIndex": 5, "score": 75.35, "costs": -12.650000000000002, "simulationMode": [null, null, null, null, null], "rewards": [1, -1, 8, 4, 76], "path": ["0", "0", "1", "2", "3", "4", "5"], "rt": [21278, 44, 83, 818, 97], "actions": ["up", "up", "up", "right", "up"], "actionTimes": [23944, 24510, 25121, 26455, 27064], "queries": {"click": {"state": {"target": ["8", "3", "11", "6", "5", "7", "4"], "time": [3824, 4482, 5711, 10795, 14071, 17661, 20906]}, "edge": {"target": [], "time": []}}, "mouseover": {"state": {"target": ["1", "10", "8", "3", "11", "9", "4", "6", "4", "5", "4", "7", "4", "1", "2", "2", "3", "2", "1"], "time": [3173, 3324, 3557, 4212, 5447, 8787, 10322, 10538, 11069, 11536, 14467, 14600, 18156, 22168, 22456, 22718, 22985, 23168, 23268]}, "edge": {"target": [], "time": []}}, "mouseout": {"state": {"target": ["0", "1", "10", "8", "3", "8", "11", "9", "4", "6", "4", "5", "4", "7", "4", "7", "1", "2", "2", "3", "2", "1", "17", "21"], "time": [3025, 3224, 3348, 4195, 4885, 5006, 6402, 10171, 10454, 11052, 11202, 14416, 14540, 18050, 21418, 21614, 22330, 22584, 22921, 23134, 23217, 28100, 28135, 29382]}, "edge": {"target": [], "time": []}}}, "displayed_time": "27.58", "trialTime": 31040, "trial_type": "mouselab-mdp", "trial_index": 16, "time_elapsed": 798961, "internal_node_id": "0.0-6.0-1.0-1.0"}}, {"uniqueid": "w58095681:a38349902", "current_trial": 17, "dateTime": 1693481827170, "trialdata": {"revealed_states": [], "clicked_states": ["29", "27", "28", "33", "32", "31", "26"], "num_clicks_accrued": [0, 0, 0, 0, 0, 0, 0, 0, 0, 0, 0, 0, 0], "stateRewards": ["", -2, 1, -5, 2, -68, 80, 33, 10, 67, -59, 20, -1, -3, 3, 14, 74, -2, 24, -16, 63, 80, 46, -1, 4, 6, 12, 83, -38, -43, -4, 43, 14, -79], "withholdReward": false, "trial_id": "mdp_trial_3", "block": "test", "trialIndex": 6, "score": 89.55, "costs": -14.450000000000001, "simulationMode": [null, null, null, null, null], "rewards": [-1, 4, 6, 12, 83], "path": ["0", "0", "23", "24", "25", "26", "27"], "rt": [23541, 95, 30, 727, 60], "actions": ["left", "left", "left", "up", "up"], "actionTimes": [26205, 26833, 27391, 28631, 29211], "queries": {"click": {"state": {"target": ["29", "27", "28", "33", "32", "31", "26"], "time": [3890, 7170, 10286, 14054, 17479, 20905, 24262]}, "edge": {"target": [], "time": []}}, "mouseover": {"state": {"target": ["23", "28", "26", "29", "27", "28", "24", "30", "33", "33", "32", "31", "25", "26", "24", "23"], "time": [3307, 3423, 3542, 3602, 4626, 7785, 10994, 11937, 12085, 12850, 14636, 17870, 21451, 21866, 25297, 25688]}, "edge": {"target": [], "time": []}}, "mouseout": {"state": {"target": ["0", "23", "28", "26", "29", "27", "28", "24", "30", "33", "33", "32", "31", "25", "26", "24", "23", "23", "0", "12"], "time": [3240, 3357, 3491, 3575, 4237, 7487, 10870, 11802, 12034, 12251, 14453, 17784, 21013, 21566, 25002, 25383, 25768, 30936, 30972, 30995]}, "edge": {"target": [], "time": []}}}, "displayed_time": "29.75", "trialTime": 32986, "trial_type": "mouselab-mdp", "trial_index": 17, "time_elapsed": 832414, "internal_node_id": "0.0-6.0-1.0-2.0"}}, {"uniqueid": "w58095681:a38349902", "current_trial": 18, "dateTime": 1693481894301, "trialdata": {"revealed_states": [], "clicked_states": ["16", "18", "17", "15", "14", "19", "21", "22", "20", "31", "32", "33", "29", "27", "28", "9", "11", "5", "6"], "num_clicks_accrued": [0, 0, 0, 0, 0, 0, 0, 0, 0, 0, 0, 0, 0], "stateRewards": ["", 1, 1, -3, 2, 22, -25, -11, -5, 50, 49, 3, 1, -1, 8, 14, -85, -30, 57, -6, -39, -16, 59, -2, -1, 5, 5, 59, -16, 8, 4, 67, 56, -9], "withholdReward": false, "trial_id": "mdp_trial_4", "block": "test", "trialIndex": 7, "score": 34.55000000000001, "costs": -38.44999999999999, "simulationMode": [null, null, null, null, null], "rewards": [-2, -1, 5, 4, 67], "path": ["0", "0", "23", "24", "25", "30", "31"], "rt": [59065, 64, 208, 84, 205], "actions": ["left", "left", "left", "down", "right"], "actionTimes": [61870, 62456, 63209, 63809, 64533], "queries": {"click": {"state": {"target": ["16", "18", "17", "15", "14", "19", "21", "22", "20", "31", "32", "33", "29", "27", "28", "9", "11", "5", "6"], "time": [4379, 7771, 11265, 14466, 16836, 17884, 19432, 22567, 25685, 28687, 32187, 35583, 38814, 42019, 45151, 48661, 52001, 55103, 58315]}, "edge": {"target": [], "time": []}}, "mouseover": {"state": {"target": ["1", "2", "3", "16", "17", "16", "18", "15", "17", "15", "14", "19", "19", "21", "22", "19", "20", "19", "31", "31", "30", "32", "33", "29", "27", "28", "10", "11", "8", "11", "9", "11", "8", "3", "4", "5", "6", "7", "1"], "time": [3507, 3557, 3620, 3805, 3865, 4088, 4632, 8284, 8335, 11550, 15056, 17434, 17715, 18264, 20096, 23079, 23538, 27096, 28096, 28461, 28945, 29193, 32944, 37308, 39291, 42745, 46029, 46461, 47919, 48000, 48348, 48994, 52386, 52449, 52676, 52810, 55492, 58826, 58911]}, "edge": {"target": [], "time": []}}, "mouseout": {"state": {"target": ["14", "13", "12", "14", "13", "12", "0", "1", "2", "3", "16", "17", "16", "18", "15", "17", "15", "14", "19", "19", "21", "22", "19", "20", "19", "22", "31", "31", "30", "32", "33", "29", "27", "28", "10", "11", "8", "11", "9", "11", "8", "3", "4", "5", "6", "7", "1"], "time": [772, 805, 953, 1583, 1634, 1920, 3463, 3533, 3586, 3755, 3835, 4022, 4584, 8171, 8302, 11516, 14984, 17404, 17578, 18199, 19967, 23047, 23129, 27070, 27141, 27452, 28227, 28893, 29094, 32409, 35975, 38946, 42380, 45615, 46045, 47619, 47945, 48128, 48941, 52349, 52429, 52469, 52694, 55374, 58761, 58876, 58976]}, "edge": {"target": [], "time": []}}}, "displayed_time": "65.06", "trialTime": 66691, "trial_type": "mouselab-mdp", "trial_index": 18, "time_elapsed": 899546, "internal_node_id": "0.0-6.0-1.0-3.0"}}, {"uniqueid": "w58095681:a38349902", "current_trial": 19, "dateTime": 1693481915765, "trialdata": {"revealed_states": [], "clicked_states": ["27", "28", "5"], "num_clicks_accrued": [0, 0, 0, 0, 0, 0, 0, 0, 0, 0, 0, 0, 0], "stateRewards": ["", -2, 3, 3, -14, 62, 36, 49, 16, 11, 17, -84, 2, -1, 6, 2, -82, -73, 49, -6, -87, 48, 50, -1, -2, -1, -16, -11, 37, -44, 4, 55, 73, -10], "withholdReward": false, "trial_id": "mdp_trial_5", "block": "test", "trialIndex": 8, "score": 45.55, "costs": -6.449999999999999, "simulationMode": [null, null, null, null, null], "rewards": [-2, 3, 3, -14, 62], "path": ["0", "0", "1", "2", "3", "4", "5"], "rt": [12799, 2, 333, 103, 707], "actions": ["up", "up", "up", "right", "up"], "actionTimes": [14501, 15030, 15891, 16512, 17734], "queries": {"click": {"state": {"target": ["27", "28", "5"], "time": [3221, 6212, 9937]}, "edge": {"target": [], "time": []}}, "mouseover": {"state": {"target": ["12", "7", "9", "8", "27", "28", "12", "13", "17", "15", "4", "5", "6", "7", "2"], "time": [2015, 2148, 2348, 2597, 2848, 3729, 6875, 6911, 9095, 9184, 9662, 9748, 10391, 13852, 14025]}, "edge": {"target": [], "time": []}}, "mouseout": {"state": {"target": ["0", "0", "12", "7", "9", "8", "27", "28", "12", "13", "17", "15", "4", "5", "5", "6", "7", "2", "1", "22"], "time": [778, 1345, 2081, 2179, 2547, 2647, 3533, 6742, 6908, 6942, 9145, 9223, 9711, 9966, 10325, 13820, 13876, 19643, 19713, 20041]}, "edge": {"target": [], "time": []}}}, "displayed_time": "18.26", "trialTime": 20961, "trial_type": "mouselab-mdp", "trial_index": 19, "time_elapsed": 921009, "internal_node_id": "0.0-6.0-1.0-4.0"}}, {"uniqueid": "w58095681:a38349902", "current_trial": 20, "dateTime": 1693481954896, "trialdata": {"revealed_states": [], "clicked_states": ["18", "17", "16", "21", "22", "20", "31", "32", "33"], "num_clicks_accrued": [0, 0, 0, 0, 0, 0, 0, 0, 0, 0, 0, 0, 0], "stateRewards": ["", -1, 2, -6, 6, -82, -19, -39, -16, -83, 11, -33, -2, -2, 4, -6, -82, -1, -19, -6, -10, -67, -41, -2, 1, -7, 16, -23, -78, -52, 14, 31, -71, 74], "withholdReward": false, "trial_id": "mdp_trial_6", "block": "test", "trialIndex": 9, "score": 60.650000000000006, "costs": -19.349999999999998, "simulationMode": [null, null, null, null, null], "rewards": [-2, 1, -7, 14, 74], "path": ["0", "0", "23", "24", "25", "30", "33"], "rt": [32227, 128, 271, 90, 560], "actions": ["left", "left", "left", "down", "left"], "actionTimes": [33625, 34274, 35069, 35688, 36790], "queries": {"click": {"state": {"target": ["18", "17", "16", "21", "22", "20", "31", "32", "33"], "time": [2638, 5933, 9542, 12759, 16008, 19202, 22389, 25803, 28974]}, "edge": {"target": [], "time": []}}, "mouseover": {"state": {"target": ["0", "22", "19", "19", "14", "15", "18", "15", "17", "16", "15", "14", "19", "21", "21", "22", "19", "20", "19", "31", "32", "33", "29"], "time": [1418, 1523, 1543, 1811, 1935, 2067, 2247, 2939, 3093, 6308, 9940, 9990, 10041, 10228, 10456, 13134, 16659, 16713, 19467, 20481, 22698, 26246, 29681]}, "edge": {"target": [], "time": []}}, "mouseout": {"state": {"target": ["22", "0", "0", "22", "19", "19", "14", "15", "18", "15", "17", "16", "15", "14", "19", "21", "21", "22", "19", "20", "19", "22", "31", "32", "33", "29", "25", "24", "23", "0"], "time": [562, 957, 1463, 1540, 1573, 1847, 2001, 2179, 2924, 2992, 6244, 9889, 9974, 10023, 10123, 10254, 13020, 16633, 16686, 19449, 19516, 19540, 22598, 26030, 29237, 38114, 38213, 38264, 38292, 38342]}, "edge": {"target": [], "time": []}}}, "displayed_time": "37.32", "trialTime": 38663, "trial_type": "mouselab-mdp", "trial_index": 20, "time_elapsed": 960140, "internal_node_id": "0.0-6.0-1.0-5.0"}}, {"uniqueid": "w58095681:a38349902", "current_trial": 21, "dateTime": 1693481998241, "trialdata": {"revealed_states": [], "clicked_states": ["9", "11", "10", "6", "5", "27", "29", "30", "32", "31"], "num_clicks_accrued": [0, 0, 0, 0, 0, 0, 0, 0, 0, 0, 0, 0, 0], "stateRewards": ["", 2, 4, 7, 7, -79, -2, -21, -5, -53, 47, -21, 1, -3, -1, 7, 83, 7, 84, -7, 80, -37, 69, 2, -4, 5, 2, 4, -20, -30, 7, 71, 44, -81], "withholdReward": false, "trial_id": "mdp_trial_7", "block": "test", "trialIndex": 10, "score": 60.1, "costs": -20.9, "simulationMode": [null, null, null, null, null], "rewards": [2, -4, 5, 7, 71], "path": ["0", "0", "23", "24", "25", "30", "31"], "rt": [34701, 84, 226, 193, 172], "actions": ["left", "left", "left", "down", "right"], "actionTimes": [37114, 37722, 38466, 39179, 39880], "queries": {"click": {"state": {"target": ["9", "11", "10", "6", "5", "27", "29", "30", "32", "31"], "time": [3726, 7019, 10353, 13825, 17292, 20523, 23825, 28117, 29286, 32958]}, "edge": {"target": [], "time": []}}, "mouseover": {"state": {"target": ["0", "2", "8", "9", "11", "8", "3", "4", "6", "10", "10", "6", "6", "5", "4", "2", "27", "29", "32", "30", "32", "31", "30", "33"], "time": [3091, 3182, 3341, 3492, 4059, 7326, 7358, 7392, 7641, 9624, 9945, 10657, 11006, 14089, 17795, 18088, 18884, 21221, 25021, 27787, 28488, 29670, 33267, 33418]}, "edge": {"target": [], "time": []}}, "mouseout": {"state": {"target": ["13", "12", "0", "0", "2", "8", "9", "11", "8", "3", "4", "6", "10", "10", "6", "6", "5", "4", "2", "27", "27", "29", "29", "32", "30", "32", "31", "30", "33", "20", "33"], "time": [660, 827, 2829, 3149, 3208, 3425, 3960, 7308, 7341, 7376, 7491, 9459, 9675, 10525, 10708, 14023, 17723, 17807, 18106, 20620, 20874, 23920, 24239, 27672, 28387, 29518, 33236, 33336, 41245, 41348, 42169]}, "edge": {"target": [], "time": []}}}, "displayed_time": "40.41", "trialTime": 42877, "trial_type": "mouselab-mdp", "trial_index": 21, "time_elapsed": 1003486, "internal_node_id": "0.0-6.0-1.0-6.0"}}, {"uniqueid": "w58095681:a38349902", "current_trial": 22, "dateTime": 1693482017050, "trialdata": {"revealed_states": [], "clicked_states": ["16"], "num_clicks_accrued": [0, 0, 0, 0, 0, 0, 0, 0, 0, 0, 0, 0, 0], "stateRewards": ["", -1, 4, -6, -5, -22, -38, -38, -2, -56, 88, 14, -1, -1, -7, -6, 61, -60, 21, 11, 57, 31, -30, -2, -2, 6, -9, -44, -70, -44, -15, 34, 16, -78], "withholdReward": false, "trial_id": "mdp_trial_8", "block": "test", "trialIndex": 11, "score": 43.85, "costs": -2.15, "simulationMode": [null, null, null, null, null], "rewards": [-1, -1, -7, -6, 61], "path": ["0", "0", "12", "13", "14", "15", "16"], "rt": [5949, 185, 394, 241, 34], "actions": ["right", "right", "right", "up", "up"], "actionTimes": [7655, 8365, 9271, 10035, 10594], "queries": {"click": {"state": {"target": ["16"], "time": [3510]}, "edge": {"target": [], "time": []}}, "mouseover": {"state": {"target": ["0", "0", "1", "4", "18", "15", "16", "18", "13"], "time": [2029, 2163, 2225, 2514, 2662, 2733, 3013, 3776, 7117]}, "edge": {"target": [], "time": []}}, "mouseout": {"state": {"target": ["25", "24", "23", "0", "0", "1", "4", "18", "15", "16", "18", "13", "13", "20", "22"], "time": [159, 210, 994, 2062, 2190, 2247, 2542, 2689, 2948, 3694, 7079, 9034, 11744, 12727, 12825]}, "edge": {"target": [], "time": []}}}, "displayed_time": "15.71", "trialTime": 18295, "trial_type": "mouselab-mdp", "trial_index": 22, "time_elapsed": 1022294, "internal_node_id": "0.0-6.0-1.0-7.0"}}, {"uniqueid": "w58095681:a38349902", "current_trial": 23, "dateTime": 1693482092158, "trialdata": {"revealed_states": [], "clicked_states": ["9", "5", "6", "11", "10", "7", "16", "17", "18", "22", "21", "20", "32", "31", "33", "29", "27", "28"], "num_clicks_accrued": [0, 0, 0, 0, 0, 0, 0, 0, 0, 0, 0, 0, 0], "stateRewards": ["", -1, 1, 8, -3, -24, 11, -65, -6, -77, 48, 44, -2, 1, -2, -7, -55, -35, 33, 8, -28, 19, -53, -1, -1, -5, -5, -70, 10, 44, 8, -58, -70, 51], "withholdReward": false, "trial_id": "mdp_trial_9", "block": "test", "trialIndex": 12, "score": 13.300000000000011, "costs": -38.69999999999999, "simulationMode": [null, null, null, null, null], "rewards": [-1, -1, -5, 8, 51], "path": ["0", "0", "23", "24", "25", "30", "33"], "rt": [64486, 122, 317, 680, 233], "actions": ["left", "left", "left", "down", "left"], "actionTimes": [68572, 69210, 70037, 71239, 72003], "queries": {"click": {"state": {"target": ["9", "5", "6", "11", "10", "7", "16", "17", "18", "22", "21", "20", "32", "31", "33", "29", "27", "28"], "time": [4943, 8638, 11853, 15353, 18741, 22175, 25380, 29389, 32596, 35837, 40521, 43815, 47395, 51008, 54354, 58677, 62020, 65250]}, "edge": {"target": [], "time": []}}, "mouseover": {"state": {"target": ["10", "8", "9", "5", "4", "6", "6", "4", "3", "11", "10", "2", "7", "16", "16", "17", "20", "20", "17", "15", "18", "18", "13", "13", "22", "19", "21", "20", "21", "20", "19", "22", "30", "32", "31", "30", "33", "30", "25", "26", "29", "27", "28", "26", "25"], "time": [4421, 4539, 4754, 5587, 8986, 9137, 10969, 12085, 12104, 12451, 15817, 19166, 19265, 22751, 22933, 25831, 28734, 29008, 29150, 29630, 29725, 30097, 32945, 33395, 33628, 36237, 36377, 39646, 39898, 40976, 44159, 44209, 44750, 47128, 48357, 51344, 51543, 55071, 57959, 58067, 58423, 59256, 62386, 65621, 65785]}, "edge": {"target": [], "time": []}}, "mouseout": {"state": {"target": ["10", "10", "1", "0", "10", "8", "9", "5", "4", "6", "6", "4", "3", "11", "10", "2", "7", "16", "16", "17", "20", "20", "17", "15", "18", "18", "13", "13", "22", "19", "21", "20", "21", "20", "19", "22", "30", "32", "31", "30", "33", "30", "25", "26", "29", "27", "28", "26", "25"], "time": [2904, 3288, 3355, 4107, 4488, 4654, 5320, 8937, 9019, 10724, 12067, 12100, 12118, 15701, 19133, 19232, 22515, 22800, 25731, 28651, 28815, 29084, 29485, 29683, 29806, 32879, 33144, 33561, 36149, 36296, 39514, 39781, 40776, 44143, 44194, 44226, 46928, 47677, 51326, 51407, 54821, 55105, 58025, 58240, 59024, 62353, 65605, 65703, 73788]}, "edge": {"target": [], "time": []}}}, "displayed_time": "72.52", "trialTime": 74621, "trial_type": "mouselab-mdp", "trial_index": 23, "time_elapsed": 1097403, "internal_node_id": "0.0-6.0-1.0-8.0"}}, {"uniqueid": "w58095681:a38349902", "current_trial": 24, "dateTime": 1693482112470, "trialdata": {"revealed_states": [], "clicked_states": ["29", "27", "28"], "num_clicks_accrued": [0, 0, 0, 0, 0, 0, 0, 0, 0, 0, 0, 0, 0], "stateRewards": ["", 1, 1, 7, -11, 80, -20, -53, -14, 3, 31, 27, 2, -1, -8, -10, 33, 41, 86, 9, 78, -37, -13, -1, -2, -6, -8, -80, 75, 4, -16, -49, -74, 24], "withholdReward": false, "trial_id": "mdp_trial_10", "block": "test", "trialIndex": 13, "score": 51.55, "costs": -6.449999999999999, "simulationMode": [null, null, null, null, null], "rewards": [-1, -2, -6, -8, 75], "path": ["0", "0", "23", "24", "25", "26", "28"], "rt": [12516, 106, 314, 112, 3], "actions": ["left", "left", "left", "up", "right"], "actionTimes": [15067, 15694, 16529, 17161, 17683], "queries": {"click": {"state": {"target": ["29", "27", "28"], "time": [3964, 7510, 10828]}, "edge": {"target": [], "time": []}}, "mouseover": {"state": {"target": ["0", "23", "24", "29", "26", "27", "28", "1", "28", "1", "12", "6", "5", "3"], "time": [3137, 3202, 3247, 3668, 4711, 4864, 7864, 8030, 8263, 11239, 11529, 13185, 13288, 14182]}, "edge": {"target": [], "time": []}}, "mouseout": {"state": {"target": ["0", "23", "24", "29", "26", "27", "28", "1", "28", "1", "12", "6", "5", "3", "28", "23"], "time": [3172, 3236, 3277, 4315, 4756, 7780, 7898, 8047, 11150, 11378, 12862, 13219, 14116, 14212, 18599, 18665]}, "edge": {"target": [], "time": []}}}, "displayed_time": "18.22", "trialTime": 19799, "trial_type": "mouselab-mdp", "trial_index": 24, "time_elapsed": 1117714, "internal_node_id": "0.0-6.0-1.0-9.0"}}, {"uniqueid": "w58095681:a38349902", "current_trial": 25, "dateTime": 1693482130114, "trialdata": {"revealed_states": [], "clicked_states": ["17", "18"], "num_clicks_accrued": [0, 0, 0, 0, 0, 0, 0, 0, 0, 0, 0, 0, 0], "stateRewards": ["", 2, 3, 8, 14, 69, -27, 17, 2, -71, -65, -10, 2, -3, 7, 8, 65, -10, 65, -12, 73, -12, 13, -2, -2, 6, 10, -79, -69, -18, 10, -85, 67, 74], "withholdReward": false, "trial_id": "mdp_trial_11", "block": "test", "trialIndex": 14, "score": 74.7, "costs": -4.3, "simulationMode": [null, null, null, null, null], "rewards": [2, -3, 7, 8, 65], "path": ["0", "0", "12", "13", "14", "15", "18"], "rt": [8291, 50, 231, 241, 6], "actions": ["right", "right", "right", "up", "left"], "actionTimes": [9864, 10432, 11196, 11951, 12488], "queries": {"click": {"state": {"target": ["17", "18"], "time": [2531, 5783]}, "edge": {"target": [], "time": []}}, "mouseover": {"state": {"target": ["12", "18", "15", "17", "7", "7", "7", "7", "18", "13", "16"], "time": [1588, 1879, 2093, 2296, 2927, 3010, 3244, 3509, 3734, 6278, 6675]}, "edge": {"target": [], "time": []}}, "mouseout": {"state": {"target": ["0", "0", "12", "18", "15", "17", "7", "7", "7", "7", "18", "13", "16", "16"], "time": [724, 1585, 1634, 2061, 2179, 2743, 2944, 3111, 3296, 3626, 6160, 6408, 14076, 15777]}, "edge": {"target": [], "time": []}}}, "displayed_time": "15.58", "trialTime": 17127, "trial_type": "mouselab-mdp", "trial_index": 25, "time_elapsed": 1135359, "internal_node_id": "0.0-6.0-1.0-10.0"}}, {"uniqueid": "w58095681:a38349902", "current_trial": 26, "dateTime": 1693482192876, "trialdata": {"revealed_states": [], "clicked_states": ["27", "28", "29", "32", "31", "33", "22", "21", "20", "5", "6", "7", "9", "11", "10"], "num_clicks_accrued": [0, 0, 0, 0, 0, 0, 0, 0, 0, 0, 0, 0, 0], "stateRewards": ["", -1, -2, 4, 9, 10, -75, 39, 16, -43, 88, -19, -1, 1, 2, 4, -31, 10, 73, 12, 41, -64, -81, -2, 2, -6, 1, -81, -1, -26, 3, -59, -3, -20], "withholdReward": false, "trial_id": "mdp_trial_12", "block": "test", "trialIndex": 15, "score": 72.75, "costs": -32.24999999999999, "simulationMode": [null, null, null, null, null], "rewards": [-1, -2, 4, 16, 88], "path": ["0", "0", "1", "2", "3", "8", "10"], "rt": [54229, 140, 6, 104, 182], "actions": ["up", "up", "up", "left", "down"], "actionTimes": [57042, 57711, 58244, 58904, 59606], "queries": {"click": {"state": {"target": ["27", "28", "29", "32", "31", "33", "22", "21", "20", "5", "6", "7", "9", "11", "10"], "time": [4992, 8585, 11866, 15298, 18489, 21731, 24975, 28228, 31444, 36461, 39698, 42994, 46758, 49981, 53149]}, "edge": {"target": [], "time": []}}, "mouseover": {"state": {"target": ["9", "11", "27", "28", "26", "29", "29", "25", "30", "32", "31", "30", "33", "30", "19", "22", "21", "20", "14", "5", "5", "6", "4", "3", "7", "3", "9", "9", "11", "10", "2", "1"], "time": [3992, 4392, 4743, 5406, 8822, 8888, 9255, 12188, 12438, 12787, 15602, 18689, 18710, 22003, 23554, 23915, 25399, 28563, 31915, 35864, 36211, 36934, 39997, 40034, 40928, 43327, 43410, 43747, 47408, 50623, 53491, 53840]}, "edge": {"target": [], "time": []}}, "mouseout": {"state": {"target": ["17", "15", "18", "23", "0", "9", "11", "27", "28", "26", "29", "29", "25", "30", "32", "31", "30", "33", "30", "19", "22", "21", "20", "14", "5", "5", "5", "6", "4", "3", "7", "3", "9", "9", "11", "10", "2", "1"], "time": [1041, 1091, 1141, 1976, 2828, 4259, 4492, 5272, 8806, 8854, 8939, 12138, 12354, 12471, 15378, 18668, 18707, 21984, 22032, 23767, 25283, 28418, 31748, 35033, 35914, 36583, 36796, 39977, 40015, 40879, 43226, 43361, 43460, 47279, 50407, 53458, 53640, 61343]}, "edge": {"target": [], "time": []}}}, "displayed_time": "60.13", "trialTime": 62257, "trial_type": "mouselab-mdp", "trial_index": 26, "time_elapsed": 1198120, "internal_node_id": "0.0-6.0-1.0-11.0"}}, {"uniqueid": "w58095681:a38349902", "current_trial": 27, "dateTime": 1693482248247, "trialdata": {"revealed_states": [], "clicked_states": ["7", "16", "27", "32", "21", "20", "17", "5", "9", "11", "6", "29", "33"], "num_clicks_accrued": [0, 0, 0, 0, 0, 0, 0, 0, 0, 0, 0, 0, 0], "stateRewards": ["", 2, 4, -6, -13, -75, -81, 30, 7, 5, 59, -65, -1, -1, 7, 14, -38, 36, -41, 1, -54, -5, 64, 2, -1, 5, 6, -19, 79, 11, 16, -33, -50, 58], "withholdReward": false, "trial_id": "mdp_trial_13", "block": "test", "trialIndex": 16, "score": 52.05000000000001, "costs": -27.949999999999992, "simulationMode": [null, null, null, null, null], "rewards": [2, -1, 5, 16, 58], "path": ["0", "0", "23", "24", "25", "30", "33"], "rt": [47801, 197, 234, 232, 198], "actions": ["left", "left", "left", "down", "left"], "actionTimes": [49454, 50174, 50928, 51693, 52406], "queries": {"click": {"state": {"target": ["7", "16", "27", "32", "21", "20", "17", "5", "9", "11", "6", "29", "33"], "time": [2960, 6547, 10618, 13976, 17320, 20766, 23930, 27456, 30913, 35081, 38460, 41745, 44993]}, "edge": {"target": [], "time": []}}, "mouseover": {"state": {"target": ["1", "2", "10", "2", "7", "2", "13", "14", "14", "15", "16", "18", "28", "27", "29", "29", "33", "32", "22", "19", "21", "20", "20", "17", "16", "6", "4", "5", "6", "4", "9", "11", "8", "3", "4", "6", "4", "3", "8", "27", "29", "33", "24", "28"], "time": [1889, 2121, 2470, 2578, 2749, 3218, 3669, 4893, 5499, 5726, 5918, 6932, 10146, 10419, 10917, 11315, 12587, 13313, 14479, 14836, 15052, 17546, 20498, 21163, 24262, 24327, 24383, 24710, 29065, 30043, 30172, 31345, 35344, 35382, 35431, 35557, 38657, 38708, 38758, 38955, 39471, 42422, 45575, 45677]}, "edge": {"target": [], "time": []}}, "mouseout": {"state": {"target": ["1", "1", "2", "10", "2", "7", "2", "13", "14", "14", "15", "16", "18", "28", "27", "29", "29", "33", "32", "22", "19", "21", "20", "20", "17", "16", "6", "4", "5", "6", "4", "9", "11", "8", "3", "4", "6", "4", "3", "8", "27", "29", "33", "24", "28"], "time": [986, 2072, 2189, 2538, 2705, 3169, 3420, 3719, 5163, 5699, 5813, 6775, 10003, 10179, 10832, 11122, 12274, 12981, 14046, 14516, 14866, 17464, 17561, 20946, 24162, 24306, 24362, 24438, 28996, 30022, 30069, 31195, 35305, 35363, 35396, 35494, 38637, 38690, 38740, 38778, 39122, 42140, 45390, 45595, 53786]}, "edge": {"target": [], "time": []}}}, "displayed_time": "52.92", "trialTime": 54843, "trial_type": "mouselab-mdp", "trial_index": 27, "time_elapsed": 1253492, "internal_node_id": "0.0-6.0-1.0-12.0"}}, {"uniqueid": "w58095681:a38349902", "current_trial": 28, "dateTime": 1693482268867, "trialdata": {"revealed_states": [], "clicked_states": ["17"], "num_clicks_accrued": [0, 0, 0, 0, 0, 0, 0, 0, 0, 0, 0, 0, 0], "stateRewards": ["", -2, -4, 2, 10, -17, 18, 73, 11, -32, 23, -13, -2, -4, 7, 12, -25, 66, -23, 15, 40, -76, -9, 1, 2, -7, -5, -20, 24, 3, -5, 16, -73, 70], "withholdReward": false, "trial_id": "mdp_trial_14", "block": "test", "trialIndex": 17, "score": 76.85, "costs": -2.15, "simulationMode": [null, null, null, null, null], "rewards": [-2, -4, 7, 12, 66], "path": ["0", "0", "12", "13", "14", "15", "17"], "rt": [5666, 14, 363, 75, 4], "actions": ["right", "right", "right", "up", "right"], "actionTimes": [7550, 8078, 8976, 9577, 10102], "queries": {"click": {"state": {"target": ["17"], "time": [3797]}, "edge": {"target": [], "time": []}}, "mouseover": {"state": {"target": ["12", "17", "15", "18", "1", "2", "2", "7", "18", "15", "14"], "time": [2867, 3349, 4046, 4081, 4230, 5806, 5962, 6056, 6345, 6411, 7213]}, "edge": {"target": [], "time": []}}, "mouseout": {"state": {"target": ["12", "17", "15", "18", "1", "2", "2", "7", "18", "15", "14"], "time": [2899, 4029, 4063, 4130, 5754, 5838, 6032, 6114, 6378, 6446, 12034]}, "edge": {"target": [], "time": []}}}, "displayed_time": "15.89", "trialTime": 20110, "trial_type": "mouselab-mdp", "trial_index": 28, "time_elapsed": 1274112, "internal_node_id": "0.0-6.0-1.0-13.0"}}, {"uniqueid": "w58095681:a38349902", "current_trial": 29, "dateTime": 1693482293882, "trialdata": {"revealed_states": [], "clicked_states": ["8", "4", "6", "5"], "num_clicks_accrued": [0, 0, 0, 0, 0, 0, 0, 0, 0, 0, 0, 0, 0], "stateRewards": ["", 1, -3, -2, 14, 49, -40, -39, 2, 26, -61, 73, 1, -4, -8, 12, 79, 29, -65, -13, 55, -26, 27, -1, 3, 3, 9, -17, -60, -18, -8, 35, -88, 69], "withholdReward": false, "trial_id": "mdp_trial_15", "block": "test", "trialIndex": 18, "score": 51.6, "costs": -7.4, "simulationMode": [null, null, null, null, null], "rewards": [1, -3, -2, 14, 49], "path": ["0", "0", "1", "2", "3", "4", "5"], "rt": [12739, 69, 308, 6, 65], "actions": ["up", "up", "up", "right", "up"], "actionTimes": [18003, 18592, 19435, 19970, 20577], "queries": {"click": {"state": {"target": ["8", "4", "6", "5"], "time": [6834, 8938, 9815, 13397]}, "edge": {"target": [], "time": []}}, "mouseover": {"state": {"target": ["7", "3", "8", "3", "4", "4", "6", "5", "4", "7", "1", "28", "27"], "time": [5748, 5917, 6687, 7819, 7927, 8185, 9431, 10317, 13929, 14129, 14465, 14615, 15305]}, "edge": {"target": [], "time": []}}, "mouseout": {"state": {"target": ["17", "15", "12", "0", "7", "3", "8", "8", "3", "4", "4", "6", "5", "4", "7", "1", "28", "27", "21"], "time": [1302, 1336, 1517, 5569, 5783, 6453, 7465, 7765, 7866, 8067, 9167, 10050, 13881, 13997, 14397, 14486, 15006, 17233, 22837]}, "edge": {"target": [], "time": []}}}, "displayed_time": "21.10", "trialTime": 24442, "trial_type": "mouselab-mdp", "trial_index": 29, "time_elapsed": 1299126, "internal_node_id": "0.0-6.0-1.0-14.0"}}, {"uniqueid": "w58095681:a38349902", "current_trial": 30, "dateTime": 1693482317598, "trialdata": {"revealed_states": [], "clicked_states": ["26", "30", "32", "33", "31"], "num_clicks_accrued": [0, 0, 0, 0, 0, 0, 0, 0, 0, 0, 0, 0, 0], "stateRewards": ["", 2, -2, 7, -11, -76, -65, -23, 16, -58, 30, 81, 1, 2, 7, 14, 9, 55, -2, 6, 11, -15, 31, -1, -1, -3, 2, 15, 2, 46, 15, 18, 45, -34], "withholdReward": false, "trial_id": "mdp_trial_16", "block": "test", "trialIndex": 19, "score": 45.45, "costs": -9.55, "simulationMode": [null, null, null, null, null], "rewards": [-1, -1, -3, 15, 45], "path": ["0", "0", "23", "24", "25", "30", "32"], "rt": [16756, 21, 343, 205, 106], "actions": ["left", "left", "left", "down", "down"], "actionTimes": [18503, 19039, 19916, 20651, 21273], "queries": {"click": {"state": {"target": ["26", "30", "32", "33", "31"], "time": [2873, 4507, 6209, 10454, 13675]}, "edge": {"target": [], "time": []}}, "mouseover": {"state": {"target": ["23", "24", "26", "25", "30", "13", "32", "33", "30", "31"], "time": [1776, 2269, 2642, 3771, 4258, 5403, 5957, 6520, 10788, 11119]}, "edge": {"target": [], "time": []}}, "mouseout": {"state": {"target": ["0", "23", "24", "26", "25", "30", "30", "13", "32", "33", "30", "31"], "time": [1771, 1831, 2354, 3510, 3995, 4603, 4955, 5437, 6275, 10756, 10871, 14117]}, "edge": {"target": [], "time": []}}}, "displayed_time": "21.78", "trialTime": 23180, "trial_type": "mouselab-mdp", "trial_index": 30, "time_elapsed": 1322843, "internal_node_id": "0.0-6.0-1.0-15.0"}}, {"uniqueid": "w58095681:a38349902", "current_trial": 31, "dateTime": 1693482343694, "trialdata": {"revealed_states": [], "clicked_states": ["8"], "num_clicks_accrued": [0, 0, 0, 0, 0, 0, 0, 0, 0, 0, 0, 0, 0], "stateRewards": ["", -2, 1, -3, -16, -39, -52, 30, -7, -41, -59, 11, 2, 1, 8, 2, -11, -26, -42, -13, 87, -59, -48, -1, -1, -1, 16, -79, 31, 50, -1, -84, 34, -82], "withholdReward": false, "trial_id": "mdp_trial_17", "block": "test", "trialIndex": 20, "score": 0.4499999999999993, "costs": -1.55, "simulationMode": [null, null, null, null, null], "rewards": [2, 1, 8, 2, -11], "path": ["0", "0", "12", "13", "14", "15", "16"], "rt": [13094, 80, 485, 668, 381], "actions": ["right", "right", "right", "up", "up"], "actionTimes": [19174, 19787, 20790, 21973, 22869], "queries": {"click": {"state": {"target": ["8"], "time": [7499]}, "edge": {"target": [], "time": []}}, "mouseover": {"state": {"target": ["13", "7", "3", "8", "3", "4", "6", "18", "4", "16", "12"], "time": [6148, 6876, 6962, 7256, 7813, 8209, 13245, 13759, 14076, 17226, 17775]}, "edge": {"target": [], "time": []}}, "mouseout": {"state": {"target": ["12", "12", "13", "7", "3", "8", "3", "4", "6", "18", "4", "16", "12", "12"], "time": [2111, 5122, 6545, 6914, 7212, 7793, 8030, 13210, 13294, 13801, 16159, 17270, 18725, 23806]}, "edge": {"target": [], "time": []}}}, "displayed_time": "23.40", "trialTime": 25572, "trial_type": "mouselab-mdp", "trial_index": 31, "time_elapsed": 1348939, "internal_node_id": "0.0-6.0-1.0-16.0"}}, {"uniqueid": "w58095681:a38349902", "current_trial": 32, "dateTime": 1693482365364, "trialdata": {"revealed_states": [], "clicked_states": ["26", "30"], "num_clicks_accrued": [0, 0, 0, 0, 0, 0, 0, 0, 0, 0, 0, 0, 0], "stateRewards": ["", 2, 2, 3, -15, 23, -14, 73, -7, -32, -20, -6, 1, 1, -5, -12, 73, 6, -84, 11, -81, -57, 13, -2, -1, -4, -8, -52, -58, 49, 13, 5, -41, -41], "withholdReward": false, "trial_id": "mdp_trial_18", "block": "test", "trialIndex": 21, "score": -38.1, "costs": -3.1, "simulationMode": [null, null, null, null, null], "rewards": [-2, -1, -4, 13, -41], "path": ["0", "0", "23", "24", "25", "30", "32"], "rt": [5008, 29, 756, 504, 665], "actions": ["left", "left", "left", "down", "down"], "actionTimes": [8790, 9357, 10652, 11682, 12875], "queries": {"click": {"state": {"target": ["26", "30"], "time": [4860, 6754]}, "edge": {"target": [], "time": []}}, "mouseover": {"state": {"target": ["23", "28", "26", "27", "25", "30", "33"], "time": [4321, 4422, 4474, 5091, 6341, 6609, 8090]}, "edge": {"target": [], "time": []}}, "mouseout": {"state": {"target": ["0", "23", "28", "26", "27", "25", "30", "33", "30", "30"], "time": [4261, 4346, 4440, 5009, 6246, 6437, 7004, 10734, 11016, 17305]}, "edge": {"target": [], "time": []}}}, "displayed_time": "17.79", "trialTime": 21049, "trial_type": "mouselab-mdp", "trial_index": 32, "time_elapsed": 1370609, "internal_node_id": "0.0-6.0-1.0-17.0"}}, {"uniqueid": "w58095681:a38349902", "current_trial": 33, "dateTime": 1693482385979, "trialdata": {"revealed_states": [], "clicked_states": ["20"], "num_clicks_accrued": [0, 0, 0, 0, 0, 0, 0, 0, 0, 0, 0, 0, 0], "stateRewards": ["", 2, -1, -3, 16, -3, -16, -62, -1, 13, -26, 43, -1, 4, 3, -9, -54, -37, -3, -12, -71, -68, -57, 1, -3, 2, -9, 2, -2, -9, -11, 84, -52, 55], "withholdReward": false, "trial_id": "mdp_trial_19", "block": "test", "trialIndex": 22, "score": -59.15, "costs": -2.15, "simulationMode": [null, null, null, null, null], "rewards": [-1, 4, 3, -9, -54], "path": ["0", "0", "12", "13", "14", "15", "16"], "rt": [10023, 237, 334, 276, 69], "actions": ["right", "right", "right", "up", "up"], "actionTimes": [12193, 12944, 13790, 14584, 15175], "queries": {"click": {"state": {"target": ["20"], "time": [3113]}, "edge": {"target": [], "time": []}}, "mouseover": {"state": {"target": ["12", "13", "14", "20", "20", "21", "22", "22", "12", "12"], "time": [2186, 2245, 2321, 2773, 2872, 3521, 5560, 10759, 10857, 11174]}, "edge": {"target": [], "time": []}}, "mouseout": {"state": {"target": ["0", "12", "13", "14", "20", "20", "21", "22", "22", "12", "12"], "time": [2183, 2231, 2289, 2613, 2808, 3402, 5405, 9626, 10811, 10958, 18640]}, "edge": {"target": [], "time": []}}}, "displayed_time": "16.18", "trialTime": 20120, "trial_type": "mouselab-mdp", "trial_index": 33, "time_elapsed": 1391223, "internal_node_id": "0.0-6.0-1.0-18.0"}}, {"uniqueid": "w58095681:a38349902", "current_trial": 34, "dateTime": 1693482404841, "trialdata": {"revealed_states": [], "clicked_states": [], "num_clicks_accrued": [0, 0, 0, 0, 0, 0, 0, 0, 0, 0, 0, 0, 0], "stateRewards": ["", 2, -1, 3, -12, -83, 6, -33, 9, 28, 24, -50, -2, -1, -2, -5, -87, 37, 82, 12, 80, -5, 10, -2, -3, -6, 9, 22, -1, 16, 9, 77, -62, 58], "withholdReward": false, "trial_id": "mdp_trial_20", "block": "test", "trialIndex": 23, "score": 14, "costs": 0, "simulationMode": [null, null, null, null, null], "rewards": [-2, -3, -6, 9, 16], "path": ["0", "0", "23", "24", "25", "26", "29"], "rt": [8313, 81, 65, 594, 40], "actions": ["left", "left", "left", "up", "left"], "actionTimes": [10245, 10843, 11444, 12555, 13123], "queries": {"click": {"state": {"target": [], "time": []}, "edge": {"target": [], "time": []}}, "mouseover": {"state": {"target": ["23", "33", "25", "26"], "time": [1957, 3931, 4548, 4881]}, "edge": {"target": [], "time": []}}, "mouseout": {"state": {"target": ["0", "23", "33", "25", "26"], "time": [1948, 2058, 4231, 4698, 9779]}, "edge": {"target": [], "time": []}}}, "displayed_time": "15.93", "trialTime": 18344, "trial_type": "mouselab-mdp", "trial_index": 34, "time_elapsed": 1410086, "internal_node_id": "0.0-6.0-1.0-19.0"}}, {"uniqueid": "w58095681:a38349902", "current_trial": 35, "dateTime": 1693482424676, "trialdata": {"revealed_states": [], "clicked_states": [], "num_clicks_accrued": [0, 0, 0, 0, 0, 0, 0, 0, 0, 0, 0, 0, 0], "stateRewards": ["", -1, -3, -6, -2, -7, 80, -45, -3, -38, -72, 76, 2, 1, 7, 4, -62, 14, -74, 14, -87, -21, -88, -2, 1, -7, -10, 66, 56, -76, 10, -29, -72, -70], "withholdReward": false, "trial_id": "mdp_trial_21", "block": "test", "trialIndex": 24, "score": -27, "costs": 0, "simulationMode": [null, null, null, null, null], "rewards": [-2, 1, -7, 10, -29], "path": ["0", "0", "23", "24", "25", "30", "31"], "rt": [4436, 57, 123, 111, 295], "actions": ["left", "left", "left", "down", "right"], "actionTimes": [6308, 6897, 7570, 8222, 9047], "queries": {"click": {"state": {"target": [], "time": []}, "edge": {"target": [], "time": []}}, "mouseover": {"state": {"target": [], "time": []}, "edge": {"target": [], "time": []}}, "mouseout": {"state": {"target": ["0", "23", "23", "15", "18", "12", "0"], "time": [1037, 1127, 1176, 18135, 18304, 18809, 18859]}, "edge": {"target": [], "time": []}}}, "displayed_time": "15.88", "trialTime": 19295, "trial_type": "mouselab-mdp", "trial_index": 35, "time_elapsed": 1429921, "internal_node_id": "0.0-6.0-1.0-20.0"}}, {"uniqueid": "w58095681:a38349902", "current_trial": 36, "dateTime": 1693482442623, "trialdata": {"revealed_states": [], "clicked_states": [], "num_clicks_accrued": [0, 0, 0, 0, 0, 0, 0, 0, 0, 0, 0, 0, 0], "stateRewards": ["", -2, -1, -1, 5, -54, -87, 35, 2, -8, 20, -22, 1, 3, 6, 13, -75, -32, -55, -3, 56, 62, -22, -1, -4, -1, -7, -51, 84, 70, 7, -15, 5, 55], "withholdReward": false, "trial_id": "mdp_trial_22", "block": "test", "trialIndex": 25, "score": 18, "costs": 0, "simulationMode": [null, null, null, null, null], "rewards": [-2, -1, -1, 2, 20], "path": ["0", "0", "1", "2", "3", "8", "10"], "rt": [1160, 279, 96, 41, 3620], "actions": ["up", "up", "up", "left", "down"], "actionTimes": [2782, 3584, 4205, 4775, 8949], "queries": {"click": {"state": {"target": [], "time": []}, "edge": {"target": [], "time": []}}, "mouseover": {"state": {"target": ["2"], "time": [2401]}, "edge": {"target": [], "time": []}}, "mouseout": {"state": {"target": ["0", "2", "12", "14"], "time": [1636, 2687, 13768, 13824]}, "edge": {"target": [], "time": []}}}, "displayed_time": "15.63", "trialTime": 17357, "trial_type": "mouselab-mdp", "trial_index": 36, "time_elapsed": 1447867, "internal_node_id": "0.0-6.0-1.0-21.0"}}, {"uniqueid": "w58095681:a38349902", "current_trial": 37, "dateTime": 1693482461961, "trialdata": {"revealed_states": [], "clicked_states": ["16"], "num_clicks_accrued": [0, 0, 0, 0, 0, 0, 0, 0, 0, 0, 0, 0, 0], "stateRewards": ["", -2, -1, -5, 10, -36, -70, 68, -9, 86, 71, -10, 2, -4, 7, -7, 66, 44, -66, -13, -69, 43, 15, -2, 2, 6, -13, 62, 57, 50, -10, -69, 42, -72], "withholdReward": false, "trial_id": "mdp_trial_23", "block": "test", "trialIndex": 26, "score": 61.85, "costs": -2.15, "simulationMode": [null, null, null, null, null], "rewards": [2, -4, 7, -7, 66], "path": ["0", "0", "12", "13", "14", "15", "16"], "rt": [6927, 21, 136, 125, 77], "actions": ["right", "right", "right", "up", "up"], "actionTimes": [9655, 10190, 10855, 11495, 12096], "queries": {"click": {"state": {"target": ["16"], "time": [5526]}, "edge": {"target": [], "time": []}}, "mouseover": {"state": {"target": ["21", "20", "14", "15", "16", "17", "14", "14", "15", "17", "15"], "time": [2784, 4854, 5000, 5181, 5356, 5949, 6677, 7068, 7356, 8988, 9141]}, "edge": {"target": [], "time": []}}, "mouseout": {"state": {"target": ["20", "19", "12", "0", "21", "20", "14", "15", "16", "17", "14", "14", "15", "17", "15"], "time": [1535, 1568, 1920, 2742, 3353, 4927, 5122, 5289, 5848, 6120, 6811, 7286, 8579, 9105, 9193]}, "edge": {"target": [], "time": []}}}, "displayed_time": "16.73", "trialTime": 18737, "trial_type": "mouselab-mdp", "trial_index": 37, "time_elapsed": 1467206, "internal_node_id": "0.0-6.0-1.0-22.0"}}, {"uniqueid": "w58095681:a38349902", "current_trial": 38, "dateTime": 1693482493501, "trialdata": {"revealed_states": [], "clicked_states": ["27", "16", "21", "20", "32"], "num_clicks_accrued": [0, 0, 0, 0, 0, 0, 0, 0, 0, 0, 0, 0, 0], "stateRewards": ["", -1, -3, -6, 14, 41, 18, 63, -14, 80, 21, 17, -2, -4, -2, -5, 13, 70, 8, -4, -64, -10, -20, 2, -1, 4, -1, -17, -55, 42, -7, 47, 54, 15], "withholdReward": false, "trial_id": "mdp_trial_24", "block": "test", "trialIndex": 27, "score": 41.25, "costs": -10.75, "simulationMode": [null, null, null, null, null], "rewards": [2, -1, 4, -7, 54], "path": ["0", "0", "23", "24", "25", "30", "32"], "rt": [20985, 157, 615, 1431, 931], "actions": ["left", "left", "left", "down", "down"], "actionTimes": [23326, 24005, 25166, 27112, 28577], "queries": {"click": {"state": {"target": ["27", "16", "21", "20", "32"], "time": [4870, 8845, 12119, 15423, 19361]}, "edge": {"target": [], "time": []}}, "mouseover": {"state": {"target": ["13", "30", "29", "27", "27", "29", "26", "16", "16", "17", "19", "21", "21", "22", "19", "20", "19", "22", "30", "33", "32", "33"], "time": [3155, 4074, 4239, 4439, 4693, 5422, 8179, 8336, 8619, 9227, 10696, 10753, 11099, 12629, 12669, 12716, 15910, 16041, 16937, 16988, 18481, 19998]}, "edge": {"target": [], "time": []}}, "mouseout": {"state": {"target": ["23", "0", "13", "30", "29", "27", "27", "29", "26", "16", "16", "17", "19", "21", "21", "22", "19", "20", "20", "19", "22", "30", "33", "32"], "time": [1106, 3106, 3189, 4115, 4323, 4475, 5109, 8169, 8220, 8469, 9169, 9389, 10717, 10787, 12317, 12649, 12696, 15505, 15888, 15992, 16201, 16964, 17446, 19622]}, "edge": {"target": [], "time": []}}}, "displayed_time": "29.09", "trialTime": 30983, "trial_type": "mouselab-mdp", "trial_index": 38, "time_elapsed": 1498746, "internal_node_id": "0.0-6.0-1.0-23.0"}}, {"uniqueid": "w58095681:a38349902", "current_trial": 39, "dateTime": 1693482529878, "trialdata": {"revealed_states": [], "clicked_states": ["11", "9", "5", "6", "27", "29", "28"], "num_clicks_accrued": [0, 0, 0, 0, 0, 0, 0, 0, 0, 0, 0, 0, 0], "stateRewards": ["", -2, -3, 4, 1, 33, -53, 15, 9, -12, 61, -6, -2, 4, 6, -11, 47, -43, -7, -11, 46, 23, -28, -1, -1, 3, -10, 11, 76, -76, 10, 18, -38, 87], "withholdReward": false, "trial_id": "mdp_trial_25", "block": "test", "trialIndex": 28, "score": 51.95, "costs": -15.05, "simulationMode": [null, null, null, null, null], "rewards": [-1, -1, 3, -10, 76], "path": ["0", "0", "23", "24", "25", "26", "28"], "rt": [27791, 132, 262, 119, 6], "actions": ["left", "left", "left", "up", "right"], "actionTimes": [30903, 31583, 32367, 33009, 33528], "queries": {"click": {"state": {"target": ["11", "9", "5", "6", "27", "29", "28"], "time": [4416, 8956, 12040, 15897, 20419, 23856, 27082]}, "edge": {"target": [], "time": []}}, "mouseover": {"state": {"target": ["0", "1", "2", "8", "11", "8", "9", "9", "5", "6", "18", "6", "7", "1", "27", "27", "29", "29", "26", "28", "28", "25", "33", "33", "33"], "time": [3411, 3563, 3638, 3916, 4146, 6517, 6608, 6877, 9943, 12900, 13441, 14201, 16416, 16822, 19870, 20177, 20971, 21160, 24265, 24337, 26389, 27362, 27418, 27738, 28676]}, "edge": {"target": [], "time": []}}, "mouseout": {"state": {"target": ["33", "10", "2", "0", "0", "1", "2", "8", "11", "8", "9", "9", "5", "5", "6", "18", "6", "6", "7", "1", "27", "27", "29", "29", "26", "28", "28", "25", "33", "33"], "time": [1000, 1596, 1678, 3127, 3515, 3600, 3680, 3987, 6479, 6536, 6627, 9399, 12158, 12677, 13190, 13558, 16007, 16326, 16484, 19761, 19937, 20775, 21048, 24244, 24319, 24390, 27340, 27400, 27456, 28367]}, "edge": {"target": [], "time": []}}}, "displayed_time": "34.05", "trialTime": 35565, "trial_type": "mouselab-mdp", "trial_index": 39, "time_elapsed": 1535123, "internal_node_id": "0.0-6.0-1.0-24.0"}}, {"uniqueid": "w58095681:a38349902", "current_trial": 40, "dateTime": 1693482562015, "trialdata": {"revealed_states": [], "clicked_states": ["33", "30", "32", "31", "21", "19"], "num_clicks_accrued": [0, 0, 0, 0, 0, 0, 0, 0, 0, 0, 0, 0, 0], "stateRewards": ["", -2, 1, 6, -2, -10, -78, -69, 14, -15, 7, -1, 1, -1, -2, 13, 77, 32, 87, 5, -74, 30, -26, 1, 3, 4, 12, 39, 54, -43, 2, 10, 23, 13], "withholdReward": false, "trial_id": "mdp_trial_26", "block": "test", "trialIndex": 29, "score": 21.299999999999997, "costs": -11.700000000000001, "simulationMode": [null, null, null, null, null], "rewards": [1, -1, -2, 5, 30], "path": ["0", "0", "12", "13", "14", "19", "21"], "rt": [19609, 18, 533, 192, 161], "actions": ["right", "right", "right", "down", "down"], "actionTimes": [22147, 22683, 23752, 24466, 25183], "queries": {"click": {"state": {"target": ["33", "30", "32", "31", "21", "19"], "time": [3335, 6803, 8388, 12010, 15502, 18883]}, "edge": {"target": [], "time": []}}, "mouseover": {"state": {"target": ["23", "30", "33", "30", "32", "31", "22", "19", "21", "22", "19", "14"], "time": [2666, 2818, 3087, 4313, 7175, 8934, 13200, 13348, 14097, 16079, 16314, 21149]}, "edge": {"target": [], "time": []}}, "mouseout": {"state": {"target": ["33", "30", "23", "0", "0", "23", "30", "33", "30", "32", "31", "22", "19", "21", "22", "19", "14"], "time": [902, 970, 1102, 1284, 2626, 2731, 2852, 3876, 7070, 8666, 12400, 13288, 13981, 15766, 16213, 19213, 30089]}, "edge": {"target": [], "time": []}}}, "displayed_time": "25.70", "trialTime": 31554, "trial_type": "mouselab-mdp", "trial_index": 40, "time_elapsed": 1567260, "internal_node_id": "0.0-6.0-1.0-25.0"}}, {"uniqueid": "w58095681:a38349902", "current_trial": 41, "dateTime": 1693482585811, "trialdata": {"revealed_states": [], "clicked_states": ["8", "4", "15", "19", "30", "26", "9"], "num_clicks_accrued": [0, 0, 0, 0, 0, 0, 0, 0, 0, 0, 0, 0, 0], "stateRewards": ["", -2, -3, 8, -4, -30, 31, 69, 9, 66, 87, 64, -2, 2, 8, 5, 47, 16, -39, -8, -54, 51, -19, 1, -2, -2, -11, -25, -26, 43, -9, 19, -84, 86], "withholdReward": false, "trial_id": "mdp_trial_27", "block": "test", "trialIndex": 30, "score": 66.55, "costs": -11.450000000000001, "simulationMode": [null, null, null, null, null], "rewards": [-2, -3, 8, 9, 66], "path": ["0", "0", "1", "2", "3", "8", "9"], "rt": [13795, 100, 53, 69, 15], "actions": ["up", "up", "up", "left", "up"], "actionTimes": [17438, 18056, 18625, 19217, 19746], "queries": {"click": {"state": {"target": ["8", "4", "15", "19", "30", "26", "9"], "time": [4622, 5885, 8160, 9149, 10270, 11218, 12951]}, "edge": {"target": [], "time": []}}, "mouseover": {"state": {"target": ["1", "8", "3", "4", "4", "6", "15", "14", "14", "15", "14", "19", "22", "31", "30", "25", "26", "28", "2", "3", "8", "9", "11", "8"], "time": [3853, 4118, 4910, 4976, 5552, 6258, 6511, 6667, 7586, 7970, 8473, 8741, 9558, 9838, 10065, 10679, 10893, 11649, 12083, 12185, 12328, 12577, 13592, 16452]}, "edge": {"target": [], "time": []}}, "mouseout": {"state": {"target": ["17", "16", "6", "3", "2", "0", "0", "0", "1", "8", "3", "4", "4", "6", "15", "14", "14", "15", "14", "19", "22", "31", "30", "25", "26", "28", "2", "3", "8", "9", "11", "8", "4", "6", "15", "22", "19", "20", "19"], "time": [98, 200, 317, 652, 705, 1019, 1802, 3709, 3918, 4890, 4935, 5537, 6220, 6321, 6595, 6809, 7887, 8437, 8619, 9518, 9577, 9978, 10605, 10785, 11631, 11688, 12118, 12279, 12511, 13330, 16418, 20966, 21017, 21053, 21382, 21517, 21782, 22450, 22485]}, "edge": {"target": [], "time": []}}}, "displayed_time": "20.29", "trialTime": 23226, "trial_type": "mouselab-mdp", "trial_index": 41, "time_elapsed": 1591056, "internal_node_id": "0.0-6.0-1.0-26.0"}}, {"uniqueid": "w58095681:a38349902", "current_trial": 42, "dateTime": 1693482604648, "trialdata": {"revealed_states": [], "clicked_states": ["30"], "num_clicks_accrued": [0, 0, 0, 0, 0, 0, 0, 0, 0, 0, 0, 0, 0], "stateRewards": ["", 1, -3, -6, -5, 47, 80, -29, 11, -71, 10, -29, -2, 3, -6, 12, 2, -78, -6, 8, 34, -16, -5, -1, 3, 3, -13, 84, -36, -62, -3, -27, 66, 15], "withholdReward": false, "trial_id": "mdp_trial_28", "block": "test", "trialIndex": 31, "score": 11.45, "costs": -1.55, "simulationMode": [null, null, null, null, null], "rewards": [1, -3, -6, 11, 10], "path": ["0", "0", "1", "2", "3", "8", "10"], "rt": [9071, 638, 181, 131, 236], "actions": ["up", "up", "up", "left", "down"], "actionTimes": [11636, 12794, 13487, 14140, 14898], "queries": {"click": {"state": {"target": ["30"], "time": [4867]}, "edge": {"target": [], "time": []}}, "mouseover": {"state": {"target": ["23", "24", "25", "30", "25", "26", "28"], "time": [3300, 3456, 3671, 4541, 5218, 5525, 11302]}, "edge": {"target": [], "time": []}}, "mouseout": {"state": {"target": ["0", "23", "24", "25", "30", "25", "26"], "time": [3252, 3353, 3574, 4459, 5106, 5345, 11206]}, "edge": {"target": [], "time": []}}}, "displayed_time": "16.58", "trialTime": 18151, "trial_type": "mouselab-mdp", "trial_index": 42, "time_elapsed": 1609892, "internal_node_id": "0.0-6.0-1.0-27.0"}}, {"uniqueid": "w58095681:a38349902", "current_trial": 43, "dateTime": 1693482628120, "trialdata": {"revealed_states": [], "clicked_states": ["15", "19", "21", "22", "20"], "num_clicks_accrued": [0, 0, 0, 0, 0, 0, 0, 0, 0, 0, 0, 0, 0], "stateRewards": ["", 1, 1, -6, -2, 7, 77, 3, 16, -16, 66, 31, -1, 3, -8, -6, 33, -50, -48, 7, -60, -66, 36, 2, -3, 3, -7, -12, -61, -79, -4, 8, 74, -70], "withholdReward": false, "trial_id": "mdp_trial_29", "block": "test", "trialIndex": 32, "score": 27.45, "costs": -9.55, "simulationMode": [null, null, null, null, null], "rewards": [-1, 3, -8, 7, 36], "path": ["0", "0", "12", "13", "14", "19", "22"], "rt": [14620, 136, 365, 42, 177], "actions": ["right", "right", "right", "down", "left"], "actionTimes": [17740, 18390, 19267, 19826, 20550], "queries": {"click": {"state": {"target": ["15", "19", "21", "22", "20"], "time": [4452, 6483, 8198, 11377, 14497]}, "edge": {"target": [], "time": []}}, "mouseover": {"state": {"target": ["12", "14", "15", "14", "19", "22", "25", "30", "31", "21", "21", "22", "19", "20", "21"], "time": [3138, 3708, 4260, 4807, 4976, 6774, 7145, 7583, 7616, 7740, 7956, 8581, 11811, 11905, 15535]}, "edge": {"target": [], "time": []}}, "mouseout": {"state": {"target": ["28", "15", "0", "12", "14", "15", "14", "19", "22", "25", "30", "31", "21", "21", "22", "19", "20", "21", "21"], "time": [672, 769, 2587, 3157, 4211, 4770, 4882, 6758, 6795, 7306, 7600, 7635, 7786, 8421, 11787, 11879, 15086, 15726, 22168]}, "edge": {"target": [], "time": []}}}, "displayed_time": "21.08", "trialTime": 22928, "trial_type": "mouselab-mdp", "trial_index": 43, "time_elapsed": 1633364, "internal_node_id": "0.0-6.0-1.0-28.0"}}, {"uniqueid": "w58095681:a38349902", "current_trial": 44, "dateTime": 1693482648518, "trialdata": {"revealed_states": [], "clicked_states": ["26", "27", "28", "29"], "num_clicks_accrued": [0, 0, 0, 0, 0, 0, 0, 0, 0, 0, 0, 0, 0], "stateRewards": ["", -1, 3, 8, 10, -86, 61, -36, 10, 17, -60, 24, -1, -3, 3, 11, 50, 60, 33, -3, -20, 58, -6, 1, -4, -4, 13, -70, -71, 43, 14, 52, 82, -11], "withholdReward": false, "trial_id": "mdp_trial_30", "block": "test", "trialIndex": 33, "score": 41, "costs": -8, "simulationMode": [null, null, null, null, null], "rewards": [1, -4, -4, 13, 43], "path": ["0", "0", "23", "24", "25", "26", "29"], "rt": [13607, 13, 340, 226, 7], "actions": ["left", "left", "left", "up", "left"], "actionTimes": [15387, 15915, 16791, 17538, 18069], "queries": {"click": {"state": {"target": ["26", "27", "28", "29"], "time": [2994, 5193, 8493, 11643]}, "edge": {"target": [], "time": []}}, "mouseover": {"state": {"target": ["23", "24", "25", "26", "25", "30", "25", "27", "28", "29", "25", "30"], "time": [2023, 2102, 2422, 2811, 3290, 3707, 4503, 4949, 5832, 8976, 12166, 12453]}, "edge": {"target": [], "time": []}}, "mouseout": {"state": {"target": ["0", "23", "24", "25", "26", "25", "30", "25", "26", "27", "28", "29", "25"], "time": [788, 2062, 2141, 2739, 3221, 3471, 4468, 4569, 4667, 5609, 8753, 12007, 12328]}, "edge": {"target": [], "time": []}}}, "displayed_time": "18.60", "trialTime": 19782, "trial_type": "mouselab-mdp", "trial_index": 44, "time_elapsed": 1653763, "internal_node_id": "0.0-6.0-1.0-29.0"}}, {"uniqueid": "w58095681:a38349902", "current_trial": 45, "dateTime": 1693482691162, "trialdata": {"revealed_states": [], "clicked_states": ["30", "33", "32", "31", "15", "19", "4", "8", "9", "11", "10"], "num_clicks_accrued": [0, 0, 0, 0, 0, 0, 0, 0, 0, 0, 0, 0, 0], "stateRewards": ["", 1, 2, 2, -15, -84, 28, -26, 13, 31, 86, 30, -2, 1, -1, -8, 66, -40, -1, -10, -32, 57, -17, 1, 2, -2, 9, -23, 77, 85, 12, -32, -62, -35], "withholdReward": false, "trial_id": "mdp_trial_31", "block": "test", "trialIndex": 34, "score": 83.35, "costs": -20.65, "simulationMode": [null, null, null, null, null], "rewards": [1, 2, 2, 13, 86], "path": ["0", "0", "1", "2", "3", "8", "10"], "rt": [31658, 188, 1492, 163, 1391], "actions": ["up", "up", "up", "left", "down"], "actionTimes": [33943, 34655, 36685, 37358, 39276], "queries": {"click": {"state": {"target": ["30", "33", "32", "31", "15", "19", "4", "8", "9", "11", "10"], "time": [3282, 6038, 9338, 12486, 16603, 19474, 20982, 22433, 24156, 27251, 30688]}, "edge": {"target": [], "time": []}}, "mouseover": {"state": {"target": ["23", "24", "25", "30", "33", "32", "31", "14", "15", "16", "14", "19", "21", "19", "22", "12", "1", "2", "3", "4", "3", "8", "8", "10", "9", "9", "11", "10", "2", "1", "0"], "time": [2691, 2791, 2843, 2933, 3651, 6686, 9689, 16169, 16369, 17001, 18904, 18952, 19052, 19247, 19808, 19882, 19988, 20166, 20399, 20611, 21273, 21347, 21785, 22846, 23434, 23800, 24533, 28127, 31183, 31311, 31617]}, "edge": {"target": [], "time": []}}, "mouseout": {"state": {"target": ["30", "31", "23", "24", "25", "30", "33", "32", "31", "14", "15", "16", "15", "14", "19", "21", "19", "22", "12", "1", "2", "3", "4", "3", "8", "8", "10", "8", "9", "9", "11", "10", "2", "1", "0"], "time": [774, 819, 2752, 2834, 2892, 3593, 6408, 9550, 12985, 16288, 16866, 18840, 18895, 18941, 19002, 19168, 19768, 19846, 19902, 20078, 20314, 20544, 21248, 21311, 21490, 22803, 23039, 23411, 23458, 24438, 27896, 31112, 31242, 31435, 31721]}, "edge": {"target": [], "time": []}}}, "displayed_time": "39.80", "trialTime": 42053, "trial_type": "mouselab-mdp", "trial_index": 45, "time_elapsed": 1696407, "internal_node_id": "0.0-6.0-1.0-30.0"}}, {"uniqueid": "w58095681:a38349902", "current_trial": 46, "dateTime": 1693482709686, "trialdata": {"revealed_states": [], "clicked_states": ["26", "30", "19"], "num_clicks_accrued": [0, 0, 0, 0, 0, 0, 0, 0, 0, 0, 0, 0, 0], "stateRewards": ["", 2, -2, -3, 10, -4, -1, -11, -8, -9, -36, -78, 2, 1, 7, -7, 44, -1, -31, -1, 26, 47, 83, 2, -4, -4, -6, -52, -76, -81, -1, -59, 45, 67], "withholdReward": false, "trial_id": "mdp_trial_32", "block": "test", "trialIndex": 35, "score": 33.35, "costs": -4.65, "simulationMode": [null, null, null, null, null], "rewards": [2, -4, -4, -1, 45], "path": ["0", "0", "23", "24", "25", "30", "32"], "rt": [11110, 198, 231, 94, 170], "actions": ["left", "left", "left", "down", "down"], "actionTimes": [13053, 13783, 14559, 15161, 15854], "queries": {"click": {"state": {"target": ["26", "30", "19"], "time": [3076, 4819, 6336]}, "edge": {"target": [], "time": []}}, "mouseover": {"state": {"target": ["23", "28", "26", "25", "30", "31", "0", "12", "13", "14", "19", "15", "15"], "time": [1997, 2289, 2817, 3375, 3642, 5188, 5335, 5407, 5499, 5658, 5899, 6875, 7384]}, "edge": {"target": [], "time": []}}, "mouseout": {"state": {"target": ["0", "0", "23", "28", "26", "25", "30", "31", "0", "12", "13", "14", "19", "15"], "time": [972, 1958, 2053, 2372, 3338, 3502, 5018, 5208, 5371, 5463, 5586, 5713, 6637, 7192]}, "edge": {"target": [], "time": []}}}, "displayed_time": "16.38", "trialTime": 17958, "trial_type": "mouselab-mdp", "trial_index": 46, "time_elapsed": 1714931, "internal_node_id": "0.0-6.0-1.0-31.0"}}, {"uniqueid": "w58095681:a38349902", "current_trial": 47, "dateTime": 1693482728543, "trialdata": {"revealed_states": [], "clicked_states": ["11", "6", "4"], "num_clicks_accrued": [0, 0, 0, 0, 0, 0, 0, 0, 0, 0, 0, 0, 0], "stateRewards": ["", -1, -3, 3, 5, 56, 39, 50, -1, -80, 33, -46, 1, -2, -6, -8, 87, 48, 54, -11, -20, -64, -54, -2, 3, -7, -3, 12, 88, 35, -16, -46, -70, -3], "withholdReward": false, "trial_id": "mdp_trial_33", "block": "test", "trialIndex": 36, "score": 37.15, "costs": -5.85, "simulationMode": [null, null, null, null, null], "rewards": [-1, -3, 3, 5, 39], "path": ["0", "0", "1", "2", "3", "4", "6"], "rt": [10481, 60, 368, 55, 338], "actions": ["up", "up", "up", "right", "right"], "actionTimes": [13327, 13916, 14815, 15384, 16273], "queries": {"click": {"state": {"target": ["11", "6", "4"], "time": [4932, 7955, 12036]}, "edge": {"target": [], "time": []}}, "mouseover": {"state": {"target": ["18", "16", "3", "8", "11", "8", "3", "4", "6", "6", "4", "5", "4", "2"], "time": [3284, 3893, 3944, 3964, 4631, 5317, 7480, 7517, 7557, 7758, 8412, 10263, 11855, 12675]}, "edge": {"target": [], "time": []}}, "mouseout": {"state": {"target": ["15", "0", "18", "16", "3", "8", "11", "8", "3", "4", "6", "6", "4", "5", "4", "2", "2", "1"], "time": [1637, 2314, 3331, 3910, 3961, 3980, 5169, 7461, 7499, 7539, 7579, 8279, 8663, 11792, 12534, 17269, 17395, 17546]}, "edge": {"target": [], "time": []}}}, "displayed_time": "16.85", "trialTime": 18244, "trial_type": "mouselab-mdp", "trial_index": 47, "time_elapsed": 1733787, "internal_node_id": "0.0-6.0-1.0-32.0"}}, {"uniqueid": "w58095681:a38349902", "current_trial": 48, "dateTime": 1693482745958, "trialdata": {"revealed_states": [], "clicked_states": ["26", "27"], "num_clicks_accrued": [0, 0, 0, 0, 0, 0, 0, 0, 0, 0, 0, 0, 0], "stateRewards": ["", -2, 2, 5, -14, -56, 64, 84, -5, 52, 39, 85, -2, 1, 7, 8, 21, 29, -78, -9, -10, -69, 10, -2, -1, -7, 15, 72, 20, 41, -2, 52, 80, 22], "withholdReward": false, "trial_id": "mdp_trial_34", "block": "test", "trialIndex": 37, "score": 73.3, "costs": -3.7, "simulationMode": [null, null, null, null, null], "rewards": [-2, -1, -7, 15, 72], "path": ["0", "0", "23", "24", "25", "26", "27"], "rt": [6724, 12, 82, 224, 347], "actions": ["left", "left", "left", "up", "up"], "actionTimes": [8816, 9366, 10008, 10764, 11662], "queries": {"click": {"state": {"target": ["26", "27"], "time": [3739, 4907]}, "edge": {"target": [], "time": []}}, "mouseover": {"state": {"target": ["28", "26", "26", "25", "27", "28"], "time": [3183, 3297, 3516, 4371, 4691, 5501]}, "edge": {"target": [], "time": []}}, "mouseout": {"state": {"target": ["1", "0", "28", "26", "26", "26", "25", "26", "27", "28", "28", "18", "15"], "time": [1230, 2110, 3227, 3336, 3878, 4313, 4453, 4511, 5269, 13761, 14230, 14299, 14344]}, "edge": {"target": [], "time": []}}}, "displayed_time": "16.09", "trialTime": 16846, "trial_type": "mouselab-mdp", "trial_index": 48, "time_elapsed": 1751202, "internal_node_id": "0.0-6.0-1.0-33.0"}}, {"uniqueid": "w58095681:a38349902", "current_trial": 49, "dateTime": 1693482779199, "trialdata": {"revealed_states": [], "clicked_states": ["19", "21", "22", "20", "15", "16", "17"], "num_clicks_accrued": [0, 0, 0, 0, 0, 0, 0, 0, 0, 0, 0, 0, 0], "stateRewards": ["", -2, 4, -5, -12, 85, -24, -18, -15, -78, -22, 26, -1, -1, 2, 14, -45, 52, -23, 7, -33, 24, -6, -2, -4, 5, -7, -16, 36, -39, 5, 71, -87, -23], "withholdReward": false, "trial_id": "mdp_trial_35", "block": "test", "trialIndex": 38, "score": 52.15, "costs": -13.850000000000001, "simulationMode": [null, null, null, null, null], "rewards": [-1, -1, 2, 14, 52], "path": ["0", "0", "12", "13", "14", "15", "17"], "rt": [24569, 116, 265, 949, 63], "actions": ["right", "right", "right", "up", "right"], "actionTimes": [26632, 27271, 28058, 29518, 30098], "queries": {"click": {"state": {"target": ["19", "21", "22", "20", "15", "16", "17"], "time": [3979, 6408, 10551, 13763, 17163, 19238, 22358]}, "edge": {"target": [], "time": []}}, "mouseover": {"state": {"target": ["0", "12", "14", "19", "14", "15", "14", "14", "15", "14", "21", "22", "19", "20", "15", "16", "15", "16", "17", "15", "18", "18"], "time": [2432, 2843, 3048, 3583, 4315, 4492, 4969, 5252, 5336, 5955, 6263, 6795, 10961, 11075, 14311, 14369, 16245, 17524, 19857, 22648, 22744, 23089]}, "edge": {"target": [], "time": []}}, "mouseout": {"state": {"target": ["15", "0", "0", "12", "14", "19", "14", "15", "14", "19", "14", "15", "14", "19", "21", "22", "19", "20", "15", "16", "15", "16", "17", "15", "18", "18"], "time": [714, 2080, 2799, 2887, 3515, 4203, 4336, 4944, 5013, 5197, 5293, 5914, 6000, 6093, 6645, 10942, 11015, 14047, 14331, 15413, 17414, 19605, 22558, 22688, 22874, 31437]}, "edge": {"target": [], "time": []}}}, "displayed_time": "30.63", "trialTime": 32641, "trial_type": "mouselab-mdp", "trial_index": 49, "time_elapsed": 1784443, "internal_node_id": "0.0-6.0-1.0-34.0"}}, {"uniqueid": "w58095681:a38349902", "current_trial": 50, "dateTime": 1693482803949, "trialdata": {"revealed_states": [], "clicked_states": ["26", "30", "27", "28", "29", "8", "4"], "num_clicks_accrued": [0, 0, 0, 0, 0, 0, 0, 0, 0, 0, 0, 0, 0], "stateRewards": ["", -2, 2, -4, -4, -59, 88, 62, -3, 69, -15, -34, 1, -2, -5, 7, -54, -20, 78, -16, -74, -53, -21, 2, -4, 2, 13, -8, -44, 26, 9, 72, 4, 17], "withholdReward": false, "trial_id": "mdp_trial_36", "block": "test", "trialIndex": 39, "score": 26.349999999999998, "costs": -12.650000000000002, "simulationMode": [null, null, null, null, null], "rewards": [2, -4, 2, 13, 26], "path": ["0", "0", "23", "24", "25", "26", "29"], "rt": [17393, 57, 44, 995, 8], "actions": ["left", "left", "left", "up", "left"], "actionTimes": [18983, 19605, 20176, 21738, 22264], "queries": {"click": {"state": {"target": ["26", "30", "27", "28", "29", "8", "4"], "time": [2502, 3689, 5002, 8154, 11279, 15520, 16557]}, "edge": {"target": [], "time": []}}, "mouseover": {"state": {"target": ["26", "26", "25", "30", "24", "23", "28", "27", "28", "26", "29", "26", "8", "3", "4", "4", "3", "11", "28", "25"], "time": [1919, 2115, 2762, 3084, 4084, 4161, 4522, 4720, 5487, 8396, 8654, 11624, 15265, 15978, 16107, 16403, 17440, 17546, 17724, 17811]}, "edge": {"target": [], "time": []}}, "mouseout": {"state": {"target": ["1", "1", "26", "26", "25", "30", "24", "23", "28", "27", "28", "26", "29", "26", "28", "8", "3", "4", "4", "3", "11", "28", "25"], "time": [95, 704, 1946, 2739, 2872, 3828, 4103, 4181, 4541, 5304, 8353, 8552, 11601, 11646, 11706, 15912, 16045, 16258, 17034, 17461, 17579, 17788, 18066]}, "edge": {"target": [], "time": []}}}, "displayed_time": "22.81", "trialTime": 24097, "trial_type": "mouselab-mdp", "trial_index": 50, "time_elapsed": 1809194, "internal_node_id": "0.0-6.0-1.0-35.0"}}, {"uniqueid": "w58095681:a38349902", "current_trial": 51, "dateTime": 1693482831555, "trialdata": {"revealed_states": [], "clicked_states": ["15", "19", "30", "26", "8", "4", "5", "6", "7", "16"], "num_clicks_accrued": [0, 0, 0, 0, 0, 0, 0, 0, 0, 0, 0, 0, 0], "stateRewards": ["", -1, 3, 8, 9, -53, 20, -84, 2, -28, -62, -31, -1, -2, -7, 2, 51, 58, 45, -4, -17, -41, 36, 2, -2, -7, -15, 29, -54, -37, -16, -43, 65, -17], "withholdReward": false, "trial_id": "mdp_trial_37", "block": "test", "trialIndex": 40, "score": 25.099999999999998, "costs": -17.900000000000002, "simulationMode": [null, null, null, null, null], "rewards": [-1, -2, -7, 2, 51], "path": ["0", "0", "12", "13", "14", "15", "16"], "rt": [20983, 163, 45, 120, 9], "actions": ["right", "right", "right", "up", "up"], "actionTimes": [22958, 23639, 24210, 24866, 25387], "queries": {"click": {"state": {"target": ["15", "19", "30", "26", "8", "4", "5", "6", "7", "16"], "time": [3042, 4047, 5121, 5875, 6999, 7695, 8548, 11705, 15015, 19088]}, "edge": {"target": [], "time": []}}, "mouseover": {"state": {"target": ["18", "15", "14", "19", "22", "33", "30", "25", "26", "8", "3", "4", "3", "5", "6", "4", "3", "7", "2", "16", "17"], "time": [2582, 2653, 3381, 3664, 4289, 4634, 4891, 5461, 5666, 6671, 7260, 7375, 8029, 8300, 9296, 11956, 12016, 12646, 15303, 18847, 19549]}, "edge": {"target": [], "time": []}}, "mouseout": {"state": {"target": ["25", "24", "0", "18", "15", "14", "19", "22", "33", "30", "25", "26", "8", "3", "4", "4", "3", "5", "6", "4", "3", "7", "2", "16", "17", "15", "18"], "time": [569, 648, 1398, 2619, 3319, 3460, 4209, 4310, 4852, 5348, 5553, 6104, 7241, 7319, 7786, 7892, 8234, 8887, 11931, 11995, 12435, 15261, 15658, 19357, 26396, 26453, 26512]}, "edge": {"target": [], "time": []}}}, "displayed_time": "25.93", "trialTime": 27021, "trial_type": "mouselab-mdp", "trial_index": 51, "time_elapsed": 1836799, "internal_node_id": "0.0-6.0-1.0-36.0"}}, {"uniqueid": "w58095681:a38349902", "current_trial": 52, "dateTime": 1693482850745, "trialdata": {"revealed_states": [], "clicked_states": ["21"], "num_clicks_accrued": [0, 0, 0, 0, 0, 0, 0, 0, 0, 0, 0, 0, 0], "stateRewards": ["", 2, -2, -8, 9, -20, 55, -58, 14, 42, 2, 36, 1, -3, -5, 5, -58, 57, 60, 16, 57, 30, -70, -2, 1, 3, 10, 59, 23, 77, -13, -26, 88, -72], "withholdReward": false, "trial_id": "mdp_trial_38", "block": "test", "trialIndex": 41, "score": 36.85, "costs": -2.15, "simulationMode": [null, null, null, null, null], "rewards": [1, -3, -5, 16, 30], "path": ["0", "0", "12", "13", "14", "19", "21"], "rt": [6332, 139, 153, 173, 112], "actions": ["right", "right", "right", "down", "down"], "actionTimes": [8459, 9110, 9825, 10509, 11132], "queries": {"click": {"state": {"target": ["21"], "time": [4459]}, "edge": {"target": [], "time": []}}, "mouseover": {"state": {"target": ["1", "1", "12", "13", "14", "19", "21", "22"], "time": [2267, 2756, 2955, 3005, 3322, 3838, 4271, 4967]}, "edge": {"target": [], "time": []}}, "mouseout": {"state": {"target": ["0", "1", "1", "12", "13", "14", "19", "21", "22", "20", "20", "19", "22"], "time": [1236, 2658, 2811, 2998, 3025, 3554, 4088, 4630, 12758, 13786, 14602, 14702, 14818]}, "edge": {"target": [], "time": []}}}, "displayed_time": "16.13", "trialTime": 18588, "trial_type": "mouselab-mdp", "trial_index": 52, "time_elapsed": 1855989, "internal_node_id": "0.0-6.0-1.0-37.0"}}, {"uniqueid": "w58095681:a38349902", "current_trial": 53, "dateTime": 1693482876572, "trialdata": {"revealed_states": [], "clicked_states": ["33", "32", "31", "16", "17"], "num_clicks_accrued": [0, 0, 0, 0, 0, 0, 0, 0, 0, 0, 0, 0, 0], "stateRewards": ["", 1, 2, 7, 13, 88, -71, 27, 3, 60, 5, -53, -2, 2, -6, -1, -30, 79, 47, -4, -14, 46, 68, 1, 1, 8, 10, -14, 86, 48, -11, -67, -44, 5], "withholdReward": false, "trial_id": "mdp_trial_39", "block": "test", "trialIndex": 42, "score": 61.25, "costs": -10.75, "simulationMode": [null, null, null, null, null], "rewards": [-2, 2, -6, -1, 79], "path": ["0", "0", "12", "13", "14", "15", "17"], "rt": [18385, 98, 117, 79, 648], "actions": ["right", "right", "right", "up", "right"], "actionTimes": [20246, 20877, 21510, 22133, 23308], "queries": {"click": {"state": {"target": ["33", "32", "31", "16", "17"], "time": [3267, 6982, 10178, 13379, 16631]}, "edge": {"target": [], "time": []}}, "mouseover": {"state": {"target": ["30", "30", "33", "32", "31", "12", "18", "15", "16", "15", "15", "17", "20"], "time": [1961, 2339, 3097, 3801, 7391, 10662, 10763, 10808, 11269, 13740, 13994, 14202, 17132]}, "edge": {"target": [], "time": []}}, "mouseout": {"state": {"target": ["23", "0", "30", "30", "33", "32", "31", "12", "18", "15", "16", "15", "15", "17", "20", "19", "22"], "time": [669, 1415, 2079, 2733, 3625, 7229, 10535, 10703, 10788, 11058, 13681, 13778, 14072, 16947, 23925, 24826, 24980]}, "edge": {"target": [], "time": []}}}, "displayed_time": "23.82", "trialTime": 25199, "trial_type": "mouselab-mdp", "trial_index": 53, "time_elapsed": 1881816, "internal_node_id": "0.0-6.0-1.0-38.0"}}, {"uniqueid": "w58095681:a38349902", "current_trial": 54, "dateTime": 1693482894967, "trialdata": {"revealed_states": [], "clicked_states": ["27"], "num_clicks_accrued": [0, 0, 0, 0, 0, 0, 0, 0, 0, 0, 0, 0, 0], "stateRewards": ["", 2, -1, 5, 6, 10, 86, 55, 10, -45, 63, -71, 1, -2, 5, -8, -50, -72, 36, 15, 61, 12, 33, -1, -4, 6, 5, 79, -56, -21, -16, -87, 60, -81], "withholdReward": false, "trial_id": "mdp_trial_40", "block": "test", "trialIndex": 43, "score": 82.85, "costs": -2.15, "simulationMode": [null, null, null, null, null], "rewards": [-1, -4, 6, 5, 79], "path": ["0", "0", "23", "24", "25", "26", "27"], "rt": [5169, 45, 91, 267, 61], "actions": ["left", "left", "left", "up", "up"], "actionTimes": [6993, 7582, 8235, 9043, 9634], "queries": {"click": {"state": {"target": ["27"], "time": [2959]}, "edge": {"target": [], "time": []}}, "mouseover": {"state": {"target": ["23", "24", "28", "27", "28"], "time": [2188, 2325, 2404, 2738, 3498]}, "edge": {"target": [], "time": []}}, "mouseout": {"state": {"target": ["0", "23", "24", "28", "27", "28", "1", "18"], "time": [1319, 2265, 2370, 2523, 3307, 11280, 11336, 11380]}, "edge": {"target": [], "time": []}}}, "displayed_time": "15.84", "trialTime": 17756, "trial_type": "mouselab-mdp", "trial_index": 54, "time_elapsed": 1900212, "internal_node_id": "0.0-6.0-1.0-39.0"}}, {"uniqueid": "w58095681:a38349902", "current_trial": 55, "dateTime": 1693482960646, "trialdata": {"rt": 65643, "response": {"Q0": "$-16 to 16", "Q1": "$-16 to $16", "Q2": "$-88 to $88", "Q3": "The cost for clicking on nodes varied between nodes.", "Q4": "Very motivated"}, "question_order": [0, 1, 2, 3, 4], "trial_id": "final_quiz_control", "trial_type": "survey-multi-choice", "trial_index": 55, "time_elapsed": 1965891, "internal_node_id": "0.0-6.0-2.0"}}, {"uniqueid": "w58095681:a38349902", "current_trial": 56, "dateTime": 1693483125747, "trialdata": {"rt": 165067, "response": {"Q0": "at first i only clicked the furtherest nodes to check for the highest amount.\nThen later on I started clicking the nodes in the center first to check if it it will deduct or add to my score.\nSo i changed my strategy and looked for the center nodes that added to the score and then clicked the outer nodes for the highest amount.", "Q1": "Yes i improved it over time, during the last few rounds i noticed the more i click the nodes to inspect the amounts. The more it will deduct from my end score.\n\nSo i was selective about which nodes i clicked. I went for the first highest score i could find. ", "Q2": "It wasnt too difficult once i figured out how my score will be added and deducted"}, "trial_id": "self_report_control", "trial_type": "survey-text", "trial_index": 56, "time_elapsed": 2130992, "internal_node_id": "0.0-6.0-3.0"}}, {"uniqueid": "w58095681:a38349902", "current_trial": 57, "dateTime": 1693483186936, "trialdata": {"rt": 61181, "response": {"Q0": "Strongly agree", "Q1": "Disagree", "Q2": "Strongly agree", "Q3": "Strongly agree", "Q4": "Disagree", "Q5": "Strongly agree", "Q6": "Strongly disagree"}, "question_order": [0, 1, 2, 3, 4, 5, 6], "trial_id": "self_report_2", "trial_type": "survey-multi-choice", "trial_index": 57, "time_elapsed": 2192182, "internal_node_id": "0.0-6.0-4.0"}}, {"uniqueid": "w58095681:a38349902", "current_trial": 58, "dateTime": 1693483206982, "trialdata": {"rt": 20025, "response": {"gender": "female", "age": "41", "colorblind": "0", "effort": "0"}, "trial_type": "survey-html-form", "trial_index": 58, "time_elapsed": 2212228, "internal_node_id": "0.0-6.0-5.0"}}, {"uniqueid": "w58095681:a38349902", "current_trial": 59, "dateTime": 1693483244150, "trialdata": {"rt": 37160, "response": {"Q0": "No, I enjoyed playing the game. ", "Q1": "No, I havent played this game before.", "Q2": ""}, "trial_type": "survey-text", "trial_index": 59, "time_elapsed": 2249396, "internal_node_id": "0.0-6.0-6.0"}}, {"uniqueid": "w58095681:a38349902", "current_trial": 60, "dateTime": 1693483257862, "trialdata": {"rt": 13701, "stimulus": "<h1>Completion Code Instructions (1/2)</h1>\n<br><br><br><br>\nYou have reached the end of the experiment! The completion code consists of two parts: (1) a code with 2 characters (2) a code with 6 characters. On this page, you will receive the second part of the code. The first part of the completion code will be on the next page.\n<br><br>\nThe second part of your completion code is: <b>EWEK22</b>\n<br><br>\nPlease note this down. Then, press 'Finish HIT' in order to find the first part of your completion code. Once the data has been saved, you will receive this code either in this window or in the original browser window where you started the experiment.\n", "response": 0, "trial_type": "html-button-response", "trial_index": 60, "time_elapsed": 2263108, "internal_node_id": "0.0-6.0-7.0"}}], "questiondata": {"params": {"CODE": "C6DMOQA6", "MIN_TIME": 14, "inspectCost": 1, "startTime": "Thu Aug 31 2023 13:23:09 GMT+0200 (South Africa Standard Time)", "bonusRate": 0.002, "variance": "1_2_4_8_44", "branching": "31123"}}, "eventdata": [{"eventtype": "initialized", "value": null, "timestamp": 1693480988873, "interval": 0}, {"eventtype": "window_resize", "value": [1024, 654], "timestamp": 1693480988873, "interval": 0}, {"eventtype": "window_resize", "value": [1024, 654], "timestamp": 1693480989386, "interval": 513}, {"eventtype": "window_resize", "value": [1366, 768], "timestamp": 1693481001043, "interval": 11657}, {"eventtype": "focus", "value": "off", "timestamp": 1693481536640, "interval": 535597}, {"eventtype": "focus", "value": "on", "timestamp": 1693481536640, "interval": 0}, {"eventtype": "window_resize", "value": [1024, 654], "timestamp": 1693481536862, "interval": 222}, {"eventtype": "window_resize", "value": [1366, 768], "timestamp": 1693481539367, "interval": 2505}], "useragent": "Mozilla/5.0 (Windows NT 10.0; Win64; x64) AppleWebKit/537.36 (KHTML, like Gecko) Chrome/116.0.0.0 Safari/537.36", "mode": "live", "id": "w58095681:a38349902", "status": "user data saved", "Beginhit": "2023-08-31 11:23:02.600637", "Beginexp": "2023-08-31 11:23:25.184401", "Endhit": "2023-08-31 12:01:08.321477", "psiturkStatus": 3, "browser": "<redacted>", "platform": "windows", "language": "en-US"}