{"condition": 1, "counterbalance": 0, "assignmentId": "a46001047", "workerId": "w91477153", "hitId": "h22384058", "currenttrial": 56, "bonus": 0, "data": [{"uniqueid": "w91477153:a46001047", "current_trial": 0, "dateTime": 1693480763350, "trialdata": {"success": true, "trial_type": "fullscreen", "trial_index": 0, "time_elapsed": 6203, "internal_node_id": "0.0-0.0"}}, {"uniqueid": "w91477153:a46001047", "current_trial": 1, "dateTime": 1693480773055, "trialdata": {"view_history": [{"page_index": 0, "viewing_time": 9698}], "rt": 9698, "trial_id": "exp_instructions_misaligned", "trial_type": "instructions", "trial_index": 1, "time_elapsed": 15909, "internal_node_id": "0.0-1.0"}}, {"uniqueid": "w91477153:a46001047", "current_trial": 2, "dateTime": 1693480905547, "trialdata": {"view_history": [{"page_index": 0, "viewing_time": 44267}, {"page_index": 1, "viewing_time": 56281}, {"page_index": 2, "viewing_time": 7236}, {"page_index": 3, "viewing_time": 24702}], "rt": 132486, "trial_id": "mouselab_instructions_1_misaligned", "trial_type": "instructions", "trial_index": 2, "time_elapsed": 148401, "internal_node_id": "0.0-2.0-1.0"}}, {"uniqueid": "w91477153:a46001047", "current_trial": 3, "dateTime": 1693480935540, "trialdata": {"revealed_states": [], "clicked_states": ["24", "26", "30", "33", "29"], "num_clicks_accrued": [0, 0, 0, 0, 0, 0, 0, 0, 0, 0, 0, 0, 0], "stateRewards": ["", 10, 10, 10, 10, -10, 10, -10, -10, 10, 10, -10, -10, -10, -10, 10, 10, -10, 10, 10, 10, 10, -10, -10, 10, -10, 10, 10, 10, 10, -10, -10, 10, -10], "withholdReward": false, "trial_id": "practice_1", "block": "test", "trialIndex": 0, "score": 11, "costs": -2.5, "simulationMode": [null, null, null, null, null], "rewards": [-10, 10, -10, 10, 10], "path": ["0", "0", "23", "24", "25", "26", "29"], "rt": [17668, 1171, 907, 676, 651], "actions": ["left", "left", "left", "up", "left"], "actionTimes": [19849, 21519, 22936, 24124, 25282], "queries": {"click": {"state": {"target": ["24", "26", "30", "33", "29"], "time": [4747, 7304, 10567, 15090, 17635]}, "edge": {"target": [], "time": []}}, "mouseover": {"state": {"target": ["23", "24", "26", "25", "30", "30", "33", "32", "25", "26", "29", "25", "24"], "time": [4311, 4431, 6528, 9815, 10416, 14647, 14848, 15448, 17230, 17263, 17499, 17963, 17980]}, "edge": {"target": [], "time": []}}, "mouseout": {"state": {"target": ["0", "23", "24", "26", "25", "30", "30", "33", "32", "25", "26", "29", "25", "24"], "time": [4282, 4364, 6299, 9782, 9881, 11078, 14681, 15314, 17198, 17246, 17280, 17929, 17980, 17996]}, "edge": {"target": [], "time": []}}}, "displayed_time": "25.80", "trialTime": 29465, "trial_type": "mouselab-mdp", "trial_index": 3, "time_elapsed": 178393, "internal_node_id": "0.0-2.0-2.0-0.0"}}, {"uniqueid": "w91477153:a46001047", "current_trial": 4, "dateTime": 1693480952355, "trialdata": {"revealed_states": [], "clicked_states": ["9", "1", "3"], "num_clicks_accrued": [0, 0, 0, 0, 0, 0, 0, 0, 0, 0, 0, 0, 0], "stateRewards": ["", 10, 10, 10, 10, -10, 10, 10, 10, 10, 10, -10, 10, -10, 10, 10, 10, 10, -10, 10, -10, -10, 10, 10, -10, 10, -10, 10, 10, 10, 10, -10, -10, 10], "withholdReward": false, "trial_id": "practice_2", "block": "test", "trialIndex": 1, "score": 52, "costs": -1.5, "simulationMode": [null, null, null, null, null], "rewards": [10, 10, 10, 10, 10], "path": ["0", "0", "1", "2", "3", "8", "9"], "rt": [7514, 608, 681, 524, 418], "actions": ["up", "up", "up", "left", "up"], "actionTimes": [9299, 10420, 11609, 12633, 13562], "queries": {"click": {"state": {"target": ["9", "1", "3"], "time": [2968, 5000, 7654]}, "edge": {"target": [], "time": []}}, "mouseover": {"state": {"target": ["1", "10", "8", "9", "2", "1", "7", "3", "2"], "time": [2397, 2442, 2477, 2744, 4579, 4745, 6613, 7379, 7894]}, "edge": {"target": [], "time": []}}, "mouseout": {"state": {"target": ["0", "1", "10", "8", "9", "2", "1", "7", "3", "2"], "time": [2346, 2411, 2461, 2528, 3328, 4613, 5361, 6679, 7860, 7910]}, "edge": {"target": [], "time": []}}}, "displayed_time": "14.08", "trialTime": 16694, "trial_type": "mouselab-mdp", "trial_index": 4, "time_elapsed": 195208, "internal_node_id": "0.0-2.0-2.0-1.0"}}, {"uniqueid": "w91477153:a46001047", "current_trial": 5, "dateTime": 1693480982940, "trialdata": {"view_history": [{"page_index": 0, "viewing_time": 24534}, {"page_index": 1, "viewing_time": 6047}], "rt": 30581, "trial_id": "mouselab_instructions_2_misaligned", "trial_type": "instructions", "trial_index": 5, "time_elapsed": 225794, "internal_node_id": "0.0-2.0-3.0"}}, {"uniqueid": "w91477153:a46001047", "current_trial": 6, "dateTime": 1693481018064, "trialdata": {"rt": 35114, "response": {"Q0": "The cost for clicking on nodes may vary between nodes.", "Q1": "The better I perform the higher my bonus will be.", "Q2": "No, the amount of cash at each node of the web may be different each time.", "Q3": "To get the highest total score.", "Q4": "Only before moving the spider.", "Q5": "3 seconds"}, "question_order": [0, 1, 2, 3, 4, 5], "correct": {"Q0": "The cost for clicking on nodes may vary between nodes.", "Q1": "The better I perform the higher my bonus will be.", "Q2": "No, the amount of cash at each node of the web may be different each time.", "Q3": "To get the highest total score.", "Q4": "Only before moving the spider.", "Q5": "3 seconds"}, "trial_id": "mouselab_quiz_misaligned", "trial_type": "survey-multi-choice", "trial_index": 6, "time_elapsed": 260917, "internal_node_id": "0.0-2.0-4.0"}}, {"uniqueid": "w91477153:a46001047", "current_trial": 7, "dateTime": 1693481022275, "trialdata": {"rt": 4202, "response": {"Q0": "No"}, "question_order": [0], "trial_id": "repeat_check", "trial_type": "survey-multi-choice", "trial_index": 7, "time_elapsed": 265128, "internal_node_id": "0.0-4.0-0.0"}}, {"uniqueid": "w91477153:a46001047", "current_trial": 8, "dateTime": 1693481032832, "trialdata": {"rt": 10549, "stimulus": "\n<h1> Get ready to start the game! </h1>\n\nThank you for reading the instructions. Get ready start with the 40 rounds of this game.\n<br><br>\nIf you need to take a break, feel free to take one after the end of a round, before continuing to the next one.\n<br><br>\nRemember, the more money the spider gets, the bigger your bonus will be!\n<br><br>\n<div style='text-align: center;'>Press <code>space</code> to begin.</div>\n\n<br><br>\n(If, at any point, the <code>space</code> key does not take you to the next page, click once on the text and try again.)", "response": " ", "trial_id": "mdp_ready", "trial_type": "html-keyboard-response", "trial_index": 8, "time_elapsed": 275686, "internal_node_id": "0.0-6.0-0.0"}}, {"uniqueid": "w91477153:a46001047", "current_trial": 9, "dateTime": 1693481051560, "trialdata": {"revealed_states": [], "clicked_states": ["24", "26", "33", "30"], "num_clicks_accrued": [0, 0, 0, 0, 0, 0, 0, 0, 0, 0, 0, 0, 0], "stateRewards": ["", -2, -3, 8, 14, -73, 73, 84, -12, -2, -50, -17, 2, 1, -2, -9, -44, -27, -33, 16, -63, -47, -66, -2, 1, 4, -5, -33, -11, 50, 9, 38, -79, 31], "withholdReward": false, "trial_id": "mdp_trial_1", "block": "test", "trialIndex": 2, "score": 37.4, "costs": -5.6, "simulationMode": [null, null, null, null, null], "rewards": [-2, 1, 4, 9, 31], "path": ["0", "0", "23", "24", "25", "30", "33"], "rt": [9738, 313, 267, 212, 246], "actions": ["left", "left", "left", "down", "left"], "actionTimes": [11736, 12563, 13349, 14078, 14845], "queries": {"click": {"state": {"target": ["24", "26", "33", "30"], "time": [4255, 5487, 6739, 10427]}, "edge": {"target": [], "time": []}}, "mouseover": {"state": {"target": ["23", "24", "26", "25", "33", "30", "31", "30", "31"], "time": [3250, 4017, 5281, 6132, 6263, 7513, 9398, 9899, 10616]}, "edge": {"target": [], "time": []}}, "mouseout": {"state": {"target": ["11", "23", "0", "23", "24", "26", "25", "33", "30", "31", "30", "31"], "time": [1233, 1332, 3216, 3933, 4351, 6113, 6179, 7465, 9215, 9815, 10599, 10632]}, "edge": {"target": [], "time": []}}}, "displayed_time": "16.01", "trialTime": 18568, "trial_type": "mouselab-mdp", "trial_index": 9, "time_elapsed": 294412, "internal_node_id": "0.0-6.0-1.0-0.0"}}, {"uniqueid": "w91477153:a46001047", "current_trial": 10, "dateTime": 1693481070382, "trialdata": {"revealed_states": [], "clicked_states": [], "num_clicks_accrued": [0, 0, 0, 0, 0, 0, 0, 0, 0, 0, 0, 0, 0], "stateRewards": ["", 1, 2, 3, 16, 63, -25, 16, -4, -14, 82, -66, -1, -3, -3, -11, -14, 19, 46, 3, -34, -82, 66, -2, -3, 4, -5, -63, 77, -37, -1, -45, -41, 84], "withholdReward": false, "trial_id": "mdp_trial_2", "block": "test", "trialIndex": 3, "score": -64, "costs": 0, "simulationMode": [null, null, null, null, null], "rewards": [1, 2, 3, -4, -66], "path": ["0", "0", "1", "2", "3", "8", "11"], "rt": [1715, 302, 1394, 468, 735], "actions": ["up", "up", "up", "left", "left"], "actionTimes": [3666, 4477, 6385, 7361, 8611], "queries": {"click": {"state": {"target": [], "time": []}, "edge": {"target": [], "time": []}}, "mouseover": {"state": {"target": [], "time": []}, "edge": {"target": [], "time": []}}, "mouseout": {"state": {"target": ["0"], "time": [18476]}, "edge": {"target": [], "time": []}}}, "displayed_time": "15.96", "trialTime": 18702, "trial_type": "mouselab-mdp", "trial_index": 10, "time_elapsed": 313235, "internal_node_id": "0.0-6.0-1.0-1.0"}}, {"uniqueid": "w91477153:a46001047", "current_trial": 11, "dateTime": 1693481088105, "trialdata": {"revealed_states": [], "clicked_states": ["14", "3", "25", "26"], "num_clicks_accrued": [0, 0, 0, 0, 0, 0, 0, 0, 0, 0, 0, 0, 0], "stateRewards": ["", 2, 3, 3, 10, 19, -21, 6, 9, 54, 68, 16, 2, 2, -6, -8, 40, -2, -75, -2, -42, 55, 59, -1, 2, 4, -14, 11, -34, -30, -6, 61, -53, 13], "withholdReward": false, "trial_id": "mdp_trial_3", "block": "test", "trialIndex": 4, "score": 55.6, "costs": -4.3999999999999995, "simulationMode": [null, null, null, null, null], "rewards": [-1, 2, 4, -6, 61], "path": ["0", "0", "23", "24", "25", "30", "31"], "rt": [7382, 311, 420, 209, 247], "actions": ["left", "left", "left", "down", "right"], "actionTimes": [9256, 10088, 11013, 11736, 12491], "queries": {"click": {"state": {"target": ["14", "3", "25", "26"], "time": [2867, 4350, 6067, 8048]}, "edge": {"target": [], "time": []}}, "mouseover": {"state": {"target": ["12", "13", "14", "13", "2", "3", "10", "28", "25", "24", "23", "28", "26", "24"], "time": [2209, 2243, 2494, 3444, 3891, 3978, 5060, 5410, 5642, 7160, 7375, 7710, 7845, 8343]}, "edge": {"target": [], "time": []}}, "mouseout": {"state": {"target": ["0", "12", "13", "14", "13", "2", "3", "10", "28", "25", "24", "23", "28", "26", "26", "24"], "time": [2195, 2226, 2293, 3427, 3475, 3927, 5011, 5376, 5426, 6560, 7192, 7628, 7744, 8113, 8326, 8359]}, "edge": {"target": [], "time": []}}}, "displayed_time": "15.88", "trialTime": 17592, "trial_type": "mouselab-mdp", "trial_index": 11, "time_elapsed": 330958, "internal_node_id": "0.0-6.0-1.0-2.0"}}, {"uniqueid": "w91477153:a46001047", "current_trial": 12, "dateTime": 1693481108316, "trialdata": {"revealed_states": [], "clicked_states": ["25", "14", "3", "32"], "num_clicks_accrued": [0, 0, 0, 0, 0, 0, 0, 0, 0, 0, 0, 0, 0], "stateRewards": ["", 2, -1, -1, -9, -81, -30, 55, -6, 78, 25, 62, 2, 4, -1, 9, -85, 1, -19, 1, -60, 12, -34, 1, 4, -1, -13, -24, -16, -83, -8, 16, 43, 9], "withholdReward": false, "trial_id": "mdp_trial_4", "block": "test", "trialIndex": 5, "score": 34, "costs": -5, "simulationMode": [null, null, null, null, null], "rewards": [1, 4, -1, -8, 43], "path": ["0", "0", "23", "24", "25", "30", "32"], "rt": [10757, 176, 270, 164, 181], "actions": ["left", "left", "left", "down", "down"], "actionTimes": [14457, 15154, 15928, 16590, 17292], "queries": {"click": {"state": {"target": ["25", "14", "3", "32"], "time": [4970, 6686, 8384, 10250]}, "edge": {"target": [], "time": []}}, "mouseover": {"state": {"target": ["24", "25", "24", "13", "14", "14", "22", "1", "2", "3", "1", "31", "32", "31", "26", "27", "28", "27", "28", "22"], "time": [4478, 4510, 5359, 6028, 6075, 6211, 6978, 7594, 7612, 7661, 9359, 9725, 10028, 11227, 11277, 11542, 13075, 13611, 13945, 14061]}, "edge": {"target": [], "time": []}}, "mouseout": {"state": {"target": ["21", "0", "24", "25", "24", "13", "14", "14", "14", "22", "1", "2", "3", "1", "31", "32", "31", "26", "27", "28", "27", "28"], "time": [1211, 4426, 4493, 5343, 5376, 6042, 6094, 6764, 6928, 6995, 7611, 7628, 8795, 9378, 9744, 10527, 11243, 11293, 13012, 13511, 13912, 13960]}, "edge": {"target": [], "time": []}}}, "displayed_time": "17.81", "trialTime": 20086, "trial_type": "mouselab-mdp", "trial_index": 12, "time_elapsed": 351169, "internal_node_id": "0.0-6.0-1.0-3.0"}}, {"uniqueid": "w91477153:a46001047", "current_trial": 13, "dateTime": 1693481126601, "trialdata": {"revealed_states": [], "clicked_states": ["2", "9"], "num_clicks_accrued": [0, 0, 0, 0, 0, 0, 0, 0, 0, 0, 0, 0, 0], "stateRewards": ["", 2, 4, 4, -8, -36, -33, 38, 16, -51, 57, 57, 1, 3, 4, -6, 45, 68, 87, 1, 63, 24, -55, -2, 2, -6, -13, -63, -50, 8, 2, 80, 6, 60], "withholdReward": false, "trial_id": "mdp_trial_5", "block": "test", "trialIndex": 6, "score": 37.5, "costs": -2.5, "simulationMode": [null, null, null, null, null, null], "rewards": [2, 4, 4, -8, 38], "path": ["0", "0", "1", "2", "3", "4", "7"], "rt": [3640, 673, 172, 283, 198, 142], "actions": ["up", "up", "up", "up", "right", "down"], "actionTimes": [5658, 6332, 7026, 7839, 8552, 9213], "queries": {"click": {"state": {"target": ["2", "9"], "time": [3395, 4751]}, "edge": {"target": [], "time": []}}, "mouseover": {"state": {"target": ["1", "2", "8", "9", "3", "18"], "time": [2585, 2670, 4120, 4388, 4953, 5002]}, "edge": {"target": [], "time": []}}, "mouseout": {"state": {"target": ["22", "12", "0", "1", "2", "8", "9", "3", "18"], "time": [1156, 1236, 2555, 2635, 3922, 4303, 4921, 4971, 5021]}, "edge": {"target": [], "time": []}}}, "displayed_time": "16.03", "trialTime": 18165, "trial_type": "mouselab-mdp", "trial_index": 13, "time_elapsed": 369454, "internal_node_id": "0.0-6.0-1.0-4.0"}}, {"uniqueid": "w91477153:a46001047", "current_trial": 14, "dateTime": 1693481150880, "trialdata": {"revealed_states": [], "clicked_states": ["17", "20", "21", "33"], "num_clicks_accrued": [0, 0, 0, 0, 0, 0, 0, 0, 0, 0, 0, 0, 0], "stateRewards": ["", 1, 2, -3, -5, 66, -50, -47, -5, 1, 28, -27, 1, 1, -1, -6, 37, -25, 56, 1, -82, -66, -40, -1, -4, -7, 15, -61, -23, 26, 10, 14, -56, 29], "withholdReward": false, "trial_id": "mdp_trial_6", "block": "test", "trialIndex": 7, "score": 18.4, "costs": -8.6, "simulationMode": [null, null, null, null, null], "rewards": [-1, -4, -7, 10, 29], "path": ["0", "0", "23", "24", "25", "30", "33"], "rt": [16859, 48, 147, 168, 155], "actions": ["left", "left", "left", "down", "left"], "actionTimes": [19424, 19991, 20655, 21329, 21999], "queries": {"click": {"state": {"target": ["17", "20", "21", "33"], "time": [4088, 7949, 11616, 15583]}, "edge": {"target": [], "time": []}}, "mouseover": {"state": {"target": ["18", "17", "17", "19", "20", "20", "20", "21", "32", "33", "22", "12", "2", "3", "9", "8", "10", "1"], "time": [3509, 3541, 3860, 4877, 5160, 5476, 7561, 11478, 15226, 15393, 16810, 16827, 16859, 16877, 17210, 18892, 18910, 18942]}, "edge": {"target": [], "time": []}}, "mouseout": {"state": {"target": ["12", "18", "17", "17", "17", "19", "20", "20", "20", "21", "32", "33", "22", "12", "2", "3", "9", "8", "10", "1"], "time": [925, 3526, 3559, 4146, 4560, 4893, 5243, 7342, 8292, 11827, 15292, 15760, 16826, 16842, 16876, 17108, 18878, 18909, 18926, 18959]}, "edge": {"target": [], "time": []}}}, "displayed_time": "22.51", "trialTime": 24150, "trial_type": "mouselab-mdp", "trial_index": 14, "time_elapsed": 393733, "internal_node_id": "0.0-6.0-1.0-5.0"}}, {"uniqueid": "w91477153:a46001047", "current_trial": 15, "dateTime": 1693481169214, "trialdata": {"revealed_states": [], "clicked_states": ["9"], "num_clicks_accrued": [0, 0, 0, 0, 0, 0, 0, 0, 0, 0, 0, 0, 0], "stateRewards": ["", 1, -1, 1, -14, -10, 67, -28, -11, 72, 40, -65, -1, 1, 1, -2, 8, -55, 34, -10, 61, 33, -15, 2, -4, 7, 4, -75, 63, -21, -16, 61, 19, 21], "withholdReward": false, "trial_id": "mdp_trial_7", "block": "test", "trialIndex": 8, "score": 59.85, "costs": -2.15, "simulationMode": [null, null, null, null, null], "rewards": [1, -1, 1, -11, 72], "path": ["0", "0", "1", "2", "3", "8", "9"], "rt": [5466, 198, 159, 208, 182], "actions": ["up", "up", "up", "left", "up"], "actionTimes": [7540, 8257, 8938, 9654, 10344], "queries": {"click": {"state": {"target": ["9"], "time": [3439]}, "edge": {"target": [], "time": []}}, "mouseover": {"state": {"target": ["1", "8", "9", "11"], "time": [2561, 2628, 2911, 4111]}, "edge": {"target": [], "time": []}}, "mouseout": {"state": {"target": ["1", "8", "9", "11"], "time": [2578, 2810, 3878, 6977]}, "edge": {"target": [], "time": []}}}, "displayed_time": "16.08", "trialTime": 18201, "trial_type": "mouselab-mdp", "trial_index": 15, "time_elapsed": 412067, "internal_node_id": "0.0-6.0-1.0-6.0"}}, {"uniqueid": "w91477153:a46001047", "current_trial": 16, "dateTime": 1693481188391, "trialdata": {"revealed_states": [], "clicked_states": ["29"], "num_clicks_accrued": [0, 0, 0, 0, 0, 0, 0, 0, 0, 0, 0, 0, 0], "stateRewards": ["", 1, -1, 1, 13, 31, -56, 72, 2, 41, 5, 63, -2, -3, -2, 3, -71, -26, 52, 13, -31, 24, -67, 2, -2, 5, 4, 66, 43, 72, 9, 86, -26, 44], "withholdReward": false, "trial_id": "mdp_trial_8", "block": "test", "trialIndex": 9, "score": 78.85, "costs": -2.15, "simulationMode": [null, null, null, null, null], "rewards": [2, -2, 5, 4, 72], "path": ["0", "0", "23", "24", "25", "26", "29"], "rt": [4852, 185, 339, 215, 248], "actions": ["left", "left", "left", "up", "left"], "actionTimes": [7283, 7987, 8842, 9567, 10334], "queries": {"click": {"state": {"target": ["29"], "time": [3292]}, "edge": {"target": [], "time": []}}, "mouseover": {"state": {"target": ["23", "26", "29", "6"], "time": [2817, 2902, 3084, 3766]}, "edge": {"target": [], "time": []}}, "mouseout": {"state": {"target": ["10", "0", "0", "23", "26", "29", "6"], "time": [1836, 1886, 2803, 2835, 2984, 3619, 6803]}, "edge": {"target": [], "time": []}}}, "displayed_time": "16.44", "trialTime": 19052, "trial_type": "mouselab-mdp", "trial_index": 16, "time_elapsed": 431244, "internal_node_id": "0.0-6.0-1.0-7.0"}}, {"uniqueid": "w91477153:a46001047", "current_trial": 17, "dateTime": 1693481212043, "trialdata": {"revealed_states": [], "clicked_states": ["10", "7", "6", "27"], "num_clicks_accrued": [0, 0, 0, 0, 0, 0, 0, 0, 0, 0, 0, 0, 0], "stateRewards": ["", -2, 2, -1, -6, 22, 6, 6, -5, 70, -42, 65, 1, 3, 5, -6, -67, -9, 3, 14, 7, -62, -13, -2, 4, 1, 16, 42, -21, -52, -8, 32, 53, 81], "withholdReward": false, "trial_id": "mdp_trial_9", "block": "test", "trialIndex": 10, "score": 52.4, "costs": -8.6, "simulationMode": [null, null, null, null, null], "rewards": [-2, 4, 1, 16, 42], "path": ["0", "0", "23", "24", "25", "26", "27"], "rt": [17095, 223, 189, 130, 147], "actions": ["left", "left", "left", "up", "up"], "actionTimes": [18658, 19399, 20098, 20722, 21389], "queries": {"click": {"state": {"target": ["10", "7", "6", "27"], "time": [3348, 6823, 10471, 14931]}, "edge": {"target": [], "time": []}}, "mouseover": {"state": {"target": ["10", "2", "7", "7", "6", "5", "3", "27", "24"], "time": [2759, 3841, 3874, 4241, 7309, 11074, 14407, 14576, 18092]}, "edge": {"target": [], "time": []}}, "mouseout": {"state": {"target": ["7", "10", "2", "7", "7", "6", "5", "3", "27", "27"], "time": [843, 3808, 3858, 3941, 7242, 10560, 14390, 14424, 15010, 15274]}, "edge": {"target": [], "time": []}}}, "displayed_time": "21.91", "trialTime": 23510, "trial_type": "mouselab-mdp", "trial_index": 17, "time_elapsed": 454895, "internal_node_id": "0.0-6.0-1.0-8.0"}}, {"uniqueid": "w91477153:a46001047", "current_trial": 18, "dateTime": 1693481239293, "trialdata": {"revealed_states": [], "clicked_states": ["27", "32", "31", "22", "17"], "num_clicks_accrued": [0, 0, 0, 0, 0, 0, 0, 0, 0, 0, 0, 0, 0], "stateRewards": ["", 1, 4, -4, 14, 35, 51, 19, -13, 54, 78, -74, -2, -1, -3, 13, -11, -42, -73, -15, -24, -3, -69, 2, -1, 5, 16, -27, 73, 58, 9, -60, 5, -60], "withholdReward": false, "trial_id": "mdp_trial_10", "block": "test", "trialIndex": 11, "score": 9.25, "costs": -10.75, "simulationMode": [null, null, null, null, null], "rewards": [2, -1, 5, 9, 5], "path": ["0", "0", "23", "24", "25", "30", "32"], "rt": [20606, 152, 173, 116, 168], "actions": ["left", "left", "left", "down", "down"], "actionTimes": [22404, 23072, 23760, 24385, 25072], "queries": {"click": {"state": {"target": ["27", "32", "31", "22", "17"], "time": [2776, 6609, 10543, 13861, 18427]}, "edge": {"target": [], "time": []}}, "mouseover": {"state": {"target": ["23", "24", "26", "27", "32", "31", "22", "12", "13", "17"], "time": [2305, 2339, 2404, 2537, 6472, 10355, 10922, 17856, 17871, 18239]}, "edge": {"target": [], "time": []}}, "mouseout": {"state": {"target": ["24", "23", "23", "24", "26", "27", "32", "31", "31", "22", "12", "13", "17", "17"], "time": [1369, 1421, 2338, 2371, 2437, 2856, 6970, 10548, 10755, 14104, 17870, 17886, 18506, 18620]}, "edge": {"target": [], "time": []}}}, "displayed_time": "25.59", "trialTime": 27122, "trial_type": "mouselab-mdp", "trial_index": 18, "time_elapsed": 482146, "internal_node_id": "0.0-6.0-1.0-9.0"}}, {"uniqueid": "w91477153:a46001047", "current_trial": 19, "dateTime": 1693481264598, "trialdata": {"revealed_states": [], "clicked_states": ["7", "6", "5"], "num_clicks_accrued": [0, 0, 0, 0, 0, 0, 0, 0, 0, 0, 0, 0, 0], "stateRewards": ["", -1, -4, -3, 1, -45, -67, -24, 14, 32, 22, 22, -1, 1, -5, -7, 72, 84, -79, -5, 19, -40, -2, -1, -2, 8, -3, 84, -25, -28, 11, 64, -66, 77], "withholdReward": false, "trial_id": "mdp_trial_11", "block": "test", "trialIndex": 12, "score": -29.45, "costs": -6.449999999999999, "simulationMode": [null, null, null, null, null], "rewards": [-1, -2, 8, -3, -25], "path": ["0", "0", "23", "24", "25", "26", "28"], "rt": [15283, 95, 163, 114, 79], "actions": ["left", "left", "left", "up", "right"], "actionTimes": [17889, 18505, 19189, 19824, 20422], "queries": {"click": {"state": {"target": ["7", "6", "5"], "time": [4897, 8881, 13796]}, "edge": {"target": [], "time": []}}, "mouseover": {"state": {"target": ["7", "16", "6", "4", "3", "8", "11", "5", "5", "5"], "time": [4759, 5108, 8677, 9224, 9258, 9275, 9307, 12410, 13110, 13660]}, "edge": {"target": [], "time": []}}, "mouseout": {"state": {"target": ["14", "18", "12", "0", "7", "16", "6", "4", "3", "8", "11", "5", "5", "5"], "time": [1808, 1974, 2075, 2926, 5055, 8543, 9191, 9241, 9275, 9291, 9325, 12844, 13244, 13958]}, "edge": {"target": [], "time": []}}}, "displayed_time": "20.94", "trialTime": 25182, "trial_type": "mouselab-mdp", "trial_index": 19, "time_elapsed": 507451, "internal_node_id": "0.0-6.0-1.0-10.0"}}, {"uniqueid": "w91477153:a46001047", "current_trial": 20, "dateTime": 1693481282495, "trialdata": {"revealed_states": [], "clicked_states": [], "num_clicks_accrued": [0, 0, 0, 0, 0, 0, 0, 0, 0, 0, 0, 0, 0], "stateRewards": ["", -1, -2, 4, 9, 10, -75, 39, 16, -43, 88, -19, -1, 1, 2, 4, -31, 10, 73, 12, 41, -64, -81, -2, 2, -6, 1, -81, -1, -26, 3, -59, -3, -20], "withholdReward": false, "trial_id": "mdp_trial_12", "block": "test", "trialIndex": 13, "score": -6, "costs": 0, "simulationMode": [null, null, null, null, null], "rewards": [-2, 2, -6, 3, -3], "path": ["0", "0", "23", "24", "25", "30", "32"], "rt": [1251, 124, 117, 77, 151], "actions": ["left", "left", "left", "down", "down"], "actionTimes": [3173, 3815, 4440, 5034, 5693], "queries": {"click": {"state": {"target": [], "time": []}, "edge": {"target": [], "time": []}}, "mouseover": {"state": {"target": [], "time": []}, "edge": {"target": [], "time": []}}, "mouseout": {"state": {"target": ["7", "1", "0", "0"], "time": [941, 1057, 1274, 2016]}, "edge": {"target": [], "time": []}}}, "displayed_time": "15.93", "trialTime": 17774, "trial_type": "mouselab-mdp", "trial_index": 20, "time_elapsed": 525348, "internal_node_id": "0.0-6.0-1.0-11.0"}}, {"uniqueid": "w91477153:a46001047", "current_trial": 21, "dateTime": 1693481300891, "trialdata": {"revealed_states": [], "clicked_states": ["21", "32", "22"], "num_clicks_accrued": [0, 0, 0, 0, 0, 0, 0, 0, 0, 0, 0, 0, 0], "stateRewards": ["", 2, -3, -2, 14, -4, 85, 46, 15, -28, 41, 31, -1, -1, -1, 5, 62, 79, 57, 12, -73, -64, 86, -1, 1, -3, -5, 68, 11, -32, 8, -80, -21, -56], "withholdReward": false, "trial_id": "mdp_trial_13", "block": "test", "trialIndex": 14, "score": 88.55, "costs": -6.449999999999999, "simulationMode": [null, null, null, null, null], "rewards": [-1, -1, -1, 12, 86], "path": ["0", "0", "12", "13", "14", "19", "22"], "rt": [11640, 143, 190, 164, 198], "actions": ["right", "right", "right", "down", "left"], "actionTimes": [13046, 13705, 14403, 15077, 15794], "queries": {"click": {"state": {"target": ["21", "32", "22"], "time": [2236, 5491, 8669]}, "edge": {"target": [], "time": []}}, "mouseover": {"state": {"target": ["22", "21", "32", "22", "31"], "time": [1880, 1961, 2912, 6746, 9196]}, "edge": {"target": [], "time": []}}, "mouseout": {"state": {"target": ["0", "22", "21", "32", "22"], "time": [1796, 1912, 2578, 5809, 9095]}, "edge": {"target": [], "time": []}}}, "displayed_time": "16.31", "trialTime": 18255, "trial_type": "mouselab-mdp", "trial_index": 21, "time_elapsed": 543744, "internal_node_id": "0.0-6.0-1.0-12.0"}}, {"uniqueid": "w91477153:a46001047", "current_trial": 22, "dateTime": 1693481318695, "trialdata": {"revealed_states": [], "clicked_states": ["16"], "num_clicks_accrued": [0, 0, 0, 0, 0, 0, 0, 0, 0, 0, 0, 0, 0], "stateRewards": ["", 2, 4, 7, 7, -79, -2, -21, -5, -53, 47, -21, 1, -3, -1, 7, 83, 7, 84, -7, 80, -37, 69, 2, -4, 5, 2, 4, -20, -30, 7, 71, 44, -81], "withholdReward": false, "trial_id": "mdp_trial_14", "block": "test", "trialIndex": 15, "score": 84.85, "costs": -2.15, "simulationMode": [null, null, null, null, null], "rewards": [1, -3, -1, 7, 83], "path": ["0", "0", "12", "13", "14", "15", "16"], "rt": [4858, 171, 137, 104, 133], "actions": ["right", "right", "right", "up", "up"], "actionTimes": [6392, 7073, 7720, 8340, 8984], "queries": {"click": {"state": {"target": ["16"], "time": [2622]}, "edge": {"target": [], "time": []}}, "mouseover": {"state": {"target": ["18", "15", "16", "17"], "time": [2249, 2282, 2451, 3467]}, "edge": {"target": [], "time": []}}, "mouseout": {"state": {"target": ["31", "0", "18", "15", "16", "17"], "time": [985, 2200, 2267, 2299, 2627, 10004]}, "edge": {"target": [], "time": []}}}, "displayed_time": "15.54", "trialTime": 17665, "trial_type": "mouselab-mdp", "trial_index": 22, "time_elapsed": 561548, "internal_node_id": "0.0-6.0-1.0-13.0"}}, {"uniqueid": "w91477153:a46001047", "current_trial": 23, "dateTime": 1693481336088, "trialdata": {"revealed_states": [], "clicked_states": ["18", "28"], "num_clicks_accrued": [0, 0, 0, 0, 0, 0, 0, 0, 0, 0, 0, 0, 0], "stateRewards": ["", -1, -2, -8, 8, -27, -82, 19, -14, -62, 4, 1, -2, 2, 6, 10, 73, -51, -2, 2, 73, -48, 54, -1, 2, -4, 11, -25, 47, 86, 15, 33, 43, -42], "withholdReward": false, "trial_id": "mdp_trial_15", "block": "test", "trialIndex": 16, "score": 50.7, "costs": -4.3, "simulationMode": [null, null, null, null, null], "rewards": [-1, 2, -4, 11, 47], "path": ["0", "0", "23", "24", "25", "26", "28"], "rt": [8711, 138, 159, 99, 86], "actions": ["left", "left", "left", "up", "right"], "actionTimes": [10759, 11411, 12081, 12691, 13291], "queries": {"click": {"state": {"target": ["18", "28"], "time": [3246, 6830]}, "edge": {"target": [], "time": []}}, "mouseover": {"state": {"target": ["18", "18", "13", "22", "28", "28"], "time": [2789, 3039, 3488, 3522, 4272, 4521]}, "edge": {"target": [], "time": []}}, "mouseout": {"state": {"target": ["12", "0", "0", "18", "18", "13", "22", "28", "28"], "time": [1024, 1055, 2674, 2839, 3471, 3505, 3539, 4305, 7105]}, "edge": {"target": [], "time": []}}}, "displayed_time": "16.05", "trialTime": 17264, "trial_type": "mouselab-mdp", "trial_index": 23, "time_elapsed": 578941, "internal_node_id": "0.0-6.0-1.0-14.0"}}, {"uniqueid": "w91477153:a46001047", "current_trial": 24, "dateTime": 1693481353603, "trialdata": {"revealed_states": [], "clicked_states": ["33"], "num_clicks_accrued": [0, 0, 0, 0, 0, 0, 0, 0, 0, 0, 0, 0, 0], "stateRewards": ["", -2, -3, -6, -7, 9, 16, 65, 5, -41, 20, -25, -1, -4, 1, -11, -49, -4, 71, 1, 39, -62, 52, -2, -3, 7, -9, -28, -70, 84, 8, 24, -58, 82], "withholdReward": false, "trial_id": "mdp_trial_16", "block": "test", "trialIndex": 17, "score": 89.85, "costs": -2.15, "simulationMode": [null, null, null, null, null], "rewards": [-2, -3, 7, 8, 82], "path": ["0", "0", "23", "24", "25", "30", "33"], "rt": [5604, 40, 120, 115, 153], "actions": ["left", "left", "left", "down", "left"], "actionTimes": [7386, 7934, 8562, 9191, 9863], "queries": {"click": {"state": {"target": ["33"], "time": [3599]}, "edge": {"target": [], "time": []}}, "mouseover": {"state": {"target": ["31", "32", "33", "32", "32"], "time": [2611, 2943, 3361, 4142, 4443]}, "edge": {"target": [], "time": []}}, "mouseout": {"state": {"target": ["1", "0", "31", "32", "33", "32", "32"], "time": [1159, 2478, 2811, 3278, 4093, 4209, 6909]}, "edge": {"target": [], "time": []}}}, "displayed_time": "15.79", "trialTime": 17350, "trial_type": "mouselab-mdp", "trial_index": 24, "time_elapsed": 596456, "internal_node_id": "0.0-6.0-1.0-15.0"}}, {"uniqueid": "w91477153:a46001047", "current_trial": 25, "dateTime": 1693481372181, "trialdata": {"revealed_states": [], "clicked_states": ["32", "20"], "num_clicks_accrued": [0, 0, 0, 0, 0, 0, 0, 0, 0, 0, 0, 0, 0], "stateRewards": ["", -1, -4, -1, -11, 43, 69, 39, 4, 17, -20, -82, -2, -1, 4, 8, -79, 24, -79, 11, 36, 64, 41, 2, 4, -1, 11, -79, -47, 75, -3, 63, -36, -19], "withholdReward": false, "trial_id": "mdp_trial_17", "block": "test", "trialIndex": 18, "score": 43.7, "costs": -4.3, "simulationMode": [null, null, null, null, null], "rewards": [-2, -1, 4, 11, 36], "path": ["0", "0", "12", "13", "14", "19", "20"], "rt": [8846, 17, 123, 101, 140], "actions": ["right", "right", "right", "down", "right"], "actionTimes": [11166, 11702, 12341, 12952, 13591], "queries": {"click": {"state": {"target": ["32", "20"], "time": [3557, 7473]}, "edge": {"target": [], "time": []}}, "mouseover": {"state": {"target": ["32", "22", "19", "20", "20", "17", "16"], "time": [3401, 7019, 7050, 7084, 7336, 8418, 8718]}, "edge": {"target": [], "time": []}}, "mouseout": {"state": {"target": ["0", "32", "22", "19", "20", "20", "17"], "time": [2970, 3716, 7034, 7067, 7116, 7650, 8433]}, "edge": {"target": [], "time": []}}}, "displayed_time": "16.33", "trialTime": 18453, "trial_type": "mouselab-mdp", "trial_index": 25, "time_elapsed": 615035, "internal_node_id": "0.0-6.0-1.0-16.0"}}, {"uniqueid": "w91477153:a46001047", "current_trial": 26, "dateTime": 1693481389511, "trialdata": {"revealed_states": [], "clicked_states": ["5", "16"], "num_clicks_accrued": [0, 0, 0, 0, 0, 0, 0, 0, 0, 0, 0, 0, 0], "stateRewards": ["", 1, 1, 1, 15, -76, 52, -32, 14, -57, 37, 49, 1, -4, -3, 6, 83, -76, 25, 9, 36, -1, -17, -1, 4, 4, -2, -22, -21, 58, -15, -57, 49, -24], "withholdReward": false, "trial_id": "mdp_trial_18", "block": "test", "trialIndex": 19, "score": 78.7, "costs": -4.3, "simulationMode": [null, null, null, null, null], "rewards": [1, -4, -3, 6, 83], "path": ["0", "0", "12", "13", "14", "15", "16"], "rt": [8214, 83, 149, 75, 120], "actions": ["right", "right", "right", "up", "up"], "actionTimes": [9983, 10572, 11238, 11829, 12459], "queries": {"click": {"state": {"target": ["5", "16"], "time": [2694, 6477]}, "edge": {"target": [], "time": []}}, "mouseover": {"state": {"target": ["1", "4", "5", "16"], "time": [2221, 2304, 2506, 6372]}, "edge": {"target": [], "time": []}}, "mouseout": {"state": {"target": ["16", "1", "0", "1", "4", "5", "16"], "time": [939, 1089, 2187, 2237, 2337, 2888, 6489]}, "edge": {"target": [], "time": []}}}, "displayed_time": "15.77", "trialTime": 17150, "trial_type": "mouselab-mdp", "trial_index": 26, "time_elapsed": 632364, "internal_node_id": "0.0-6.0-1.0-17.0"}}, {"uniqueid": "w91477153:a46001047", "current_trial": 27, "dateTime": 1693481407214, "trialdata": {"revealed_states": [], "clicked_states": ["21", "22"], "num_clicks_accrued": [0, 0, 0, 0, 0, 0, 0, 0, 0, 0, 0, 0, 0], "stateRewards": ["", 1, -1, 4, 5, -32, 18, 20, 6, -88, -74, 9, -2, 1, -2, -14, 34, -77, -38, -1, 80, -36, 73, 2, 3, -8, 10, -48, -73, -71, -11, -22, 20, 54], "withholdReward": false, "trial_id": "mdp_trial_19", "block": "test", "trialIndex": 20, "score": 64.7, "costs": -4.3, "simulationMode": [null, null, null, null, null], "rewards": [-2, 1, -2, -1, 73], "path": ["0", "0", "12", "13", "14", "19", "22"], "rt": [8282, 119, 28, 124, 160], "actions": ["right", "right", "right", "down", "left"], "actionTimes": [10693, 11328, 11871, 12497, 13170], "queries": {"click": {"state": {"target": ["21", "22"], "time": [3552, 7115]}, "edge": {"target": [], "time": []}}, "mouseover": {"state": {"target": ["0", "22", "21", "22", "19", "20"], "time": [2859, 3177, 3293, 6959, 7308, 7392]}, "edge": {"target": [], "time": []}}, "mouseout": {"state": {"target": ["18", "12", "0", "22", "21", "22", "19", "20"], "time": [1942, 2057, 2894, 3211, 3807, 7292, 7342, 10392]}, "edge": {"target": [], "time": []}}}, "displayed_time": "16.41", "trialTime": 17574, "trial_type": "mouselab-mdp", "trial_index": 27, "time_elapsed": 650067, "internal_node_id": "0.0-6.0-1.0-18.0"}}, {"uniqueid": "w91477153:a46001047", "current_trial": 28, "dateTime": 1693481425227, "trialdata": {"revealed_states": [], "clicked_states": ["29", "27"], "num_clicks_accrued": [0, 0, 0, 0, 0, 0, 0, 0, 0, 0, 0, 0, 0], "stateRewards": ["", 1, 2, -8, 9, 18, -83, -11, 6, -64, -48, 17, -2, -2, -5, -3, -24, -3, -86, -2, 48, -41, -22, -2, 4, 7, 8, 81, 13, -48, 10, 61, 19, 57], "withholdReward": false, "trial_id": "mdp_trial_20", "block": "test", "trialIndex": 21, "score": 93.7, "costs": -4.3, "simulationMode": [null, null, null, null, null], "rewards": [-2, 4, 7, 8, 81], "path": ["0", "0", "23", "24", "25", "26", "27"], "rt": [8295, 92, 167, 69, 108], "actions": ["left", "left", "left", "up", "up"], "actionTimes": [9920, 10530, 11204, 11790, 12412], "queries": {"click": {"state": {"target": ["29", "27"], "time": [2761, 6131]}, "edge": {"target": [], "time": []}}, "mouseover": {"state": {"target": ["23", "24", "26", "29", "27", "28", "28"], "time": [2003, 2021, 2071, 2389, 4705, 6488, 6669]}, "edge": {"target": [], "time": []}}, "mouseout": {"state": {"target": ["21", "0", "23", "24", "26", "29", "27", "28", "28", "24"], "time": [922, 1974, 2020, 2037, 2086, 2841, 6455, 6535, 17270, 17336]}, "edge": {"target": [], "time": []}}}, "displayed_time": "15.63", "trialTime": 17882, "trial_type": "mouselab-mdp", "trial_index": 28, "time_elapsed": 668080, "internal_node_id": "0.0-6.0-1.0-19.0"}}, {"uniqueid": "w91477153:a46001047", "current_trial": 29, "dateTime": 1693481443119, "trialdata": {"revealed_states": [], "clicked_states": ["32", "7"], "num_clicks_accrued": [0, 0, 0, 0, 0, 0, 0, 0, 0, 0, 0, 0, 0], "stateRewards": ["", -2, -3, 8, -4, -30, 31, 69, 9, 66, 87, 64, -2, 2, 8, 5, 47, 16, -39, -8, -54, 51, -19, 1, -2, -2, -11, -25, -26, 43, -9, 19, -84, 86], "withholdReward": false, "trial_id": "mdp_trial_21", "block": "test", "trialIndex": 22, "score": 63.7, "costs": -4.3, "simulationMode": [null, null, null, null, null], "rewards": [-2, -3, 8, -4, 69], "path": ["0", "0", "1", "2", "3", "4", "7"], "rt": [7954, 110, 135, 130, 143], "actions": ["up", "up", "up", "right", "down"], "actionTimes": [10238, 10859, 11500, 12130, 12794], "queries": {"click": {"state": {"target": ["32", "7"], "time": [3290, 6578]}, "edge": {"target": [], "time": []}}, "mouseover": {"state": {"target": ["32", "33", "5", "7", "12", "10"], "time": [3084, 4017, 4917, 5266, 6884, 7381]}, "edge": {"target": [], "time": []}}, "mouseout": {"state": {"target": ["31", "0", "32", "33", "5", "7", "12"], "time": [1777, 2769, 3717, 4784, 4967, 6800, 7117]}, "edge": {"target": [], "time": []}}}, "displayed_time": "16.29", "trialTime": 17754, "trial_type": "mouselab-mdp", "trial_index": 29, "time_elapsed": 685972, "internal_node_id": "0.0-6.0-1.0-20.0"}}, {"uniqueid": "w91477153:a46001047", "current_trial": 30, "dateTime": 1693481463637, "trialdata": {"revealed_states": [], "clicked_states": ["10", "29", "21"], "num_clicks_accrued": [0, 0, 0, 0, 0, 0, 0, 0, 0, 0, 0, 0, 0], "stateRewards": ["", 2, -2, -3, 10, -4, -1, -11, -8, -9, -36, -78, 2, 1, 7, -7, 44, -1, -31, -1, 26, 47, 83, 2, -4, -4, -6, -52, -76, -81, -1, -59, 45, 67], "withholdReward": false, "trial_id": "mdp_trial_22", "block": "test", "trialIndex": 23, "score": 49.55, "costs": -6.449999999999999, "simulationMode": [null, null, null, null, null], "rewards": [2, 1, 7, -1, 47], "path": ["0", "0", "12", "13", "14", "19", "21"], "rt": [12614, 258, 221, 163, 180], "actions": ["right", "right", "right", "down", "down"], "actionTimes": [15544, 16326, 17058, 17733, 18432], "queries": {"click": {"state": {"target": ["10", "29", "21"], "time": [4726, 8509, 11782]}, "edge": {"target": [], "time": []}}, "mouseover": {"state": {"target": ["8", "11", "10", "27", "29", "24", "21"], "time": [3733, 4003, 4336, 4986, 8387, 8751, 10035]}, "edge": {"target": [], "time": []}}, "mouseout": {"state": {"target": ["10", "0", "8", "11", "10", "27", "29", "24", "21"], "time": [2434, 3653, 3751, 4202, 4953, 5001, 8519, 8787, 12185]}, "edge": {"target": [], "time": []}}}, "displayed_time": "18.95", "trialTime": 20374, "trial_type": "mouselab-mdp", "trial_index": 30, "time_elapsed": 706490, "internal_node_id": "0.0-6.0-1.0-21.0"}}, {"uniqueid": "w91477153:a46001047", "current_trial": 31, "dateTime": 1693481480717, "trialdata": {"revealed_states": [], "clicked_states": ["31"], "num_clicks_accrued": [0, 0, 0, 0, 0, 0, 0, 0, 0, 0, 0, 0, 0], "stateRewards": ["", 2, 3, -2, -8, -8, -41, 74, 15, -23, -80, 1, 1, 3, 3, -15, -63, -78, 67, 13, 75, -41, 86, 2, -2, 6, -3, -8, -49, 50, -6, 83, 74, 80], "withholdReward": false, "trial_id": "mdp_trial_23", "block": "test", "trialIndex": 24, "score": 80.85, "costs": -2.15, "simulationMode": [null, null, null, null, null], "rewards": [2, -2, 6, -6, 83], "path": ["0", "0", "23", "24", "25", "30", "31"], "rt": [4975, 166, 138, 152, 203], "actions": ["left", "left", "left", "down", "right"], "actionTimes": [6603, 7283, 7938, 8602, 9319], "queries": {"click": {"state": {"target": ["31"], "time": [2790]}, "edge": {"target": [], "time": []}}, "mouseover": {"state": {"target": ["31", "22"], "time": [2584, 3898]}, "edge": {"target": [], "time": []}}, "mouseout": {"state": {"target": ["0", "31", "31", "22"], "time": [2367, 2796, 3000, 6135]}, "edge": {"target": [], "time": []}}}, "displayed_time": "15.63", "trialTime": 16951, "trial_type": "mouselab-mdp", "trial_index": 31, "time_elapsed": 723570, "internal_node_id": "0.0-6.0-1.0-22.0"}}, {"uniqueid": "w91477153:a46001047", "current_trial": 32, "dateTime": 1693481497287, "trialdata": {"revealed_states": [], "clicked_states": ["22", "17"], "num_clicks_accrued": [0, 0, 0, 0, 0, 0, 0, 0, 0, 0, 0, 0, 0], "stateRewards": ["", 1, -2, 4, 7, -43, -83, -60, -5, -86, -80, 83, -1, -2, 6, 11, -15, 21, 13, 9, 29, -49, 11, -1, 4, -6, -11, 87, 40, 63, -8, -39, -11, 62], "withholdReward": false, "trial_id": "mdp_trial_24", "block": "test", "trialIndex": 25, "score": 30.7, "costs": -4.3, "simulationMode": [null, null, null, null, null], "rewards": [-1, -2, 6, 11, 21], "path": ["0", "0", "12", "13", "14", "15", "17"], "rt": [7984, 81, 271, 162, 202], "actions": ["right", "right", "right", "up", "right"], "actionTimes": [9076, 9692, 10483, 11157, 11880], "queries": {"click": {"state": {"target": ["22", "17"], "time": [1709, 5289]}, "edge": {"target": [], "time": []}}, "mouseover": {"state": {"target": ["0", "22", "14", "17"], "time": [1330, 1427, 3629, 3979]}, "edge": {"target": [], "time": []}}, "mouseout": {"state": {"target": ["0", "0", "22", "22", "14", "17"], "time": [929, 1363, 1912, 3596, 3644, 5495]}, "edge": {"target": [], "time": []}}}, "displayed_time": "15.10", "trialTime": 16432, "trial_type": "mouselab-mdp", "trial_index": 32, "time_elapsed": 740140, "internal_node_id": "0.0-6.0-1.0-23.0"}}, {"uniqueid": "w91477153:a46001047", "current_trial": 33, "dateTime": 1693481514714, "trialdata": {"revealed_states": [], "clicked_states": ["11"], "num_clicks_accrued": [0, 0, 0, 0, 0, 0, 0, 0, 0, 0, 0, 0, 0], "stateRewards": ["", -1, 2, 7, 8, 75, 67, -11, 6, 52, -17, 38, -1, 4, -8, 14, 74, -37, -17, -12, 52, 55, 71, -2, -1, -5, 2, 21, 6, -88, -14, 64, -61, -47], "withholdReward": false, "trial_id": "mdp_trial_25", "block": "test", "trialIndex": 26, "score": 49.85, "costs": -2.15, "simulationMode": [null, null, null, null, null], "rewards": [-1, 2, 7, 6, 38], "path": ["0", "0", "1", "2", "3", "8", "11"], "rt": [5132, 135, 146, 17, 133], "actions": ["up", "up", "up", "left", "left"], "actionTimes": [7380, 8031, 8692, 9231, 9877], "queries": {"click": {"state": {"target": ["11"], "time": [3753]}, "edge": {"target": [], "time": []}}, "mouseover": {"state": {"target": ["11", "9", "11"], "time": [2665, 2881, 3632]}, "edge": {"target": [], "time": []}}, "mouseout": {"state": {"target": ["14", "13", "12", "0", "11", "9", "11"], "time": [1515, 1548, 1898, 2596, 2698, 3031, 3817]}, "edge": {"target": [], "time": []}}}, "displayed_time": "16.26", "trialTime": 17278, "trial_type": "mouselab-mdp", "trial_index": 33, "time_elapsed": 757567, "internal_node_id": "0.0-6.0-1.0-24.0"}}, {"uniqueid": "w91477153:a46001047", "current_trial": 34, "dateTime": 1693481532638, "trialdata": {"revealed_states": [], "clicked_states": ["27", "31"], "num_clicks_accrued": [0, 0, 0, 0, 0, 0, 0, 0, 0, 0, 0, 0, 0], "stateRewards": ["", -1, 2, 5, -6, 13, -64, -47, 8, -79, -80, -33, 1, 2, -2, -16, 56, -71, -10, 3, 29, 44, 85, -1, 4, 5, 4, -36, -56, 19, 8, 52, -13, -2], "withholdReward": false, "trial_id": "mdp_trial_26", "block": "test", "trialIndex": 27, "score": 63.7, "costs": -4.3, "simulationMode": [null, null, null, null, null], "rewards": [-1, 4, 5, 8, 52], "path": ["0", "0", "23", "24", "25", "30", "31"], "rt": [8269, 124, 172, 85, 92], "actions": ["left", "left", "left", "down", "right"], "actionTimes": [10505, 11141, 11823, 12420, 13026], "queries": {"click": {"state": {"target": ["27", "31"], "time": [3159, 6724]}, "edge": {"target": [], "time": []}}, "mouseover": {"state": {"target": ["23", "24", "29", "27", "31", "31", "20", "21"], "time": [2598, 2636, 2733, 2884, 3484, 6551, 7532, 10036]}, "edge": {"target": [], "time": []}}, "mouseout": {"state": {"target": ["16", "0", "23", "24", "29", "27", "31", "31", "20", "21"], "time": [1235, 2585, 2635, 2669, 2750, 3417, 3500, 6884, 9986, 17051]}, "edge": {"target": [], "time": []}}}, "displayed_time": "16.24", "trialTime": 17773, "trial_type": "mouselab-mdp", "trial_index": 34, "time_elapsed": 775491, "internal_node_id": "0.0-6.0-1.0-25.0"}}, {"uniqueid": "w91477153:a46001047", "current_trial": 35, "dateTime": 1693481555259, "trialdata": {"revealed_states": [], "clicked_states": ["6", "16", "17", "20"], "num_clicks_accrued": [0, 0, 0, 0, 0, 0, 0, 0, 0, 0, 0, 0, 0], "stateRewards": ["", 1, 2, -6, -13, -51, 22, -4, -12, -44, -12, 6, -2, -2, -2, -14, -46, -4, -77, -2, 36, -79, 41, 2, -4, 2, -6, -55, 59, 70, -5, 39, -19, 24], "withholdReward": false, "trial_id": "mdp_trial_27", "block": "test", "trialIndex": 28, "score": 19.4, "costs": -8.6, "simulationMode": [null, null, null, null, null], "rewards": [-2, -2, -2, -2, 36], "path": ["0", "0", "12", "13", "14", "19", "20"], "rt": [15163, 162, 182, 191, 181], "actions": ["right", "right", "right", "down", "right"], "actionTimes": [17558, 18226, 18929, 19636, 20328], "queries": {"click": {"state": {"target": ["6", "16", "17", "20"], "time": [3403, 7021, 10374, 13894]}, "edge": {"target": [], "time": []}}, "mouseover": {"state": {"target": ["7", "6", "6", "16", "17", "20", "21"], "time": [2778, 2880, 3198, 4660, 7614, 10747, 14247]}, "edge": {"target": [], "time": []}}, "mouseout": {"state": {"target": ["0", "7", "6", "6", "16", "17", "20"], "time": [2699, 2813, 2930, 4596, 7228, 10648, 14197]}, "edge": {"target": [], "time": []}}}, "displayed_time": "20.85", "trialTime": 22472, "trial_type": "mouselab-mdp", "trial_index": 35, "time_elapsed": 798112, "internal_node_id": "0.0-6.0-1.0-26.0"}}, {"uniqueid": "w91477153:a46001047", "current_trial": 36, "dateTime": 1693481581925, "trialdata": {"revealed_states": [], "clicked_states": ["10", "7", "5", "9", "17"], "num_clicks_accrued": [0, 0, 0, 0, 0, 0, 0, 0, 0, 0, 0, 0, 0], "stateRewards": ["", 2, -3, 5, -14, -63, -9, -24, -11, -54, -43, 68, 2, -2, -4, 7, -64, 30, 47, 12, -74, 11, 86, 1, -3, 3, 10, -71, -42, -52, -1, -29, -16, 69], "withholdReward": false, "trial_id": "mdp_trial_28", "block": "test", "trialIndex": 29, "score": 22.25, "costs": -10.75, "simulationMode": [null, null, null, null, null], "rewards": [2, -2, -4, 7, 30], "path": ["0", "0", "12", "13", "14", "15", "17"], "rt": [18572, 127, 212, 101, 115], "actions": ["right", "right", "right", "up", "right"], "actionTimes": [22266, 22915, 23633, 24254, 24883], "queries": {"click": {"state": {"target": ["10", "7", "5", "9", "17"], "time": [5094, 8544, 11795, 15081, 19044]}, "edge": {"target": [], "time": []}}, "mouseover": {"state": {"target": ["12", "2", "3", "3", "10", "2", "7", "7", "4", "5", "9", "9", "2", "1", "0", "12", "15", "17"], "time": [4103, 4238, 4270, 4520, 4838, 5385, 5405, 5738, 9288, 9604, 12201, 12518, 15505, 15554, 15737, 18454, 18505, 18870]}, "edge": {"target": [], "time": []}}, "mouseout": {"state": {"target": ["21", "0", "12", "2", "3", "3", "10", "2", "7", "7", "4", "5", "9", "9", "2", "1", "0", "12", "15", "17"], "time": [3287, 3487, 4187, 4251, 4303, 4536, 5142, 5404, 5420, 8920, 9353, 12153, 12253, 15421, 15537, 15621, 15772, 18468, 18519, 19387]}, "edge": {"target": [], "time": []}}}, "displayed_time": "25.39", "trialTime": 26529, "trial_type": "mouselab-mdp", "trial_index": 36, "time_elapsed": 824778, "internal_node_id": "0.0-6.0-1.0-27.0"}}, {"uniqueid": "w91477153:a46001047", "current_trial": 37, "dateTime": 1693481598643, "trialdata": {"revealed_states": [], "clicked_states": ["20"], "num_clicks_accrued": [0, 0, 0, 0, 0, 0, 0, 0, 0, 0, 0, 0, 0], "stateRewards": ["", 1, -4, -6, 11, -20, 8, -30, 1, -38, 88, 42, 2, 3, 5, -12, -8, -74, 30, -8, 67, -19, 42, 2, -1, 4, 13, 50, -68, 2, -8, -15, 87, -46], "withholdReward": false, "trial_id": "mdp_trial_29", "block": "test", "trialIndex": 30, "score": 66.85, "costs": -2.15, "simulationMode": [null, null, null, null, null], "rewards": [2, 3, 5, -8, 67], "path": ["0", "0", "12", "13", "14", "19", "20"], "rt": [4552, 129, 120, 86, 170], "actions": ["right", "right", "right", "down", "right"], "actionTimes": [6203, 6853, 7493, 8093, 8760], "queries": {"click": {"state": {"target": ["20"], "time": [2547]}, "edge": {"target": [], "time": []}}, "mouseover": {"state": {"target": ["12", "19", "20", "20"], "time": [1944, 1990, 2023, 2372]}, "edge": {"target": [], "time": []}}, "mouseout": {"state": {"target": ["22", "0", "12", "19", "20", "20"], "time": [1174, 1943, 1976, 2006, 2039, 2723]}, "edge": {"target": [], "time": []}}}, "displayed_time": "15.66", "trialTime": 16583, "trial_type": "mouselab-mdp", "trial_index": 37, "time_elapsed": 841496, "internal_node_id": "0.0-6.0-1.0-28.0"}}, {"uniqueid": "w91477153:a46001047", "current_trial": 38, "dateTime": 1693481625648, "trialdata": {"revealed_states": [], "clicked_states": ["21", "32", "31", "22", "17"], "num_clicks_accrued": [0, 0, 0, 0, 0, 0, 0, 0, 0, 0, 0, 0, 0], "stateRewards": ["", -2, -4, 2, 10, -17, 18, 73, 11, -32, 23, -13, -2, -4, 7, 12, -25, 66, -23, 15, 40, -76, -9, 1, 2, -7, -5, -20, 24, 3, -5, 16, -73, 70], "withholdReward": false, "trial_id": "mdp_trial_30", "block": "test", "trialIndex": 31, "score": 68.25, "costs": -10.75, "simulationMode": [null, null, null, null, null], "rewards": [-2, -4, 7, 12, 66], "path": ["0", "0", "12", "13", "14", "15", "17"], "rt": [19493, 133, 158, 133, 151], "actions": ["right", "right", "right", "up", "right"], "actionTimes": [21624, 22248, 22923, 23565, 24233], "queries": {"click": {"state": {"target": ["21", "32", "31", "22", "17"], "time": [2906, 6722, 10456, 14174, 18404]}, "edge": {"target": [], "time": []}}, "mouseover": {"state": {"target": ["21", "32", "31", "22", "22", "19", "17"], "time": [2796, 6582, 10331, 10747, 11146, 17563, 18232]}, "edge": {"target": [], "time": []}}, "mouseout": {"state": {"target": ["12", "0", "21", "32", "31", "22", "22", "22", "22", "19", "17"], "time": [1382, 1447, 3264, 6897, 10466, 10862, 14251, 14531, 17549, 17614, 18599]}, "edge": {"target": [], "time": []}}}, "displayed_time": "24.75", "trialTime": 26846, "trial_type": "mouselab-mdp", "trial_index": 38, "time_elapsed": 868501, "internal_node_id": "0.0-6.0-1.0-29.0"}}, {"uniqueid": "w91477153:a46001047", "current_trial": 39, "dateTime": 1693481645499, "trialdata": {"revealed_states": [], "clicked_states": ["23", "1", "12", "9"], "num_clicks_accrued": [0, 0, 0, 0, 0, 0, 0, 0, 0, 0, 0, 0, 0], "stateRewards": ["", -1, 1, 8, -8, -49, 62, -78, 16, 28, -81, 78, -2, -3, -1, -4, 67, 49, -2, -13, -16, -39, 83, 1, -4, 4, -5, -20, 7, 84, 7, -32, -59, 19], "withholdReward": false, "trial_id": "mdp_trial_31", "block": "test", "trialIndex": 32, "score": 50.6, "costs": -1.4, "simulationMode": [null, null, null, null, null], "rewards": [-1, 1, 8, 16, 28], "path": ["0", "0", "1", "2", "3", "8", "9"], "rt": [11764, 69, 136, 49, 80], "actions": ["up", "up", "up", "left", "up"], "actionTimes": [14901, 15462, 16112, 16675, 17273], "queries": {"click": {"state": {"target": ["23", "1", "12", "9"], "time": [4035, 6490, 8684, 11548]}, "edge": {"target": [], "time": []}}, "mouseover": {"state": {"target": ["23", "0", "1", "12", "10", "8", "9", "9"], "time": [3760, 5395, 5610, 6960, 10793, 10976, 11007, 11444]}, "edge": {"target": [], "time": []}}, "mouseout": {"state": {"target": ["20", "19", "22", "12", "0", "23", "0", "1", "12", "10", "8", "9", "9"], "time": [2276, 2311, 2324, 2393, 3694, 4224, 5444, 6860, 9410, 10909, 10991, 11043, 11742]}, "edge": {"target": [], "time": []}}}, "displayed_time": "17.79", "trialTime": 19691, "trial_type": "mouselab-mdp", "trial_index": 39, "time_elapsed": 888352, "internal_node_id": "0.0-6.0-1.0-30.0"}}, {"uniqueid": "w91477153:a46001047", "current_trial": 40, "dateTime": 1693481662613, "trialdata": {"revealed_states": [], "clicked_states": ["24", "25", "32"], "num_clicks_accrued": [0, 0, 0, 0, 0, 0, 0, 0, 0, 0, 0, 0, 0], "stateRewards": ["", 1, 1, 1, -3, -7, -1, -41, -10, 20, -72, -63, 1, -4, -2, 2, -66, 30, -84, -2, 49, 23, 71, -1, -4, 4, -12, 67, 5, 18, -16, 88, 56, -5], "withholdReward": false, "trial_id": "mdp_trial_32", "block": "test", "trialIndex": 33, "score": 35.55, "costs": -3.4499999999999997, "simulationMode": [null, null, null, null, null], "rewards": [-1, -4, 4, -16, 56], "path": ["0", "0", "23", "24", "25", "30", "32"], "rt": [9193, 102, 80, 144, 158], "actions": ["left", "left", "left", "down", "down"], "actionTimes": [11068, 11686, 12281, 12945, 13610], "queries": {"click": {"state": {"target": ["24", "25", "32"], "time": [3273, 5613, 7379]}, "edge": {"target": [], "time": []}}, "mouseover": {"state": {"target": ["23", "24", "30", "25", "30", "32"], "time": [2352, 3068, 4435, 4517, 6886, 7018]}, "edge": {"target": [], "time": []}}, "mouseout": {"state": {"target": ["3", "0", "23", "24", "30", "25", "30", "32"], "time": [1318, 1652, 2952, 3499, 4469, 6836, 6968, 7602]}, "edge": {"target": [], "time": []}}}, "displayed_time": "15.88", "trialTime": 16981, "trial_type": "mouselab-mdp", "trial_index": 40, "time_elapsed": 905466, "internal_node_id": "0.0-6.0-1.0-31.0"}}, {"uniqueid": "w91477153:a46001047", "current_trial": 41, "dateTime": 1693481679752, "trialdata": {"revealed_states": [], "clicked_states": ["11"], "num_clicks_accrued": [0, 0, 0, 0, 0, 0, 0, 0, 0, 0, 0, 0, 0], "stateRewards": ["", -2, -2, -7, -13, -10, 49, -68, -1, 84, 70, 88, 1, 4, 4, 12, -57, 25, 30, 8, -1, -77, 57, 2, 3, 2, 3, -18, -80, 23, -15, -41, 70, 11], "withholdReward": false, "trial_id": "mdp_trial_33", "block": "test", "trialIndex": 34, "score": 73.85, "costs": -2.15, "simulationMode": [null, null, null, null, null], "rewards": [-2, -2, -7, -1, 88], "path": ["0", "0", "1", "2", "3", "8", "11"], "rt": [4668, 96, 100, 49, 100], "actions": ["up", "up", "up", "left", "left"], "actionTimes": [6227, 6835, 7455, 8021, 8638], "queries": {"click": {"state": {"target": ["11"], "time": [2410]}, "edge": {"target": [], "time": []}}, "mouseover": {"state": {"target": ["10", "11", "10"], "time": [1940, 2339, 2619]}, "edge": {"target": [], "time": []}}, "mouseout": {"state": {"target": ["0", "10", "11", "10"], "time": [1440, 1973, 2587, 2653]}, "edge": {"target": [], "time": []}}}, "displayed_time": "15.56", "trialTime": 17006, "trial_type": "mouselab-mdp", "trial_index": 41, "time_elapsed": 922605, "internal_node_id": "0.0-6.0-1.0-32.0"}}, {"uniqueid": "w91477153:a46001047", "current_trial": 42, "dateTime": 1693481697445, "trialdata": {"revealed_states": [], "clicked_states": ["6"], "num_clicks_accrued": [0, 0, 0, 0, 0, 0, 0, 0, 0, 0, 0, 0, 0], "stateRewards": ["", -1, -3, 4, -10, -5, 79, -87, -2, 53, 29, -20, -2, -1, -5, 10, 27, 86, 46, -16, -29, 40, 3, 2, 4, -1, -6, 37, 79, -29, 7, 86, -62, 29], "withholdReward": false, "trial_id": "mdp_trial_34", "block": "test", "trialIndex": 35, "score": 66.85, "costs": -2.15, "simulationMode": [null, null, null, null, null], "rewards": [-1, -3, 4, -10, 79], "path": ["0", "0", "1", "2", "3", "4", "6"], "rt": [4659, 66, 53, 76, 244], "actions": ["up", "up", "up", "right", "right"], "actionTimes": [7039, 7615, 8183, 8773, 9527], "queries": {"click": {"state": {"target": ["6"], "time": [3343]}, "edge": {"target": [], "time": []}}, "mouseover": {"state": {"target": ["1", "7", "6"], "time": [2900, 2950, 3016]}, "edge": {"target": [], "time": []}}, "mouseout": {"state": {"target": ["16", "18", "0", "1", "7", "6"], "time": [1664, 1751, 2851, 2914, 2981, 3500]}, "edge": {"target": [], "time": []}}}, "displayed_time": "16.38", "trialTime": 17547, "trial_type": "mouselab-mdp", "trial_index": 42, "time_elapsed": 940299, "internal_node_id": "0.0-6.0-1.0-33.0"}}, {"uniqueid": "w91477153:a46001047", "current_trial": 43, "dateTime": 1693481716420, "trialdata": {"revealed_states": [], "clicked_states": ["29", "27", "28"], "num_clicks_accrued": [0, 0, 0, 0, 0, 0, 0, 0, 0, 0, 0, 0, 0], "stateRewards": ["", -1, -4, -6, -15, 21, -67, -63, 9, 51, 69, -14, -1, 3, 8, -8, 39, 72, 63, 15, 19, 47, 15, 1, 4, 5, 16, -18, 34, 35, -14, -80, 40, 1], "withholdReward": false, "trial_id": "mdp_trial_35", "block": "test", "trialIndex": 36, "score": 54.55, "costs": -6.449999999999999, "simulationMode": [null, null, null, null, null], "rewards": [1, 4, 5, 16, 35], "path": ["0", "0", "23", "24", "25", "26", "29"], "rt": [12773, 53, 190, 50, 17], "actions": ["left", "left", "left", "up", "left"], "actionTimes": [14460, 15008, 15728, 16289, 16838], "queries": {"click": {"state": {"target": ["29", "27", "28"], "time": [3462, 7446, 11077]}, "edge": {"target": [], "time": []}}, "mouseover": {"state": {"target": ["0", "23", "24", "29", "29", "27", "28"], "time": [2420, 2572, 2619, 3021, 3372, 7189, 10920]}, "edge": {"target": [], "time": []}}, "mouseout": {"state": {"target": ["18", "0", "23", "24", "29", "29", "27", "28", "23"], "time": [1069, 2539, 2603, 2939, 3085, 3469, 7671, 11254, 18539]}, "edge": {"target": [], "time": []}}}, "displayed_time": "17.35", "trialTime": 18859, "trial_type": "mouselab-mdp", "trial_index": 43, "time_elapsed": 959273, "internal_node_id": "0.0-6.0-1.0-34.0"}}, {"uniqueid": "w91477153:a46001047", "current_trial": 44, "dateTime": 1693481735428, "trialdata": {"revealed_states": [], "clicked_states": ["32", "21", "16"], "num_clicks_accrued": [0, 0, 0, 0, 0, 0, 0, 0, 0, 0, 0, 0, 0], "stateRewards": ["", 1, -3, -2, 14, 49, -40, -39, 2, 26, -61, 73, 1, -4, -8, 12, 79, 29, -65, -13, 55, -26, 27, -1, 3, 3, 9, -17, -60, -18, -8, 35, -88, 69], "withholdReward": false, "trial_id": "mdp_trial_36", "block": "test", "trialIndex": 37, "score": 73.55, "costs": -6.449999999999999, "simulationMode": [null, null, null, null, null], "rewards": [1, -4, -8, 12, 79], "path": ["0", "0", "12", "13", "14", "15", "16"], "rt": [12290, 124, 101, 130, 235], "actions": ["right", "right", "right", "up", "up"], "actionTimes": [13507, 14143, 14754, 15397, 16153], "queries": {"click": {"state": {"target": ["32", "21", "16"], "time": [2529, 5892, 10057]}, "edge": {"target": [], "time": []}}, "mouseover": {"state": {"target": ["32", "32", "21", "17", "16"], "time": [1936, 2336, 3001, 9451, 9853]}, "edge": {"target": [], "time": []}}, "mouseout": {"state": {"target": ["0", "32", "32", "21", "17", "16"], "time": [1851, 1969, 2868, 6203, 9484, 10235]}, "edge": {"target": [], "time": []}}}, "displayed_time": "16.67", "trialTime": 18779, "trial_type": "mouselab-mdp", "trial_index": 44, "time_elapsed": 978282, "internal_node_id": "0.0-6.0-1.0-35.0"}}, {"uniqueid": "w91477153:a46001047", "current_trial": 45, "dateTime": 1693481765903, "trialdata": {"revealed_states": [], "clicked_states": ["5", "6", "16", "17", "20", "21"], "num_clicks_accrued": [0, 0, 0, 0, 0, 0, 0, 0, 0, 0, 0, 0, 0], "stateRewards": ["", -2, -1, -3, -1, -78, -6, 2, -1, 22, -88, 32, 2, 2, -7, -8, -51, -17, 54, 2, -44, 54, 75, 2, -2, -8, -15, -29, 12, -67, 15, -1, -47, -47], "withholdReward": false, "trial_id": "mdp_trial_37", "block": "test", "trialIndex": 38, "score": 40.1, "costs": -12.9, "simulationMode": [null, null, null, null, null], "rewards": [2, 2, -7, 2, 54], "path": ["0", "0", "12", "13", "14", "19", "21"], "rt": [23960, 40, 164, 189, 156], "actions": ["right", "right", "right", "down", "down"], "actionTimes": [25779, 26330, 27000, 27679, 28346], "queries": {"click": {"state": {"target": ["5", "6", "16", "17", "20", "21"], "time": [2530, 6578, 10810, 14612, 18728, 22461]}, "edge": {"target": [], "time": []}}, "mouseover": {"state": {"target": ["1", "2", "5", "6", "16", "16", "17", "20", "21"], "time": [2153, 2187, 2256, 6456, 10471, 10656, 14336, 18522, 22290]}, "edge": {"target": [], "time": []}}, "mouseout": {"state": {"target": ["15", "18", "0", "1", "2", "5", "6", "16", "16", "17", "20", "21"], "time": [1306, 1339, 2140, 2170, 2205, 2805, 6584, 10540, 10971, 14821, 18906, 22621]}, "edge": {"target": [], "time": []}}}, "displayed_time": "28.86", "trialTime": 30341, "trial_type": "mouselab-mdp", "trial_index": 45, "time_elapsed": 1008756, "internal_node_id": "0.0-6.0-1.0-36.0"}}, {"uniqueid": "w91477153:a46001047", "current_trial": 46, "dateTime": 1693481784598, "trialdata": {"revealed_states": [], "clicked_states": ["31", "27", "33"], "num_clicks_accrued": [0, 0, 0, 0, 0, 0, 0, 0, 0, 0, 0, 0, 0], "stateRewards": ["", 2, 3, -1, 16, -78, -11, 46, 2, -20, 79, -67, 2, 3, 2, 11, -83, -42, -58, -11, -67, -22, 55, 2, -1, -1, -16, -83, -82, 23, -11, -29, 13, 13], "withholdReward": false, "trial_id": "mdp_trial_38", "block": "test", "trialIndex": 39, "score": -4.449999999999999, "costs": -6.449999999999999, "simulationMode": [null, null, null, null, null], "rewards": [2, -1, -1, -11, 13], "path": ["0", "0", "23", "24", "25", "30", "33"], "rt": [12308, 27, 152, 13, 161], "actions": ["left", "left", "left", "down", "left"], "actionTimes": [14542, 15089, 15748, 16275, 16941], "queries": {"click": {"state": {"target": ["31", "27", "33"], "time": [3318, 7185, 10768]}, "edge": {"target": [], "time": []}}, "mouseover": {"state": {"target": ["0", "31", "24", "27", "27", "33"], "time": [2899, 3164, 6630, 6679, 7047, 10647]}, "edge": {"target": [], "time": []}}, "mouseout": {"state": {"target": ["0", "0", "31", "31", "24", "27", "27", "33"], "time": [2031, 2947, 3325, 3479, 6645, 6695, 7380, 10865]}, "edge": {"target": [], "time": []}}}, "displayed_time": "17.45", "trialTime": 18560, "trial_type": "mouselab-mdp", "trial_index": 46, "time_elapsed": 1027451, "internal_node_id": "0.0-6.0-1.0-37.0"}}, {"uniqueid": "w91477153:a46001047", "current_trial": 47, "dateTime": 1693481802965, "trialdata": {"revealed_states": [], "clicked_states": ["9"], "num_clicks_accrued": [0, 0, 0, 0, 0, 0, 0, 0, 0, 0, 0, 0, 0], "stateRewards": ["", -2, 3, -1, 2, -72, 63, 20, -1, 62, -66, 39, -2, 3, -6, 14, 22, 47, 1, 8, -49, -1, -41, 2, 2, -6, -16, -64, -60, -34, 16, 54, 22, -7], "withholdReward": false, "trial_id": "mdp_trial_39", "block": "test", "trialIndex": 40, "score": 58.85, "costs": -2.15, "simulationMode": [null, null, null, null, null], "rewards": [-2, 3, -1, -1, 62], "path": ["0", "0", "1", "2", "3", "8", "9"], "rt": [4597, 101, 46, 49, 67], "actions": ["up", "up", "up", "left", "up"], "actionTimes": [7130, 7741, 8284, 8853, 9439], "queries": {"click": {"state": {"target": ["9"], "time": [3395]}, "edge": {"target": [], "time": []}}, "mouseover": {"state": {"target": ["2", "3", "9", "4", "16", "15", "15", "13", "12", "0", "23", "24", "25", "26", "27", "27"], "time": [2990, 3004, 3206, 3722, 3772, 3822, 3922, 3985, 4021, 4055, 4122, 4537, 4672, 4755, 4805, 5038]}, "edge": {"target": [], "time": []}}, "mouseout": {"state": {"target": ["25", "24", "23", "0", "2", "3", "9", "4", "16", "15", "15", "13", "12", "0", "23", "24", "25", "26", "27", "27", "10"], "time": [1922, 1953, 2238, 2956, 3003, 3038, 3687, 3755, 3788, 3839, 3955, 4006, 4038, 4089, 4505, 4606, 4722, 4772, 4854, 15505, 15605]}, "edge": {"target": [], "time": []}}}, "displayed_time": "16.54", "trialTime": 18218, "trial_type": "mouselab-mdp", "trial_index": 47, "time_elapsed": 1045818, "internal_node_id": "0.0-6.0-1.0-38.0"}}, {"uniqueid": "w91477153:a46001047", "current_trial": 48, "dateTime": 1693481827115, "trialdata": {"revealed_states": [], "clicked_states": ["5", "10", "7", "21", "22"], "num_clicks_accrued": [0, 0, 0, 0, 0, 0, 0, 0, 0, 0, 0, 0, 0], "stateRewards": ["", -1, -1, 7, -15, -43, -21, -84, -9, -45, -66, 2, 1, -2, 2, 8, -27, 44, -52, -5, -84, 11, 53, 1, 4, -4, 16, 83, -82, -15, -16, 68, -43, 81], "withholdReward": false, "trial_id": "mdp_trial_40", "block": "test", "trialIndex": 41, "score": 38.25, "costs": -10.75, "simulationMode": [null, null, null, null, null], "rewards": [1, -2, 2, -5, 53], "path": ["0", "0", "12", "13", "14", "19", "22"], "rt": [17955, 85, 242, 162, 129], "actions": ["right", "right", "right", "down", "left"], "actionTimes": [19462, 20050, 20809, 21479, 22129], "queries": {"click": {"state": {"target": ["5", "10", "7", "21", "22"], "time": [2738, 6015, 9427, 12614, 15925]}, "edge": {"target": [], "time": []}}, "mouseover": {"state": {"target": ["1", "2", "3", "9", "5", "4", "7", "1", "10", "2", "7", "18", "19", "21", "22", "17", "17"], "time": [1884, 1932, 2083, 2267, 2500, 3100, 3133, 4083, 4384, 6347, 6399, 9866, 9931, 10200, 13066, 16833, 17333]}, "edge": {"target": [], "time": []}}, "mouseout": {"state": {"target": ["0", "1", "2", "3", "9", "5", "4", "7", "1", "10", "2", "7", "18", "19", "21", "22", "22", "17", "17"], "time": [1817, 1898, 2050, 2134, 2317, 3099, 3117, 3148, 4099, 6333, 6383, 9850, 9900, 9967, 13018, 16166, 16467, 16850, 19218]}, "edge": {"target": [], "time": []}}}, "displayed_time": "22.65", "trialTime": 23996, "trial_type": "mouselab-mdp", "trial_index": 48, "time_elapsed": 1069967, "internal_node_id": "0.0-6.0-1.0-39.0"}}, {"uniqueid": "w91477153:a46001047", "current_trial": 49, "dateTime": 1693481872624, "trialdata": {"rt": 45500, "response": {"Q0": "$-2 to $2", "Q1": "$-32 to $32", "Q2": "$-88 to $88", "Q3": "The cost for clicking on nodes varied between nodes.", "Q4": "Very motivated"}, "question_order": [0, 1, 2, 3, 4], "trial_id": "final_quiz_control", "trial_type": "survey-multi-choice", "trial_index": 49, "time_elapsed": 1115477, "internal_node_id": "0.0-6.0-2.0"}}, {"uniqueid": "w91477153:a46001047", "current_trial": 50, "dateTime": 1693481958571, "trialdata": {"rt": 85935, "response": {"Q0": "Spend as little money as possible, when you find a good end node just go for it", "Q1": "I don't think so - on about round 30 I started clicking non-end nodes and realised that the end node strategy was optimal", "Q2": "The three second timer made it a bit tricky"}, "trial_id": "self_report_control", "trial_type": "survey-text", "trial_index": 50, "time_elapsed": 1201425, "internal_node_id": "0.0-6.0-3.0"}}, {"uniqueid": "w91477153:a46001047", "current_trial": 51, "dateTime": 1693482028539, "trialdata": {"rt": 69962, "response": {"Q0": "Strongly disagree", "Q1": "Strongly disagree", "Q2": "Agree", "Q3": "Agree", "Q4": "Strongly disagree", "Q5": "Agree", "Q6": "Disagree"}, "question_order": [0, 1, 2, 3, 4, 5, 6], "trial_id": "self_report_2", "trial_type": "survey-multi-choice", "trial_index": 51, "time_elapsed": 1271392, "internal_node_id": "0.0-6.0-4.0"}}, {"uniqueid": "w91477153:a46001047", "current_trial": 52, "dateTime": 1693482050706, "trialdata": {"rt": 22154, "response": {"gender": "female", "age": "28", "colorblind": "0", "effort": "0"}, "trial_type": "survey-html-form", "trial_index": 52, "time_elapsed": 1293560, "internal_node_id": "0.0-6.0-5.0"}}, {"uniqueid": "w91477153:a46001047", "current_trial": 53, "dateTime": 1693482075488, "trialdata": {"rt": 24776, "response": {"Q0": "nope", "Q1": "nope", "Q2": ""}, "trial_type": "survey-text", "trial_index": 53, "time_elapsed": 1318341, "internal_node_id": "0.0-6.0-6.0"}}, {"uniqueid": "w91477153:a46001047", "current_trial": 54, "dateTime": 1693482089441, "trialdata": {"rt": 13944, "stimulus": "<h1>Completion Code Instructions (1/2)</h1>\n<br><br><br><br>\nYou have reached the end of the experiment! The completion code consists of two parts: (1) a code with 2 characters (2) a code with 6 characters. On this page, you will receive the second part of the code. The first part of the completion code will be on the next page.\n<br><br>\nThe second part of your completion code is: <b>EWEK22</b>\n<br><br>\nPlease note this down. Then, press 'Finish HIT' in order to find the first part of your completion code. Once the data has been saved, you will receive this code either in this window or in the original browser window where you started the experiment.\n", "response": 0, "trial_type": "html-button-response", "trial_index": 54, "time_elapsed": 1332294, "internal_node_id": "0.0-6.0-7.0"}}, {"uniqueid": "w91477153:a46001047", "current_trial": 55, "dateTime": 1693482090448, "trialdata": {"success": true, "trial_type": "fullscreen", "trial_index": 55, "time_elapsed": 1333301, "internal_node_id": "0.0-7.0"}}], "questiondata": {"params": {"CODE": "C6DMOQA6", "MIN_TIME": 14, "inspectCost": 1, "startTime": "Thu Aug 31 2023 12:19:16 GMT+0100 (British Summer Time)", "bonusRate": 0.002, "variance": "1_2_4_8_44", "branching": "31123"}, "final_score": 1881.35}, "eventdata": [{"eventtype": "initialized", "value": null, "timestamp": 1693480755809, "interval": 0}, {"eventtype": "window_resize", "value": [1024, 716], "timestamp": 1693480755809, "interval": 0}, {"eventtype": "window_resize", "value": [1024, 716], "timestamp": 1693480756133, "interval": 324}, {"eventtype": "window_resize", "value": [1440, 900], "timestamp": 1693480762604, "interval": 6471}, {"eventtype": "window_resize", "value": [1024, 716], "timestamp": 1693482089759, "interval": 1327155}], "useragent": "Mozilla/5.0 (Macintosh; Intel Mac OS X 10_15_7) AppleWebKit/537.36 (KHTML, like Gecko) Chrome/115.0.0.0 Safari/537.36", "mode": "live", "id": "w91477153:a46001047", "status": "user data saved", "Beginhit": "2023-08-31 11:19:14.390996", "Beginexp": "2023-08-31 11:19:23.477228", "Endhit": "2023-08-31 11:41:31.13531", "psiturkStatus": 3, "browser": "<redacted>", "platform": "macos", "language": "en-US"}