{"condition": 0, "counterbalance": 0, "assignmentId": "a78959170", "workerId": "w77642613", "hitId": "h37900075", "currenttrial": 14, "bonus": 0, "data": [{"uniqueid": "w77642613:a78959170", "current_trial": 0, "dateTime": 1693580629787, "trialdata": {"success": true, "trial_type": "fullscreen", "trial_index": 0, "time_elapsed": 3005, "internal_node_id": "0.0-0.0"}}, {"uniqueid": "w77642613:a78959170", "current_trial": 1, "dateTime": 1693580688258, "trialdata": {"view_history": [{"page_index": 0, "viewing_time": 58462}], "rt": 58463, "trial_id": "exp_instructions_control", "trial_type": "instructions", "trial_index": 1, "time_elapsed": 61477, "internal_node_id": "0.0-1.0"}}, {"uniqueid": "w77642613:a78959170", "current_trial": 2, "dateTime": 1693580845146, "trialdata": {"view_history": [{"page_index": 0, "viewing_time": 39465}, {"page_index": 1, "viewing_time": 91185}, {"page_index": 2, "viewing_time": 12536}, {"page_index": 3, "viewing_time": 13698}], "rt": 156884, "trial_id": "mouselab_instructions_1_control", "trial_type": "instructions", "trial_index": 2, "time_elapsed": 218365, "internal_node_id": "0.0-2.0-1.0"}}, {"uniqueid": "w77642613:a78959170", "current_trial": 3, "dateTime": 1693580874219, "trialdata": {"revealed_states": [], "clicked_states": ["15", "26"], "num_clicks_accrued": [0, 0, 0, 0, 0, 0, 0, 0, 0, 0, 0, 0, 0], "stateRewards": ["", -10, -10, 10, -10, 10, 10, 10, 10, -10, -10, -10, 10, -10, 10, 10, 10, -10, -10, -10, -10, 10, -10, 10, 10, -10, 10, 10, -10, 10, -10, -10, -10, 10], "withholdReward": false, "trial_id": "practice_1", "block": "test", "trialIndex": 0, "score": 32.5, "costs": -1, "simulationMode": [null, null, null, null, null], "rewards": [10, 10, -10, 10, 10], "path": ["0", "0", "23", "24", "25", "26", "27"], "rt": [10995, 2916, 1794, 2959, 854], "actions": ["left", "left", "left", "up", "up"], "actionTimes": [14322, 17739, 20034, 23500, 24879], "queries": {"click": {"state": {"target": ["15", "26"], "time": [8805, 12170]}, "edge": {"target": [], "time": []}}, "mouseover": {"state": {"target": ["28", "26", "28", "18", "15", "24", "28", "26", "12"], "time": [6469, 6853, 7437, 7637, 7771, 10052, 10421, 10469, 13086]}, "edge": {"target": [], "time": []}}, "mouseout": {"state": {"target": ["12", "0", "28", "26", "28", "18", "15", "24", "28", "26", "12", "30"], "time": [1035, 1534, 6785, 7421, 7455, 7721, 9936, 10088, 10437, 12971, 20754, 22404]}, "edge": {"target": [], "time": []}}}, "displayed_time": "25.37", "trialTime": 28345, "trial_type": "mouselab-mdp", "trial_index": 3, "time_elapsed": 247436, "internal_node_id": "0.0-2.0-2.0-0.0"}}, {"uniqueid": "w77642613:a78959170", "current_trial": 4, "dateTime": 1693580886437, "trialdata": {"revealed_states": [], "clicked_states": ["14"], "num_clicks_accrued": [0, 0, 0, 0, 0, 0, 0, 0, 0, 0, 0, 0, 0], "stateRewards": ["", -10, 10, -10, 10, -10, 10, 10, -10, -10, 10, 10, -10, 10, -10, 10, 10, -10, 10, -10, -10, 10, -10, 10, 10, 10, 10, 10, -10, 10, 10, 10, -10, 10], "withholdReward": false, "trial_id": "practice_2", "block": "test", "trialIndex": 1, "score": 33, "costs": -0.5, "simulationMode": [null, null, null, null, null], "rewards": [10, 10, 10, 10, -10], "path": ["0", "0", "23", "24", "25", "30", "32"], "rt": [4269, 46, 140, 196, 208], "actions": ["left", "left", "left", "down", "down"], "actionTimes": [6256, 6803, 7463, 8153, 8866], "queries": {"click": {"state": {"target": ["14"], "time": [4152]}, "edge": {"target": [], "time": []}}, "mouseover": {"state": {"target": ["12", "13", "14", "14", "13", "12", "31"], "time": [2755, 2804, 3205, 3838, 4757, 4787, 4855]}, "edge": {"target": [], "time": []}}, "mouseout": {"state": {"target": ["0", "12", "13", "14", "14", "13", "12", "31"], "time": [2738, 2786, 3155, 3436, 4754, 4772, 4805, 4887]}, "edge": {"target": [], "time": []}}}, "displayed_time": "9.37", "trialTime": 11746, "trial_type": "mouselab-mdp", "trial_index": 4, "time_elapsed": 259654, "internal_node_id": "0.0-2.0-2.0-1.0"}}, {"uniqueid": "w77642613:a78959170", "current_trial": 5, "dateTime": 1693580910168, "trialdata": {"view_history": [{"page_index": 0, "viewing_time": 18051}, {"page_index": 1, "viewing_time": 5674}], "rt": 23726, "trial_id": "mouselab_instructions_2_control", "trial_type": "instructions", "trial_index": 5, "time_elapsed": 283387, "internal_node_id": "0.0-2.0-3.0"}}, {"uniqueid": "w77642613:a78959170", "current_trial": 6, "dateTime": 1693580948552, "trialdata": {"rt": 38377, "response": {"Q0": "The cost for clicking on nodes may vary between nodes.", "Q1": "The better I perform the higher my bonus will be.", "Q2": "No, the amount of cash at each node of the web may be different each time.", "Q3": "To get the highest total score.", "Q4": "Any time during the round.", "Q5": "10 seconds"}, "question_order": [0, 1, 2, 3, 4, 5], "correct": {"Q0": "The cost for clicking on nodes may vary between nodes.", "Q1": "The better I perform the higher my bonus will be.", "Q2": "No, the amount of cash at each node of the web may be different each time.", "Q3": "To get the highest total score.", "Q4": "Only before moving the spider.", "Q5": "3 seconds"}, "trial_id": "mouselab_quiz_control", "trial_type": "survey-multi-choice", "trial_index": 6, "time_elapsed": 321771, "internal_node_id": "0.0-2.0-4.0"}}, {"uniqueid": "w77642613:a78959170", "current_trial": 7, "dateTime": 1693580953225, "trialdata": {"success": true, "trial_type": "fullscreen", "trial_index": 7, "time_elapsed": 326444, "internal_node_id": "0.0-2.1-0.1-0.1"}}, {"uniqueid": "w77642613:a78959170", "current_trial": 8, "dateTime": 1693580964086, "trialdata": {"view_history": [{"page_index": 0, "viewing_time": 6320}, {"page_index": 1, "viewing_time": 2288}, {"page_index": 2, "viewing_time": 1259}, {"page_index": 3, "viewing_time": 989}], "rt": 10857, "trial_id": "mouselab_instructions_1_control", "trial_type": "instructions", "trial_index": 8, "time_elapsed": 337305, "internal_node_id": "0.0-2.1-1.1"}}, {"uniqueid": "w77642613:a78959170", "current_trial": 9, "dateTime": 1693580976499, "trialdata": {"revealed_states": [], "clicked_states": ["13", "25"], "num_clicks_accrued": [0, 0, 0, 0, 0, 0, 0, 0, 0, 0, 0, 0, 0], "stateRewards": ["", -10, -10, 10, -10, 10, 10, 10, 10, -10, -10, -10, 10, -10, 10, 10, 10, -10, -10, -10, -10, 10, -10, 10, 10, -10, 10, 10, -10, 10, -10, -10, -10, 10], "withholdReward": false, "trial_id": "practice_1", "block": "test", "trialIndex": 2, "score": -7.5, "costs": -1, "simulationMode": [null, null, null, null, null], "rewards": [-10, -10, 10, 10, -10], "path": ["0", "0", "1", "2", "3", "8", "11"], "rt": [5646, 25, 173, 54, 49], "actions": ["up", "up", "up", "left", "left"], "actionTimes": [7511, 8035, 8732, 9279, 9841], "queries": {"click": {"state": {"target": ["13", "25"], "time": [4068, 5419]}, "edge": {"target": [], "time": []}}, "mouseover": {"state": {"target": ["12", "13", "13", "25", "25"], "time": [3525, 3556, 3909, 4409, 4691]}, "edge": {"target": [], "time": []}}, "mouseout": {"state": {"target": ["12", "0", "12", "13", "13", "25"], "time": [824, 2725, 3539, 3573, 4341, 4423]}, "edge": {"target": [], "time": []}}}, "displayed_time": "10.35", "trialTime": 11890, "trial_type": "mouselab-mdp", "trial_index": 9, "time_elapsed": 349717, "internal_node_id": "0.0-2.1-2.1-0.1"}}, {"uniqueid": "w77642613:a78959170", "current_trial": 10, "dateTime": 1693580986646, "trialdata": {"revealed_states": [], "clicked_states": ["25", "14"], "num_clicks_accrued": [0, 0, 0, 0, 0, 0, 0, 0, 0, 0, 0, 0, 0], "stateRewards": ["", -10, 10, -10, 10, -10, 10, 10, -10, -10, 10, 10, -10, 10, -10, 10, 10, -10, 10, -10, -10, 10, -10, 10, 10, 10, 10, 10, -10, 10, 10, 10, -10, 10], "withholdReward": false, "trial_id": "practice_2", "block": "test", "trialIndex": 3, "score": 32.5, "costs": -1, "simulationMode": [null, null, null, null, null], "rewards": [10, 10, 10, 10, -10], "path": ["0", "0", "23", "24", "25", "30", "32"], "rt": [4274, 7, 1, 51, 110], "actions": ["left", "left", "left", "down", "down"], "actionTimes": [5567, 6068, 6578, 7148, 7786], "queries": {"click": {"state": {"target": ["25", "14"], "time": [2035, 3272]}, "edge": {"target": [], "time": []}}, "mouseover": {"state": {"target": ["24", "25", "20", "14", "14", "19"], "time": [1741, 1773, 2606, 2857, 3073, 4713]}, "edge": {"target": [], "time": []}}, "mouseout": {"state": {"target": ["25", "0", "24", "25", "20", "14", "14", "19"], "time": [405, 823, 1758, 2508, 2723, 2990, 4708, 4724]}, "edge": {"target": [], "time": []}}}, "displayed_time": "8.29", "trialTime": 9571, "trial_type": "mouselab-mdp", "trial_index": 10, "time_elapsed": 359864, "internal_node_id": "0.0-2.1-2.1-1.1"}}, {"uniqueid": "w77642613:a78959170", "current_trial": 11, "dateTime": 1693580989764, "trialdata": {"view_history": [{"page_index": 0, "viewing_time": 1820}, {"page_index": 1, "viewing_time": 1294}], "rt": 3114, "trial_id": "mouselab_instructions_2_control", "trial_type": "instructions", "trial_index": 11, "time_elapsed": 362983, "internal_node_id": "0.0-2.1-3.1"}}, {"uniqueid": "w77642613:a78959170", "current_trial": 12, "dateTime": 1693581009384, "trialdata": {"rt": 19615, "response": {"Q0": "The cost for clicking on nodes may vary between nodes.", "Q1": "The better I perform the higher my bonus will be.", "Q2": "No, the amount of cash at each node of the web may be different each time.", "Q3": "To get the highest total score.", "Q4": "Any time during the round.", "Q5": "3 seconds"}, "question_order": [0, 1, 2, 3, 4, 5], "correct": {"Q0": "The cost for clicking on nodes may vary between nodes.", "Q1": "The better I perform the higher my bonus will be.", "Q2": "No, the amount of cash at each node of the web may be different each time.", "Q3": "To get the highest total score.", "Q4": "Only before moving the spider.", "Q5": "3 seconds"}, "trial_id": "mouselab_quiz_control", "trial_type": "survey-multi-choice", "trial_index": 12, "time_elapsed": 382603, "internal_node_id": "0.0-2.1-4.1"}}, {"uniqueid": "w77642613:a78959170", "current_trial": 13, "dateTime": 1693581013061, "trialdata": {"success": true, "trial_type": "fullscreen", "trial_index": 13, "time_elapsed": 386280, "internal_node_id": "0.0-2.2-0.2-0.2"}}], "questiondata": {"params": {"CODE": "C6DMOQA6", "MIN_TIME": 14, "inspectCost": 1, "startTime": "Fri Sep 01 2023 16:03:46 GMT+0100 (British Summer Time)", "bonusRate": 0.002, "variance": "1_2_4_8_44", "branching": "31123"}}, "eventdata": [{"eventtype": "initialized", "value": null, "timestamp": 1693580625763, "interval": 0}, {"eventtype": "window_resize", "value": [1032, 786], "timestamp": 1693580625764, "interval": 1}, {"eventtype": "window_resize", "value": [1032, 786], "timestamp": 1693580626081, "interval": 317}, {"eventtype": "window_resize", "value": [2560, 1440], "timestamp": 1693580629020, "interval": 2939}, {"eventtype": "focus", "value": "off", "timestamp": 1693580951253, "interval": 322233}, {"eventtype": "focus", "value": "on", "timestamp": 1693580951253, "interval": 0}, {"eventtype": "window_resize", "value": [1032, 786], "timestamp": 1693580951471, "interval": 218}, {"eventtype": "window_resize", "value": [2560, 1440], "timestamp": 1693580952462, "interval": 991}, {"eventtype": "focus", "value": "off", "timestamp": 1693581011149, "interval": 58687}, {"eventtype": "focus", "value": "on", "timestamp": 1693581011149, "interval": 0}, {"eventtype": "window_resize", "value": [1032, 786], "timestamp": 1693581011379, "interval": 230}, {"eventtype": "window_resize", "value": [2560, 1440], "timestamp": 1693581012303, "interval": 924}, {"eventtype": "window_resize", "value": [1032, 786], "timestamp": 1693581035110, "interval": 22807}], "useragent": "Mozilla/5.0 (Windows NT 10.0; Win64; x64) AppleWebKit/537.36 (KHTML, like Gecko) Chrome/116.0.0.0 Safari/537.36", "mode": "live", "id": "w77642613:a78959170", "status": "user data saved", "Beginhit": "2023-09-01 15:03:43.29778", "Beginexp": "2023-09-01 15:03:48.571773", "Endhit": null, "psiturkStatus": 6, "browser": "<redacted>", "platform": "windows", "language": "en-GB", "excludeReason": "quizfail"}