{"condition": 0, "counterbalance": 0, "assignmentId": "a93302349", "workerId": "w16626207", "hitId": "h38399312", "currenttrial": 14, "bonus": 0, "data": [{"uniqueid": "w16626207:a93302349", "current_trial": 0, "dateTime": 1691159078284, "trialdata": {"success": true, "trial_type": "fullscreen", "trial_index": 0, "time_elapsed": 17886, "internal_node_id": "0.0-0.0"}}, {"uniqueid": "w16626207:a93302349", "current_trial": 1, "dateTime": 1691159102805, "trialdata": {"view_history": [{"page_index": 0, "viewing_time": 24495}], "rt": 24496, "trial_id": "exp_instructions_control", "trial_type": "instructions", "trial_index": 1, "time_elapsed": 42408, "internal_node_id": "0.0-1.0"}}, {"uniqueid": "w16626207:a93302349", "current_trial": 2, "dateTime": 1691159106868, "trialdata": {"success": true, "trial_type": "fullscreen", "trial_index": 2, "time_elapsed": 46471, "internal_node_id": "0.0-2.0-0.0"}}, {"uniqueid": "w16626207:a93302349", "current_trial": 3, "dateTime": 1691159322051, "trialdata": {"view_history": [{"page_index": 0, "viewing_time": 79119}, {"page_index": 1, "viewing_time": 81670}, {"page_index": 2, "viewing_time": 20842}, {"page_index": 3, "viewing_time": 33536}], "rt": 215169, "trial_id": "mouselab_instructions_1_control", "trial_type": "instructions", "trial_index": 3, "time_elapsed": 261653, "internal_node_id": "0.0-2.0-1.0"}}, {"uniqueid": "w16626207:a93302349", "current_trial": 4, "dateTime": 1691159399993, "trialdata": {"revealed_states": [], "clicked_states": ["24", "26", "27", "2", "28", "22", "14", "19", "21"], "num_clicks_accrued": [0, 0, 0, 0, 0, 0, 0, 0, 0, 0, 0, 0, 0], "stateRewards": ["", 10, -10, 10, 10, -10, -10, -10, -10, -10, 10, -10, -10, -10, -10, 10, 10, -10, 10, -10, -10, -10, -10, -10, 10, 10, -10, -10, -10, -10, -10, -10, 10, 10], "withholdReward": false, "trial_id": "practice_1", "block": "test", "trialIndex": 0, "score": -51, "costs": -4.5, "simulationMode": [null, null, null, null, null], "rewards": [-10, -10, -10, -10, -10], "path": ["0", "0", "12", "13", "14", "19", "21"], "rt": [44166, 6885, 425, 11818, 1455], "actions": ["right", "right", "right", "down", "down"], "actionTimes": [50255, 57657, 58611, 70954, 72942], "queries": {"click": {"state": {"target": ["24", "26", "27", "2", "28", "22", "14", "19", "21"], "time": [13057, 16412, 19771, 25921, 30459, 35967, 40357, 42886, 46541]}, "edge": {"target": [], "time": []}}, "mouseover": {"state": {"target": ["1", "0", "31", "24", "26", "27", "26", "25", "0", "12", "13", "1", "2", "3", "10", "28", "23", "22", "22", "14", "19", "21"], "time": [6111, 8309, 11942, 12222, 15373, 19223, 21774, 22022, 22971, 23288, 24721, 25222, 25405, 28250, 29736, 30020, 32251, 32939, 33578, 39710, 41936, 44487]}, "edge": {"target": [], "time": []}}, "mouseout": {"state": {"target": ["0", "1", "0", "31", "24", "26", "27", "26", "25", "0", "12", "13", "1", "2", "3", "10", "28", "23", "22", "22", "14", "19", "19", "21", "13", "0", "23", "24", "23", "0", "12", "13", "14", "13", "12", "19"], "time": [4593, 7260, 8429, 12109, 14992, 18922, 21675, 21924, 22306, 23187, 24407, 24990, 25304, 27857, 29680, 29804, 30668, 32289, 33007, 39155, 41520, 43081, 44322, 48288, 61049, 61130, 61499, 62748, 62786, 62847, 62896, 63079, 64648, 64813, 68886, 74857]}, "edge": {"target": [], "time": []}}}, "displayed_time": "73.47", "trialTime": 76869, "trial_type": "mouselab-mdp", "trial_index": 4, "time_elapsed": 339594, "internal_node_id": "0.0-2.0-2.0-0.0"}}, {"uniqueid": "w16626207:a93302349", "current_trial": 5, "dateTime": 1691159443356, "trialdata": {"revealed_states": [], "clicked_states": [], "num_clicks_accrued": [0, 0, 0, 0, 0, 0, 0, 0, 0, 0, 0, 0, 0], "stateRewards": ["", -10, -10, 10, 10, 10, 10, 10, -10, -10, -10, -10, 10, -10, 10, 10, 10, 10, 10, 10, 10, -10, -10, 10, 10, 10, -10, -10, -10, 10, -10, 10, -10, -10], "withholdReward": false, "trial_id": "practice_2", "block": "test", "trialIndex": 1, "score": 33.5, "costs": 0, "simulationMode": [null, null, null, null, null], "rewards": [10, -10, 10, 10, 10], "path": ["0", "0", "12", "13", "14", "15", "16"], "rt": [263, 9057, 1197, 402, 581], "actions": ["right", "right", "right", "up", "up"], "actionTimes": [27551, 37116, 38853, 39764, 40886], "queries": {"click": {"state": {"target": [], "time": []}, "edge": {"target": [], "time": []}}, "mouseover": {"state": {"target": [], "time": []}, "edge": {"target": [], "time": []}}, "mouseout": {"state": {"target": ["0", "23", "24", "23"], "time": [29064, 29183, 35000, 35036]}, "edge": {"target": [], "time": []}}}, "displayed_time": "41.41", "trialTime": 42638, "trial_type": "mouselab-mdp", "trial_index": 5, "time_elapsed": 382957, "internal_node_id": "0.0-2.0-2.0-1.0"}}, {"uniqueid": "w16626207:a93302349", "current_trial": 6, "dateTime": 1691159468089, "trialdata": {"view_history": [{"page_index": 0, "viewing_time": 12857}, {"page_index": 1, "viewing_time": 11859}], "rt": 24720, "trial_id": "mouselab_instructions_2_control", "trial_type": "instructions", "trial_index": 6, "time_elapsed": 407692, "internal_node_id": "0.0-2.0-3.0"}}, {"uniqueid": "w16626207:a93302349", "current_trial": 7, "dateTime": 1691159512516, "trialdata": {"rt": 44382, "response": {"Q0": "The cost for clicking on nodes may vary between nodes.", "Q1": "The better I perform the higher my bonus will be.", "Q2": "No, the structure of the web will be different each time.", "Q3": "To click on the least number of nodes.", "Q4": "Any time during the round.", "Q5": "3 seconds"}, "question_order": [0, 1, 2, 3, 4, 5], "correct": {"Q0": "The cost for clicking on nodes may vary between nodes.", "Q1": "The better I perform the higher my bonus will be.", "Q2": "No, the amount of cash at each node of the web may be different each time.", "Q3": "To get the highest total score.", "Q4": "Only before moving the spider.", "Q5": "3 seconds"}, "trial_id": "mouselab_quiz_control", "trial_type": "survey-multi-choice", "trial_index": 7, "time_elapsed": 452119, "internal_node_id": "0.0-2.0-4.0"}}, {"uniqueid": "w16626207:a93302349", "current_trial": 8, "dateTime": 1691159525907, "trialdata": {"success": true, "trial_type": "fullscreen", "trial_index": 8, "time_elapsed": 465510, "internal_node_id": "0.0-2.1-0.1"}}, {"uniqueid": "w16626207:a93302349", "current_trial": 9, "dateTime": 1691159630151, "trialdata": {"view_history": [{"page_index": 0, "viewing_time": 22452}, {"page_index": 1, "viewing_time": 38235}, {"page_index": 2, "viewing_time": 16010}, {"page_index": 3, "viewing_time": 27532}], "rt": 104231, "trial_id": "mouselab_instructions_1_control", "trial_type": "instructions", "trial_index": 9, "time_elapsed": 569754, "internal_node_id": "0.0-2.1-1.1"}}, {"uniqueid": "w16626207:a93302349", "current_trial": 10, "dateTime": 1691159688217, "trialdata": {"revealed_states": [], "clicked_states": ["24", "25", "26", "27", "13", "14", "16", "1", "2", "3", "4", "5", "8", "11", "10", "7", "6", "9"], "num_clicks_accrued": [0, 0, 0, 0, 0, 0, 0, 0, 0, 0, 0, 0, 0], "stateRewards": ["", 10, -10, 10, 10, -10, -10, -10, -10, -10, 10, -10, -10, -10, -10, 10, 10, -10, 10, -10, -10, -10, -10, -10, 10, 10, -10, -10, -10, -10, -10, -10, 10, 10], "withholdReward": false, "trial_id": "practice_1", "block": "test", "trialIndex": 2, "score": -15.5, "costs": -9, "simulationMode": [null, null, null, null, null], "rewards": [-10, -10, -10, 10, 10], "path": ["0", "0", "12", "13", "14", "15", "16"], "rt": [46122, 523, 383, 429, 335], "actions": ["right", "right", "right", "up", "up"], "actionTimes": [51318, 52363, 53271, 54215, 55071], "queries": {"click": {"state": {"target": ["24", "25", "26", "27", "13", "14", "16", "1", "2", "3", "4", "5", "8", "11", "10", "7", "6", "9"], "time": [7982, 9826, 10875, 12070, 13983, 15064, 17210, 20838, 22176, 23759, 25221, 27109, 35322, 36882, 38926, 40698, 43304, 44733]}, "edge": {"target": [], "time": []}}, "mouseover": {"state": {"target": ["0", "23", "24", "25", "26", "25", "26", "27", "28", "23", "13", "14", "15", "16", "15", "1", "2", "1", "2", "3", "4", "5", "7", "13", "23", "0", "23", "1", "8", "11", "10", "3", "4", "7", "4", "6", "4", "3", "9", "2", "12", "0"], "time": [6018, 7276, 7456, 8502, 8855, 9483, 10366, 11658, 12529, 12604, 13523, 14678, 15459, 16808, 17783, 19555, 19963, 20205, 21568, 23142, 24758, 26388, 28472, 28637, 30974, 31421, 33271, 33953, 34838, 36370, 38470, 39864, 39930, 40239, 42303, 42806, 43858, 43922, 44239, 45189, 45272, 49866]}, "edge": {"target": [], "time": []}}, "mouseout": {"state": {"target": ["0", "0", "23", "24", "25", "26", "25", "26", "27", "28", "23", "13", "14", "15", "16", "15", "1", "2", "1", "2", "3", "4", "5", "5", "4", "7", "13", "23", "0", "23", "1", "8", "11", "8", "10", "3", "4", "7", "4", "6", "4", "3", "9", "2", "12", "0"], "time": [4119, 6058, 7340, 8478, 8718, 9306, 10024, 11365, 12505, 12568, 12627, 14512, 15278, 16399, 17743, 17808, 19679, 20085, 21444, 22927, 24650, 25404, 27301, 28352, 28437, 28522, 29606, 31205, 31807, 33737, 34053, 36187, 38106, 38321, 39106, 39890, 40170, 40886, 42422, 43502, 43898, 43961, 45124, 45214, 45294, 50082]}, "edge": {"target": [], "time": []}}}, "displayed_time": "55.61", "trialTime": 57382, "trial_type": "mouselab-mdp", "trial_index": 10, "time_elapsed": 627818, "internal_node_id": "0.0-2.1-2.1-0.1"}}, {"uniqueid": "w16626207:a93302349", "current_trial": 11, "dateTime": 1691159718294, "trialdata": {"revealed_states": [], "clicked_states": ["24", "25", "26", "27", "30", "31", "23"], "num_clicks_accrued": [0, 0, 0, 0, 0, 0, 0, 0, 0, 0, 0, 0, 0], "stateRewards": ["", -10, -10, 10, 10, 10, 10, 10, -10, -10, -10, -10, 10, -10, 10, 10, 10, 10, 10, 10, 10, -10, -10, 10, 10, 10, -10, -10, -10, 10, -10, 10, -10, -10], "withholdReward": false, "trial_id": "practice_2", "block": "test", "trialIndex": 3, "score": 30, "costs": -3.5, "simulationMode": [null, null, null, null, null], "rewards": [10, 10, 10, -10, 10], "path": ["0", "0", "23", "24", "25", "30", "31"], "rt": [19155, 324, 251, 520, 714], "actions": ["left", "left", "left", "down", "right"], "actionTimes": [21628, 22469, 23245, 24281, 25549], "queries": {"click": {"state": {"target": ["24", "25", "26", "27", "30", "31", "23"], "time": [4658, 5972, 8204, 10504, 12961, 15471, 19236]}, "edge": {"target": [], "time": []}}, "mouseover": {"state": {"target": ["0", "23", "24", "25", "26", "27", "25", "30", "31", "23", "0", "23"], "time": [3323, 3974, 4207, 5477, 7690, 9406, 12123, 12488, 14950, 17138, 17526, 18804]}, "edge": {"target": [], "time": []}}, "mouseout": {"state": {"target": ["0", "19", "22", "12", "0", "23", "24", "25", "26", "27", "26", "25", "30", "31", "23", "0", "23", "0", "23"], "time": [55, 589, 657, 1421, 3517, 4107, 5367, 6164, 8994, 11706, 12039, 12323, 14455, 16856, 17221, 18723, 20274, 27106, 27271]}, "edge": {"target": [], "time": []}}}, "displayed_time": "26.08", "trialTime": 29317, "trial_type": "mouselab-mdp", "trial_index": 11, "time_elapsed": 657895, "internal_node_id": "0.0-2.1-2.1-1.1"}}, {"uniqueid": "w16626207:a93302349", "current_trial": 12, "dateTime": 1691159728378, "trialdata": {"view_history": [{"page_index": 0, "viewing_time": 8198}, {"page_index": 1, "viewing_time": 1869}], "rt": 10069, "trial_id": "mouselab_instructions_2_control", "trial_type": "instructions", "trial_index": 12, "time_elapsed": 667981, "internal_node_id": "0.0-2.1-3.1"}}, {"uniqueid": "w16626207:a93302349", "current_trial": 13, "dateTime": 1691159764171, "trialdata": {"rt": 35776, "response": {"Q0": "The cost for clicking on nodes may vary between nodes.", "Q1": "The better I perform the higher my bonus will be.", "Q2": "No, the amount of cash at each node of the web may be different each time.", "Q3": "To click on the least number of nodes.", "Q4": "Only before moving the spider.", "Q5": "3 seconds"}, "question_order": [0, 1, 2, 3, 4, 5], "correct": {"Q0": "The cost for clicking on nodes may vary between nodes.", "Q1": "The better I perform the higher my bonus will be.", "Q2": "No, the amount of cash at each node of the web may be different each time.", "Q3": "To get the highest total score.", "Q4": "Only before moving the spider.", "Q5": "3 seconds"}, "trial_id": "mouselab_quiz_control", "trial_type": "survey-multi-choice", "trial_index": 13, "time_elapsed": 703774, "internal_node_id": "0.0-2.1-4.1"}}], "questiondata": {"params": {"CODE": "C6DMOQA6", "MIN_TIME": 14, "inspectCost": 1, "startTime": "Fri Aug 04 2023 16:24:18 GMT+0200 (South Africa Standard Time)", "bonusRate": 0.002, "variance": "1_2_4_8_44", "branching": "31123"}}, "eventdata": [{"eventtype": "initialized", "value": null, "timestamp": 1691159058333, "interval": 0}, {"eventtype": "window_resize", "value": [1032, 600], "timestamp": 1691159058333, "interval": 0}, {"eventtype": "window_resize", "value": [1032, 600], "timestamp": 1691159058832, "interval": 499}, {"eventtype": "window_resize", "value": [1280, 720], "timestamp": 1691159077510, "interval": 18678}, {"eventtype": "focus", "value": "off", "timestamp": 1691159519355, "interval": 441845}, {"eventtype": "focus", "value": "on", "timestamp": 1691159519356, "interval": 1}, {"eventtype": "window_resize", "value": [1032, 600], "timestamp": 1691159519624, "interval": 268}, {"eventtype": "window_resize", "value": [1280, 720], "timestamp": 1691159525228, "interval": 5604}, {"eventtype": "focus", "value": "off", "timestamp": 1691159770019, "interval": 244791}, {"eventtype": "focus", "value": "on", "timestamp": 1691159770020, "interval": 1}, {"eventtype": "window_resize", "value": [1032, 600], "timestamp": 1691159770264, "interval": 244}], "useragent": "Mozilla/5.0 (Windows NT 10.0; Win64; x64) AppleWebKit/537.36 (KHTML, like Gecko) Chrome/115.0.0.0 Safari/537.36", "mode": "live", "id": "w16626207:a93302349", "status": "user data saved", "Beginhit": "2023-08-04 14:24:16.05307", "Beginexp": "2023-08-04 14:24:39.782109", "Endhit": null, "psiturkStatus": 6, "browser": "<redacted>", "platform": "windows", "language": "en-ZA", "excludeReason": "quizfail"}