{"condition": 0, "counterbalance": 0, "assignmentId": "a55941263", "workerId": "w18885932", "hitId": "h10760636", "currenttrial": 14, "bonus": 0, "data": [{"uniqueid": "w18885932:a55941263", "current_trial": 0, "dateTime": 1691142338546, "trialdata": {"success": true, "trial_type": "fullscreen", "trial_index": 0, "time_elapsed": 10778, "internal_node_id": "0.0-0.0"}}, {"uniqueid": "w18885932:a55941263", "current_trial": 1, "dateTime": 1691142374097, "trialdata": {"view_history": [{"page_index": 0, "viewing_time": 35529}], "rt": 35534, "trial_id": "exp_instructions_control", "trial_type": "instructions", "trial_index": 1, "time_elapsed": 46333, "internal_node_id": "0.0-1.0"}}, {"uniqueid": "w18885932:a55941263", "current_trial": 2, "dateTime": 1691142552995, "trialdata": {"success": true, "trial_type": "fullscreen", "trial_index": 2, "time_elapsed": 225230, "internal_node_id": "0.0-2.0-0.0"}}, {"uniqueid": "w18885932:a55941263", "current_trial": 3, "dateTime": 1691142908798, "trialdata": {"view_history": [{"page_index": 0, "viewing_time": 297509}, {"page_index": 1, "viewing_time": 16470}, {"page_index": 2, "viewing_time": 15858}, {"page_index": 3, "viewing_time": 25952}], "rt": 355791, "trial_id": "mouselab_instructions_1_control", "trial_type": "instructions", "trial_index": 3, "time_elapsed": 581034, "internal_node_id": "0.0-2.0-1.0"}}, {"uniqueid": "w18885932:a55941263", "current_trial": 4, "dateTime": 1691142933255, "trialdata": {"revealed_states": [], "clicked_states": [], "num_clicks_accrued": [0, 0, 0, 0, 0, 0, 0, 0, 0, 0, 0, 0, 0], "stateRewards": ["", -10, -10, 10, -10, -10, 10, 10, -10, -10, 10, 10, 10, 10, -10, 10, -10, 10, -10, -10, 10, -10, 10, 10, -10, -10, 10, 10, 10, 10, 10, 10, 10, -10], "withholdReward": false, "trial_id": "practice_1", "block": "test", "trialIndex": 0, "score": -6.5, "costs": 0, "simulationMode": [null, null, null, null, null], "rewards": [10, 10, -10, -10, -10], "path": ["0", "0", "12", "13", "14", "19", "21"], "rt": [1365, 852, 619, 864, 2765], "actions": ["right", "right", "right", "down", "down"], "actionTimes": [9308, 10710, 11877, 13283, 16599], "queries": {"click": {"state": {"target": [], "time": []}, "edge": {"target": [], "time": []}}, "mouseover": {"state": {"target": [], "time": []}, "edge": {"target": [], "time": []}}, "mouseout": {"state": {"target": ["2", "2", "0", "0"], "time": [128, 480, 5242, 6049]}, "edge": {"target": [], "time": []}}}, "displayed_time": "17.17", "trialTime": 21889, "trial_type": "mouselab-mdp", "trial_index": 4, "time_elapsed": 605489, "internal_node_id": "0.0-2.0-2.0-0.0"}}, {"uniqueid": "w18885932:a55941263", "current_trial": 5, "dateTime": 1691142970417, "trialdata": {"revealed_states": [], "clicked_states": [], "num_clicks_accrued": [0, 0, 0, 0, 0, 0, 0, 0, 0, 0, 0, 0, 0], "stateRewards": ["", -10, -10, -10, -10, 10, 10, 10, 10, 10, 10, 10, -10, 10, 10, 10, -10, -10, 10, 10, 10, -10, -10, -10, -10, -10, 10, 10, 10, -10, 10, 10, -10, 10], "withholdReward": false, "trial_id": "practice_2", "block": "test", "trialIndex": 1, "score": -26.5, "costs": 0, "simulationMode": [null, null, null, null, null], "rewards": [-10, -10, -10, -10, 10], "path": ["0", "0", "1", "2", "3", "4", "6"], "rt": [5892, 585, 749, 633, 271], "actions": ["up", "up", "up", "right", "right"], "actionTimes": [27053, 28174, 29484, 30677, 31494], "queries": {"click": {"state": {"target": [], "time": []}, "edge": {"target": [], "time": []}}, "mouseover": {"state": {"target": [], "time": []}, "edge": {"target": [], "time": []}}, "mouseout": {"state": {"target": ["0", "1", "0"], "time": [18330, 18859, 19343]}, "edge": {"target": [], "time": []}}}, "displayed_time": "32.04", "trialTime": 35931, "trial_type": "mouselab-mdp", "trial_index": 5, "time_elapsed": 642651, "internal_node_id": "0.0-2.0-2.0-1.0"}}, {"uniqueid": "w18885932:a55941263", "current_trial": 6, "dateTime": 1691143119993, "trialdata": {"view_history": [{"page_index": 0, "viewing_time": 137217}, {"page_index": 1, "viewing_time": 12342}], "rt": 149561, "trial_id": "mouselab_instructions_2_control", "trial_type": "instructions", "trial_index": 6, "time_elapsed": 792228, "internal_node_id": "0.0-2.0-3.0"}}, {"uniqueid": "w18885932:a55941263", "current_trial": 7, "dateTime": 1691143189547, "trialdata": {"rt": 69531, "response": {"Q0": "There is no cost for clicking on nodes.", "Q1": "The better I perform the higher my bonus will be.", "Q2": "No, the structure of the web will be different each time.", "Q3": "To click on the least number of nodes.", "Q4": "Any time during the round.", "Q5": "Unlimited time"}, "question_order": [0, 1, 2, 3, 4, 5], "correct": {"Q0": "The cost for clicking on nodes may vary between nodes.", "Q1": "The better I perform the higher my bonus will be.", "Q2": "No, the amount of cash at each node of the web may be different each time.", "Q3": "To get the highest total score.", "Q4": "Only before moving the spider.", "Q5": "3 seconds"}, "trial_id": "mouselab_quiz_control", "trial_type": "survey-multi-choice", "trial_index": 7, "time_elapsed": 861783, "internal_node_id": "0.0-2.0-4.0"}}, {"uniqueid": "w18885932:a55941263", "current_trial": 8, "dateTime": 1691143199002, "trialdata": {"success": true, "trial_type": "fullscreen", "trial_index": 8, "time_elapsed": 871238, "internal_node_id": "0.0-2.1-0.1"}}, {"uniqueid": "w18885932:a55941263", "current_trial": 9, "dateTime": 1691143374880, "trialdata": {"view_history": [{"page_index": 0, "viewing_time": 94522}, {"page_index": 1, "viewing_time": 39860}, {"page_index": 2, "viewing_time": 19484}, {"page_index": 3, "viewing_time": 21990}], "rt": 175862, "trial_id": "mouselab_instructions_1_control", "trial_type": "instructions", "trial_index": 9, "time_elapsed": 1047115, "internal_node_id": "0.0-2.1-1.1"}}, {"uniqueid": "w18885932:a55941263", "current_trial": 10, "dateTime": 1691143396577, "trialdata": {"revealed_states": [], "clicked_states": [], "num_clicks_accrued": [0, 0, 0, 0, 0, 0, 0, 0, 0, 0, 0, 0, 0], "stateRewards": ["", -10, -10, 10, -10, -10, 10, 10, -10, -10, 10, 10, 10, 10, -10, 10, -10, 10, -10, -10, 10, -10, 10, 10, -10, -10, 10, 10, 10, 10, 10, 10, 10, -10], "withholdReward": false, "trial_id": "practice_1", "block": "test", "trialIndex": 2, "score": 13.5, "costs": 0, "simulationMode": [null, null, null, null, null], "rewards": [10, 10, -10, 10, -10], "path": ["0", "0", "12", "13", "14", "15", "16"], "rt": [4507, 825, 325, 699, 259], "actions": ["right", "right", "right", "up", "up"], "actionTimes": [7884, 9257, 10122, 11383, 12192], "queries": {"click": {"state": {"target": [], "time": []}, "edge": {"target": [], "time": []}}, "mouseover": {"state": {"target": [], "time": []}, "edge": {"target": [], "time": []}}, "mouseout": {"state": {"target": ["0"], "time": [16070]}, "edge": {"target": [], "time": []}}}, "displayed_time": "12.73", "trialTime": 20184, "trial_type": "mouselab-mdp", "trial_index": 10, "time_elapsed": 1068811, "internal_node_id": "0.0-2.1-2.1-0.1"}}, {"uniqueid": "w18885932:a55941263", "current_trial": 11, "dateTime": 1691143714220, "trialdata": {"revealed_states": [], "clicked_states": [], "num_clicks_accrued": [0, 0, 0, 0, 0, 0, 0, 0, 0, 0, 0, 0, 0], "stateRewards": ["", -10, -10, -10, -10, 10, 10, 10, 10, 10, 10, 10, -10, 10, 10, 10, -10, -10, 10, 10, 10, -10, -10, -10, -10, -10, 10, 10, 10, -10, 10, 10, -10, 10], "withholdReward": false, "trial_id": "practice_2", "block": "test", "trialIndex": 3, "score": -6.5, "costs": 0, "simulationMode": [null, null, null, null, null], "rewards": [-10, -10, -10, 10, 10], "path": ["0", "0", "23", "24", "25", "26", "27"], "rt": [171834, 132087, 375, 668, 669], "actions": ["left", "left", "left", "up", "up"], "actionTimes": [176796, 309421, 310323, 311556, 312802], "queries": {"click": {"state": {"target": [], "time": []}, "edge": {"target": [], "time": []}}, "mouseover": {"state": {"target": [], "time": []}, "edge": {"target": [], "time": []}}, "mouseout": {"state": {"target": ["23", "1", "0"], "time": [2188, 2621, 3112]}, "edge": {"target": [], "time": []}}}, "displayed_time": "313.38", "trialTime": 315946, "trial_type": "mouselab-mdp", "trial_index": 11, "time_elapsed": 1386455, "internal_node_id": "0.0-2.1-2.1-1.1"}}, {"uniqueid": "w18885932:a55941263", "current_trial": 12, "dateTime": 1691143763874, "trialdata": {"view_history": [{"page_index": 0, "viewing_time": 20520}, {"page_index": 1, "viewing_time": 29118}], "rt": 49641, "trial_id": "mouselab_instructions_2_control", "trial_type": "instructions", "trial_index": 12, "time_elapsed": 1436109, "internal_node_id": "0.0-2.1-3.1"}}, {"uniqueid": "w18885932:a55941263", "current_trial": 13, "dateTime": 1691143862300, "trialdata": {"rt": 98410, "response": {"Q0": "The cost for clicking on nodes may vary between nodes.", "Q1": "The better I perform the higher my bonus will be.", "Q2": "No, the amount of cash at each node of the web may be different each time.", "Q3": "To finish the game in the shortest amount of time.", "Q4": "Only after moving the spider.", "Q5": "10 seconds"}, "question_order": [0, 1, 2, 3, 4, 5], "correct": {"Q0": "The cost for clicking on nodes may vary between nodes.", "Q1": "The better I perform the higher my bonus will be.", "Q2": "No, the amount of cash at each node of the web may be different each time.", "Q3": "To get the highest total score.", "Q4": "Only before moving the spider.", "Q5": "3 seconds"}, "trial_id": "mouselab_quiz_control", "trial_type": "survey-multi-choice", "trial_index": 13, "time_elapsed": 1534536, "internal_node_id": "0.0-2.1-4.1"}}], "questiondata": {"params": {"CODE": "C6DMOQA6", "MIN_TIME": 14, "inspectCost": 1, "startTime": "Fri Aug 04 2023 11:45:24 GMT+0200 (South Africa Standard Time)", "bonusRate": 0.002, "variance": "1_2_4_8_44", "branching": "31123"}}, "eventdata": [{"eventtype": "initialized", "value": null, "timestamp": 1691142323781, "interval": 0}, {"eventtype": "window_resize", "value": [1024, 649], "timestamp": 1691142323781, "interval": 0}, {"eventtype": "window_resize", "value": [1024, 649], "timestamp": 1691142324403, "interval": 622}, {"eventtype": "window_resize", "value": [1366, 768], "timestamp": 1691142337794, "interval": 13391}, {"eventtype": "focus", "value": "off", "timestamp": 1691143193928, "interval": 856134}, {"eventtype": "focus", "value": "on", "timestamp": 1691143193929, "interval": 1}, {"eventtype": "window_resize", "value": [1024, 649], "timestamp": 1691143194157, "interval": 228}, {"eventtype": "window_resize", "value": [1366, 768], "timestamp": 1691143198252, "interval": 4095}, {"eventtype": "focus", "value": "off", "timestamp": 1691143870167, "interval": 671915}, {"eventtype": "focus", "value": "on", "timestamp": 1691143870168, "interval": 1}, {"eventtype": "window_resize", "value": [1024, 649], "timestamp": 1691143870407, "interval": 239}], "useragent": "Mozilla/5.0 (X11; CrOS x86_64 14816.131.0) AppleWebKit/537.36 (KHTML, like Gecko) Chrome/103.0.0.0 Safari/537.36", "mode": "live", "id": "w18885932:a55941263", "status": "user data saved", "Beginhit": "2023-08-04 09:45:18.317152", "Beginexp": "2023-08-04 09:45:39.980288", "Endhit": null, "psiturkStatus": 6, "browser": "<redacted>", "platform": "chromeos", "language": "en-GB", "excludeReason": "quizfail"}