{"condition": 0, "counterbalance": 0, "assignmentId": "a41743056", "workerId": "w93809484", "hitId": "h66268863", "currenttrial": 55, "bonus": 0, "data": [{"uniqueid": "w93809484:a41743056", "current_trial": 0, "dateTime": 1693481078727, "trialdata": {"success": true, "trial_type": "fullscreen", "trial_index": 0, "time_elapsed": 15233, "internal_node_id": "0.0-0.0"}}, {"uniqueid": "w93809484:a41743056", "current_trial": 1, "dateTime": 1693481107359, "trialdata": {"view_history": [{"page_index": 0, "viewing_time": 28615}], "rt": 28617, "trial_id": "exp_instructions_control", "trial_type": "instructions", "trial_index": 1, "time_elapsed": 43867, "internal_node_id": "0.0-1.0"}}, {"uniqueid": "w93809484:a41743056", "current_trial": 2, "dateTime": 1693481316068, "trialdata": {"view_history": [{"page_index": 0, "viewing_time": 73645}, {"page_index": 1, "viewing_time": 67909}, {"page_index": 2, "viewing_time": 27355}, {"page_index": 3, "viewing_time": 39795}], "rt": 208706, "trial_id": "mouselab_instructions_1_control", "trial_type": "instructions", "trial_index": 2, "time_elapsed": 252576, "internal_node_id": "0.0-2.0-1.0"}}, {"uniqueid": "w93809484:a41743056", "current_trial": 3, "dateTime": 1693481349627, "trialdata": {"revealed_states": [], "clicked_states": [], "num_clicks_accrued": [0, 0, 0, 0, 0, 0, 0, 0, 0, 0, 0, 0, 0], "stateRewards": ["", -10, -10, -10, 10, -10, 10, 10, 10, 10, -10, -10, 10, 10, -10, 10, -10, -10, -10, -10, 10, -10, -10, 10, 10, 10, 10, 10, -10, -10, 10, 10, -10, -10], "withholdReward": false, "trial_id": "practice_1", "block": "test", "trialIndex": 0, "score": -6.5, "costs": 0, "simulationMode": [null, null, null, null, null], "rewards": [-10, -10, -10, 10, 10], "path": ["0", "0", "1", "2", "3", "4", "7"], "rt": [2890, 202, 525, 1044, 6488], "actions": ["up", "up", "up", "right", "down"], "actionTimes": [11784, 12493, 13550, 16143, 23139], "queries": {"click": {"state": {"target": [], "time": []}, "edge": {"target": [], "time": []}}, "mouseover": {"state": {"target": [], "time": []}, "edge": {"target": [], "time": []}}, "mouseout": {"state": {"target": ["0", "0", "0", "1", "12", "22"], "time": [7078, 21136, 21337, 22023, 31016, 31099]}, "edge": {"target": [], "time": []}}}, "displayed_time": "23.65", "trialTime": 31960, "trial_type": "mouselab-mdp", "trial_index": 3, "time_elapsed": 286133, "internal_node_id": "0.0-2.0-2.0-0.0"}}, {"uniqueid": "w93809484:a41743056", "current_trial": 4, "dateTime": 1693481386476, "trialdata": {"revealed_states": [], "clicked_states": [], "num_clicks_accrued": [0, 0, 0, 0, 0, 0, 0, 0, 0, 0, 0, 0, 0], "stateRewards": ["", -10, -10, -10, 10, 10, -10, -10, -10, 10, 10, -10, -10, -10, -10, 10, 10, -10, -10, -10, -10, -10, 10, 10, -10, -10, 10, 10, 10, -10, -10, 10, -10, 10], "withholdReward": false, "trial_id": "practice_2", "block": "test", "trialIndex": 1, "score": -26.5, "costs": 0, "simulationMode": [null, null, null, null, null], "rewards": [10, -10, -10, -10, -10], "path": ["0", "0", "23", "24", "25", "30", "32"], "rt": [10716, 2215, 1666, 8711, 1644], "actions": ["left", "left", "left", "down", "down"], "actionTimes": [14953, 17685, 19870, 29102, 31269], "queries": {"click": {"state": {"target": [], "time": []}, "edge": {"target": [], "time": []}}, "mouseover": {"state": {"target": [], "time": []}, "edge": {"target": [], "time": []}}, "mouseout": {"state": {"target": ["0", "0", "28", "25", "31"], "time": [3261, 27220, 27504, 28389, 28490]}, "edge": {"target": [], "time": []}}}, "displayed_time": "31.81", "trialTime": 36141, "trial_type": "mouselab-mdp", "trial_index": 4, "time_elapsed": 322982, "internal_node_id": "0.0-2.0-2.0-1.0"}}, {"uniqueid": "w93809484:a41743056", "current_trial": 5, "dateTime": 1693481451653, "trialdata": {"view_history": [{"page_index": 0, "viewing_time": 37843}, {"page_index": 1, "viewing_time": 27320}], "rt": 65164, "trial_id": "mouselab_instructions_2_control", "trial_type": "instructions", "trial_index": 5, "time_elapsed": 388161, "internal_node_id": "0.0-2.0-3.0"}}, {"uniqueid": "w93809484:a41743056", "current_trial": 6, "dateTime": 1693481578860, "trialdata": {"rt": 127070, "response": {"Q0": "The cost for clicking on nodes may vary between nodes.", "Q1": "The better I perform the higher my bonus will be.", "Q2": "No, the amount of cash at each node of the web may be different each time.", "Q3": "To get the highest total score.", "Q4": "Only before moving the spider.", "Q5": "3 seconds"}, "question_order": [0, 1, 2, 3, 4, 5], "correct": {"Q0": "The cost for clicking on nodes may vary between nodes.", "Q1": "The better I perform the higher my bonus will be.", "Q2": "No, the amount of cash at each node of the web may be different each time.", "Q3": "To get the highest total score.", "Q4": "Only before moving the spider.", "Q5": "3 seconds"}, "trial_id": "mouselab_quiz_control", "trial_type": "survey-multi-choice", "trial_index": 6, "time_elapsed": 515368, "internal_node_id": "0.0-2.0-4.0"}}, {"uniqueid": "w93809484:a41743056", "current_trial": 7, "dateTime": 1693481586967, "trialdata": {"rt": 8090, "response": {"Q0": "No"}, "question_order": [0], "trial_id": "repeat_check", "trial_type": "survey-multi-choice", "trial_index": 7, "time_elapsed": 523474, "internal_node_id": "0.0-4.0-0.0"}}, {"uniqueid": "w93809484:a41743056", "current_trial": 8, "dateTime": 1693481605987, "trialdata": {"rt": 19009, "stimulus": "\n<h1> Get ready to start the game! </h1>\n\nThank you for reading the instructions. Get ready start with the 40 rounds of this game.\n<br><br>\nIf you need to take a break, feel free to take one after the end of a round, before continuing to the next one.\n<br><br>\nRemember, the more money the spider gets, the bigger your bonus will be!\n<br><br>\n<div style='text-align: center;'>Press <code>space</code> to begin.</div>\n\n<br><br>\n(If, at any point, the <code>space</code> key does not take you to the next page, click once on the text and try again.)", "response": " ", "trial_id": "mdp_ready", "trial_type": "html-keyboard-response", "trial_index": 8, "time_elapsed": 542495, "internal_node_id": "0.0-6.0-0.0"}}, {"uniqueid": "w93809484:a41743056", "current_trial": 9, "dateTime": 1693481633794, "trialdata": {"revealed_states": [], "clicked_states": [], "num_clicks_accrued": [0, 0, 0, 0, 0, 0, 0, 0, 0, 0, 0, 0, 0], "stateRewards": ["", 1, 1, 1, -3, -7, -1, -41, -10, 20, -72, -63, 1, -4, -2, 2, -66, 30, -84, -2, 49, 23, 71, -1, -4, 4, -12, 67, 5, 18, -16, 88, 56, -5], "withholdReward": false, "trial_id": "mdp_trial_1", "block": "test", "trialIndex": 2, "score": -41, "costs": 0, "simulationMode": [null, null, null, null, null], "rewards": [1, 1, 1, -3, -41], "path": ["0", "0", "1", "2", "3", "4", "7"], "rt": [7195, 489, 315, 3041, 7390], "actions": ["up", "up", "up", "right", "down"], "actionTimes": [11741, 12752, 13602, 17160, 25069], "queries": {"click": {"state": {"target": [], "time": []}, "edge": {"target": [], "time": []}}, "mouseover": {"state": {"target": [], "time": []}, "edge": {"target": [], "time": []}}, "mouseout": {"state": {"target": ["1", "0", "31", "28", "10"], "time": [3155, 20291, 20525, 20644, 20694]}, "edge": {"target": [], "time": []}}}, "displayed_time": "25.59", "trialTime": 27118, "trial_type": "mouselab-mdp", "trial_index": 9, "time_elapsed": 570300, "internal_node_id": "0.0-6.0-1.0-0.0"}}, {"uniqueid": "w93809484:a41743056", "current_trial": 10, "dateTime": 1693481657464, "trialdata": {"revealed_states": [], "clicked_states": ["7", "8"], "num_clicks_accrued": [0, 0, 0, 0, 0, 0, 0, 0, 0, 0, 0, 0, 0], "stateRewards": ["", -1, 2, -7, -12, -62, 12, -13, 5, 77, -71, 83, 1, -4, 7, 15, -42, -87, -4, 5, -25, 44, 88, -1, 4, -5, -8, 14, 51, 8, -5, 83, -24, -19], "withholdReward": false, "trial_id": "mdp_trial_2", "block": "test", "trialIndex": 3, "score": -74.8, "costs": -2.8, "simulationMode": [null, null, null, null, null], "rewards": [-1, 2, -7, 5, -71], "path": ["0", "0", "1", "2", "3", "8", "10"], "rt": [5508, 115, 104, 961, 8765], "actions": ["up", "up", "up", "left", "down"], "actionTimes": [8195, 8834, 9448, 10928, 20215], "queries": {"click": {"state": {"target": ["7", "8"], "time": [4219, 5790]}, "edge": {"target": [], "time": []}}, "mouseover": {"state": {"target": ["1", "7", "4", "3", "8", "10"], "time": [2920, 3265, 4790, 4870, 5198, 6483]}, "edge": {"target": [], "time": []}}, "mouseout": {"state": {"target": ["4", "3", "2", "1", "1", "7", "4", "3", "8", "10", "2", "7", "17", "15", "18"], "time": [988, 1056, 1089, 1455, 3147, 4246, 4831, 4916, 6458, 14781, 14832, 14853, 17625, 17991, 18059]}, "edge": {"target": [], "time": []}}}, "displayed_time": "20.73", "trialTime": 22912, "trial_type": "mouselab-mdp", "trial_index": 10, "time_elapsed": 593971, "internal_node_id": "0.0-6.0-1.0-1.0"}}, {"uniqueid": "w93809484:a41743056", "current_trial": 11, "dateTime": 1693481691702, "trialdata": {"revealed_states": [], "clicked_states": ["1", "13", "23", "33", "32", "31"], "num_clicks_accrued": [0, 0, 0, 0, 0, 0, 0, 0, 0, 0, 0, 0, 0], "stateRewards": ["", 2, 4, -5, 7, 81, 35, 6, 11, 14, -72, 42, -1, 2, 3, -7, -77, -44, -40, -15, -85, 51, -32, -2, -1, -5, 7, -74, 47, 52, 16, -49, 48, -46], "withholdReward": false, "trial_id": "mdp_trial_3", "block": "test", "trialIndex": 4, "score": 47.6, "costs": -8.4, "simulationMode": [null, null, null, null, null], "rewards": [-2, -1, -5, 16, 48], "path": ["0", "0", "23", "24", "25", "30", "32"], "rt": [20569, 79, 17, 918, 3], "actions": ["left", "left", "left", "down", "down"], "actionTimes": [25763, 26354, 26905, 28344, 28874], "queries": {"click": {"state": {"target": ["1", "13", "23", "33", "32", "31"], "time": [6778, 10615, 12246, 14001, 16333, 18108]}, "edge": {"target": [], "time": []}}, "mouseover": {"state": {"target": ["1", "15", "13", "12", "23", "24", "25", "33", "30", "32", "31", "31"], "time": [6052, 7653, 9962, 11457, 11642, 12747, 12792, 13527, 15626, 15847, 17389, 17676]}, "edge": {"target": [], "time": []}}, "mouseout": {"state": {"target": ["2", "16", "0", "0", "1", "15", "13", "12", "23", "24", "25", "33", "30", "32", "31", "31", "31", "32", "14"], "time": [397, 481, 3423, 5830, 7193, 9846, 11427, 11519, 12723, 12785, 12813, 14123, 15813, 17334, 17430, 18225, 20194, 20276, 31125]}, "edge": {"target": [], "time": []}}}, "displayed_time": "29.40", "trialTime": 33390, "trial_type": "mouselab-mdp", "trial_index": 11, "time_elapsed": 628209, "internal_node_id": "0.0-6.0-1.0-2.0"}}, {"uniqueid": "w93809484:a41743056", "current_trial": 12, "dateTime": 1693481714835, "trialdata": {"revealed_states": [], "clicked_states": ["17", "16", "20"], "num_clicks_accrued": [0, 0, 0, 0, 0, 0, 0, 0, 0, 0, 0, 0, 0], "stateRewards": ["", -2, -3, -3, 9, 79, 67, 22, -15, -56, 27, -85, -2, 4, -4, -15, -20, -32, 60, 15, 71, 57, 17, 1, 2, -8, 15, -37, -81, 82, 15, 21, -3, 2], "withholdReward": false, "trial_id": "mdp_trial_4", "block": "test", "trialIndex": 5, "score": 79.8, "costs": -4.199999999999999, "simulationMode": [null, null, null, null, null], "rewards": [-2, 4, -4, 15, 71], "path": ["0", "0", "12", "13", "14", "19", "20"], "rt": [13417, 3, 73, 679, 330], "actions": ["right", "right", "right", "down", "right"], "actionTimes": [16482, 17008, 17614, 18812, 19658], "queries": {"click": {"state": {"target": ["17", "16", "20"], "time": [4975, 9238, 11334]}, "edge": {"target": [], "time": []}}, "mouseover": {"state": {"target": ["18", "17", "16", "16", "15", "14", "20", "19", "21", "19", "22"], "time": [4039, 4435, 6369, 7317, 9818, 10513, 10692, 11997, 13316, 13837, 13904]}, "edge": {"target": [], "time": []}}, "mouseout": {"state": {"target": ["16", "18", "17", "16", "16", "15", "14", "20", "19", "21", "19", "22"], "time": [1343, 4062, 5095, 6379, 9741, 10476, 10559, 11457, 13149, 13802, 13871, 14001]}, "edge": {"target": [], "time": []}}}, "displayed_time": "20.18", "trialTime": 22180, "trial_type": "mouselab-mdp", "trial_index": 12, "time_elapsed": 651341, "internal_node_id": "0.0-6.0-1.0-3.0"}}, {"uniqueid": "w93809484:a41743056", "current_trial": 13, "dateTime": 1693481735281, "trialdata": {"revealed_states": [], "clicked_states": [], "num_clicks_accrued": [0, 0, 0, 0, 0, 0, 0, 0, 0, 0, 0, 0, 0], "stateRewards": ["", 1, -2, 4, 7, -43, -83, -60, -5, -86, -80, 83, -1, -2, 6, 11, -15, 21, 13, 9, 29, -49, 11, -1, 4, -6, -11, 87, 40, 63, -8, -39, -11, 62], "withholdReward": false, "trial_id": "mdp_trial_5", "block": "test", "trialIndex": 6, "score": 81, "costs": 0, "simulationMode": [null, null, null, null, null], "rewards": [1, -2, 4, -5, 83], "path": ["0", "0", "1", "2", "3", "8", "11"], "rt": [9826, 124, 116, 551, 5], "actions": ["up", "up", "up", "left", "left"], "actionTimes": [13384, 14029, 14667, 15752, 16290], "queries": {"click": {"state": {"target": [], "time": []}, "edge": {"target": [], "time": []}}, "mouseover": {"state": {"target": ["28", "10", "8", "11", "11", "10", "1", "12"], "time": [5745, 5913, 6347, 7769, 11479, 12348, 12399, 12448]}, "edge": {"target": [], "time": []}}, "mouseout": {"state": {"target": ["0", "28", "10", "8", "11", "11", "10", "1", "12"], "time": [2466, 5845, 5948, 7667, 11246, 12305, 12375, 12418, 12514]}, "edge": {"target": [], "time": []}}}, "displayed_time": "17.57", "trialTime": 19557, "trial_type": "mouselab-mdp", "trial_index": 13, "time_elapsed": 671788, "internal_node_id": "0.0-6.0-1.0-4.0"}}, {"uniqueid": "w93809484:a41743056", "current_trial": 14, "dateTime": 1693481753341, "trialdata": {"revealed_states": [], "clicked_states": ["3", "6"], "num_clicks_accrued": [0, 0, 0, 0, 0, 0, 0, 0, 0, 0, 0, 0, 0], "stateRewards": ["", -2, -4, 6, 14, -34, 49, 36, -8, -3, 32, -4, 1, -2, 1, -8, -20, -71, -57, -7, -86, -62, -16, -2, -3, -5, 11, 23, -21, 53, 5, -5, 85, 73], "withholdReward": false, "trial_id": "mdp_trial_6", "block": "test", "trialIndex": 7, "score": 60.2, "costs": -2.8, "simulationMode": [null, null, null, null, null], "rewards": [-2, -4, 6, 14, 49], "path": ["0", "0", "1", "2", "3", "4", "6"], "rt": [7900, 106, 128, 243, 15], "actions": ["up", "up", "up", "right", "right"], "actionTimes": [10812, 11445, 12083, 12867, 13392], "queries": {"click": {"state": {"target": ["3", "6"], "time": [4396, 7099]}, "edge": {"target": [], "time": []}}, "mouseover": {"state": {"target": ["1", "2", "3", "3", "6", "4", "7", "2", "2", "1"], "time": [3487, 3543, 3599, 3919, 4914, 7123, 8002, 9186, 9486, 9803]}, "edge": {"target": [], "time": []}}, "mouseout": {"state": {"target": ["15", "18", "1", "2", "3", "3", "6", "4", "7", "2", "2"], "time": [1091, 1142, 3509, 3569, 3719, 4864, 7116, 7994, 9001, 9204, 9570]}, "edge": {"target": [], "time": []}}}, "displayed_time": "16.92", "trialTime": 17086, "trial_type": "mouselab-mdp", "trial_index": 14, "time_elapsed": 689848, "internal_node_id": "0.0-6.0-1.0-5.0"}}, {"uniqueid": "w93809484:a41743056", "current_trial": 15, "dateTime": 1693481777507, "trialdata": {"revealed_states": [], "clicked_states": ["14", "21", "22"], "num_clicks_accrued": [0, 0, 0, 0, 0, 0, 0, 0, 0, 0, 0, 0, 0], "stateRewards": ["", -2, -2, -7, -13, -10, 49, -68, -1, 84, 70, 88, 1, 4, 4, 12, -57, 25, 30, 8, -1, -77, 57, 2, 3, 2, 3, -18, -80, 23, -15, -41, 70, 11], "withholdReward": false, "trial_id": "mdp_trial_7", "block": "test", "trialIndex": 8, "score": 69.8, "costs": -4.199999999999999, "simulationMode": [null, null, null, null, null], "rewards": [1, 4, 4, 8, 57], "path": ["0", "0", "12", "13", "14", "19", "22"], "rt": [12582, 15, 114, 732, 630], "actions": ["right", "right", "right", "down", "left"], "actionTimes": [17457, 17983, 18618, 19870, 21032], "queries": {"click": {"state": {"target": ["14", "21", "22"], "time": [7016, 11530, 14338]}, "edge": {"target": [], "time": []}}, "mouseover": {"state": {"target": ["12", "14", "14", "19", "20", "21", "19", "22", "13"], "time": [5602, 6188, 6606, 7616, 7902, 10971, 12138, 12224, 14884]}, "edge": {"target": [], "time": []}}, "mouseout": {"state": {"target": ["12", "14", "14", "14", "19", "20", "21", "19", "22", "13"], "time": [5638, 6272, 7128, 7555, 7857, 9670, 11735, 12166, 14697, 15533]}, "edge": {"target": [], "time": []}}}, "displayed_time": "21.55", "trialTime": 22876, "trial_type": "mouselab-mdp", "trial_index": 15, "time_elapsed": 714013, "internal_node_id": "0.0-6.0-1.0-6.0"}}, {"uniqueid": "w93809484:a41743056", "current_trial": 16, "dateTime": 1693481797874, "trialdata": {"revealed_states": [], "clicked_states": [], "num_clicks_accrued": [0, 0, 0, 0, 0, 0, 0, 0, 0, 0, 0, 0, 0], "stateRewards": ["", 1, -4, -6, -1, -21, 17, -72, 10, 77, 67, -46, -1, 4, -2, 14, -66, -49, -45, -15, -52, 23, -67, 2, -2, -2, 15, -3, 45, -64, 5, -44, 83, 61], "withholdReward": false, "trial_id": "mdp_trial_8", "block": "test", "trialIndex": 9, "score": -51, "costs": 0, "simulationMode": [null, null, null, null, null], "rewards": [-1, 4, -2, 14, -66], "path": ["0", "0", "12", "13", "14", "15", "16"], "rt": [5937, 4, 94, 760, 13], "actions": ["right", "right", "right", "up", "up"], "actionTimes": [9749, 10298, 10939, 12216, 12740], "queries": {"click": {"state": {"target": [], "time": []}, "edge": {"target": [], "time": []}}, "mouseover": {"state": {"target": ["12", "13", "14", "14", "13", "12"], "time": [7149, 7194, 7230, 7468, 8489, 8635]}, "edge": {"target": [], "time": []}}, "mouseout": {"state": {"target": ["0", "12", "13", "14", "14", "13", "12"], "time": [2413, 7184, 7218, 7252, 8452, 8568, 8836]}, "edge": {"target": [], "time": []}}}, "displayed_time": "17.82", "trialTime": 19276, "trial_type": "mouselab-mdp", "trial_index": 16, "time_elapsed": 734380, "internal_node_id": "0.0-6.0-1.0-7.0"}}, {"uniqueid": "w93809484:a41743056", "current_trial": 17, "dateTime": 1693481822791, "trialdata": {"revealed_states": [], "clicked_states": ["25", "33", "31"], "num_clicks_accrued": [0, 0, 0, 0, 0, 0, 0, 0, 0, 0, 0, 0, 0], "stateRewards": ["", -2, 1, -5, 2, -68, 80, 33, 10, 67, -59, 20, -1, -3, 3, 14, 74, -2, 24, -16, 63, 80, 46, -1, 4, 6, 12, 83, -38, -43, -4, 43, 14, -79], "withholdReward": false, "trial_id": "mdp_trial_9", "block": "test", "trialIndex": 10, "score": 43.8, "costs": -4.199999999999999, "simulationMode": [null, null, null, null, null], "rewards": [-1, 4, 6, -4, 43], "path": ["0", "0", "23", "24", "25", "30", "31"], "rt": [11640, 3, 121, 763, 437], "actions": ["left", "left", "left", "down", "right"], "actionTimes": [17787, 18308, 18969, 20279, 21241], "queries": {"click": {"state": {"target": ["25", "33", "31"], "time": [8742, 11003, 14401]}, "edge": {"target": [], "time": []}}, "mouseover": {"state": {"target": ["0", "25", "30", "33", "32", "31", "32", "30"], "time": [6940, 8141, 9517, 10808, 12309, 13892, 14973, 16549]}, "edge": {"target": [], "time": []}}, "mouseout": {"state": {"target": ["0", "0", "25", "30", "33", "32", "31", "32", "30"], "time": [6823, 6965, 9074, 10798, 11118, 13428, 14920, 16417, 16847]}, "edge": {"target": [], "time": []}}}, "displayed_time": "21.78", "trialTime": 23858, "trial_type": "mouselab-mdp", "trial_index": 17, "time_elapsed": 759298, "internal_node_id": "0.0-6.0-1.0-8.0"}}, {"uniqueid": "w93809484:a41743056", "current_trial": 18, "dateTime": 1693481856931, "trialdata": {"revealed_states": [], "clicked_states": [], "num_clicks_accrued": [0, 0, 0, 0, 0, 0, 0, 0, 0, 0, 0, 0, 0], "stateRewards": ["", 2, -3, -4, -1, 25, -16, 16, 10, -71, -20, -55, 1, 3, -4, -9, 1, 32, 11, -6, 32, -50, -41, -1, 4, 4, -8, 7, -81, 70, 2, -52, 45, -10], "withholdReward": false, "trial_id": "mdp_trial_10", "block": "test", "trialIndex": 11, "score": -22, "costs": 0, "simulationMode": [null, null, null, null, null], "rewards": [2, -3, -4, -1, -16], "path": ["0", "0", "1", "2", "3", "4", "6"], "rt": [9220, 7, 103, 389, 50], "actions": ["up", "up", "up", "right", "right"], "actionTimes": [24170, 24705, 25395, 26877, 27452], "queries": {"click": {"state": {"target": [], "time": []}, "edge": {"target": [], "time": []}}, "mouseover": {"state": {"target": [], "time": []}, "edge": {"target": [], "time": []}}, "mouseout": {"state": {"target": ["19", "22"], "time": [13169, 13202]}, "edge": {"target": [], "time": []}}}, "displayed_time": "28.95", "trialTime": 30427, "trial_type": "mouselab-mdp", "trial_index": 18, "time_elapsed": 793438, "internal_node_id": "0.0-6.0-1.0-9.0"}}, {"uniqueid": "w93809484:a41743056", "current_trial": 19, "dateTime": 1693481887529, "trialdata": {"revealed_states": [], "clicked_states": ["4", "7", "5", "6", "8", "11"], "num_clicks_accrued": [0, 0, 0, 0, 0, 0, 0, 0, 0, 0, 0, 0, 0], "stateRewards": ["", -1, 4, -8, 12, 14, 69, -8, 5, -72, -14, 56, -1, -1, -1, 9, 67, 19, 11, -9, -88, -58, 3, 2, -4, -8, 4, 62, 77, -74, 5, -31, 65, 88], "withholdReward": false, "trial_id": "mdp_trial_11", "block": "test", "trialIndex": 12, "score": 47.6, "costs": -8.4, "simulationMode": [null, null, null, null, null], "rewards": [-1, 4, -8, 5, 56], "path": ["0", "0", "1", "2", "3", "8", "11"], "rt": [19237, 102, 39, 657, 63], "actions": ["up", "up", "up", "left", "left"], "actionTimes": [21474, 22087, 22640, 23836, 24466], "queries": {"click": {"state": {"target": ["4", "7", "5", "6", "8", "11"], "time": [4130, 6708, 9562, 12157, 14510, 17151]}, "edge": {"target": [], "time": []}}, "mouseover": {"state": {"target": ["15", "4", "7", "6", "6", "5", "3", "4", "6", "4", "2", "8", "11", "9", "10"], "time": [3050, 3651, 5091, 7481, 7616, 8734, 10337, 11442, 11528, 12807, 13093, 13948, 15200, 17653, 19253]}, "edge": {"target": [], "time": []}}, "mouseout": {"state": {"target": ["0", "15", "4", "4", "7", "4", "6", "6", "5", "3", "4", "6", "4", "2", "8", "11", "9", "8", "10"], "time": [2950, 3085, 4237, 4621, 6831, 7459, 7506, 8684, 10144, 11409, 11477, 12772, 12832, 13631, 14638, 17284, 18999, 19117, 19783]}, "edge": {"target": [], "time": []}}}, "displayed_time": "24.99", "trialTime": 29006, "trial_type": "mouselab-mdp", "trial_index": 19, "time_elapsed": 824036, "internal_node_id": "0.0-6.0-1.0-10.0"}}, {"uniqueid": "w93809484:a41743056", "current_trial": 20, "dateTime": 1693481909558, "trialdata": {"revealed_states": [], "clicked_states": ["4", "7"], "num_clicks_accrued": [0, 0, 0, 0, 0, 0, 0, 0, 0, 0, 0, 0, 0], "stateRewards": ["", -2, -4, 2, 10, -17, 18, 73, 11, -32, 23, -13, -2, -4, 7, 12, -25, 66, -23, 15, 40, -76, -9, 1, 2, -7, -5, -20, 24, 3, -5, 16, -73, 70], "withholdReward": false, "trial_id": "mdp_trial_12", "block": "test", "trialIndex": 13, "score": 76.2, "costs": -2.8, "simulationMode": [null, null, null, null, null], "rewards": [-2, -4, 2, 10, 73], "path": ["0", "0", "1", "2", "3", "4", "7"], "rt": [8525, 174, 353, 447, 488], "actions": ["up", "up", "up", "right", "down"], "actionTimes": [11084, 11778, 12646, 13603, 14640], "queries": {"click": {"state": {"target": ["4", "7"], "time": [5371, 7499]}, "edge": {"target": [], "time": []}}, "mouseover": {"state": {"target": ["4", "4", "6", "7", "2", "3", "2", "1"], "time": [4590, 4871, 5909, 6927, 8131, 9308, 9981, 10017]}, "edge": {"target": [], "time": []}}, "mouseout": {"state": {"target": ["1", "4", "4", "6", "7", "2", "3", "2"], "time": [1274, 4655, 5819, 6866, 8086, 9286, 9972, 10007]}, "edge": {"target": [], "time": []}}}, "displayed_time": "16.56", "trialTime": 20927, "trial_type": "mouselab-mdp", "trial_index": 20, "time_elapsed": 846064, "internal_node_id": "0.0-6.0-1.0-11.0"}}, {"uniqueid": "w93809484:a41743056", "current_trial": 21, "dateTime": 1693481931791, "trialdata": {"revealed_states": [], "clicked_states": [], "num_clicks_accrued": [0, 0, 0, 0, 0, 0, 0, 0, 0, 0, 0, 0, 0], "stateRewards": ["", 2, -1, 8, -2, -16, 69, -39, -7, -13, -27, -86, 2, -2, 2, 13, -34, -16, -20, -5, 19, 81, 32, -2, -1, 2, -14, 20, 80, 58, 4, 70, 12, 73], "withholdReward": false, "trial_id": "mdp_trial_13", "block": "test", "trialIndex": 14, "score": 73, "costs": 0, "simulationMode": [null, null, null, null, null], "rewards": [-2, -1, 2, 4, 70], "path": ["0", "0", "23", "24", "25", "30", "31"], "rt": [4937, 5, 148, 1080, 1240], "actions": ["left", "left", "left", "down", "right"], "actionTimes": [7785, 8304, 9019, 10627, 12384], "queries": {"click": {"state": {"target": [], "time": []}, "edge": {"target": [], "time": []}}, "mouseover": {"state": {"target": ["1", "0", "31", "31"], "time": [4194, 4695, 5046, 5532]}, "edge": {"target": [], "time": []}}, "mouseout": {"state": {"target": ["1", "1", "0", "31", "31", "19", "21"], "time": [1415, 4613, 4778, 5098, 6836, 18656, 20243]}, "edge": {"target": [], "time": []}}}, "displayed_time": "16.85", "trialTime": 21102, "trial_type": "mouselab-mdp", "trial_index": 21, "time_elapsed": 868297, "internal_node_id": "0.0-6.0-1.0-12.0"}}, {"uniqueid": "w93809484:a41743056", "current_trial": 22, "dateTime": 1693481951567, "trialdata": {"revealed_states": [], "clicked_states": ["23", "32"], "num_clicks_accrued": [0, 0, 0, 0, 0, 0, 0, 0, 0, 0, 0, 0, 0], "stateRewards": ["", 2, -2, -8, 9, -20, 55, -58, 14, 42, 2, 36, 1, -3, -5, 5, -58, 57, 60, 16, 57, 30, -70, -2, 1, 3, 10, 59, 23, 77, -13, -26, 88, -72], "withholdReward": false, "trial_id": "mdp_trial_14", "block": "test", "trialIndex": 15, "score": 74.2, "costs": -2.8, "simulationMode": [null, null, null, null, null], "rewards": [-2, 1, 3, -13, 88], "path": ["0", "0", "23", "24", "25", "30", "32"], "rt": [7533, 112, 154, 844, 113], "actions": ["left", "left", "left", "down", "down"], "actionTimes": [9983, 10629, 11294, 12665, 13306], "queries": {"click": {"state": {"target": ["23", "32"], "time": [4294, 6808]}, "edge": {"target": [], "time": []}}, "mouseover": {"state": {"target": ["23", "31", "32", "30"], "time": [3738, 5307, 6146, 7436]}, "edge": {"target": [], "time": []}}, "mouseout": {"state": {"target": ["0", "23", "31", "32", "30"], "time": [3673, 4636, 5864, 6936, 8838]}, "edge": {"target": [], "time": []}}}, "displayed_time": "16.46", "trialTime": 18623, "trial_type": "mouselab-mdp", "trial_index": 22, "time_elapsed": 888073, "internal_node_id": "0.0-6.0-1.0-13.0"}}, {"uniqueid": "w93809484:a41743056", "current_trial": 23, "dateTime": 1693481987606, "trialdata": {"revealed_states": [], "clicked_states": ["14", "16", "17", "18", "20", "22"], "num_clicks_accrued": [0, 0, 0, 0, 0, 0, 0, 0, 0, 0, 0, 0, 0], "stateRewards": ["", -2, 2, 3, -7, -31, -33, 29, -8, -57, 50, -83, -1, -1, 5, 13, -23, -62, 25, 5, -66, -85, 14, 1, -2, -1, 16, 71, 33, -19, -14, 5, -43, 79], "withholdReward": false, "trial_id": "mdp_trial_15", "block": "test", "trialIndex": 16, "score": 13.6, "costs": -8.4, "simulationMode": [null, null, null, null, null], "rewards": [-1, -1, 5, 5, 14], "path": ["0", "0", "12", "13", "14", "19", "22"], "rt": [21036, 5, 109, 1015, 768], "actions": ["right", "right", "right", "down", "left"], "actionTimes": [25396, 25929, 26558, 28081, 29364], "queries": {"click": {"state": {"target": ["14", "16", "17", "18", "20", "22"], "time": [6530, 9219, 10859, 13073, 15888, 18778]}, "edge": {"target": [], "time": []}}, "mouseover": {"state": {"target": ["14", "18", "18", "16", "17", "15", "18", "14", "19", "20", "19", "21", "22", "13", "14", "12", "0", "1", "0"], "time": [5894, 7150, 7468, 8686, 10402, 11344, 12511, 13662, 14064, 15047, 16412, 16573, 17931, 19283, 20470, 22697, 22738, 23455, 24216]}, "edge": {"target": [], "time": []}}, "mouseout": {"state": {"target": ["30", "31", "33", "25", "14", "18", "18", "16", "17", "17", "15", "18", "14", "19", "20", "19", "21", "22", "13", "14", "12", "0", "1", "0"], "time": [1796, 1861, 2398, 2465, 7047, 7229, 8537, 9728, 10998, 11306, 12401, 13555, 13725, 14938, 16011, 16529, 17629, 19237, 20435, 22661, 22729, 22997, 23967, 24268]}, "edge": {"target": [], "time": []}}}, "displayed_time": "29.88", "trialTime": 34735, "trial_type": "mouselab-mdp", "trial_index": 23, "time_elapsed": 924112, "internal_node_id": "0.0-6.0-1.0-14.0"}}, {"uniqueid": "w93809484:a41743056", "current_trial": 24, "dateTime": 1693482007978, "trialdata": {"revealed_states": [], "clicked_states": ["25", "26", "29"], "num_clicks_accrued": [0, 0, 0, 0, 0, 0, 0, 0, 0, 0, 0, 0, 0], "stateRewards": ["", -1, 4, 3, 12, -27, 34, -33, 3, -63, 1, 6, 2, 2, -6, -11, -77, -85, 68, -6, 51, 81, -60, -2, -2, 1, 15, 20, 15, 68, -10, -14, 6, -4], "withholdReward": false, "trial_id": "mdp_trial_16", "block": "test", "trialIndex": 17, "score": 75.8, "costs": -4.199999999999999, "simulationMode": [null, null, null, null, null], "rewards": [-2, -2, 1, 15, 68], "path": ["0", "0", "23", "24", "25", "26", "29"], "rt": [10500, 8, 74, 645, 25], "actions": ["left", "left", "left", "up", "left"], "actionTimes": [12956, 13496, 14118, 15314, 15859], "queries": {"click": {"state": {"target": ["25", "26", "29"], "time": [4766, 7144, 9476]}, "edge": {"target": [], "time": []}}, "mouseover": {"state": {"target": ["23", "24", "25", "26", "27", "26", "29", "29", "28", "27", "27", "26", "25", "30"], "time": [3722, 3767, 4122, 5179, 5523, 6612, 7597, 8907, 10418, 11476, 11728, 11796, 11841, 11876]}, "edge": {"target": [], "time": []}}, "mouseout": {"state": {"target": ["0", "23", "24", "25", "26", "27", "26", "29", "29", "28", "27", "27", "26", "25", "30"], "time": [3688, 3756, 3791, 5104, 5370, 6553, 7534, 8785, 9592, 11375, 11610, 11761, 11830, 11865, 11898]}, "edge": {"target": [], "time": []}}}, "displayed_time": "16.46", "trialTime": 19250, "trial_type": "mouselab-mdp", "trial_index": 24, "time_elapsed": 944485, "internal_node_id": "0.0-6.0-1.0-15.0"}}, {"uniqueid": "w93809484:a41743056", "current_trial": 25, "dateTime": 1693482055295, "trialdata": {"revealed_states": [], "clicked_states": ["3", "8", "11", "6", "7", "1", "5", "9", "10", "24", "30", "33"], "num_clicks_accrued": [0, 0, 0, 0, 0, 0, 0, 0, 0, 0, 0, 0, 0], "stateRewards": ["", -1, -1, 7, -15, -43, -21, -84, -9, -45, -66, 2, 1, -2, 2, 8, -27, 44, -52, -5, -84, 11, 53, 1, 4, -4, 16, 83, -82, -15, -16, 68, -43, 81], "withholdReward": false, "trial_id": "mdp_trial_17", "block": "test", "trialIndex": 18, "score": 49.2, "costs": -16.8, "simulationMode": [null, null, null, null, null], "rewards": [1, 4, -4, -16, 81], "path": ["0", "0", "23", "24", "25", "30", "33"], "rt": [34386, 9, 5, 990, 738], "actions": ["left", "left", "left", "down", "left"], "actionTimes": [36890, 37429, 37964, 39489, 40746], "queries": {"click": {"state": {"target": ["3", "8", "11", "6", "7", "1", "5", "9", "10", "24", "30", "33"], "time": [5093, 7468, 9875, 13146, 16522, 18877, 20555, 22674, 25153, 27919, 30611, 32906]}, "edge": {"target": [], "time": []}}, "mouseover": {"state": {"target": ["1", "2", "3", "8", "9", "9", "11", "10", "4", "6", "4", "5", "5", "4", "7", "2", "10", "1", "5", "9", "11", "10", "28", "24", "25", "30", "32", "33", "29", "26"], "time": [3816, 3899, 4600, 5540, 7707, 8111, 9433, 10467, 11636, 12676, 13735, 13843, 14144, 14947, 16069, 16886, 17064, 18357, 19405, 21196, 23008, 24609, 26036, 27351, 28609, 30042, 31280, 32281, 33422, 35010]}, "edge": {"target": [], "time": []}}, "mouseout": {"state": {"target": ["31", "0", "1", "2", "3", "8", "9", "9", "11", "11", "10", "4", "6", "4", "5", "5", "4", "7", "2", "10", "1", "5", "9", "11", "10", "10", "28", "24", "25", "30", "30", "32", "33", "29", "26"], "time": [870, 3765, 3850, 4032, 5485, 7607, 7777, 9018, 9996, 10362, 11625, 11675, 13627, 13811, 13937, 14867, 15082, 16641, 17029, 18224, 19292, 20732, 22923, 24429, 25284, 25902, 27249, 28049, 29959, 30706, 31233, 32213, 33312, 34741, 35594]}, "edge": {"target": [], "time": []}}}, "displayed_time": "41.25", "trialTime": 46199, "trial_type": "mouselab-mdp", "trial_index": 25, "time_elapsed": 991802, "internal_node_id": "0.0-6.0-1.0-16.0"}}, {"uniqueid": "w93809484:a41743056", "current_trial": 26, "dateTime": 1693482081675, "trialdata": {"revealed_states": [], "clicked_states": ["6", "9", "10", "23", "29"], "num_clicks_accrued": [0, 0, 0, 0, 0, 0, 0, 0, 0, 0, 0, 0, 0], "stateRewards": ["", 1, 1, 4, 11, 83, -66, 18, -16, -23, 5, 25, 1, -3, 1, -12, 18, 24, -86, -11, -64, 36, 40, 2, 1, -6, 13, 55, 29, 72, -2, 81, -72, -41], "withholdReward": false, "trial_id": "mdp_trial_18", "block": "test", "trialIndex": 19, "score": 75, "costs": -7, "simulationMode": [null, null, null, null, null], "rewards": [2, 1, -6, 13, 72], "path": ["0", "0", "23", "24", "25", "26", "29"], "rt": [14287, 55, 69, 859, 664], "actions": ["left", "left", "left", "up", "left"], "actionTimes": [16948, 17568, 18178, 19566, 20751], "queries": {"click": {"state": {"target": ["6", "9", "10", "23", "29"], "time": [4523, 7127, 9744, 12138, 13812]}, "edge": {"target": [], "time": []}}, "mouseover": {"state": {"target": ["7", "6", "5", "9", "11", "10", "1", "23", "26", "29", "27", "26", "25"], "time": [3690, 3891, 5264, 6582, 7763, 9261, 10409, 11515, 12771, 13257, 14319, 15695, 16063]}, "edge": {"target": [], "time": []}}, "mouseout": {"state": {"target": ["0", "7", "6", "5", "9", "11", "10", "1", "23", "26", "29", "27", "26"], "time": [3626, 3712, 4654, 6111, 7622, 8889, 10342, 11431, 12259, 12856, 14196, 15611, 16012]}, "edge": {"target": [], "time": []}}}, "displayed_time": "21.28", "trialTime": 25314, "trial_type": "mouselab-mdp", "trial_index": 26, "time_elapsed": 1018182, "internal_node_id": "0.0-6.0-1.0-17.0"}}, {"uniqueid": "w93809484:a41743056", "current_trial": 27, "dateTime": 1693482111162, "trialdata": {"revealed_states": [], "clicked_states": ["19", "21", "22", "13", "15", "17"], "num_clicks_accrued": [0, 0, 0, 0, 0, 0, 0, 0, 0, 0, 0, 0, 0], "stateRewards": ["", -2, 1, -7, 9, 8, 25, 61, -7, -17, 69, -81, 1, 4, -4, -11, 16, 67, 44, 3, 6, -45, -54, -2, 3, 6, -11, -15, 32, -47, 3, -39, -6, -88], "withholdReward": false, "trial_id": "mdp_trial_19", "block": "test", "trialIndex": 20, "score": 48.6, "costs": -8.4, "simulationMode": [null, null, null, null, null], "rewards": [1, 4, -4, -11, 67], "path": ["0", "0", "12", "13", "14", "15", "17"], "rt": [18015, 4, 87, 740, 61], "actions": ["right", "right", "right", "up", "right"], "actionTimes": [21047, 21620, 22242, 23497, 24068], "queries": {"click": {"state": {"target": ["19", "21", "22", "13", "15", "17"], "time": [5816, 8639, 10958, 13053, 15238, 17458]}, "edge": {"target": [], "time": []}}, "mouseover": {"state": {"target": ["20", "19", "20", "21", "21", "22", "13", "13", "15", "16", "17", "18", "12"], "time": [4882, 5311, 6364, 7311, 7748, 9167, 12279, 12631, 13701, 15738, 16823, 18211, 19953]}, "edge": {"target": [], "time": []}}, "mouseout": {"state": {"target": ["25", "24", "23", "0", "20", "19", "20", "21", "21", "22", "13", "13", "15", "16", "17", "15", "18", "12"], "time": [1159, 1233, 1428, 4358, 5225, 6248, 7189, 7410, 9100, 12218, 12326, 13175, 15599, 16765, 18000, 18083, 19851, 20155]}, "edge": {"target": [], "time": []}}}, "displayed_time": "24.59", "trialTime": 28317, "trial_type": "mouselab-mdp", "trial_index": 27, "time_elapsed": 1047669, "internal_node_id": "0.0-6.0-1.0-18.0"}}, {"uniqueid": "w93809484:a41743056", "current_trial": 28, "dateTime": 1693482132344, "trialdata": {"revealed_states": [], "clicked_states": ["8", "5"], "num_clicks_accrued": [0, 0, 0, 0, 0, 0, 0, 0, 0, 0, 0, 0, 0], "stateRewards": ["", 1, 2, 7, 13, 88, -71, 27, 3, 60, 5, -53, -2, 2, -6, -1, -30, 79, 47, -4, -14, 46, 68, 1, 1, 8, 10, -14, 86, 48, -11, -67, -44, 5], "withholdReward": false, "trial_id": "mdp_trial_20", "block": "test", "trialIndex": 21, "score": 108.2, "costs": -2.8, "simulationMode": [null, null, null, null, null], "rewards": [1, 2, 7, 13, 88], "path": ["0", "0", "1", "2", "3", "4", "5"], "rt": [8619, 13, 530, 453, 259], "actions": ["up", "up", "up", "right", "up"], "actionTimes": [12340, 12914, 13976, 14950, 15741], "queries": {"click": {"state": {"target": ["8", "5"], "time": [6302, 9064]}, "edge": {"target": [], "time": []}}, "mouseover": {"state": {"target": ["8", "9", "5", "4", "6"], "time": [5587, 7035, 8277, 9901, 10857]}, "edge": {"target": [], "time": []}}, "mouseout": {"state": {"target": ["0", "8", "9", "5", "4", "6"], "time": [4801, 6790, 8044, 9480, 10787, 11335]}, "edge": {"target": [], "time": []}}}, "displayed_time": "17.73", "trialTime": 20004, "trial_type": "mouselab-mdp", "trial_index": 28, "time_elapsed": 1068851, "internal_node_id": "0.0-6.0-1.0-19.0"}}, {"uniqueid": "w93809484:a41743056", "current_trial": 29, "dateTime": 1693482151527, "trialdata": {"revealed_states": [], "clicked_states": ["28", "6", "16"], "num_clicks_accrued": [0, 0, 0, 0, 0, 0, 0, 0, 0, 0, 0, 0, 0], "stateRewards": ["", 1, 1, -6, -2, 7, 77, 3, 16, -16, 66, 31, -1, 3, -8, -6, 33, -50, -48, 7, -60, -66, 36, 2, -3, 3, -7, -12, -61, -79, -4, 8, 74, -70], "withholdReward": false, "trial_id": "mdp_trial_21", "block": "test", "trialIndex": 22, "score": 66.8, "costs": -4.199999999999999, "simulationMode": [null, null, null, null, null, null], "rewards": [1, 1, -6, -2, 77], "path": ["0", "0", "1", "2", "3", "4", "6"], "rt": [8253, 134, 88, 126, 368, 32], "actions": ["up", "up", "up", "up", "right", "right"], "actionTimes": [10830, 10978, 11600, 12242, 13174, 13726], "queries": {"click": {"state": {"target": ["28", "6", "16"], "time": [3774, 6643, 9355]}, "edge": {"target": [], "time": []}}, "mouseover": {"state": {"target": ["28", "11", "3", "4", "6", "5", "16", "17"], "time": [3190, 4411, 5783, 5827, 6139, 8082, 9122, 10129]}, "edge": {"target": [], "time": []}}, "mouseout": {"state": {"target": ["28", "11", "3", "4", "6", "5", "16", "16"], "time": [4292, 5733, 5816, 6129, 6756, 9112, 9485, 10041]}, "edge": {"target": [], "time": []}}}, "displayed_time": "16.58", "trialTime": 17984, "trial_type": "mouselab-mdp", "trial_index": 29, "time_elapsed": 1088033, "internal_node_id": "0.0-6.0-1.0-20.0"}}, {"uniqueid": "w93809484:a41743056", "current_trial": 30, "dateTime": 1693482174718, "trialdata": {"revealed_states": [], "clicked_states": [], "num_clicks_accrued": [0, 0, 0, 0, 0, 0, 0, 0, 0, 0, 0, 0, 0], "stateRewards": ["", -2, 2, -4, -4, -59, 88, 62, -3, 69, -15, -34, 1, -2, -5, 7, -54, -20, 78, -16, -74, -53, -21, 2, -4, 2, 13, -8, -44, 26, 9, 72, 4, 17], "withholdReward": false, "trial_id": "mdp_trial_22", "block": "test", "trialIndex": 23, "score": 79, "costs": 0, "simulationMode": [null, null, null, null, null], "rewards": [1, -2, -5, 7, 78], "path": ["0", "0", "12", "13", "14", "15", "18"], "rt": [7148, 1281, 28, 504, 14], "actions": ["right", "right", "right", "up", "left"], "actionTimes": [13139, 15164, 15712, 16747, 17941], "queries": {"click": {"state": {"target": [], "time": []}, "edge": {"target": [], "time": []}}, "mouseover": {"state": {"target": ["7", "18"], "time": [8304, 10202]}, "edge": {"target": [], "time": []}}, "mouseout": {"state": {"target": ["17", "12", "0", "7", "18"], "time": [2969, 3538, 7806, 9944, 11331]}, "edge": {"target": [], "time": []}}}, "displayed_time": "20.00", "trialTime": 21866, "trial_type": "mouselab-mdp", "trial_index": 30, "time_elapsed": 1111225, "internal_node_id": "0.0-6.0-1.0-21.0"}}, {"uniqueid": "w93809484:a41743056", "current_trial": 31, "dateTime": 1693482203744, "trialdata": {"revealed_states": [], "clicked_states": ["16"], "num_clicks_accrued": [0, 0, 0, 0, 0, 0, 0, 0, 0, 0, 0, 0, 0], "stateRewards": ["", 2, 3, 6, -12, -29, 12, 87, 4, 35, -30, 67, 2, 3, -5, -9, 44, 69, -8, 1, 45, -8, 28, -2, -1, -8, 11, -12, -5, 81, 9, 87, 82, 88], "withholdReward": false, "trial_id": "mdp_trial_23", "block": "test", "trialIndex": 24, "score": 33.6, "costs": -1.4, "simulationMode": [null, null, null, null, null], "rewards": [2, 3, -5, -9, 44], "path": ["0", "0", "12", "13", "14", "15", "16"], "rt": [9496, 5, 69, 909, 6], "actions": ["right", "right", "right", "up", "up"], "actionTimes": [16702, 17218, 17832, 19311, 19836], "queries": {"click": {"state": {"target": ["16"], "time": [13152]}, "edge": {"target": [], "time": []}}, "mouseover": {"state": {"target": ["16", "17", "15", "18", "13"], "time": [9479, 13329, 13379, 13426, 15265]}, "edge": {"target": [], "time": []}}, "mouseout": {"state": {"target": ["16", "16", "17", "15", "18", "13"], "time": [5000, 13319, 13370, 13417, 15080, 15402]}, "edge": {"target": [], "time": []}}}, "displayed_time": "24.33", "trialTime": 27124, "trial_type": "mouselab-mdp", "trial_index": 31, "time_elapsed": 1140251, "internal_node_id": "0.0-6.0-1.0-22.0"}}, {"uniqueid": "w93809484:a41743056", "current_trial": 32, "dateTime": 1693482224147, "trialdata": {"revealed_states": [], "clicked_states": ["3", "33", "32"], "num_clicks_accrued": [0, 0, 0, 0, 0, 0, 0, 0, 0, 0, 0, 0, 0], "stateRewards": ["", 1, 2, 8, -2, 23, -69, -18, -16, 54, -21, 71, -1, -4, 7, 11, 43, -6, 88, 6, -55, 72, 43, 1, -3, -2, -1, 68, -31, -54, 4, -8, 25, -2], "withholdReward": false, "trial_id": "mdp_trial_24", "block": "test", "trialIndex": 25, "score": 20.8, "costs": -4.199999999999999, "simulationMode": [null, null, null, null, null], "rewards": [1, -3, -2, 4, 25], "path": ["0", "0", "23", "24", "25", "30", "32"], "rt": [10418, 99, 5, 643, 38], "actions": ["left", "left", "left", "down", "down"], "actionTimes": [13137, 13768, 14306, 15474, 16071], "queries": {"click": {"state": {"target": ["3", "33", "32"], "time": [4470, 7272, 8914]}, "edge": {"target": [], "time": []}}, "mouseover": {"state": {"target": ["3", "10", "28", "25", "33", "32", "30", "31", "10", "3", "3", "10"], "time": [3904, 4909, 4953, 5518, 6860, 8365, 9388, 9580, 10794, 10833, 11878, 11936]}, "edge": {"target": [], "time": []}}, "mouseout": {"state": {"target": ["13", "0", "23", "23", "3", "10", "28", "25", "33", "32", "30", "31", "10", "3", "3", "10"], "time": [792, 876, 992, 1192, 4896, 4942, 4989, 6850, 8170, 9362, 9414, 10691, 10824, 10862, 11926, 11966]}, "edge": {"target": [], "time": []}}}, "displayed_time": "16.72", "trialTime": 19051, "trial_type": "mouselab-mdp", "trial_index": 32, "time_elapsed": 1160653, "internal_node_id": "0.0-6.0-1.0-23.0"}}, {"uniqueid": "w93809484:a41743056", "current_trial": 33, "dateTime": 1693482245397, "trialdata": {"revealed_states": [], "clicked_states": ["7", "11", "5", "9"], "num_clicks_accrued": [0, 0, 0, 0, 0, 0, 0, 0, 0, 0, 0, 0, 0], "stateRewards": ["", 2, 3, -1, 6, 44, -4, -59, -14, -3, 64, 16, 1, -3, 3, 6, 3, 49, 19, 3, -49, -14, -86, 1, 2, -3, -8, -33, 14, 32, -13, -77, -47, -67], "withholdReward": false, "trial_id": "mdp_trial_25", "block": "test", "trialIndex": 26, "score": 48.4, "costs": -5.6, "simulationMode": [null, null, null, null, null], "rewards": [2, 3, -1, 6, 44], "path": ["0", "0", "1", "2", "3", "4", "5"], "rt": [11470, 92, 25, 438, 736], "actions": ["up", "up", "up", "right", "up"], "actionTimes": [13906, 14529, 15066, 16034, 17296], "queries": {"click": {"state": {"target": ["7", "11", "5", "9"], "time": [4895, 7528, 10481, 12120]}, "edge": {"target": [], "time": []}}, "mouseover": {"state": {"target": ["1", "1", "2", "7", "2", "11", "9", "5", "9", "9", "8", "10"], "time": [3123, 3440, 3743, 4292, 5469, 7001, 8101, 9859, 11266, 11651, 12817, 12895]}, "edge": {"target": [], "time": []}}, "mouseout": {"state": {"target": ["1", "1", "2", "7", "2", "11", "9", "5", "9", "9", "9", "8"], "time": [3149, 3707, 3777, 5348, 6396, 8041, 9591, 11092, 11315, 12235, 12809, 12886]}, "edge": {"target": [], "time": []}}}, "displayed_time": "17.82", "trialTime": 19876, "trial_type": "mouselab-mdp", "trial_index": 33, "time_elapsed": 1181903, "internal_node_id": "0.0-6.0-1.0-24.0"}}, {"uniqueid": "w93809484:a41743056", "current_trial": 34, "dateTime": 1693482264967, "trialdata": {"revealed_states": [], "clicked_states": ["22"], "num_clicks_accrued": [0, 0, 0, 0, 0, 0, 0, 0, 0, 0, 0, 0, 0], "stateRewards": ["", -2, -3, -6, -7, 9, 16, 65, 5, -41, 20, -25, -1, -4, 1, -11, -49, -4, 71, 1, 39, -62, 52, -2, -3, 7, -9, -28, -70, 84, 8, 24, -58, 82], "withholdReward": false, "trial_id": "mdp_trial_26", "block": "test", "trialIndex": 27, "score": 47.6, "costs": -1.4, "simulationMode": [null, null, null, null, null], "rewards": [-1, -4, 1, 1, 52], "path": ["0", "0", "12", "13", "14", "19", "22"], "rt": [4855, 125, 28, 2317, 382], "actions": ["right", "right", "right", "down", "left"], "actionTimes": [8134, 8809, 9365, 12223, 13139], "queries": {"click": {"state": {"target": ["22"], "time": [4754]}, "edge": {"target": [], "time": []}}, "mouseover": {"state": {"target": ["0", "22", "21", "21", "19", "14", "15"], "time": [3646, 4146, 5235, 5566, 6574, 6671, 6824]}, "edge": {"target": [], "time": []}}, "mouseout": {"state": {"target": ["10", "0", "22", "22", "21", "21", "19", "14"], "time": [1053, 3677, 4881, 5205, 5294, 6537, 6622, 6787]}, "edge": {"target": [], "time": []}}}, "displayed_time": "17.29", "trialTime": 18320, "trial_type": "mouselab-mdp", "trial_index": 34, "time_elapsed": 1201474, "internal_node_id": "0.0-6.0-1.0-25.0"}}, {"uniqueid": "w93809484:a41743056", "current_trial": 35, "dateTime": 1693482286386, "trialdata": {"revealed_states": [], "clicked_states": ["8", "5", "4"], "num_clicks_accrued": [0, 0, 0, 0, 0, 0, 0, 0, 0, 0, 0, 0, 0], "stateRewards": ["", -2, -3, 1, -14, 48, -49, 67, -1, -35, -48, 3, -2, 1, -4, -5, 86, -84, 39, 1, 48, 41, -42, -1, -4, 2, -7, 18, -86, 17, 7, -9, 57, -69], "withholdReward": false, "trial_id": "mdp_trial_27", "block": "test", "trialIndex": 28, "score": 25.8, "costs": -4.199999999999999, "simulationMode": [null, null, null, null, null], "rewards": [-2, -3, 1, -14, 48], "path": ["0", "0", "1", "2", "3", "4", "5"], "rt": [8854, 184, 420, 1010, 259], "actions": ["up", "up", "up", "right", "up"], "actionTimes": [13055, 13759, 14707, 16245, 17047], "queries": {"click": {"state": {"target": ["8", "5", "4"], "time": [6917, 9417, 11241]}, "edge": {"target": [], "time": []}}, "mouseover": {"state": {"target": ["8", "9", "5", "4", "4", "6"], "time": [6001, 8395, 8747, 9973, 10381, 11690]}, "edge": {"target": [], "time": []}}, "mouseout": {"state": {"target": ["15", "12", "0", "8", "9", "5", "4", "4"], "time": [1621, 1686, 2205, 7202, 8423, 9947, 10042, 11304]}, "edge": {"target": [], "time": []}}}, "displayed_time": "18.21", "trialTime": 20115, "trial_type": "mouselab-mdp", "trial_index": 35, "time_elapsed": 1222893, "internal_node_id": "0.0-6.0-1.0-26.0"}}, {"uniqueid": "w93809484:a41743056", "current_trial": 36, "dateTime": 1693482310343, "trialdata": {"revealed_states": [], "clicked_states": [], "num_clicks_accrued": [0, 0, 0, 0, 0, 0, 0, 0, 0, 0, 0, 0, 0], "stateRewards": ["", 1, 3, -2, 15, 51, 15, -19, 11, 67, -45, -73, 2, 4, -2, -13, 36, 9, -28, 10, -30, 31, 16, 1, 2, -1, -16, 14, -22, 36, -1, 88, -5, 45], "withholdReward": false, "trial_id": "mdp_trial_28", "block": "test", "trialIndex": 29, "score": -36, "costs": 0, "simulationMode": [null, null, null, null, null], "rewards": [1, 2, -1, -16, -22], "path": ["0", "0", "23", "24", "25", "26", "28"], "rt": [6607, 105, 120, 707, 488], "actions": ["left", "left", "left", "up", "right"], "actionTimes": [13080, 14222, 14867, 16153, 17150], "queries": {"click": {"state": {"target": [], "time": []}, "edge": {"target": [], "time": []}}, "mouseover": {"state": {"target": ["2", "28"], "time": [9264, 10969]}, "edge": {"target": [], "time": []}}, "mouseout": {"state": {"target": ["6", "24", "23", "0", "2"], "time": [2389, 2490, 2892, 6623, 10638]}, "edge": {"target": [], "time": []}}}, "displayed_time": "20.48", "trialTime": 22156, "trial_type": "mouselab-mdp", "trial_index": 36, "time_elapsed": 1246850, "internal_node_id": "0.0-6.0-1.0-27.0"}}, {"uniqueid": "w93809484:a41743056", "current_trial": 37, "dateTime": 1693482345515, "trialdata": {"revealed_states": [], "clicked_states": ["19", "20"], "num_clicks_accrued": [0, 0, 0, 0, 0, 0, 0, 0, 0, 0, 0, 0, 0], "stateRewards": ["", 2, 1, -3, 7, 46, 11, -36, 16, 71, 5, 1, 2, -2, -8, -3, -4, 6, 55, 7, 68, -54, 2, 1, 1, 6, -6, 42, -4, -84, -11, -65, 63, 25], "withholdReward": false, "trial_id": "mdp_trial_29", "block": "test", "trialIndex": 30, "score": 64.2, "costs": -2.8, "simulationMode": [null, null, null, null, null], "rewards": [2, -2, -8, 7, 68], "path": ["0", "0", "12", "13", "14", "19", "20"], "rt": [20741, 794, 5, 774, 921], "actions": ["right", "right", "right", "down", "right"], "actionTimes": [24870, 26196, 26744, 28071, 29873], "queries": {"click": {"state": {"target": ["19", "20"], "time": [6515, 8931]}, "edge": {"target": [], "time": []}}, "mouseover": {"state": {"target": ["22", "19", "19", "19", "21", "20", "21", "14", "22"], "time": [5458, 5504, 5708, 5994, 7089, 8227, 10718, 21641, 23373]}, "edge": {"target": [], "time": []}}, "mouseout": {"state": {"target": ["0", "22", "19", "19", "19", "21", "20", "21", "14", "22"], "time": [5408, 5494, 5528, 5776, 6817, 8023, 10411, 20567, 23299, 23566]}, "edge": {"target": [], "time": []}}}, "displayed_time": "30.46", "trialTime": 32794, "trial_type": "mouselab-mdp", "trial_index": 37, "time_elapsed": 1282022, "internal_node_id": "0.0-6.0-1.0-28.0"}}, {"uniqueid": "w93809484:a41743056", "current_trial": 38, "dateTime": 1693482370091, "trialdata": {"revealed_states": [], "clicked_states": ["25", "32"], "num_clicks_accrued": [0, 0, 0, 0, 0, 0, 0, 0, 0, 0, 0, 0, 0], "stateRewards": ["", 2, 3, -2, -8, -8, -41, 74, 15, -23, -80, 1, 1, 3, 3, -15, -63, -78, 67, 13, 75, -41, 86, 2, -2, 6, -3, -8, -49, 50, -6, 83, 74, 80], "withholdReward": false, "trial_id": "mdp_trial_30", "block": "test", "trialIndex": 31, "score": 71.2, "costs": -2.8, "simulationMode": [null, null, null, null, null], "rewards": [2, -2, 6, -6, 74], "path": ["0", "0", "23", "24", "25", "30", "32"], "rt": [7392, 6, 13, 1014, 47], "actions": ["left", "left", "left", "down", "down"], "actionTimes": [14586, 15163, 15713, 17292, 17875], "queries": {"click": {"state": {"target": ["25", "32"], "time": [9421, 11135]}, "edge": {"target": [], "time": []}}, "mouseover": {"state": {"target": ["24", "25", "32", "33"], "time": [8460, 8876, 10686, 11836]}, "edge": {"target": [], "time": []}}, "mouseout": {"state": {"target": ["22", "12", "0", "24", "25", "32", "33"], "time": [5295, 5494, 8412, 8509, 10366, 11248, 13740]}, "edge": {"target": [], "time": []}}}, "displayed_time": "21.20", "trialTime": 23209, "trial_type": "mouselab-mdp", "trial_index": 38, "time_elapsed": 1306597, "internal_node_id": "0.0-6.0-1.0-29.0"}}, {"uniqueid": "w93809484:a41743056", "current_trial": 39, "dateTime": 1693482391780, "trialdata": {"revealed_states": [], "clicked_states": ["28"], "num_clicks_accrued": [0, 0, 0, 0, 0, 0, 0, 0, 0, 0, 0, 0, 0], "stateRewards": ["", -1, -2, -8, 8, -27, -82, 19, -14, -62, 4, 1, -2, 2, 6, 10, 73, -51, -2, 2, 73, -48, 54, -1, 2, -4, 11, -25, 47, 86, 15, 33, 43, -42], "withholdReward": false, "trial_id": "mdp_trial_31", "block": "test", "trialIndex": 32, "score": 53.6, "costs": -1.4, "simulationMode": [null, null, null, null, null], "rewards": [-1, 2, -4, 11, 47], "path": ["0", "0", "23", "24", "25", "26", "28"], "rt": [6870, 56, 412, 431, 367], "actions": ["left", "left", "left", "up", "right"], "actionTimes": [11249, 11821, 12771, 13740, 14637], "queries": {"click": {"state": {"target": ["28"], "time": [6501]}, "edge": {"target": [], "time": []}}, "mouseover": {"state": {"target": ["23", "24", "28", "26", "29", "25"], "time": [5536, 5598, 5764, 6992, 7342, 9013]}, "edge": {"target": [], "time": []}}, "mouseout": {"state": {"target": ["25", "24", "1", "23", "24", "28", "26", "29", "25"], "time": [1669, 2170, 2623, 5572, 5713, 6948, 7064, 8661, 9530]}, "edge": {"target": [], "time": []}}}, "displayed_time": "18.38", "trialTime": 20443, "trial_type": "mouselab-mdp", "trial_index": 39, "time_elapsed": 1328287, "internal_node_id": "0.0-6.0-1.0-30.0"}}, {"uniqueid": "w93809484:a41743056", "current_trial": 40, "dateTime": 1693482413211, "trialdata": {"revealed_states": [], "clicked_states": ["4", "9"], "num_clicks_accrued": [0, 0, 0, 0, 0, 0, 0, 0, 0, 0, 0, 0, 0], "stateRewards": ["", 2, -3, -5, 5, 11, -9, -33, 6, 67, 6, -30, -1, -2, -6, 13, 55, 13, 72, -14, 75, 21, -66, -2, -4, 6, 15, -1, -35, 60, 2, 51, -73, 12], "withholdReward": false, "trial_id": "mdp_trial_32", "block": "test", "trialIndex": 33, "score": 64.2, "costs": -2.8, "simulationMode": [null, null, null, null, null], "rewards": [2, -3, -5, 6, 67], "path": ["0", "0", "1", "2", "3", "8", "9"], "rt": [7987, 68, 652, 137, 913], "actions": ["up", "up", "up", "left", "up"], "actionTimes": [10768, 11365, 12546, 13246, 14682], "queries": {"click": {"state": {"target": ["4", "9"], "time": [4398, 7127]}, "edge": {"target": [], "time": []}}, "mouseover": {"state": {"target": ["1", "7", "4", "3", "8", "9", "5"], "time": [3471, 3556, 3890, 4835, 4996, 6481, 7904]}, "edge": {"target": [], "time": []}}, "mouseout": {"state": {"target": ["23", "0", "1", "7", "4", "3", "8", "9"], "time": [1294, 3405, 3508, 3591, 4793, 4927, 6149, 7659]}, "edge": {"target": [], "time": []}}}, "displayed_time": "16.79", "trialTime": 20035, "trial_type": "mouselab-mdp", "trial_index": 40, "time_elapsed": 1349717, "internal_node_id": "0.0-6.0-1.0-31.0"}}, {"uniqueid": "w93809484:a41743056", "current_trial": 41, "dateTime": 1693482436804, "trialdata": {"revealed_states": [], "clicked_states": ["7", "4", "3", "11"], "num_clicks_accrued": [0, 0, 0, 0, 0, 0, 0, 0, 0, 0, 0, 0, 0], "stateRewards": ["", 1, -1, -7, -7, -22, 15, -13, 13, 26, -32, 38, -1, 1, -7, -4, 16, -62, 86, 12, -54, 56, 64, -2, -1, 6, 14, -57, 37, 62, -6, -25, 50, -70], "withholdReward": false, "trial_id": "mdp_trial_33", "block": "test", "trialIndex": 34, "score": 38.4, "costs": -5.6, "simulationMode": [null, null, null, null, null], "rewards": [1, -1, -7, 13, 38], "path": ["0", "0", "1", "2", "3", "8", "11"], "rt": [12676, 121, 779, 134, 84], "actions": ["up", "up", "up", "left", "left"], "actionTimes": [15895, 16531, 17835, 18498, 19102], "queries": {"click": {"state": {"target": ["7", "4", "3", "11"], "time": [4812, 7475, 10083, 12799]}, "edge": {"target": [], "time": []}}, "mouseover": {"state": {"target": ["7", "4", "5", "4", "6", "3", "9", "11", "8", "10"], "time": [4231, 5260, 5517, 7069, 8054, 9326, 10980, 12169, 13344, 13540]}, "edge": {"target": [], "time": []}}, "mouseout": {"state": {"target": ["5", "1", "7", "4", "5", "4", "6", "4", "3", "9", "11", "11", "8", "10"], "time": [983, 1416, 4933, 5287, 6869, 7648, 9175, 9243, 10842, 12053, 12912, 13300, 13471, 15062]}, "edge": {"target": [], "time": []}}}, "displayed_time": "19.63", "trialTime": 22369, "trial_type": "mouselab-mdp", "trial_index": 41, "time_elapsed": 1373310, "internal_node_id": "0.0-6.0-1.0-32.0"}}, {"uniqueid": "w93809484:a41743056", "current_trial": 42, "dateTime": 1693482460582, "trialdata": {"revealed_states": [], "clicked_states": ["26", "30", "31", "27"], "num_clicks_accrued": [0, 0, 0, 0, 0, 0, 0, 0, 0, 0, 0, 0, 0], "stateRewards": ["", 1, 2, -3, -6, 50, -7, 7, -7, -80, 21, -1, 2, 2, 4, -1, 33, 84, 1, 14, -53, 81, 6, -2, -2, -3, -9, -87, -38, -59, -5, -74, -3, -71], "withholdReward": false, "trial_id": "mdp_trial_34", "block": "test", "trialIndex": 35, "score": 85.4, "costs": -5.6, "simulationMode": [null, null, null, null, null], "rewards": [2, 2, 4, -1, 84], "path": ["0", "0", "12", "13", "14", "15", "17"], "rt": [13147, 7, 8, 468, 102], "actions": ["right", "right", "right", "up", "right"], "actionTimes": [15607, 16186, 16721, 17725, 18341], "queries": {"click": {"state": {"target": ["26", "30", "31", "27"], "time": [3837, 7176, 9940, 12794]}, "edge": {"target": [], "time": []}}, "mouseover": {"state": {"target": ["23", "28", "26", "27", "25", "30", "32", "31", "29", "27", "28"], "time": [3027, 3177, 3342, 4402, 6035, 6085, 7637, 9473, 10927, 12154, 13422]}, "edge": {"target": [], "time": []}}, "mouseout": {"state": {"target": ["1", "23", "28", "26", "27", "26", "25", "30", "32", "31", "29", "27"], "time": [883, 3093, 3260, 4327, 5972, 6003, 6067, 7608, 9129, 10593, 12038, 13333]}, "edge": {"target": [], "time": []}}}, "displayed_time": "18.86", "trialTime": 22411, "trial_type": "mouselab-mdp", "trial_index": 42, "time_elapsed": 1397088, "internal_node_id": "0.0-6.0-1.0-33.0"}}, {"uniqueid": "w93809484:a41743056", "current_trial": 43, "dateTime": 1693482480940, "trialdata": {"revealed_states": [], "clicked_states": ["4", "9", "5"], "num_clicks_accrued": [0, 0, 0, 0, 0, 0, 0, 0, 0, 0, 0, 0, 0], "stateRewards": ["", 2, 3, -1, 16, -78, -11, 46, 2, -20, 79, -67, 2, 3, 2, 11, -83, -42, -58, -11, -67, -22, 55, 2, -1, -1, -16, -83, -82, 23, -11, -29, 13, 13], "withholdReward": false, "trial_id": "mdp_trial_35", "block": "test", "trialIndex": 36, "score": -103.2, "costs": -4.199999999999999, "simulationMode": [null, null, null, null, null], "rewards": [2, -1, -1, -16, -83], "path": ["0", "0", "23", "24", "25", "26", "27"], "rt": [10172, 7, 11, 283, 129], "actions": ["left", "left", "left", "up", "up"], "actionTimes": [12977, 13507, 14054, 14872, 15564], "queries": {"click": {"state": {"target": ["4", "9", "5"], "time": [4438, 7043, 9387]}, "edge": {"target": [], "time": []}}, "mouseover": {"state": {"target": ["4", "4", "9", "5", "8", "11"], "time": [3636, 3942, 5220, 7836, 10070, 10317]}, "edge": {"target": [], "time": []}}, "mouseout": {"state": {"target": ["28", "26", "28", "4", "4", "9", "5", "8"], "time": [690, 857, 940, 3674, 5106, 7171, 9975, 10131]}, "edge": {"target": [], "time": []}}}, "displayed_time": "16.81", "trialTime": 19055, "trial_type": "mouselab-mdp", "trial_index": 43, "time_elapsed": 1417447, "internal_node_id": "0.0-6.0-1.0-34.0"}}, {"uniqueid": "w93809484:a41743056", "current_trial": 44, "dateTime": 1693482501718, "trialdata": {"revealed_states": [], "clicked_states": ["27", "25", "31"], "num_clicks_accrued": [0, 0, 0, 0, 0, 0, 0, 0, 0, 0, 0, 0, 0], "stateRewards": ["", 1, 1, -2, 7, -31, -6, 76, 1, -36, -16, -53, 2, 1, 7, 13, -47, -10, 47, -7, 72, 46, -56, -2, -2, -2, 11, -80, 44, 38, 16, 67, 85, -78], "withholdReward": false, "trial_id": "mdp_trial_36", "block": "test", "trialIndex": 37, "score": -57.2, "costs": -4.199999999999999, "simulationMode": [null, null, null, null, null], "rewards": [2, 1, 7, -7, -56], "path": ["0", "0", "12", "13", "14", "19", "22"], "rt": [9646, 123, 141, 762, 538], "actions": ["right", "right", "right", "down", "left"], "actionTimes": [12353, 12997, 13675, 15003, 16082], "queries": {"click": {"state": {"target": ["27", "25", "31"], "time": [4938, 7418, 10307]}, "edge": {"target": [], "time": []}}, "mouseover": {"state": {"target": ["28", "27", "29", "25", "30", "32", "31", "0", "12"], "time": [3359, 3781, 5592, 6809, 8034, 8430, 9614, 10914, 10986]}, "edge": {"target": [], "time": []}}, "mouseout": {"state": {"target": ["11", "10", "1", "0", "28", "27", "29", "25", "30", "32", "31", "0", "12"], "time": [934, 998, 1352, 3278, 3396, 5583, 6583, 7943, 8403, 9532, 10876, 10978, 11338]}, "edge": {"target": [], "time": []}}}, "displayed_time": "16.71", "trialTime": 19565, "trial_type": "mouselab-mdp", "trial_index": 44, "time_elapsed": 1438225, "internal_node_id": "0.0-6.0-1.0-35.0"}}, {"uniqueid": "w93809484:a41743056", "current_trial": 45, "dateTime": 1693482523196, "trialdata": {"revealed_states": [], "clicked_states": ["6", "17", "20"], "num_clicks_accrued": [0, 0, 0, 0, 0, 0, 0, 0, 0, 0, 0, 0, 0], "stateRewards": ["", 1, -3, -2, 14, 49, -40, -39, 2, 26, -61, 73, 1, -4, -8, 12, 79, 29, -65, -13, 55, -26, 27, -1, 3, 3, 9, -17, -60, -18, -8, 35, -88, 69], "withholdReward": false, "trial_id": "mdp_trial_37", "block": "test", "trialIndex": 38, "score": 26.8, "costs": -4.199999999999999, "simulationMode": [null, null, null, null, null], "rewards": [1, -4, -8, -13, 55], "path": ["0", "0", "12", "13", "14", "19", "20"], "rt": [10490, 6, 34, 791, 202], "actions": ["right", "right", "right", "down", "right"], "actionTimes": [13060, 13595, 14259, 15592, 16320], "queries": {"click": {"state": {"target": ["6", "17", "20"], "time": [5060, 7448, 10093]}, "edge": {"target": [], "time": []}}, "mouseover": {"state": {"target": ["7", "6", "16", "17", "14", "20", "19", "22"], "time": [4202, 4500, 5599, 6974, 8236, 9361, 10637, 10875]}, "edge": {"target": [], "time": []}}, "mouseout": {"state": {"target": ["0", "7", "6", "6", "16", "17", "17", "14", "20", "19"], "time": [2605, 4252, 5166, 5413, 6687, 7574, 8024, 9284, 10216, 10725]}, "edge": {"target": [], "time": []}}}, "displayed_time": "16.83", "trialTime": 19815, "trial_type": "mouselab-mdp", "trial_index": 45, "time_elapsed": 1459702, "internal_node_id": "0.0-6.0-1.0-36.0"}}, {"uniqueid": "w93809484:a41743056", "current_trial": 46, "dateTime": 1693482543605, "trialdata": {"revealed_states": [], "clicked_states": ["25", "29", "28", "31"], "num_clicks_accrued": [0, 0, 0, 0, 0, 0, 0, 0, 0, 0, 0, 0, 0], "stateRewards": ["", -2, 4, -5, -12, 85, -24, -18, -15, -78, -22, 26, -1, -1, 2, 14, -45, 52, -23, 7, -33, 24, -6, -2, -4, 5, -7, -16, 36, -39, 5, 71, -87, -23], "withholdReward": false, "trial_id": "mdp_trial_38", "block": "test", "trialIndex": 39, "score": 69.4, "costs": -5.6, "simulationMode": [null, null, null, null, null], "rewards": [-2, -4, 5, 5, 71], "path": ["0", "0", "23", "24", "25", "30", "31"], "rt": [9807, 110, 311, 401, 724], "actions": ["left", "left", "left", "down", "right"], "actionTimes": [12292, 12964, 13805, 14731, 16013], "queries": {"click": {"state": {"target": ["25", "29", "28", "31"], "time": [3526, 5534, 8163, 10309]}, "edge": {"target": [], "time": []}}, "mouseover": {"state": {"target": ["24", "25", "33", "29", "27", "28", "24", "31"], "time": [2530, 3004, 3895, 4987, 6362, 7537, 8744, 9734]}, "edge": {"target": [], "time": []}}, "mouseout": {"state": {"target": ["22", "12", "24", "25", "33", "29", "27", "28", "24", "31"], "time": [763, 880, 2598, 3812, 4798, 6231, 7486, 8609, 9715, 11359]}, "edge": {"target": [], "time": []}}}, "displayed_time": "16.54", "trialTime": 19137, "trial_type": "mouselab-mdp", "trial_index": 46, "time_elapsed": 1480112, "internal_node_id": "0.0-6.0-1.0-37.0"}}, {"uniqueid": "w93809484:a41743056", "current_trial": 47, "dateTime": 1693482567402, "trialdata": {"revealed_states": [], "clicked_states": ["4", "6", "11", "29"], "num_clicks_accrued": [0, 0, 0, 0, 0, 0, 0, 0, 0, 0, 0, 0, 0], "stateRewards": ["", 2, -1, 4, -9, -43, 7, 54, -13, 38, -40, -83, -1, 2, -8, -10, 34, -33, 11, -14, -79, 65, 26, 1, 2, 4, 10, 21, 1, 86, 4, -53, 28, -29], "withholdReward": false, "trial_id": "mdp_trial_39", "block": "test", "trialIndex": 40, "score": 97.4, "costs": -5.6, "simulationMode": [null, null, null, null, null], "rewards": [1, 2, 4, 10, 86], "path": ["0", "0", "23", "24", "25", "26", "29"], "rt": [13212, 8, 65, 93, 174], "actions": ["left", "left", "left", "up", "left"], "actionTimes": [16709, 17240, 17853, 18485, 19180], "queries": {"click": {"state": {"target": ["4", "6", "11", "29"], "time": [5184, 7613, 10182, 13494]}, "edge": {"target": [], "time": []}}, "mouseover": {"state": {"target": ["1", "4", "4", "5", "6", "11", "10", "28", "29", "27", "26"], "time": [4276, 4350, 4711, 5850, 7101, 8489, 10622, 12734, 12967, 14332, 15238]}, "edge": {"target": [], "time": []}}, "mouseout": {"state": {"target": ["32", "30", "25", "24", "23", "1", "4", "4", "5", "6", "11", "10", "28", "29", "27", "26"], "time": [1113, 1195, 1280, 1497, 1597, 4314, 4383, 5774, 7001, 7736, 10356, 12349, 12769, 14061, 15156, 15726]}, "edge": {"target": [], "time": []}}}, "displayed_time": "19.71", "trialTime": 22455, "trial_type": "mouselab-mdp", "trial_index": 47, "time_elapsed": 1503909, "internal_node_id": "0.0-6.0-1.0-38.0"}}, {"uniqueid": "w93809484:a41743056", "current_trial": 48, "dateTime": 1693482586829, "trialdata": {"revealed_states": [], "clicked_states": ["32"], "num_clicks_accrued": [0, 0, 0, 0, 0, 0, 0, 0, 0, 0, 0, 0, 0], "stateRewards": ["", 1, 4, 7, -16, -84, -6, -46, -12, -7, -49, -26, -1, 2, -4, 2, 22, 37, -64, 1, 88, -13, -10, 1, -4, -2, 5, 2, -10, -34, 9, 66, 55, 38], "withholdReward": false, "trial_id": "mdp_trial_40", "block": "test", "trialIndex": 41, "score": 57.6, "costs": -1.4, "simulationMode": [null, null, null, null, null], "rewards": [1, -4, -2, 9, 55], "path": ["0", "0", "23", "24", "25", "30", "32"], "rt": [4648, 7, 93, 414, 162], "actions": ["left", "left", "left", "down", "down"], "actionTimes": [7147, 7684, 8301, 9226, 10008], "queries": {"click": {"state": {"target": ["32"], "time": [3645]}, "edge": {"target": [], "time": []}}, "mouseover": {"state": {"target": ["32", "31", "30", "33"], "time": [3016, 4327, 5130, 5227]}, "edge": {"target": [], "time": []}}, "mouseout": {"state": {"target": ["32", "31", "30", "33"], "time": [3984, 5103, 5204, 6410]}, "edge": {"target": [], "time": []}}}, "displayed_time": "16.51", "trialTime": 18019, "trial_type": "mouselab-mdp", "trial_index": 48, "time_elapsed": 1523336, "internal_node_id": "0.0-6.0-1.0-39.0"}}, {"uniqueid": "w93809484:a41743056", "current_trial": 49, "dateTime": 1693482666220, "trialdata": {"rt": 78837, "response": {"Q0": "$-2 to $2", "Q1": "$-16 to $16", "Q2": "$-88 to $88", "Q3": "The cost for clicking on nodes varied between nodes.", "Q4": "Very motivated"}, "question_order": [0, 1, 2, 3, 4], "trial_id": "final_quiz_control", "trial_type": "survey-multi-choice", "trial_index": 49, "time_elapsed": 1602727, "internal_node_id": "0.0-6.0-2.0"}}, {"uniqueid": "w93809484:a41743056", "current_trial": 50, "dateTime": 1693482766898, "trialdata": {"rt": 100006, "response": {"Q0": "I had no strategy but made sure that I click nodes that were further to the starting point.", "Q1": "I just kept the initial strategy.", "Q2": "It was difficult because every round was unpredictable."}, "trial_id": "self_report_control", "trial_type": "survey-text", "trial_index": 50, "time_elapsed": 1703406, "internal_node_id": "0.0-6.0-3.0"}}, {"uniqueid": "w93809484:a41743056", "current_trial": 51, "dateTime": 1693482803806, "trialdata": {"rt": 36308, "response": {"gender": "female", "age": "26", "colorblind": "0", "effort": "0"}, "trial_type": "survey-html-form", "trial_index": 51, "time_elapsed": 1740314, "internal_node_id": "0.0-6.0-4.0"}}, {"uniqueid": "w93809484:a41743056", "current_trial": 52, "dateTime": 1693482842854, "trialdata": {"rt": 38977, "response": {"Q0": "No", "Q1": "No, it was my first experience.", "Q2": "N/A"}, "trial_type": "survey-text", "trial_index": 52, "time_elapsed": 1779362, "internal_node_id": "0.0-6.0-5.0"}}, {"uniqueid": "w93809484:a41743056", "current_trial": 53, "dateTime": 1693482870778, "trialdata": {"rt": 27740, "stimulus": "<h1>Completion Code Instructions (1/2)</h1>\n<br><br><br><br>\nYou have reached the end of the experiment! The completion code consists of two parts: (1) a code with 2 characters (2) a code with 6 characters. On this page, you will receive the second part of the code. The first part of the completion code will be on the next page.\n<br><br>\nThe second part of your completion code is: <b>EWEK22</b>\n<br><br>\nPlease note this down. Then, press 'Finish HIT' in order to find the first part of your completion code. Once the data has been saved, you will receive this code either in this window or in the original browser window where you started the experiment.\n", "response": 0, "trial_type": "html-button-response", "trial_index": 53, "time_elapsed": 1807285, "internal_node_id": "0.0-6.0-6.0"}}, {"uniqueid": "w93809484:a41743056", "current_trial": 54, "dateTime": 1693482871893, "trialdata": {"success": true, "trial_type": "fullscreen", "trial_index": 54, "time_elapsed": 1808400, "internal_node_id": "0.0-7.0"}}], "questiondata": {"params": {"CODE": "C6DMOQA6", "MIN_TIME": 14, "inspectCost": 1, "startTime": "Thu Aug 31 2023 13:24:21 GMT+0200 (South Africa Standard Time)", "bonusRate": 0.002, "variance": "1_2_4_8_44", "branching": "31123"}, "final_score": 1588.6}, "eventdata": [{"eventtype": "initialized", "value": null, "timestamp": 1693481060086, "interval": 0}, {"eventtype": "window_resize", "value": [1008, 660], "timestamp": 1693481060086, "interval": 0}, {"eventtype": "window_resize", "value": [1008, 660], "timestamp": 1693481060856, "interval": 770}, {"eventtype": "window_resize", "value": [1024, 768], "timestamp": 1693481078132, "interval": 17276}, {"eventtype": "focus", "value": "off", "timestamp": 1693481677768, "interval": 599636}, {"eventtype": "window_resize", "value": [1024, 767], "timestamp": 1693481677995, "interval": 227}, {"eventtype": "focus", "value": "on", "timestamp": 1693481678251, "interval": 256}, {"eventtype": "window_resize", "value": [1024, 768], "timestamp": 1693481678460, "interval": 209}, {"eventtype": "focus", "value": "off", "timestamp": 1693481678935, "interval": 475}, {"eventtype": "window_resize", "value": [1024, 767], "timestamp": 1693481679170, "interval": 235}, {"eventtype": "focus", "value": "on", "timestamp": 1693481682810, "interval": 3640}, {"eventtype": "window_resize", "value": [1024, 768], "timestamp": 1693481683028, "interval": 218}, {"eventtype": "focus", "value": "off", "timestamp": 1693481698255, "interval": 15227}, {"eventtype": "window_resize", "value": [1024, 767], "timestamp": 1693481698571, "interval": 316}, {"eventtype": "focus", "value": "on", "timestamp": 1693481700184, "interval": 1613}, {"eventtype": "window_resize", "value": [1024, 768], "timestamp": 1693481700412, "interval": 228}, {"eventtype": "focus", "value": "off", "timestamp": 1693481763836, "interval": 63424}, {"eventtype": "window_resize", "value": [1024, 767], "timestamp": 1693481764059, "interval": 223}, {"eventtype": "focus", "value": "on", "timestamp": 1693481765683, "interval": 1624}, {"eventtype": "window_resize", "value": [1024, 768], "timestamp": 1693481765892, "interval": 209}, {"eventtype": "focus", "value": "off", "timestamp": 1693482324462, "interval": 558570}, {"eventtype": "window_resize", "value": [1024, 767], "timestamp": 1693482328039, "interval": 3577}, {"eventtype": "focus", "value": "on", "timestamp": 1693482335829, "interval": 7790}, {"eventtype": "window_resize", "value": [1024, 768], "timestamp": 1693482336221, "interval": 392}], "useragent": "Mozilla/5.0 (Windows NT 10.0; Win64; x64) AppleWebKit/537.36 (KHTML, like Gecko) Chrome/109.0.0.0 Safari/537.36", "mode": "live", "id": "w93809484:a41743056", "status": "user data saved", "Beginhit": "2023-08-31 11:24:20.430164", "Beginexp": "2023-08-31 11:24:44.54024", "Endhit": "2023-08-31 11:54:43.273975", "psiturkStatus": 3, "browser": "<redacted>", "platform": "windows", "language": "en-GB"}