{"condition": 0, "counterbalance": 0, "assignmentId": "a81308332", "workerId": "w69848714", "hitId": "h84980045", "currenttrial": 67, "bonus": 0, "data": [{"uniqueid": "w69848714:a81308332", "current_trial": 0, "dateTime": 1691159732918, "trialdata": {"success": true, "trial_type": "fullscreen", "trial_index": 0, "time_elapsed": 6666, "internal_node_id": "0.0-0.0"}}, {"uniqueid": "w69848714:a81308332", "current_trial": 1, "dateTime": 1691159745077, "trialdata": {"view_history": [{"page_index": 0, "viewing_time": 12143}], "rt": 12143, "trial_id": "exp_instructions_control", "trial_type": "instructions", "trial_index": 1, "time_elapsed": 18826, "internal_node_id": "0.0-1.0"}}, {"uniqueid": "w69848714:a81308332", "current_trial": 2, "dateTime": 1691159755547, "trialdata": {"success": true, "trial_type": "fullscreen", "trial_index": 2, "time_elapsed": 29295, "internal_node_id": "0.0-2.0-0.0"}}, {"uniqueid": "w69848714:a81308332", "current_trial": 3, "dateTime": 1691159816956, "trialdata": {"view_history": [{"page_index": 0, "viewing_time": 12314}, {"page_index": 1, "viewing_time": 14901}, {"page_index": 2, "viewing_time": 24892}, {"page_index": 3, "viewing_time": 9296}], "rt": 61405, "trial_id": "mouselab_instructions_1_control", "trial_type": "instructions", "trial_index": 3, "time_elapsed": 90705, "internal_node_id": "0.0-2.0-1.0"}}, {"uniqueid": "w69848714:a81308332", "current_trial": 4, "dateTime": 1691159934793, "trialdata": {"revealed_states": [], "clicked_states": ["1", "23", "2", "12", "13", "14", "19", "21", "8", "24", "25", "26", "27", "29", "28", "33", "30", "7", "4", "3", "6"], "num_clicks_accrued": [0, 0, 0, 0, 0, 0, 0, 0, 0, 0, 0, 0, 0], "stateRewards": ["", 10, -10, 10, -10, -10, -10, 10, 10, 10, 10, -10, 10, 10, -10, -10, 10, 10, -10, 10, -10, 10, -10, -10, 10, -10, 10, 10, -10, 10, -10, -10, 10, 10], "withholdReward": false, "trial_id": "practice_1", "block": "test", "trialIndex": 0, "score": 3, "costs": -10.5, "simulationMode": [null, null, null, null, null], "rewards": [10, -10, 10, 10, -10], "path": ["0", "0", "1", "2", "3", "8", "11"], "rt": [93341, 1090, 577, 113, 333], "actions": ["up", "up", "up", "left", "left"], "actionTimes": [98053, 99665, 100775, 101398, 102251], "queries": {"click": {"state": {"target": ["1", "23", "2", "12", "13", "14", "19", "21", "8", "24", "25", "26", "27", "29", "28", "33", "30", "7", "4", "3", "6"], "time": [5273, 7414, 9776, 12486, 14024, 15925, 17683, 22794, 24866, 26702, 28000, 29634, 31145, 32632, 34254, 36121, 37810, 43155, 45123, 47615, 55367]}, "edge": {"target": [], "time": []}}, "mouseover": {"state": {"target": ["1", "23", "13", "2", "1", "0", "12", "13", "13", "14", "19", "21", "21", "19", "21", "22", "12", "1", "10", "8", "26", "24", "25", "26", "27", "26", "27", "27", "29", "29", "28", "25", "30", "30", "33", "30", "30", "31", "2", "7", "4", "4", "3", "6", "6", "18", "12", "23", "0", "18", "18", "12", "22", "31", "25", "7", "6", "6", "0"], "time": [4739, 6874, 8357, 9104, 11186, 11336, 11834, 13111, 13586, 14690, 17250, 18386, 21781, 21882, 22148, 23552, 23586, 23654, 23717, 23769, 25781, 26215, 27549, 28532, 28563, 29048, 30266, 30685, 31899, 32197, 33758, 34694, 34746, 35196, 35624, 36511, 37284, 38330, 42344, 42421, 43841, 44521, 47069, 54735, 61982, 62099, 62263, 62399, 62879, 64514, 69427, 69544, 72943, 79206, 79274, 79889, 79924, 80079, 83141]}, "edge": {"target": [], "time": []}}, "mouseout": {"state": {"target": ["0", "1", "1", "23", "13", "1", "2", "1", "0", "12", "13", "13", "13", "14", "19", "19", "21", "21", "19", "21", "22", "12", "1", "10", "8", "26", "24", "25", "26", "27", "26", "27", "27", "27", "29", "29", "26", "28", "25", "30", "30", "33", "30", "30", "30", "31", "2", "7", "4", "4", "3", "6", "6", "18", "12", "23", "0", "18", "18", "12", "22", "31", "25", "7", "6", "6", "0"], "time": [3207, 5392, 6407, 8174, 8521, 8687, 11069, 11269, 11371, 13091, 13182, 14152, 14589, 16986, 17818, 18352, 18569, 21831, 22099, 23485, 23570, 23602, 23667, 23751, 25618, 25892, 27414, 28488, 28549, 28997, 30183, 30399, 31275, 31811, 31981, 33327, 33418, 34662, 34729, 34796, 35407, 36481, 36762, 37937, 38278, 41740, 42379, 43756, 43923, 46606, 47747, 55492, 62014, 62181, 62279, 62696, 64012, 64794, 69477, 69577, 78459, 79223, 79775, 79905, 80005, 80113, 85255]}, "edge": {"target": [], "time": []}}}, "displayed_time": "102.77", "trialTime": 116662, "trial_type": "mouselab-mdp", "trial_index": 4, "time_elapsed": 208540, "internal_node_id": "0.0-2.0-2.0-0.0"}}, {"uniqueid": "w69848714:a81308332", "current_trial": 5, "dateTime": 1691159994957, "trialdata": {"revealed_states": [], "clicked_states": [], "num_clicks_accrued": [0, 0, 0, 0, 0, 0, 0, 0, 0, 0, 0, 0, 0], "stateRewards": ["", 10, -10, -10, 10, -10, 10, -10, 10, 10, 10, 10, -10, -10, -10, 10, -10, 10, -10, -10, 10, 10, -10, 10, -10, 10, 10, 10, 10, 10, 10, -10, 10, -10], "withholdReward": false, "trial_id": "practice_2", "block": "test", "trialIndex": 1, "score": -26.5, "costs": 0, "simulationMode": [null, null, null, null, null], "rewards": [-10, -10, -10, -10, 10], "path": ["0", "0", "12", "13", "14", "19", "21"], "rt": [1381, 601, 519, 1675, 2301], "actions": ["right", "right", "right", "down", "down"], "actionTimes": [9215, 10335, 11372, 13559, 16383], "queries": {"click": {"state": {"target": [], "time": []}, "edge": {"target": [], "time": []}}, "mouseover": {"state": {"target": [], "time": []}, "edge": {"target": [], "time": []}}, "mouseout": {"state": {"target": ["20", "19", "22", "0", "12", "13", "14", "19", "12", "13", "19", "19", "19", "14", "13"], "time": [6229, 6281, 6330, 24340, 24389, 24457, 24489, 24573, 28454, 28539, 28704, 32905, 34770, 36236, 37519]}, "edge": {"target": [], "time": []}}}, "displayed_time": "16.90", "trialTime": 59769, "trial_type": "mouselab-mdp", "trial_index": 5, "time_elapsed": 268705, "internal_node_id": "0.0-2.0-2.0-1.0"}}, {"uniqueid": "w69848714:a81308332", "current_trial": 6, "dateTime": 1691160118345, "trialdata": {"view_history": [{"page_index": 0, "viewing_time": 120850}, {"page_index": 1, "viewing_time": 2528}], "rt": 123378, "trial_id": "mouselab_instructions_2_control", "trial_type": "instructions", "trial_index": 6, "time_elapsed": 392094, "internal_node_id": "0.0-2.0-3.0"}}, {"uniqueid": "w69848714:a81308332", "current_trial": 7, "dateTime": 1691160195801, "trialdata": {"rt": 77447, "response": {"Q0": "The cost for clicking on nodes may vary between nodes.", "Q1": "The better I perform the higher my bonus will be.", "Q2": "No, the amount of cash at each node of the web may be different each time.", "Q3": "To get the highest total score.", "Q4": "Any time during the round.", "Q5": "3 seconds"}, "question_order": [0, 1, 2, 3, 4, 5], "correct": {"Q0": "The cost for clicking on nodes may vary between nodes.", "Q1": "The better I perform the higher my bonus will be.", "Q2": "No, the amount of cash at each node of the web may be different each time.", "Q3": "To get the highest total score.", "Q4": "Only before moving the spider.", "Q5": "3 seconds"}, "trial_id": "mouselab_quiz_control", "trial_type": "survey-multi-choice", "trial_index": 7, "time_elapsed": 469549, "internal_node_id": "0.0-2.0-4.0"}}, {"uniqueid": "w69848714:a81308332", "current_trial": 8, "dateTime": 1691160207153, "trialdata": {"success": true, "trial_type": "fullscreen", "trial_index": 8, "time_elapsed": 480901, "internal_node_id": "0.0-2.1-0.1"}}, {"uniqueid": "w69848714:a81308332", "current_trial": 9, "dateTime": 1691160738329, "trialdata": {"view_history": [{"page_index": 0, "viewing_time": 209955}, {"page_index": 1, "viewing_time": 10991}, {"page_index": 0, "viewing_time": 91057}, {"page_index": 1, "viewing_time": 103544}, {"page_index": 2, "viewing_time": 35632}, {"page_index": 3, "viewing_time": 79993}], "rt": 531171, "trial_id": "mouselab_instructions_1_control", "trial_type": "instructions", "trial_index": 9, "time_elapsed": 1012078, "internal_node_id": "0.0-2.1-1.1"}}, {"uniqueid": "w69848714:a81308332", "current_trial": 10, "dateTime": 1691160776453, "trialdata": {"revealed_states": [], "clicked_states": ["23", "26", "25", "30", "31", "33"], "num_clicks_accrued": [0, 0, 0, 0, 0, 0, 0, 0, 0, 0, 0, 0, 0], "stateRewards": ["", 10, -10, 10, -10, -10, -10, 10, 10, 10, 10, -10, 10, 10, -10, -10, 10, 10, -10, 10, -10, 10, -10, -10, 10, -10, 10, 10, -10, 10, -10, -10, 10, 10], "withholdReward": false, "trial_id": "practice_1", "block": "test", "trialIndex": 2, "score": 30.5, "costs": -3, "simulationMode": [null, null, null, null, null], "rewards": [10, 10, -10, 10, 10], "path": ["0", "0", "12", "13", "14", "19", "21"], "rt": [16869, 1287, 485, 1309, 666], "actions": ["right", "right", "right", "down", "down"], "actionTimes": [22570, 24368, 25366, 27189, 28379], "queries": {"click": {"state": {"target": ["23", "26", "25", "30", "31", "33"], "time": [7750, 11563, 13545, 14938, 15980, 17859]}, "edge": {"target": [], "time": []}}, "mouseover": {"state": {"target": ["23", "24", "25", "26", "25", "30", "31", "33", "33", "24", "1", "1", "0"], "time": [6701, 8915, 10787, 10969, 12865, 14448, 15484, 16581, 17262, 18747, 18898, 20911, 21883]}, "edge": {"target": [], "time": []}}, "mouseout": {"state": {"target": ["0", "23", "24", "25", "26", "25", "30", "31", "30", "33", "33", "24", "1", "1", "0"], "time": [2350, 8685, 10331, 10904, 12813, 14331, 15071, 16465, 16547, 16700, 18632, 18765, 19200, 21600, 21926]}, "edge": {"target": [], "time": []}}}, "displayed_time": "28.90", "trialTime": 37624, "trial_type": "mouselab-mdp", "trial_index": 10, "time_elapsed": 1050201, "internal_node_id": "0.0-2.1-2.1-0.1"}}, {"uniqueid": "w69848714:a81308332", "current_trial": 11, "dateTime": 1691160794112, "trialdata": {"revealed_states": [], "clicked_states": [], "num_clicks_accrued": [0, 0, 0, 0, 0, 0, 0, 0, 0, 0, 0, 0, 0], "stateRewards": ["", 10, -10, -10, 10, -10, 10, -10, 10, 10, 10, 10, -10, -10, -10, 10, -10, 10, -10, -10, 10, 10, -10, 10, -10, 10, 10, 10, 10, 10, 10, -10, 10, -10], "withholdReward": false, "trial_id": "practice_2", "block": "test", "trialIndex": 3, "score": 13.5, "costs": 0, "simulationMode": [null, null, null, null, null], "rewards": [10, -10, -10, 10, 10], "path": ["0", "0", "1", "2", "3", "8", "9"], "rt": [1550, 679, 3363, 1315, 900], "actions": ["up", "up", "up", "left", "up"], "actionTimes": [4144, 5340, 9225, 11058, 12472], "queries": {"click": {"state": {"target": [], "time": []}, "edge": {"target": [], "time": []}}, "mouseover": {"state": {"target": [], "time": []}, "edge": {"target": [], "time": []}}, "mouseout": {"state": {"target": [], "time": []}, "edge": {"target": [], "time": []}}}, "displayed_time": "12.99", "trialTime": 17185, "trial_type": "mouselab-mdp", "trial_index": 11, "time_elapsed": 1067859, "internal_node_id": "0.0-2.1-2.1-1.1"}}, {"uniqueid": "w69848714:a81308332", "current_trial": 12, "dateTime": 1691160815145, "trialdata": {"view_history": [{"page_index": 0, "viewing_time": 18652}, {"page_index": 1, "viewing_time": 2370}], "rt": 21022, "trial_id": "mouselab_instructions_2_control", "trial_type": "instructions", "trial_index": 12, "time_elapsed": 1088894, "internal_node_id": "0.0-2.1-3.1"}}, {"uniqueid": "w69848714:a81308332", "current_trial": 13, "dateTime": 1691161319951, "trialdata": {"rt": 504800, "response": {"Q0": "The cost for clicking on nodes may vary between nodes.", "Q1": "The better I perform the higher my bonus will be.", "Q2": "No, the amount of cash at each node of the web may be different each time.", "Q3": "To finish the game in the shortest amount of time.", "Q4": "Only before moving the spider.", "Q5": "3 seconds"}, "question_order": [0, 1, 2, 3, 4, 5], "correct": {"Q0": "The cost for clicking on nodes may vary between nodes.", "Q1": "The better I perform the higher my bonus will be.", "Q2": "No, the amount of cash at each node of the web may be different each time.", "Q3": "To get the highest total score.", "Q4": "Only before moving the spider.", "Q5": "3 seconds"}, "trial_id": "mouselab_quiz_control", "trial_type": "survey-multi-choice", "trial_index": 13, "time_elapsed": 1593700, "internal_node_id": "0.0-2.1-4.1"}}, {"uniqueid": "w69848714:a81308332", "current_trial": 14, "dateTime": 1691161330666, "trialdata": {"success": true, "trial_type": "fullscreen", "trial_index": 14, "time_elapsed": 1604414, "internal_node_id": "0.0-2.2-0.2"}}, {"uniqueid": "w69848714:a81308332", "current_trial": 15, "dateTime": 1691161405096, "trialdata": {"view_history": [{"page_index": 0, "viewing_time": 41601}, {"page_index": 1, "viewing_time": 5242}, {"page_index": 2, "viewing_time": 24865}, {"page_index": 3, "viewing_time": 2717}], "rt": 74425, "trial_id": "mouselab_instructions_1_control", "trial_type": "instructions", "trial_index": 15, "time_elapsed": 1678844, "internal_node_id": "0.0-2.2-1.2"}}, {"uniqueid": "w69848714:a81308332", "current_trial": 16, "dateTime": 1691161419470, "trialdata": {"revealed_states": [], "clicked_states": [], "num_clicks_accrued": [0, 0, 0, 0, 0, 0, 0, 0, 0, 0, 0, 0, 0], "stateRewards": ["", 10, -10, 10, -10, -10, -10, 10, 10, 10, 10, -10, 10, 10, -10, -10, 10, 10, -10, 10, -10, 10, -10, -10, 10, -10, 10, 10, -10, 10, -10, -10, 10, 10], "withholdReward": false, "trial_id": "practice_1", "block": "test", "trialIndex": 4, "score": 33.5, "costs": 0, "simulationMode": [null, null, null, null, null], "rewards": [10, -10, 10, 10, 10], "path": ["0", "0", "1", "2", "3", "8", "9"], "rt": [1675, 523, 412, 439, 858], "actions": ["up", "up", "up", "left", "up"], "actionTimes": [4233, 5280, 6203, 7163, 8533], "queries": {"click": {"state": {"target": [], "time": []}, "edge": {"target": [], "time": []}}, "mouseover": {"state": {"target": [], "time": []}, "edge": {"target": [], "time": []}}, "mouseout": {"state": {"target": ["0", "0", "17"], "time": [1188, 10150, 10253]}, "edge": {"target": [], "time": []}}}, "displayed_time": "9.06", "trialTime": 13740, "trial_type": "mouselab-mdp", "trial_index": 16, "time_elapsed": 1693217, "internal_node_id": "0.0-2.2-2.2-0.2"}}, {"uniqueid": "w69848714:a81308332", "current_trial": 17, "dateTime": 1691161447308, "trialdata": {"revealed_states": [], "clicked_states": ["23", "27", "26", "9"], "num_clicks_accrued": [0, 0, 0, 0, 0, 0, 0, 0, 0, 0, 0, 0, 0], "stateRewards": ["", 10, -10, -10, 10, -10, 10, -10, 10, 10, 10, 10, -10, -10, -10, 10, -10, 10, -10, -10, 10, 10, -10, 10, -10, 10, 10, 10, 10, 10, 10, -10, 10, -10], "withholdReward": false, "trial_id": "practice_2", "block": "test", "trialIndex": 5, "score": 11.5, "costs": -2, "simulationMode": [null, null, null, null, null], "rewards": [10, -10, -10, 10, 10], "path": ["0", "0", "1", "2", "3", "8", "9"], "rt": [14770, 1, 172, 285, 756], "actions": ["up", "up", "up", "left", "up"], "actionTimes": [17800, 18326, 19029, 19825, 21096], "queries": {"click": {"state": {"target": ["23", "27", "26", "9"], "time": [5605, 8832, 10651, 13026]}, "edge": {"target": [], "time": []}}, "mouseover": {"state": {"target": ["1", "2", "1", "23", "26", "27", "26", "25", "24", "1", "6", "9", "8", "1", "0", "0"], "time": [3709, 4242, 4409, 4947, 7442, 8245, 9851, 11430, 11706, 11807, 11944, 12310, 13892, 13974, 14007, 14356]}, "edge": {"target": [], "time": []}}, "mouseout": {"state": {"target": ["12", "0", "1", "2", "1", "23", "26", "27", "26", "25", "24", "1", "6", "9", "8", "1", "0", "0", "0"], "time": [1946, 3642, 3743, 4315, 4443, 5734, 7725, 9810, 11377, 11674, 11738, 11824, 11976, 13859, 13909, 13990, 14022, 14454, 23368]}, "edge": {"target": [], "time": []}}}, "displayed_time": "21.61", "trialTime": 27359, "trial_type": "mouselab-mdp", "trial_index": 17, "time_elapsed": 1721056, "internal_node_id": "0.0-2.2-2.2-1.2"}}, {"uniqueid": "w69848714:a81308332", "current_trial": 18, "dateTime": 1691161457454, "trialdata": {"view_history": [{"page_index": 0, "viewing_time": 7029}, {"page_index": 1, "viewing_time": 3111}], "rt": 10141, "trial_id": "mouselab_instructions_2_control", "trial_type": "instructions", "trial_index": 18, "time_elapsed": 1731203, "internal_node_id": "0.0-2.2-3.2"}}, {"uniqueid": "w69848714:a81308332", "current_trial": 19, "dateTime": 1691161632141, "trialdata": {"rt": 174681, "response": {"Q0": "The cost for clicking on nodes may vary between nodes.", "Q1": "The better I perform the higher my bonus will be.", "Q2": "No, the amount of cash at each node of the web may be different each time.", "Q3": "To get the highest total score.", "Q4": "Only before moving the spider.", "Q5": "3 seconds"}, "question_order": [0, 1, 2, 3, 4, 5], "correct": {"Q0": "The cost for clicking on nodes may vary between nodes.", "Q1": "The better I perform the higher my bonus will be.", "Q2": "No, the amount of cash at each node of the web may be different each time.", "Q3": "To get the highest total score.", "Q4": "Only before moving the spider.", "Q5": "3 seconds"}, "trial_id": "mouselab_quiz_control", "trial_type": "survey-multi-choice", "trial_index": 19, "time_elapsed": 1905890, "internal_node_id": "0.0-2.2-4.2"}}, {"uniqueid": "w69848714:a81308332", "current_trial": 20, "dateTime": 1691161635369, "trialdata": {"rt": 3216, "stimulus": "\n<h1> Get ready to start the game! </h1>\n\nThank you for reading the instructions. Get ready start with the 40 rounds of this game.\n<br><br>\nIf you need to take a break, feel free to take one after the end of a round, before continuing to the next one.\n<br><br>\nRemember, the more money the spider gets, the bigger your bonus will be!\n<br><br>\n<div style='text-align: center;'>Press <code>space</code> to begin.</div>\n\n<br><br>\n(If, at any point, the <code>space</code> key does not take you to the next page, click once on the text and try again.)", "response": " ", "trial_id": "mdp_ready", "trial_type": "html-keyboard-response", "trial_index": 20, "time_elapsed": 1909117, "internal_node_id": "0.0-4.0-0.0"}}, {"uniqueid": "w69848714:a81308332", "current_trial": 21, "dateTime": 1691161702553, "trialdata": {"revealed_states": [], "clicked_states": [], "num_clicks_accrued": [0, 0, 0, 0, 0, 0, 0, 0, 0, 0, 0, 0, 0], "stateRewards": ["", -1, -3, 1, -4, -48, -63, -49, -2, -84, -19, 65, 2, -2, -2, -12, -4, 59, 9, 6, 75, 69, -13, -1, -3, -3, -2, -37, -68, -36, 13, 32, 18, -14], "withholdReward": false, "trial_id": "mdp_trial_1", "block": "test", "trialIndex": 6, "score": -89, "costs": 0, "simulationMode": [null, null, null, null, null], "rewards": [-1, -3, 1, -2, -84], "path": ["0", "0", "1", "2", "3", "8", "9"], "rt": [2005, 335, 1090, 808, 186], "actions": ["up", "up", "up", "left", "up"], "actionTimes": [51216, 52071, 53675, 54993, 55704], "queries": {"click": {"state": {"target": [], "time": []}, "edge": {"target": [], "time": []}}, "mouseover": {"state": {"target": ["1", "0"], "time": [49865, 50199]}, "edge": {"target": [], "time": []}}, "mouseout": {"state": {"target": ["0", "1", "0"], "time": [49698, 50117, 50299]}, "edge": {"target": [], "time": []}}}, "displayed_time": "63.22", "trialTime": 66668, "trial_type": "mouselab-mdp", "trial_index": 21, "time_elapsed": 1976300, "internal_node_id": "0.0-4.0-1.0-0.0"}}, {"uniqueid": "w69848714:a81308332", "current_trial": 22, "dateTime": 1691161740081, "trialdata": {"revealed_states": [], "clicked_states": ["1", "2", "4", "5", "23", "24", "25", "26", "27"], "num_clicks_accrued": [0, 0, 0, 0, 0, 0, 0, 0, 0, 0, 0, 0, 0], "stateRewards": ["", -1, 4, -8, 12, 14, 69, -8, 5, -72, -14, 56, -1, -1, -1, 9, 67, 19, 11, -9, -88, -58, 3, 2, -4, -8, 4, 62, 77, -74, 5, -31, 65, 88], "withholdReward": false, "trial_id": "mdp_trial_2", "block": "test", "trialIndex": 7, "score": 47.4, "costs": -12.600000000000001, "simulationMode": [null, null, null, null, null, null], "rewards": [2, -4, -8, 5, 65], "path": ["0", "0", "23", "24", "25", "30", "32"], "rt": [15932, 10125, 133, 346, 1256, 445], "actions": ["left", "left", "left", "left", "down", "down"], "actionTimes": [18799, 28933, 29575, 30438, 32218, 33184], "queries": {"click": {"state": {"target": ["1", "2", "4", "5", "23", "24", "25", "26", "27"], "time": [4351, 8251, 12128, 14165, 17648, 20304, 22967, 24606, 26276]}, "edge": {"target": [], "time": []}}, "mouseover": {"state": {"target": ["1", "1", "23", "2", "2", "3", "3", "4", "5", "3", "10", "28", "23", "24", "28", "28", "25", "26", "27", "25", "31"], "time": [3500, 3850, 5083, 6736, 7280, 8651, 9082, 10314, 13537, 15258, 16011, 16294, 16845, 19729, 21395, 21828, 22376, 23858, 25574, 28405, 28491]}, "edge": {"target": [], "time": []}}, "mouseout": {"state": {"target": ["23", "2", "1", "1", "23", "2", "2", "3", "3", "4", "5", "3", "10", "28", "23", "23", "24", "28", "28", "25", "26", "27", "26", "25", "31"], "time": [1232, 1398, 3600, 5001, 6716, 6765, 8600, 8731, 10214, 13016, 15196, 15396, 16112, 16595, 17776, 19692, 21213, 21445, 22308, 23094, 25383, 27921, 28088, 28455, 28523]}, "edge": {"target": [], "time": []}}}, "displayed_time": "33.70", "trialTime": 37009, "trial_type": "mouselab-mdp", "trial_index": 22, "time_elapsed": 2013830, "internal_node_id": "0.0-4.0-1.0-1.0"}}, {"uniqueid": "w69848714:a81308332", "current_trial": 23, "dateTime": 1691161772280, "trialdata": {"revealed_states": [], "clicked_states": ["1", "2", "3", "8", "9"], "num_clicks_accrued": [0, 0, 0, 0, 0, 0, 0, 0, 0, 0, 0, 0, 0], "stateRewards": ["", 2, 3, -1, 6, 44, -4, -59, -14, -3, 64, 16, 1, -3, 3, 6, 3, 49, 19, 3, -49, -14, -86, 1, 2, -3, -8, -33, 14, 32, -13, -77, -47, -67], "withholdReward": false, "trial_id": "mdp_trial_3", "block": "test", "trialIndex": 8, "score": -67, "costs": -7, "simulationMode": [null, null, null, null, null], "rewards": [1, 2, -3, -13, -47], "path": ["0", "0", "23", "24", "25", "30", "32"], "rt": [20924, 932, 360, 205, 141], "actions": ["left", "left", "left", "down", "down"], "actionTimes": [23805, 25266, 26137, 26866, 27519], "queries": {"click": {"state": {"target": ["1", "2", "3", "8", "9"], "time": [5277, 7430, 10013, 11599, 13755]}, "edge": {"target": [], "time": []}}, "mouseover": {"state": {"target": ["1", "2", "2", "3", "8", "9", "7", "0", "23"], "time": [4684, 5702, 7002, 7841, 10535, 12314, 15563, 17544, 18459]}, "edge": {"target": [], "time": []}}, "mouseout": {"state": {"target": ["23", "0", "1", "2", "2", "3", "8", "9", "7", "0"], "time": [1383, 2931, 5622, 6688, 7559, 10484, 12182, 15281, 15744, 18009]}, "edge": {"target": [], "time": []}}}, "displayed_time": "28.05", "trialTime": 31655, "trial_type": "mouselab-mdp", "trial_index": 23, "time_elapsed": 2046028, "internal_node_id": "0.0-4.0-1.0-2.0"}}, {"uniqueid": "w69848714:a81308332", "current_trial": 24, "dateTime": 1691161808241, "trialdata": {"revealed_states": [], "clicked_states": ["12", "13", "14", "19", "21", "23", "24", "25", "32"], "num_clicks_accrued": [0, 0, 0, 0, 0, 0, 0, 0, 0, 0, 0, 0, 0], "stateRewards": ["", -2, 3, -1, 2, -72, 63, 20, -1, 62, -66, 39, -2, 3, -6, 14, 22, 47, 1, 8, -49, -1, -41, 2, 2, -6, -16, -64, -60, -34, 16, 54, 22, -7], "withholdReward": false, "trial_id": "mdp_trial_4", "block": "test", "trialIndex": 9, "score": 23.4, "costs": -12.600000000000001, "simulationMode": [null, null, null, null, null], "rewards": [2, 2, -6, 16, 22], "path": ["0", "0", "23", "24", "25", "30", "32"], "rt": [23138, 127, 92, 580, 80], "actions": ["left", "left", "left", "down", "down"], "actionTimes": [28081, 28725, 29339, 30442, 31045], "queries": {"click": {"state": {"target": ["12", "13", "14", "19", "21", "23", "24", "25", "32"], "time": [6121, 8544, 10190, 11888, 13946, 17691, 19440, 22321, 25241]}, "edge": {"target": [], "time": []}}, "mouseover": {"state": {"target": ["12", "13", "14", "19", "21", "0", "23", "23", "24", "25", "25", "30", "32", "30", "30", "4", "6", "17"], "time": [5602, 6691, 9106, 10995, 13085, 16430, 16498, 17081, 18880, 20248, 21711, 23115, 24678, 26029, 26595, 26927, 26978, 27509]}, "edge": {"target": [], "time": []}}, "mouseout": {"state": {"target": ["23", "12", "12", "13", "14", "19", "21", "0", "23", "23", "24", "25", "25", "30", "32", "30", "30", "4", "6", "17", "20"], "time": [2086, 2537, 6648, 9053, 10822, 12891, 14072, 16465, 16565, 18532, 20048, 21478, 23064, 24529, 25370, 26145, 26813, 26944, 27376, 27528, 34841]}, "edge": {"target": [], "time": []}}}, "displayed_time": "31.56", "trialTime": 35266, "trial_type": "mouselab-mdp", "trial_index": 24, "time_elapsed": 2081990, "internal_node_id": "0.0-4.0-1.0-3.0"}}, {"uniqueid": "w69848714:a81308332", "current_trial": 25, "dateTime": 1691161855668, "trialdata": {"revealed_states": [], "clicked_states": ["12", "21", "9", "5", "32"], "num_clicks_accrued": [0, 0, 0, 0, 0, 0, 0, 0, 0, 0, 0, 0, 0], "stateRewards": ["", -2, 1, -8, 12, -65, -79, 16, 7, -80, -17, -45, -2, 2, -5, -2, -85, 23, -4, -7, 48, 27, -76, 2, 3, 5, 2, 43, 71, -13, 7, -49, 59, -31], "withholdReward": false, "trial_id": "mdp_trial_5", "block": "test", "trialIndex": 10, "score": 69, "costs": -7, "simulationMode": [null, null, null, null, null], "rewards": [2, 3, 5, 7, 59], "path": ["0", "0", "23", "24", "25", "30", "32"], "rt": [16682, 584, 325, 862, 236], "actions": ["left", "left", "left", "down", "down"], "actionTimes": [38903, 40008, 40851, 42238, 42999], "queries": {"click": {"state": {"target": ["12", "21", "9", "5", "32"], "time": [24280, 26609, 30532, 33238, 35998]}, "edge": {"target": [], "time": []}}, "mouseover": {"state": {"target": ["12", "13", "19", "21", "21", "19", "13", "1", "3", "9", "5", "3", "10", "24", "30", "32"], "time": [23660, 24802, 25632, 25710, 26026, 27562, 28741, 28827, 29357, 29626, 32773, 34529, 34644, 34689, 35202, 35520]}, "edge": {"target": [], "time": []}}, "mouseout": {"state": {"target": ["19", "13", "12", "12", "13", "19", "21", "21", "19", "13", "1", "3", "9", "5", "5", "3", "10", "24", "30", "32"], "time": [1150, 1201, 1567, 24713, 25595, 25681, 25728, 27245, 27725, 28772, 28857, 29491, 32123, 33364, 34291, 34565, 34684, 35120, 35304, 36877]}, "edge": {"target": [], "time": []}}}, "displayed_time": "43.52", "trialTime": 46890, "trial_type": "mouselab-mdp", "trial_index": 25, "time_elapsed": 2129416, "internal_node_id": "0.0-4.0-1.0-4.0"}}, {"uniqueid": "w69848714:a81308332", "current_trial": 26, "dateTime": 1691161880930, "trialdata": {"revealed_states": [], "clicked_states": ["21", "32", "27", "9", "5", "16"], "num_clicks_accrued": [0, 0, 0, 0, 0, 0, 0, 0, 0, 0, 0, 0, 0], "stateRewards": ["", 1, 2, -3, -6, 50, -7, 7, -7, -80, 21, -1, 2, 2, 4, -1, 33, 84, 1, 14, -53, 81, 6, -2, -2, -3, -9, -87, -38, -59, -5, -74, -3, -71], "withholdReward": false, "trial_id": "mdp_trial_6", "block": "test", "trialIndex": 11, "score": 94.6, "costs": -8.4, "simulationMode": [null, null, null, null, null], "rewards": [2, 2, 4, 14, 81], "path": ["0", "0", "12", "13", "14", "19", "21"], "rt": [16151, 20, 51, 550, 300], "actions": ["right", "right", "right", "down", "down"], "actionTimes": [18302, 18842, 19408, 20488, 21312], "queries": {"click": {"state": {"target": ["21", "32", "27", "9", "5", "16"], "time": [4464, 6748, 9526, 11601, 13590, 15597]}, "edge": {"target": [], "time": []}}, "mouseover": {"state": {"target": ["0", "22", "21", "32", "30", "25", "26", "27", "11", "9", "5", "16", "15", "14", "22"], "time": [2811, 2893, 3530, 5712, 7360, 7393, 7442, 7492, 10259, 10626, 12558, 14322, 16341, 16520, 17321]}, "edge": {"target": [], "time": []}}, "mouseout": {"state": {"target": ["0", "0", "22", "21", "32", "30", "25", "26", "27", "11", "9", "5", "5", "16", "15", "14", "22"], "time": [861, 2844, 2912, 5094, 7309, 7376, 7425, 7460, 9655, 10292, 11731, 13720, 14125, 16239, 16471, 16637, 17386]}, "edge": {"target": [], "time": []}}}, "displayed_time": "21.82", "trialTime": 24578, "trial_type": "mouselab-mdp", "trial_index": 26, "time_elapsed": 2154677, "internal_node_id": "0.0-4.0-1.0-5.0"}}, {"uniqueid": "w69848714:a81308332", "current_trial": 27, "dateTime": 1691161911815, "trialdata": {"revealed_states": [], "clicked_states": ["21", "32", "27", "9", "5", "17"], "num_clicks_accrued": [0, 0, 0, 0, 0, 0, 0, 0, 0, 0, 0, 0, 0], "stateRewards": ["", -2, -3, 8, -4, -30, 31, 69, 9, 66, 87, 64, -2, 2, 8, 5, 47, 16, -39, -8, -54, 51, -19, 1, -2, -2, -11, -25, -26, 43, -9, 19, -84, 86], "withholdReward": false, "trial_id": "mdp_trial_7", "block": "test", "trialIndex": 12, "score": 69.6, "costs": -8.4, "simulationMode": [null, null, null, null, null], "rewards": [-2, -3, 8, 9, 66], "path": ["0", "0", "1", "2", "3", "8", "9"], "rt": [17497, 315, 134, 745, 840], "actions": ["up", "up", "up", "left", "up"], "actionTimes": [20755, 21577, 22228, 23503, 24866], "queries": {"click": {"state": {"target": ["21", "32", "27", "9", "5", "17"], "time": [5090, 7513, 9541, 11561, 13628, 17663]}, "edge": {"target": [], "time": []}}, "mouseover": {"state": {"target": ["21", "31", "30", "32", "30", "27", "11", "9", "9", "5", "6", "14", "20", "21", "17", "17", "15", "18", "13"], "time": [4752, 5883, 5934, 6950, 8048, 8847, 10031, 10131, 10464, 12098, 14148, 14295, 14344, 15658, 16692, 17107, 18585, 18677, 18968]}, "edge": {"target": [], "time": []}}, "mouseout": {"state": {"target": ["0", "21", "31", "30", "32", "30", "27", "11", "9", "9", "5", "6", "14", "20", "21", "17", "17", "15", "18", "13"], "time": [3933, 5229, 5918, 6381, 7999, 8081, 9669, 10083, 10198, 12013, 14109, 14179, 14312, 14812, 16625, 16711, 18564, 18641, 18701, 18994]}, "edge": {"target": [], "time": []}}}, "displayed_time": "25.38", "trialTime": 30312, "trial_type": "mouselab-mdp", "trial_index": 27, "time_elapsed": 2185563, "internal_node_id": "0.0-4.0-1.0-6.0"}}, {"uniqueid": "w69848714:a81308332", "current_trial": 28, "dateTime": 1691161936895, "trialdata": {"revealed_states": [], "clicked_states": ["21", "16", "5", "9", "27", "32"], "num_clicks_accrued": [0, 0, 0, 0, 0, 0, 0, 0, 0, 0, 0, 0, 0], "stateRewards": ["", -1, -3, -3, 1, -38, 2, -53, -2, -1, -81, 70, -1, 1, -5, -9, 46, 15, 35, -1, -22, 38, 59, -2, 4, -8, 13, 1, -83, -43, 4, 76, 13, 48], "withholdReward": false, "trial_id": "mdp_trial_8", "block": "test", "trialIndex": 13, "score": 23.6, "costs": -8.4, "simulationMode": [null, null, null, null, null], "rewards": [-1, 1, -5, -9, 46], "path": ["0", "0", "12", "13", "14", "15", "16"], "rt": [15799, 369, 236, 606, 87], "actions": ["right", "right", "right", "up", "up"], "actionTimes": [18917, 19803, 20559, 21689, 22286], "queries": {"click": {"state": {"target": ["21", "16", "5", "9", "27", "32"], "time": [5757, 8021, 10484, 12532, 14600, 17053]}, "edge": {"target": [], "time": []}}, "mouseover": {"state": {"target": ["0", "21", "19", "14", "15", "16", "16", "6", "5", "9", "11", "27", "26", "25", "30", "32", "32", "32"], "time": [4037, 5269, 6439, 6460, 6497, 6926, 7534, 8542, 8696, 11419, 13334, 13834, 15232, 15273, 15306, 15354, 16163, 16553]}, "edge": {"target": [], "time": []}}, "mouseout": {"state": {"target": ["0", "0", "21", "19", "14", "15", "16", "16", "6", "5", "9", "11", "27", "26", "25", "30", "32", "32", "32"], "time": [3953, 4053, 6403, 6454, 6477, 6547, 7051, 8471, 8580, 10986, 13133, 13350, 15201, 15269, 15289, 15323, 15386, 16229, 17799]}, "edge": {"target": [], "time": []}}}, "displayed_time": "22.80", "trialTime": 24593, "trial_type": "mouselab-mdp", "trial_index": 28, "time_elapsed": 2210643, "internal_node_id": "0.0-4.0-1.0-7.0"}}, {"uniqueid": "w69848714:a81308332", "current_trial": 29, "dateTime": 1691161956931, "trialdata": {"revealed_states": [], "clicked_states": ["21", "16", "5"], "num_clicks_accrued": [0, 0, 0, 0, 0, 0, 0, 0, 0, 0, 0, 0, 0], "stateRewards": ["", -2, 4, -7, -3, -76, 39, -28, 10, 14, 12, 60, 2, -3, 6, -10, 88, -34, -41, -3, 72, -13, -56, 1, 3, 2, 8, -51, 23, -57, 1, 14, -46, -16], "withholdReward": false, "trial_id": "mdp_trial_9", "block": "test", "trialIndex": 14, "score": 78.8, "costs": -4.199999999999999, "simulationMode": [null, null, null, null, null], "rewards": [2, -3, 6, -10, 88], "path": ["0", "0", "12", "13", "14", "15", "16"], "rt": [9381, 497, 296, 547, 351], "actions": ["right", "right", "right", "up", "up"], "actionTimes": [12332, 13344, 14159, 15226, 16096], "queries": {"click": {"state": {"target": ["21", "16", "5"], "time": [4695, 7207, 9727]}, "edge": {"target": [], "time": []}}, "mouseover": {"state": {"target": ["12", "20", "21", "19", "16", "4", "5", "5", "3", "2", "2", "10", "8"], "time": [3613, 3745, 4062, 5198, 6180, 8380, 8449, 9176, 10678, 10764, 11213, 11614, 11745]}, "edge": {"target": [], "time": []}}, "mouseout": {"state": {"target": ["31", "12", "0", "12", "20", "21", "19", "16", "4", "5", "5", "3", "2", "2", "10"], "time": [1563, 1817, 3597, 3667, 3812, 4829, 5212, 8251, 8431, 8497, 10646, 10730, 10968, 11275, 11676]}, "edge": {"target": [], "time": []}}}, "displayed_time": "16.95", "trialTime": 19517, "trial_type": "mouselab-mdp", "trial_index": 29, "time_elapsed": 2230679, "internal_node_id": "0.0-4.0-1.0-8.0"}}, {"uniqueid": "w69848714:a81308332", "current_trial": 30, "dateTime": 1691161983825, "trialdata": {"revealed_states": [], "clicked_states": ["21", "32", "27", "9", "5", "16"], "num_clicks_accrued": [0, 0, 0, 0, 0, 0, 0, 0, 0, 0, 0, 0, 0], "stateRewards": ["", -2, 1, -7, 9, 8, 25, 61, -7, -17, 69, -81, 1, 4, -4, -11, 16, 67, 44, 3, 6, -45, -54, -2, 3, 6, -11, -15, 32, -47, 3, -39, -6, -88], "withholdReward": false, "trial_id": "mdp_trial_10", "block": "test", "trialIndex": 15, "score": -2.3999999999999986, "costs": -8.4, "simulationMode": [null, null, null, null, null], "rewards": [1, 4, -4, -11, 16], "path": ["0", "0", "12", "13", "14", "15", "16"], "rt": [14325, 581, 363, 407, 316], "actions": ["right", "right", "right", "up", "up"], "actionTimes": [18082, 19189, 20071, 20998, 21832], "queries": {"click": {"state": {"target": ["21", "32", "27", "9", "5", "16"], "time": [5435, 7191, 9218, 10762, 12829, 15184]}, "edge": {"target": [], "time": []}}, "mouseover": {"state": {"target": ["0", "21", "32", "30", "25", "26", "27", "11", "9", "9", "5", "6", "16", "18", "12"], "time": [4311, 4693, 6114, 7711, 7778, 7876, 8029, 9628, 9676, 10034, 12066, 13807, 14722, 16804, 17154]}, "edge": {"target": [], "time": []}}, "mouseout": {"state": {"target": ["8", "2", "1", "0", "21", "32", "30", "25", "26", "27", "11", "9", "9", "5", "6", "16", "18", "12"], "time": [1959, 2043, 2143, 4329, 5850, 7678, 7743, 7826, 8000, 9594, 9645, 9710, 10885, 13445, 14212, 16675, 16873, 17204]}, "edge": {"target": [], "time": []}}}, "displayed_time": "22.36", "trialTime": 26383, "trial_type": "mouselab-mdp", "trial_index": 30, "time_elapsed": 2257572, "internal_node_id": "0.0-4.0-1.0-9.0"}}, {"uniqueid": "w69848714:a81308332", "current_trial": 31, "dateTime": 1691162006021, "trialdata": {"revealed_states": [], "clicked_states": ["9", "5"], "num_clicks_accrued": [0, 0, 0, 0, 0, 0, 0, 0, 0, 0, 0, 0, 0], "stateRewards": ["", -1, 1, -2, 5, 73, 15, 61, 8, 7, 38, 76, 2, 2, -4, -6, -6, -26, 43, -5, -45, -85, -35, -2, 1, -4, 15, -10, 69, 72, -11, 84, -49, -38], "withholdReward": false, "trial_id": "mdp_trial_11", "block": "test", "trialIndex": 16, "score": 73.2, "costs": -2.8, "simulationMode": [null, null, null, null, null], "rewards": [-1, 1, -2, 5, 73], "path": ["0", "0", "1", "2", "3", "4", "5"], "rt": [6989, 175, 232, 520, 326], "actions": ["up", "up", "up", "right", "up"], "actionTimes": [12517, 13215, 13970, 15008, 15848], "queries": {"click": {"state": {"target": ["9", "5"], "time": [7174, 9273]}, "edge": {"target": [], "time": []}}, "mouseover": {"state": {"target": ["1", "9", "5", "6", "16"], "time": [6155, 6604, 7686, 9791, 9952]}, "edge": {"target": [], "time": []}}, "mouseout": {"state": {"target": ["0", "1", "1", "9", "5", "6"], "time": [2771, 4092, 6172, 7301, 9689, 9839]}, "edge": {"target": [], "time": []}}}, "displayed_time": "19.53", "trialTime": 21672, "trial_type": "mouselab-mdp", "trial_index": 31, "time_elapsed": 2279769, "internal_node_id": "0.0-4.0-1.0-10.0"}}, {"uniqueid": "w69848714:a81308332", "current_trial": 32, "dateTime": 1691162031525, "trialdata": {"revealed_states": [], "clicked_states": [], "num_clicks_accrued": [0, 0, 0, 0, 0, 0, 0, 0, 0, 0, 0, 0, 0], "stateRewards": ["", 1, -2, 7, -14, 88, -56, -44, -14, 64, -51, -57, -2, 3, -4, -9, -11, 19, -77, -1, 68, 75, -67, -1, 1, -2, 5, -37, 70, -34, -10, -72, 63, -41], "withholdReward": false, "trial_id": "mdp_trial_12", "block": "test", "trialIndex": 17, "score": 71, "costs": 0, "simulationMode": [null, null, null, null, null], "rewards": [-2, 3, -4, -1, 75], "path": ["0", "0", "12", "13", "14", "19", "21"], "rt": [5093, 341, 275, 409, 33], "actions": ["right", "right", "right", "down", "down"], "actionTimes": [13299, 14153, 14940, 15872, 16428], "queries": {"click": {"state": {"target": [], "time": []}, "edge": {"target": [], "time": []}}, "mouseover": {"state": {"target": ["12", "13", "19", "22"], "time": [10910, 11009, 11092, 12479]}, "edge": {"target": [], "time": []}}, "mouseout": {"state": {"target": ["16", "1", "23", "0", "0", "12", "13", "19", "22"], "time": [5760, 5927, 6314, 6497, 10892, 10976, 11026, 12460, 12511]}, "edge": {"target": [], "time": []}}}, "displayed_time": "22.21", "trialTime": 24973, "trial_type": "mouselab-mdp", "trial_index": 32, "time_elapsed": 2305272, "internal_node_id": "0.0-4.0-1.0-11.0"}}, {"uniqueid": "w69848714:a81308332", "current_trial": 33, "dateTime": 1691162058960, "trialdata": {"revealed_states": [], "clicked_states": ["9", "5", "32", "21", "16", "27"], "num_clicks_accrued": [0, 0, 0, 0, 0, 0, 0, 0, 0, 0, 0, 0, 0], "stateRewards": ["", 2, -3, -5, 5, 11, -9, -33, 6, 67, 6, -30, -1, -2, -6, 13, 55, 13, 72, -14, 75, 21, -66, -2, -4, 6, 15, -1, -35, 60, 2, 51, -73, 12], "withholdReward": false, "trial_id": "mdp_trial_13", "block": "test", "trialIndex": 18, "score": 58.6, "costs": -8.4, "simulationMode": [null, null, null, null, null, null], "rewards": [2, -3, -5, 6, 67], "path": ["0", "0", "1", "2", "3", "8", "9"], "rt": [14971, 349, 505, 146, 393, 1168], "actions": ["up", "up", "up", "up", "left", "up"], "actionTimes": [18556, 18910, 19929, 20589, 21499, 23190], "queries": {"click": {"state": {"target": ["9", "5", "32", "21", "16", "27"], "time": [5037, 7080, 9459, 11742, 14303, 17081]}, "edge": {"target": [], "time": []}}, "mouseover": {"state": {"target": ["10", "8", "9", "9", "5", "2", "10", "28", "24", "32", "32", "21", "19", "17", "16", "7", "2", "10", "27"], "time": [4049, 4085, 4108, 4543, 5828, 7578, 7642, 7743, 7782, 7822, 8260, 11190, 12391, 12542, 12808, 15092, 15141, 15638, 16586]}, "edge": {"target": [], "time": []}}, "mouseout": {"state": {"target": ["0", "10", "8", "9", "9", "5", "2", "10", "28", "24", "32", "32", "21", "19", "17", "16", "7", "2", "10", "27", "26", "25"], "time": [3607, 4074, 4101, 4126, 5430, 7478, 7595, 7659, 7759, 7817, 7850, 9930, 12344, 12409, 12709, 14990, 15124, 15181, 15707, 26134, 26266, 26432]}, "edge": {"target": [], "time": []}}}, "displayed_time": "23.70", "trialTime": 26885, "trial_type": "mouselab-mdp", "trial_index": 33, "time_elapsed": 2332708, "internal_node_id": "0.0-4.0-1.0-12.0"}}, {"uniqueid": "w69848714:a81308332", "current_trial": 34, "dateTime": 1691162078679, "trialdata": {"revealed_states": [], "clicked_states": [], "num_clicks_accrued": [0, 0, 0, 0, 0, 0, 0, 0, 0, 0, 0, 0, 0], "stateRewards": ["", -2, -2, -3, -6, -15, -11, 41, -12, -63, -76, 2, -2, -3, 8, 9, -36, -2, -18, -16, -32, -85, -17, -2, 1, 5, -16, 82, 35, -88, -1, 80, -82, -20], "withholdReward": false, "trial_id": "mdp_trial_14", "block": "test", "trialIndex": 19, "score": -24, "costs": 0, "simulationMode": [null, null, null, null, null], "rewards": [-2, -3, 8, 9, -36], "path": ["0", "0", "12", "13", "14", "15", "16"], "rt": [5220, 217, 131, 445, 313], "actions": ["right", "right", "right", "up", "up"], "actionTimes": [7571, 8319, 8975, 9939, 10773], "queries": {"click": {"state": {"target": [], "time": []}, "edge": {"target": [], "time": []}}, "mouseover": {"state": {"target": ["23", "23"], "time": [4241, 5028]}, "edge": {"target": [], "time": []}}, "mouseout": {"state": {"target": ["0", "23", "23"], "time": [3441, 4374, 6991]}, "edge": {"target": [], "time": []}}}, "displayed_time": "16.35", "trialTime": 19113, "trial_type": "mouselab-mdp", "trial_index": 34, "time_elapsed": 2352427, "internal_node_id": "0.0-4.0-1.0-13.0"}}, {"uniqueid": "w69848714:a81308332", "current_trial": 35, "dateTime": 1691162110044, "trialdata": {"revealed_states": [], "clicked_states": ["9", "5", "27", "16", "21", "32", "29"], "num_clicks_accrued": [0, 0, 0, 0, 0, 0, 0, 0, 0, 0, 0, 0, 0], "stateRewards": ["", 1, 2, -3, 6, -88, 74, -45, 7, -46, 40, -77, 1, -4, 4, 3, 22, -25, -59, 8, -83, 19, -60, -1, -1, -1, -8, 26, -29, 64, -7, -88, -51, -55], "withholdReward": false, "trial_id": "mdp_trial_15", "block": "test", "trialIndex": 20, "score": 43.2, "costs": -9.8, "simulationMode": [null, null, null, null, null], "rewards": [-1, -1, -1, -8, 64], "path": ["0", "0", "23", "24", "25", "26", "29"], "rt": [18993, 214, 191, 620, 1563], "actions": ["left", "left", "left", "up", "left"], "actionTimes": [22146, 22881, 23592, 24737, 26813], "queries": {"click": {"state": {"target": ["9", "5", "27", "16", "21", "32", "29"], "time": [4744, 6826, 8887, 10603, 14163, 16905, 19086]}, "edge": {"target": [], "time": []}}, "mouseover": {"state": {"target": ["8", "9", "5", "5", "27", "10", "2", "7", "16", "15", "19", "21", "21", "32", "33", "29", "24", "23", "0"], "time": [3903, 3972, 5321, 5954, 7734, 9365, 9417, 9471, 9837, 11654, 12566, 13033, 13585, 15783, 17802, 18156, 20202, 20415, 20702]}, "edge": {"target": [], "time": []}}, "mouseout": {"state": {"target": ["8", "9", "5", "5", "27", "10", "2", "7", "16", "16", "15", "19", "21", "21", "32", "33", "29", "24", "23", "0"], "time": [3936, 5255, 5422, 7255, 9292, 9398, 9453, 9509, 10734, 11604, 11721, 12999, 13117, 14734, 17682, 17819, 20084, 20302, 20565, 20751]}, "edge": {"target": [], "time": []}}}, "displayed_time": "27.33", "trialTime": 30765, "trial_type": "mouselab-mdp", "trial_index": 35, "time_elapsed": 2383792, "internal_node_id": "0.0-4.0-1.0-14.0"}}, {"uniqueid": "w69848714:a81308332", "current_trial": 36, "dateTime": 1691162137609, "trialdata": {"revealed_states": [], "clicked_states": ["21", "32", "27", "9", "5", "16"], "num_clicks_accrued": [0, 0, 0, 0, 0, 0, 0, 0, 0, 0, 0, 0, 0], "stateRewards": ["", -2, 4, -5, -12, 85, -24, -18, -15, -78, -22, 26, -1, -1, 2, 14, -45, 52, -23, 7, -33, 24, -6, -2, -4, 5, -7, -16, 36, -39, 5, 71, -87, -23], "withholdReward": false, "trial_id": "mdp_trial_16", "block": "test", "trialIndex": 21, "score": 61.6, "costs": -8.4, "simulationMode": [null, null, null, null, null], "rewards": [-2, 4, -5, -12, 85], "path": ["0", "0", "1", "2", "3", "4", "5"], "rt": [16126, 391, 122, 559, 527], "actions": ["up", "up", "up", "right", "up"], "actionTimes": [21465, 22375, 23023, 24093, 25142], "queries": {"click": {"state": {"target": ["21", "32", "27", "9", "5", "16"], "time": [8317, 10557, 12951, 15003, 17007, 19252]}, "edge": {"target": [], "time": []}}, "mouseover": {"state": {"target": ["12", "22", "21", "32", "30", "25", "27", "11", "9", "5", "6", "16", "7"], "time": [6521, 7072, 7735, 10005, 11545, 11617, 12389, 13489, 13668, 15851, 17597, 18231, 20267]}, "edge": {"target": [], "time": []}}, "mouseout": {"state": {"target": ["31", "25", "24", "23", "0", "12", "22", "21", "32", "30", "25", "27", "11", "9", "5", "6", "16", "7"], "time": [2703, 3020, 3154, 4142, 6219, 7054, 7487, 9279, 10715, 11572, 11670, 13082, 13573, 15140, 17522, 17701, 20133, 20289]}, "edge": {"target": [], "time": []}}}, "displayed_time": "25.67", "trialTime": 26960, "trial_type": "mouselab-mdp", "trial_index": 36, "time_elapsed": 2411357, "internal_node_id": "0.0-4.0-1.0-15.0"}}, {"uniqueid": "w69848714:a81308332", "current_trial": 37, "dateTime": 1691162159568, "trialdata": {"revealed_states": [], "clicked_states": ["23", "32", "21", "16", "5"], "num_clicks_accrued": [0, 0, 0, 0, 0, 0, 0, 0, 0, 0, 0, 0, 0], "stateRewards": ["", 2, 2, 3, -15, 23, -14, 73, -7, -32, -20, -6, 1, 1, -5, -12, 73, 6, -84, 11, -81, -57, 13, -2, -1, -4, -8, -52, -58, 49, 13, 5, -41, -41], "withholdReward": false, "trial_id": "mdp_trial_17", "block": "test", "trialIndex": 22, "score": 51, "costs": -7, "simulationMode": [null, null, null, null, null], "rewards": [1, 1, -5, -12, 73], "path": ["0", "0", "12", "13", "14", "15", "16"], "rt": [13387, 87, 18, 575, 61], "actions": ["right", "right", "right", "up", "up"], "actionTimes": [16684, 17283, 17828, 18920, 19506], "queries": {"click": {"state": {"target": ["23", "32", "21", "16", "5"], "time": [5375, 7366, 10041, 11969, 14770]}, "edge": {"target": [], "time": []}}, "mouseover": {"state": {"target": ["1", "23", "24", "25", "30", "32", "13", "14", "19", "21", "21", "19", "14", "15", "16", "7", "2", "3", "5", "5", "4", "7", "31"], "time": [4063, 4834, 6053, 6241, 6431, 6495, 8359, 8394, 8913, 9112, 9561, 10703, 10777, 10831, 11213, 12814, 12899, 13347, 13775, 14276, 15546, 15614, 15834]}, "edge": {"target": [], "time": []}}, "mouseout": {"state": {"target": ["1", "23", "24", "25", "30", "32", "13", "14", "19", "21", "21", "19", "14", "15", "16", "16", "7", "2", "3", "5", "5", "4", "7"], "time": [4479, 5507, 6172, 6373, 6470, 8234, 8376, 8445, 8994, 9279, 10665, 10743, 10811, 10952, 12110, 12718, 12864, 13328, 13727, 13811, 15527, 15593, 15636]}, "edge": {"target": [], "time": []}}}, "displayed_time": "20.03", "trialTime": 21390, "trial_type": "mouselab-mdp", "trial_index": 37, "time_elapsed": 2433316, "internal_node_id": "0.0-4.0-1.0-16.0"}}, {"uniqueid": "w69848714:a81308332", "current_trial": 38, "dateTime": 1691162185498, "trialdata": {"revealed_states": [], "clicked_states": ["21", "32", "16", "27", "9", "5"], "num_clicks_accrued": [0, 0, 0, 0, 0, 0, 0, 0, 0, 0, 0, 0, 0], "stateRewards": ["", -1, 3, 2, 9, 41, 4, -46, -12, -54, -87, -25, 2, 3, -1, 11, -77, 12, -33, -9, -32, 35, 72, 1, 3, -7, 4, 37, 65, -73, 6, 77, -43, 8], "withholdReward": false, "trial_id": "mdp_trial_18", "block": "test", "trialIndex": 23, "score": 21.6, "costs": -8.4, "simulationMode": [null, null, null, null, null], "rewards": [2, 3, -1, -9, 35], "path": ["0", "0", "12", "13", "14", "19", "21"], "rt": [17340, 60, 58, 594, 91], "actions": ["right", "right", "right", "down", "down"], "actionTimes": [20898, 21478, 22077, 23194, 23809], "queries": {"click": {"state": {"target": ["21", "32", "16", "27", "9", "5"], "time": [6096, 8705, 11554, 14495, 16359, 18488]}, "edge": {"target": [], "time": []}}, "mouseover": {"state": {"target": ["12", "22", "19", "21", "32", "0", "16", "7", "2", "10", "27", "27", "9", "5", "4", "1", "0"], "time": [4807, 4872, 4908, 5377, 8364, 9207, 11105, 12159, 12203, 12224, 13484, 13974, 15488, 17151, 18985, 19101, 19558]}, "edge": {"target": [], "time": []}}, "mouseout": {"state": {"target": ["31", "0", "12", "12", "23", "0", "12", "22", "19", "21", "32", "0", "16", "7", "2", "10", "27", "27", "9", "5", "5", "4", "1", "0"], "time": [1472, 1573, 1724, 1923, 2573, 4791, 4823, 4891, 4926, 6225, 9127, 9246, 12012, 12188, 12219, 12243, 13535, 14985, 16494, 18617, 18951, 18999, 19151, 19579]}, "edge": {"target": [], "time": []}}}, "displayed_time": "24.35", "trialTime": 25354, "trial_type": "mouselab-mdp", "trial_index": 38, "time_elapsed": 2459245, "internal_node_id": "0.0-4.0-1.0-17.0"}}, {"uniqueid": "w69848714:a81308332", "current_trial": 39, "dateTime": 1691162203364, "trialdata": {"revealed_states": [], "clicked_states": ["32", "21", "16"], "num_clicks_accrued": [0, 0, 0, 0, 0, 0, 0, 0, 0, 0, 0, 0, 0], "stateRewards": ["", 2, -1, 4, -9, -43, 7, 54, -13, 38, -40, -83, -1, 2, -8, -10, 34, -33, 11, -14, -79, 65, 26, 1, 2, 4, 10, 21, 1, 86, 4, -53, 28, -29], "withholdReward": false, "trial_id": "mdp_trial_19", "block": "test", "trialIndex": 24, "score": 39.8, "costs": -4.199999999999999, "simulationMode": [null, null, null, null, null], "rewards": [-1, 2, -8, -14, 65], "path": ["0", "0", "12", "13", "14", "19", "21"], "rt": [7646, 233, 86, 316, 96], "actions": ["right", "right", "right", "down", "down"], "actionTimes": [10095, 10842, 11445, 12274, 12886], "queries": {"click": {"state": {"target": ["32", "21", "16"], "time": [4364, 6458, 8536]}, "edge": {"target": [], "time": []}}, "mouseover": {"state": {"target": ["23", "31", "32", "21", "21", "19", "14", "15", "16", "0"], "time": [3292, 3406, 3806, 4978, 5441, 6841, 6894, 6964, 7382, 9308]}, "edge": {"target": [], "time": []}}, "mouseout": {"state": {"target": ["0", "1", "23", "31", "32", "21", "21", "19", "14", "15", "16", "16", "0"], "time": [1058, 1390, 3341, 3441, 4489, 4997, 6773, 6876, 6929, 7000, 8669, 9008, 9377]}, "edge": {"target": [], "time": []}}}, "displayed_time": "16.45", "trialTime": 17300, "trial_type": "mouselab-mdp", "trial_index": 39, "time_elapsed": 2477112, "internal_node_id": "0.0-4.0-1.0-18.0"}}, {"uniqueid": "w69848714:a81308332", "current_trial": 40, "dateTime": 1691162254017, "trialdata": {"revealed_states": [], "clicked_states": ["9", "5", "21", "32", "27", "29", "17", "6", "11", "14", "18", "28", "26"], "num_clicks_accrued": [0, 0, 0, 0, 0, 0, 0, 0, 0, 0, 0, 0, 0], "stateRewards": ["", -2, -4, -6, 12, -58, -70, -80, 2, 16, -88, -62, 1, 2, -5, 11, 77, -35, -44, -5, 18, -83, 87, 1, -3, -5, 13, -44, -21, -86, 10, -52, 8, 29], "withholdReward": false, "trial_id": "mdp_trial_20", "block": "test", "trialIndex": 25, "score": -98.2, "costs": -18.2, "simulationMode": [null, null, null, null, null], "rewards": [1, -3, -5, 13, -86], "path": ["0", "0", "23", "24", "25", "26", "29"], "rt": [37831, 40, 405, 858, 1205], "actions": ["left", "left", "left", "up", "left"], "actionTimes": [40574, 41142, 42098, 43471, 45214], "queries": {"click": {"state": {"target": ["9", "5", "21", "32", "27", "29", "17", "6", "11", "14", "18", "28", "26"], "time": [4110, 6164, 8924, 11486, 13909, 16191, 19179, 22146, 24673, 28103, 30493, 33567, 36222]}, "edge": {"target": [], "time": []}}, "mouseover": {"state": {"target": ["1", "2", "3", "9", "5", "4", "7", "13", "22", "21", "32", "30", "25", "26", "27", "29", "29", "26", "15", "17", "17", "16", "6", "4", "11", "10", "1", "13", "14", "18", "1", "28", "26", "25"], "time": [3194, 3227, 3262, 3394, 4810, 6800, 7345, 7958, 8139, 8394, 10974, 12074, 12186, 12303, 12779, 14428, 15660, 18083, 18288, 18360, 18701, 20003, 21621, 22651, 24018, 26732, 26817, 27317, 27632, 29499, 32664, 32948, 34797, 36818]}, "edge": {"target": [], "time": []}}, "mouseout": {"state": {"target": ["0", "1", "2", "3", "9", "5", "4", "7", "13", "22", "21", "32", "30", "25", "26", "27", "29", "29", "26", "15", "17", "17", "16", "6", "4", "11", "11", "10", "1", "13", "14", "18", "1", "28", "26"], "time": [1859, 3212, 3247, 3279, 4645, 6750, 6861, 7416, 8057, 8240, 9593, 12028, 12134, 12247, 12358, 14038, 14452, 17290, 18153, 18306, 18383, 19806, 20123, 22603, 22689, 24802, 25355, 26765, 26835, 27515, 29133, 31585, 32714, 34300, 36733]}, "edge": {"target": [], "time": []}}}, "displayed_time": "45.73", "trialTime": 50096, "trial_type": "mouselab-mdp", "trial_index": 40, "time_elapsed": 2527765, "internal_node_id": "0.0-4.0-1.0-19.0"}}, {"uniqueid": "w69848714:a81308332", "current_trial": 41, "dateTime": 1691162274580, "trialdata": {"revealed_states": [], "clicked_states": ["21"], "num_clicks_accrued": [0, 0, 0, 0, 0, 0, 0, 0, 0, 0, 0, 0, 0], "stateRewards": ["", 1, 1, -2, 7, -31, -6, 76, 1, -36, -16, -53, 2, 1, 7, 13, -47, -10, 47, -7, 72, 46, -56, -2, -2, -2, 11, -80, 44, 38, 16, 67, 85, -78], "withholdReward": false, "trial_id": "mdp_trial_21", "block": "test", "trialIndex": 26, "score": 47.6, "costs": -1.4, "simulationMode": [null, null, null, null, null], "rewards": [2, 1, 7, -7, 46], "path": ["0", "0", "12", "13", "14", "19", "21"], "rt": [5142, 41, 105, 225, 36], "actions": ["right", "right", "right", "down", "down"], "actionTimes": [9698, 10257, 10898, 11641, 12193], "queries": {"click": {"state": {"target": ["21"], "time": [6268]}, "edge": {"target": [], "time": []}}, "mouseover": {"state": {"target": ["14", "21", "19", "19"], "time": [5158, 5771, 7068, 9021]}, "edge": {"target": [], "time": []}}, "mouseout": {"state": {"target": ["25", "0", "14", "21", "19", "19"], "time": [2722, 5041, 5176, 6372, 7117, 9054]}, "edge": {"target": [], "time": []}}}, "displayed_time": "18.56", "trialTime": 19995, "trial_type": "mouselab-mdp", "trial_index": 41, "time_elapsed": 2548328, "internal_node_id": "0.0-4.0-1.0-20.0"}}, {"uniqueid": "w69848714:a81308332", "current_trial": 42, "dateTime": 1691162296109, "trialdata": {"revealed_states": [], "clicked_states": ["21", "32", "27"], "num_clicks_accrued": [0, 0, 0, 0, 0, 0, 0, 0, 0, 0, 0, 0, 0], "stateRewards": ["", 1, -2, -8, -3, 31, -84, -55, -14, 15, -58, 17, -2, -3, 7, 7, -12, 48, 67, 4, -44, -68, 46, 2, 3, -5, -7, 76, 27, 5, 11, 57, 52, 59], "withholdReward": false, "trial_id": "mdp_trial_22", "block": "test", "trialIndex": 27, "score": 64.8, "costs": -4.199999999999999, "simulationMode": [null, null, null, null, null], "rewards": [2, 3, -5, -7, 76], "path": ["0", "0", "23", "24", "25", "26", "27"], "rt": [9121, 102, 12, 722, 3], "actions": ["left", "left", "left", "up", "up"], "actionTimes": [14969, 15594, 16120, 17378, 17895], "queries": {"click": {"state": {"target": ["21", "32", "27"], "time": [8458, 10819, 12876]}, "edge": {"target": [], "time": []}}, "mouseover": {"state": {"target": ["1", "1", "13", "19", "21", "32", "30", "29", "27", "26", "25", "24"], "time": [6592, 6740, 6873, 6942, 7342, 9941, 11273, 11422, 12274, 13605, 13794, 13919]}, "edge": {"target": [], "time": []}}, "mouseout": {"state": {"target": ["12", "1", "1", "13", "19", "21", "32", "30", "29", "27", "27", "26", "25", "24"], "time": [4641, 6673, 6773, 6907, 6990, 8606, 11242, 11306, 11640, 13007, 13574, 13690, 13850, 13955]}, "edge": {"target": [], "time": []}}}, "displayed_time": "19.85", "trialTime": 20901, "trial_type": "mouselab-mdp", "trial_index": 42, "time_elapsed": 2569857, "internal_node_id": "0.0-4.0-1.0-21.0"}}, {"uniqueid": "w69848714:a81308332", "current_trial": 43, "dateTime": 1691162322038, "trialdata": {"revealed_states": [], "clicked_states": ["21", "32", "27", "9", "5", "16"], "num_clicks_accrued": [0, 0, 0, 0, 0, 0, 0, 0, 0, 0, 0, 0, 0], "stateRewards": ["", -1, -2, -8, 8, -27, -82, 19, -14, -62, 4, 1, -2, 2, 6, 10, 73, -51, -2, 2, 73, -48, 54, -1, 2, -4, 11, -25, 47, 86, 15, 33, 43, -42], "withholdReward": false, "trial_id": "mdp_trial_23", "block": "test", "trialIndex": 28, "score": 80.6, "costs": -8.4, "simulationMode": [null, null, null, null, null], "rewards": [-2, 2, 6, 10, 73], "path": ["0", "0", "12", "13", "14", "15", "16"], "rt": [16240, 3, 34, 364, 123], "actions": ["right", "right", "right", "up", "up"], "actionTimes": [19203, 19718, 20321, 21194, 21844], "queries": {"click": {"state": {"target": ["21", "32", "27", "9", "5", "16"], "time": [5255, 7634, 9678, 11719, 14311, 16508]}, "edge": {"target": [], "time": []}}, "mouseover": {"state": {"target": ["12", "22", "21", "32", "30", "25", "26", "27", "11", "9", "9", "5", "6", "16", "16"], "time": [4216, 4367, 4649, 6777, 8075, 8120, 8185, 8277, 10166, 10282, 11000, 13215, 15015, 15123, 15749]}, "edge": {"target": [], "time": []}}, "mouseout": {"state": {"target": ["0", "12", "22", "21", "32", "30", "25", "26", "27", "11", "9", "9", "5", "6", "16"], "time": [1868, 4251, 4432, 5384, 8018, 8098, 8165, 8238, 9808, 10249, 10363, 11848, 14942, 15085, 15142]}, "edge": {"target": [], "time": []}}}, "displayed_time": "22.36", "trialTime": 25312, "trial_type": "mouselab-mdp", "trial_index": 43, "time_elapsed": 2595785, "internal_node_id": "0.0-4.0-1.0-22.0"}}, {"uniqueid": "w69848714:a81308332", "current_trial": 44, "dateTime": 1691162346480, "trialdata": {"revealed_states": [], "clicked_states": ["32", "21", "16", "27", "9", "5"], "num_clicks_accrued": [0, 0, 0, 0, 0, 0, 0, 0, 0, 0, 0, 0, 0], "stateRewards": ["", -1, 1, 8, -3, -24, 11, -65, -6, -77, 48, 44, -2, 1, -2, -7, -55, -35, 33, 8, -28, 19, -53, -1, -1, -5, -5, -70, 10, 44, 8, -58, -70, 51], "withholdReward": false, "trial_id": "mdp_trial_24", "block": "test", "trialIndex": 29, "score": 15.6, "costs": -8.4, "simulationMode": [null, null, null, null, null], "rewards": [-2, 1, -2, 8, 19], "path": ["0", "0", "12", "13", "14", "19", "21"], "rt": [15515, 138, 12, 727, 154], "actions": ["right", "right", "right", "down", "down"], "actionTimes": [17937, 18593, 19117, 20381, 21059], "queries": {"click": {"state": {"target": ["32", "21", "16", "27", "9", "5"], "time": [4906, 6988, 9264, 11320, 13334, 15546]}, "edge": {"target": [], "time": []}}, "mouseover": {"state": {"target": ["32", "32", "21", "19", "16", "27", "11", "9", "5", "6", "13"], "time": [4140, 4428, 5879, 7334, 8407, 10370, 11708, 12198, 13914, 16355, 16607]}, "edge": {"target": [], "time": []}}, "mouseout": {"state": {"target": ["16", "7", "1", "23", "0", "32", "32", "21", "19", "16", "27", "11", "9", "5", "6", "13"], "time": [959, 1075, 1107, 1324, 3507, 4173, 5037, 7314, 7357, 9679, 11673, 11728, 13612, 16322, 16399, 16683]}, "edge": {"target": [], "time": []}}}, "displayed_time": "21.57", "trialTime": 23890, "trial_type": "mouselab-mdp", "trial_index": 44, "time_elapsed": 2620228, "internal_node_id": "0.0-4.0-1.0-23.0"}}, {"uniqueid": "w69848714:a81308332", "current_trial": 45, "dateTime": 1691162369302, "trialdata": {"revealed_states": [], "clicked_states": ["21", "32", "27", "9", "5"], "num_clicks_accrued": [0, 0, 0, 0, 0, 0, 0, 0, 0, 0, 0, 0, 0], "stateRewards": ["", 2, 4, 4, -8, -36, -33, 38, 16, -51, 57, 57, 1, 3, 4, -6, 45, 68, 87, 1, 63, 24, -55, -2, 2, -6, -13, -63, -50, 8, 2, 80, 6, 60], "withholdReward": false, "trial_id": "mdp_trial_25", "block": "test", "trialIndex": 30, "score": 26, "costs": -7, "simulationMode": [null, null, null, null, null], "rewards": [1, 3, 4, 1, 24], "path": ["0", "0", "12", "13", "14", "19", "21"], "rt": [13791, 3, 26, 799, 3], "actions": ["right", "right", "right", "down", "down"], "actionTimes": [17231, 17745, 18299, 19623, 20127], "queries": {"click": {"state": {"target": ["21", "32", "27", "9", "5"], "time": [5894, 7960, 10010, 12920, 15083]}, "edge": {"target": [], "time": []}}, "mouseover": {"state": {"target": ["21", "21", "32", "28", "27", "11", "9", "9", "9", "5", "18", "13"], "time": [5075, 5364, 7087, 8482, 9098, 10379, 10449, 10874, 12613, 13828, 15753, 16172]}, "edge": {"target": [], "time": []}}, "mouseout": {"state": {"target": ["0", "21", "21", "32", "28", "27", "11", "9", "9", "9", "5", "18", "13"], "time": [4625, 5192, 6277, 8091, 8514, 10343, 10399, 10468, 12122, 13425, 15598, 15792, 16206]}, "edge": {"target": [], "time": []}}}, "displayed_time": "20.66", "trialTime": 22143, "trial_type": "mouselab-mdp", "trial_index": 45, "time_elapsed": 2643050, "internal_node_id": "0.0-4.0-1.0-24.0"}}, {"uniqueid": "w69848714:a81308332", "current_trial": 46, "dateTime": 1691162386893, "trialdata": {"revealed_states": [], "clicked_states": [], "num_clicks_accrued": [0, 0, 0, 0, 0, 0, 0, 0, 0, 0, 0, 0, 0], "stateRewards": ["", 1, 3, -2, 15, 51, 15, -19, 11, 67, -45, -73, 2, 4, -2, -13, 36, 9, -28, 10, -30, 31, 16, 1, 2, -1, -16, 14, -22, 36, -1, 88, -5, 45], "withholdReward": false, "trial_id": "mdp_trial_26", "block": "test", "trialIndex": 31, "score": 27, "costs": 0, "simulationMode": [null, null, null, null, null], "rewards": [2, 4, -2, -13, 36], "path": ["0", "0", "12", "13", "14", "15", "16"], "rt": [4983, 132, 95, 528, 5], "actions": ["right", "right", "right", "up", "up"], "actionTimes": [7579, 8233, 8862, 9917, 10437], "queries": {"click": {"state": {"target": [], "time": []}, "edge": {"target": [], "time": []}}, "mouseover": {"state": {"target": ["1", "2", "3", "5", "5", "5", "5"], "time": [3357, 3420, 3481, 3750, 4098, 4648, 5266]}, "edge": {"target": [], "time": []}}, "mouseout": {"state": {"target": ["0", "1", "2", "3", "5", "5", "5"], "time": [1281, 3395, 3448, 3716, 3770, 4150, 4764]}, "edge": {"target": [], "time": []}}}, "displayed_time": "16.60", "trialTime": 17031, "trial_type": "mouselab-mdp", "trial_index": 46, "time_elapsed": 2660641, "internal_node_id": "0.0-4.0-1.0-25.0"}}, {"uniqueid": "w69848714:a81308332", "current_trial": 47, "dateTime": 1691162416757, "trialdata": {"revealed_states": [], "clicked_states": ["9", "5", "27", "32", "21", "16"], "num_clicks_accrued": [0, 0, 0, 0, 0, 0, 0, 0, 0, 0, 0, 0, 0], "stateRewards": ["", 2, 3, -1, 16, -78, -11, 46, 2, -20, 79, -67, 2, 3, 2, 11, -83, -42, -58, -11, -67, -22, 55, 2, -1, -1, -16, -83, -82, 23, -11, -29, 13, 13], "withholdReward": false, "trial_id": "mdp_trial_27", "block": "test", "trialIndex": 32, "score": -6.399999999999999, "costs": -8.4, "simulationMode": [null, null, null, null, null], "rewards": [2, -1, -1, -11, 13], "path": ["0", "0", "23", "24", "25", "30", "32"], "rt": [16463, 95, 115, 977, 107], "actions": ["left", "left", "left", "down", "down"], "actionTimes": [18897, 19511, 20148, 21643, 22272], "queries": {"click": {"state": {"target": ["9", "5", "27", "32", "21", "16"], "time": [4015, 6194, 8451, 11368, 13734, 16466]}, "edge": {"target": [], "time": []}}, "mouseover": {"state": {"target": ["1", "2", "3", "9", "5", "8", "27", "26", "25", "30", "32", "21", "19", "14", "16"], "time": [3054, 3103, 3153, 3368, 4619, 6786, 6869, 9648, 10434, 10500, 10898, 12745, 14944, 15001, 15679]}, "edge": {"target": [], "time": []}}, "mouseout": {"state": {"target": ["5", "10", "1", "1", "2", "3", "9", "5", "8", "27", "26", "25", "30", "32", "21", "19", "14"], "time": [635, 836, 1270, 3085, 3134, 3169, 4487, 6736, 6802, 9568, 10315, 10465, 10548, 11497, 14886, 14983, 15024]}, "edge": {"target": [], "time": []}}}, "displayed_time": "22.78", "trialTime": 29238, "trial_type": "mouselab-mdp", "trial_index": 47, "time_elapsed": 2690504, "internal_node_id": "0.0-4.0-1.0-26.0"}}, {"uniqueid": "w69848714:a81308332", "current_trial": 48, "dateTime": 1691162435366, "trialdata": {"revealed_states": [], "clicked_states": ["5", "9", "27"], "num_clicks_accrued": [0, 0, 0, 0, 0, 0, 0, 0, 0, 0, 0, 0, 0], "stateRewards": ["", 1, -3, 4, 13, -72, 52, 5, 5, -58, 5, 14, 2, 1, 3, -14, -86, -4, 73, 6, -58, -50, 49, 2, -3, -4, 2, 33, -41, 42, -11, 81, 45, 53], "withholdReward": false, "trial_id": "mdp_trial_28", "block": "test", "trialIndex": 33, "score": 25.8, "costs": -4.199999999999999, "simulationMode": [null, null, null, null, null], "rewards": [2, -3, -4, 2, 33], "path": ["0", "0", "23", "24", "25", "26", "27"], "rt": [9180, 45, 152, 392, 43], "actions": ["left", "left", "left", "up", "up"], "actionTimes": [12439, 13008, 13696, 14604, 15171], "queries": {"click": {"state": {"target": ["5", "9", "27"], "time": [4889, 7183, 9366]}, "edge": {"target": [], "time": []}}, "mouseover": {"state": {"target": ["1", "3", "5", "9", "27", "26", "25", "30", "32"], "time": [3778, 3878, 4415, 6006, 8599, 10217, 10269, 10342, 11243]}, "edge": {"target": [], "time": []}}, "mouseout": {"state": {"target": ["16", "5", "2", "1", "1", "3", "5", "9", "27", "27", "26", "25", "30", "32"], "time": [1129, 1528, 1579, 2079, 3811, 3897, 5029, 7834, 9503, 10180, 10242, 10318, 10363, 11674]}, "edge": {"target": [], "time": []}}}, "displayed_time": "17.26", "trialTime": 17970, "trial_type": "mouselab-mdp", "trial_index": 48, "time_elapsed": 2709114, "internal_node_id": "0.0-4.0-1.0-27.0"}}, {"uniqueid": "w69848714:a81308332", "current_trial": 49, "dateTime": 1691162461720, "trialdata": {"revealed_states": [], "clicked_states": ["21", "32", "16", "27", "9"], "num_clicks_accrued": [0, 0, 0, 0, 0, 0, 0, 0, 0, 0, 0, 0, 0], "stateRewards": ["", -2, 2, -4, -4, -59, 88, 62, -3, 69, -15, -34, 1, -2, -5, 7, -54, -20, 78, -16, -74, -53, -21, 2, -4, 2, 13, -8, -44, 26, 9, 72, 4, 17], "withholdReward": false, "trial_id": "mdp_trial_29", "block": "test", "trialIndex": 34, "score": 55, "costs": -7, "simulationMode": [null, null, null, null, null], "rewards": [-2, 2, -4, -3, 69], "path": ["0", "0", "1", "2", "3", "8", "9"], "rt": [14724, 11, 151, 127, 1010], "actions": ["up", "up", "up", "left", "up"], "actionTimes": [20418, 20949, 21639, 22282, 23814], "queries": {"click": {"state": {"target": ["21", "32", "16", "27", "9"], "time": [7365, 9455, 11647, 13951, 16776]}, "edge": {"target": [], "time": []}}, "mouseover": {"state": {"target": ["22", "21", "32", "1", "6", "4", "6", "16", "2", "10", "27", "9", "5", "3"], "time": [6390, 6840, 8453, 9884, 9947, 10434, 10622, 11104, 12143, 12196, 12778, 16237, 18700, 19505]}, "edge": {"target": [], "time": []}}, "mouseout": {"state": {"target": ["0", "22", "21", "32", "1", "6", "4", "6", "16", "2", "10", "27", "9", "5", "3"], "time": [6338, 6422, 7495, 9761, 9942, 10394, 10584, 10662, 12080, 12168, 12218, 14393, 16904, 19251, 19656]}, "edge": {"target": [], "time": []}}}, "displayed_time": "24.34", "trialTime": 25692, "trial_type": "mouselab-mdp", "trial_index": 49, "time_elapsed": 2735467, "internal_node_id": "0.0-4.0-1.0-28.0"}}, {"uniqueid": "w69848714:a81308332", "current_trial": 50, "dateTime": 1691162481811, "trialdata": {"revealed_states": [], "clicked_states": ["21", "32", "27"], "num_clicks_accrued": [0, 0, 0, 0, 0, 0, 0, 0, 0, 0, 0, 0, 0], "stateRewards": ["", 2, 3, -6, -5, -3, 55, 40, 11, 61, 11, 51, 2, -4, -6, 9, -25, 29, -15, -6, 7, -77, -2, -2, -4, 1, 14, -43, -1, 56, -12, -54, 41, -74], "withholdReward": false, "trial_id": "mdp_trial_30", "block": "test", "trialIndex": 35, "score": 19.8, "costs": -4.199999999999999, "simulationMode": [null, null, null, null, null, null], "rewards": [-2, -4, 1, -12, 41], "path": ["0", "0", "23", "24", "25", "30", "32"], "rt": [8640, 701, 91, 1305, 316, 4], "actions": ["left", "left", "left", "left", "down", "down"], "actionTimes": [11157, 11867, 12479, 14327, 15154, 15675], "queries": {"click": {"state": {"target": ["21", "32", "27"], "time": [4799, 7300, 10449]}, "edge": {"target": [], "time": []}}, "mouseover": {"state": {"target": ["12", "13", "19", "21", "32", "30", "26", "27"], "time": [3724, 3776, 3855, 4288, 5904, 7844, 7928, 8402]}, "edge": {"target": [], "time": []}}, "mouseout": {"state": {"target": ["2", "12", "13", "19", "21", "32", "30", "26"], "time": [1272, 3755, 3807, 3905, 5173, 7788, 7884, 8291]}, "edge": {"target": [], "time": []}}}, "displayed_time": "16.52", "trialTime": 19461, "trial_type": "mouselab-mdp", "trial_index": 50, "time_elapsed": 2755559, "internal_node_id": "0.0-4.0-1.0-29.0"}}, {"uniqueid": "w69848714:a81308332", "current_trial": 51, "dateTime": 1691162499464, "trialdata": {"revealed_states": [], "clicked_states": ["9"], "num_clicks_accrued": [0, 0, 0, 0, 0, 0, 0, 0, 0, 0, 0, 0, 0], "stateRewards": ["", 1, -4, -6, -1, -21, 17, -72, 10, 77, 67, -46, -1, 4, -2, 14, -66, -49, -45, -15, -52, 23, -67, 2, -2, -2, 15, -3, 45, -64, 5, -44, 83, 61], "withholdReward": false, "trial_id": "mdp_trial_31", "block": "test", "trialIndex": 36, "score": 76.6, "costs": -1.4, "simulationMode": [null, null, null, null, null], "rewards": [1, -4, -6, 10, 77], "path": ["0", "0", "1", "2", "3", "8", "9"], "rt": [5440, 116, 357, 285, 621], "actions": ["up", "up", "up", "left", "up"], "actionTimes": [8020, 8656, 9531, 10326, 11461], "queries": {"click": {"state": {"target": ["9"], "time": [4785]}, "edge": {"target": [], "time": []}}, "mouseover": {"state": {"target": ["1", "2", "3", "9", "5", "3", "2", "1"], "time": [3224, 3339, 3591, 4157, 5733, 7176, 7209, 7274]}, "edge": {"target": [], "time": []}}, "mouseout": {"state": {"target": ["27", "28", "23", "0", "1", "2", "3", "9", "5", "3", "2", "1"], "time": [1124, 1190, 1490, 3158, 3274, 3555, 3974, 4921, 7145, 7195, 7254, 7304]}, "edge": {"target": [], "time": []}}}, "displayed_time": "16.58", "trialTime": 17023, "trial_type": "mouselab-mdp", "trial_index": 51, "time_elapsed": 2773212, "internal_node_id": "0.0-4.0-1.0-30.0"}}, {"uniqueid": "w69848714:a81308332", "current_trial": 52, "dateTime": 1691162518596, "trialdata": {"revealed_states": [], "clicked_states": ["5"], "num_clicks_accrued": [0, 0, 0, 0, 0, 0, 0, 0, 0, 0, 0, 0, 0], "stateRewards": ["", -1, 3, 1, -7, 56, 76, 57, 3, 11, -9, 14, 1, -2, 2, 8, -77, -3, 79, -5, 88, 24, -66, -2, -1, 7, -7, -30, 14, -76, 11, -36, 28, -6], "withholdReward": false, "trial_id": "mdp_trial_32", "block": "test", "trialIndex": 37, "score": 50.6, "costs": -1.4, "simulationMode": [null, null, null, null, null], "rewards": [-1, 3, 1, -7, 56], "path": ["0", "0", "1", "2", "3", "4", "5"], "rt": [5121, 46, 299, 439, 361], "actions": ["up", "up", "up", "right", "up"], "actionTimes": [8952, 9518, 10353, 11294, 12167], "queries": {"click": {"state": {"target": ["5"], "time": [5826]}, "edge": {"target": [], "time": []}}, "mouseover": {"state": {"target": ["5", "9"], "time": [5356, 6728]}, "edge": {"target": [], "time": []}}, "mouseout": {"state": {"target": ["0", "5"], "time": [3318, 6272]}, "edge": {"target": [], "time": []}}}, "displayed_time": "17.83", "trialTime": 18443, "trial_type": "mouselab-mdp", "trial_index": 52, "time_elapsed": 2792343, "internal_node_id": "0.0-4.0-1.0-31.0"}}, {"uniqueid": "w69848714:a81308332", "current_trial": 53, "dateTime": 1691162548388, "trialdata": {"revealed_states": [], "clicked_states": ["21", "32", "27", "9", "5", "16"], "num_clicks_accrued": [0, 0, 0, 0, 0, 0, 0, 0, 0, 0, 0, 0, 0], "stateRewards": ["", 2, 4, -3, 16, -58, 30, -35, 11, -60, 47, 27, -2, -1, -7, -16, 23, -70, 68, -10, -65, -43, -34, -2, 1, 7, 9, -63, 34, -31, -8, -12, -86, 59], "withholdReward": false, "trial_id": "mdp_trial_33", "block": "test", "trialIndex": 38, "score": -11.399999999999999, "costs": -8.4, "simulationMode": [null, null, null, null, null], "rewards": [-2, -1, -7, -16, 23], "path": ["0", "0", "12", "13", "14", "15", "16"], "rt": [18046, 181, 509, 336, 23], "actions": ["right", "right", "right", "up", "up"], "actionTimes": [20933, 21650, 22674, 23535, 24077], "queries": {"click": {"state": {"target": ["21", "32", "27", "9", "5", "16"], "time": [4567, 7055, 9120, 11318, 13579, 16596]}, "edge": {"target": [], "time": []}}, "mouseover": {"state": {"target": ["0", "21", "32", "30", "25", "26", "27", "11", "9", "9", "5", "6", "16", "17"], "time": [3376, 4076, 5709, 7462, 7504, 7550, 7597, 9621, 9885, 10235, 12063, 15414, 16049, 17750]}, "edge": {"target": [], "time": []}}, "mouseout": {"state": {"target": ["9", "2", "1", "0", "21", "32", "30", "25", "26", "27", "11", "9", "9", "5", "6", "16", "16", "17"], "time": [991, 1474, 1612, 3395, 5072, 7426, 7482, 7529, 7574, 9249, 9655, 9968, 11450, 13717, 15863, 16733, 17690, 17794]}, "edge": {"target": [], "time": []}}}, "displayed_time": "24.59", "trialTime": 29099, "trial_type": "mouselab-mdp", "trial_index": 53, "time_elapsed": 2822136, "internal_node_id": "0.0-4.0-1.0-32.0"}}, {"uniqueid": "w69848714:a81308332", "current_trial": 54, "dateTime": 1691162568461, "trialdata": {"revealed_states": [], "clicked_states": ["27"], "num_clicks_accrued": [0, 0, 0, 0, 0, 0, 0, 0, 0, 0, 0, 0, 0], "stateRewards": ["", 1, -4, -4, 8, 1, -79, 68, -10, -79, 8, -74, -1, -3, -6, 14, 43, 23, 9, 5, -51, 63, 61, -2, 4, 6, -10, 69, -32, 57, 15, -80, -80, -77], "withholdReward": false, "trial_id": "mdp_trial_34", "block": "test", "trialIndex": 39, "score": 65.6, "costs": -1.4, "simulationMode": [null, null, null, null, null], "rewards": [-2, 4, 6, -10, 69], "path": ["0", "0", "23", "24", "25", "26", "27"], "rt": [5594, 148, 70, 316, 5], "actions": ["left", "left", "left", "up", "up"], "actionTimes": [9710, 10368, 10969, 11803, 12324], "queries": {"click": {"state": {"target": ["27"], "time": [5715]}, "edge": {"target": [], "time": []}}, "mouseover": {"state": {"target": ["28", "27", "26", "25", "30", "32", "31"], "time": [4919, 5018, 6207, 6258, 6318, 6703, 8818]}, "edge": {"target": [], "time": []}}, "mouseout": {"state": {"target": ["20", "19", "22", "12", "28", "27", "26", "25", "30", "32", "31"], "time": [2353, 2386, 2436, 2802, 4968, 6184, 6227, 6310, 6364, 8766, 8851]}, "edge": {"target": [], "time": []}}}, "displayed_time": "18.12", "trialTime": 19400, "trial_type": "mouselab-mdp", "trial_index": 54, "time_elapsed": 2842208, "internal_node_id": "0.0-4.0-1.0-33.0"}}, {"uniqueid": "w69848714:a81308332", "current_trial": 55, "dateTime": 1691162605834, "trialdata": {"revealed_states": [], "clicked_states": ["5", "9", "27", "32", "21", "16", "17", "18", "22", "20"], "num_clicks_accrued": [0, 0, 0, 0, 0, 0, 0, 0, 0, 0, 0, 0, 0], "stateRewards": ["", -1, -4, -1, -5, -28, -23, -15, -15, -38, 59, -87, 2, 2, -5, 9, -55, -39, -71, -6, 85, -85, -11, -1, -2, 5, -10, 1, 25, 41, -4, 69, -35, 86], "withholdReward": false, "trial_id": "mdp_trial_35", "block": "test", "trialIndex": 40, "score": 64, "costs": -14.000000000000002, "simulationMode": [null, null, null, null, null], "rewards": [2, 2, -5, -6, 85], "path": ["0", "0", "12", "13", "14", "19", "20"], "rt": [27592, 344, 163, 302, 532], "actions": ["right", "right", "right", "down", "right"], "actionTimes": [29728, 30590, 31272, 32094, 33141], "queries": {"click": {"state": {"target": ["5", "9", "27", "32", "21", "16", "17", "18", "22", "20"], "time": [4474, 6143, 8202, 10919, 13115, 15595, 18225, 20731, 23364, 25683]}, "edge": {"target": [], "time": []}}, "mouseover": {"state": {"target": ["1", "2", "5", "9", "11", "27", "27", "26", "25", "30", "32", "21", "21", "14", "15", "16", "17", "15", "18", "22", "19", "20", "12", "23", "28", "23", "0", "12", "12"], "time": [2925, 2993, 3661, 5246, 6762, 6857, 7176, 8560, 8621, 8688, 8960, 11657, 12140, 13907, 14443, 14582, 17737, 19301, 20229, 22959, 24060, 24149, 26383, 26444, 27305, 28304, 28355, 28604, 28821]}, "edge": {"target": [], "time": []}}, "mouseout": {"state": {"target": ["0", "1", "2", "5", "9", "11", "27", "27", "26", "25", "30", "32", "21", "21", "14", "15", "16", "16", "17", "17", "15", "18", "22", "19", "20", "12", "23", "28", "23", "0", "12", "12"], "time": [2873, 2959, 3212, 4877, 6673, 6797, 6874, 8538, 8600, 8662, 8765, 11529, 11692, 13627, 14039, 14507, 15721, 16920, 18357, 19239, 19778, 22058, 23491, 24125, 26296, 26437, 26490, 28271, 28324, 28423, 28755, 28939]}, "edge": {"target": [], "time": []}}}, "displayed_time": "33.66", "trialTime": 36706, "trial_type": "mouselab-mdp", "trial_index": 55, "time_elapsed": 2879582, "internal_node_id": "0.0-4.0-1.0-34.0"}}, {"uniqueid": "w69848714:a81308332", "current_trial": 56, "dateTime": 1691162623844, "trialdata": {"revealed_states": [], "clicked_states": ["9", "5"], "num_clicks_accrued": [0, 0, 0, 0, 0, 0, 0, 0, 0, 0, 0, 0, 0], "stateRewards": ["", -1, -3, 3, 5, 56, 39, 50, -1, -80, 33, -46, 1, -2, -6, -8, 87, 48, 54, -11, -20, -64, -54, -2, 3, -7, -3, 12, 88, 35, -16, -46, -70, -3], "withholdReward": false, "trial_id": "mdp_trial_36", "block": "test", "trialIndex": 41, "score": 57.2, "costs": -2.8, "simulationMode": [null, null, null, null, null], "rewards": [-1, -3, 3, 5, 56], "path": ["0", "0", "1", "2", "3", "4", "5"], "rt": [8097, 78, 148, 703, 683], "actions": ["up", "up", "up", "right", "up"], "actionTimes": [10260, 10863, 11532, 12755, 13950], "queries": {"click": {"state": {"target": ["9", "5"], "time": [3913, 6116]}, "edge": {"target": [], "time": []}}, "mouseover": {"state": {"target": ["1", "2", "3", "9", "5", "11", "27"], "time": [2967, 2988, 3019, 3416, 4934, 6657, 7451]}, "edge": {"target": [], "time": []}}, "mouseout": {"state": {"target": ["1", "2", "3", "9", "5", "11", "27"], "time": [2984, 3003, 3034, 4502, 6584, 6707, 8466]}, "edge": {"target": [], "time": []}}}, "displayed_time": "16.16", "trialTime": 17314, "trial_type": "mouselab-mdp", "trial_index": 56, "time_elapsed": 2897591, "internal_node_id": "0.0-4.0-1.0-35.0"}}, {"uniqueid": "w69848714:a81308332", "current_trial": 57, "dateTime": 1691162644171, "trialdata": {"revealed_states": [], "clicked_states": ["9", "5"], "num_clicks_accrued": [0, 0, 0, 0, 0, 0, 0, 0, 0, 0, 0, 0, 0], "stateRewards": ["", -2, 2, -5, 1, 42, -63, -58, -6, 2, 16, 81, -2, 4, 7, -10, 33, 3, -33, -2, -52, -84, -27, 2, -3, -3, 15, -74, -14, -5, -5, -84, 79, -31], "withholdReward": false, "trial_id": "mdp_trial_37", "block": "test", "trialIndex": 42, "score": 35.2, "costs": -2.8, "simulationMode": [null, null, null, null, null], "rewards": [-2, 2, -5, 1, 42], "path": ["0", "0", "1", "2", "3", "4", "5"], "rt": [7363, 197, 1449, 314, 743], "actions": ["up", "up", "up", "right", "up"], "actionTimes": [10591, 11310, 13278, 14108, 15370], "queries": {"click": {"state": {"target": ["9", "5"], "time": [4937, 6996]}, "edge": {"target": [], "time": []}}, "mouseover": {"state": {"target": ["10", "8", "9", "5", "5", "16", "17", "15", "18", "12"], "time": [4011, 4036, 4448, 5608, 6045, 7498, 7963, 9708, 9792, 9941]}, "edge": {"target": [], "time": []}}, "mouseout": {"state": {"target": ["10", "8", "9", "5", "5", "5", "16", "17", "15", "18", "12"], "time": [4032, 4050, 5517, 5759, 7125, 7370, 7578, 9659, 9759, 9859, 10010]}, "edge": {"target": [], "time": []}}}, "displayed_time": "17.23", "trialTime": 19681, "trial_type": "mouselab-mdp", "trial_index": 57, "time_elapsed": 2917919, "internal_node_id": "0.0-4.0-1.0-36.0"}}, {"uniqueid": "w69848714:a81308332", "current_trial": 58, "dateTime": 1691162665054, "trialdata": {"revealed_states": [], "clicked_states": ["9", "5"], "num_clicks_accrued": [0, 0, 0, 0, 0, 0, 0, 0, 0, 0, 0, 0, 0], "stateRewards": ["", 1, 1, 7, -11, 80, -20, -53, -14, 3, 31, 27, 2, -1, -8, -10, 33, 41, 86, 9, 78, -37, -13, -1, -2, -6, -8, -80, 75, 4, -16, -49, -74, 24], "withholdReward": false, "trial_id": "mdp_trial_38", "block": "test", "trialIndex": 43, "score": 75.2, "costs": -2.8, "simulationMode": [null, null, null, null, null], "rewards": [1, 1, 7, -11, 80], "path": ["0", "0", "1", "2", "3", "4", "5"], "rt": [7550, 17, 156, 573, 165], "actions": ["up", "up", "up", "right", "up"], "actionTimes": [12442, 12975, 13665, 14755, 15441], "queries": {"click": {"state": {"target": ["9", "5"], "time": [6909, 9160]}, "edge": {"target": [], "time": []}}, "mouseover": {"state": {"target": ["1", "2", "8", "9", "5", "11", "27"], "time": [5557, 5609, 5959, 6475, 7480, 10559, 10804]}, "edge": {"target": [], "time": []}}, "mouseout": {"state": {"target": ["0", "1", "2", "8", "9", "5", "5", "9", "11", "27"], "time": [3591, 5578, 5941, 5990, 7034, 9309, 9643, 9769, 10594, 11344]}, "edge": {"target": [], "time": []}}}, "displayed_time": "18.89", "trialTime": 20268, "trial_type": "mouselab-mdp", "trial_index": 58, "time_elapsed": 2938802, "internal_node_id": "0.0-4.0-1.0-37.0"}}, {"uniqueid": "w69848714:a81308332", "current_trial": 59, "dateTime": 1691162684367, "trialdata": {"revealed_states": [], "clicked_states": ["9", "5"], "num_clicks_accrued": [0, 0, 0, 0, 0, 0, 0, 0, 0, 0, 0, 0, 0], "stateRewards": ["", 1, -3, -6, -5, 47, 80, -29, 11, -71, 10, -29, -2, 3, -6, 12, 2, -78, -6, 8, 34, -16, -5, -1, 3, 3, -13, 84, -36, -62, -3, -27, 66, 15], "withholdReward": false, "trial_id": "mdp_trial_39", "block": "test", "trialIndex": 44, "score": 31.2, "costs": -2.8, "simulationMode": [null, null, null, null, null], "rewards": [1, -3, -6, -5, 47], "path": ["0", "0", "1", "2", "3", "4", "5"], "rt": [7152, 443, 179, 447, 367], "actions": ["up", "up", "up", "right", "up"], "actionTimes": [10629, 11594, 12296, 13275, 14182], "queries": {"click": {"state": {"target": ["9", "5"], "time": [5167, 6987]}, "edge": {"target": [], "time": []}}, "mouseover": {"state": {"target": ["1", "9", "5", "7", "28", "31"], "time": [4132, 4234, 5907, 8219, 9496, 9813]}, "edge": {"target": [], "time": []}}, "mouseout": {"state": {"target": ["1", "9", "5", "7", "28"], "time": [4151, 5297, 7993, 8564, 9580]}, "edge": {"target": [], "time": []}}}, "displayed_time": "17.48", "trialTime": 18713, "trial_type": "mouselab-mdp", "trial_index": 59, "time_elapsed": 2958114, "internal_node_id": "0.0-4.0-1.0-38.0"}}, {"uniqueid": "w69848714:a81308332", "current_trial": 60, "dateTime": 1691162703051, "trialdata": {"revealed_states": [], "clicked_states": ["9", "5", "27"], "num_clicks_accrued": [0, 0, 0, 0, 0, 0, 0, 0, 0, 0, 0, 0, 0], "stateRewards": ["", -2, -1, -4, -15, -14, -67, 32, -3, -59, 63, 31, 2, -1, -7, -15, 71, -66, -27, -3, -54, -39, 72, 2, 1, 1, -13, 77, -40, 35, -9, 35, 75, 57], "withholdReward": false, "trial_id": "mdp_trial_40", "block": "test", "trialIndex": 45, "score": 63.8, "costs": -4.199999999999999, "simulationMode": [null, null, null, null, null], "rewards": [2, 1, 1, -13, 77], "path": ["0", "0", "23", "24", "25", "26", "27"], "rt": [9145, 198, 288, 323, 193], "actions": ["left", "left", "left", "up", "up"], "actionTimes": [12083, 12800, 13605, 14441, 15143], "queries": {"click": {"state": {"target": ["9", "5", "27"], "time": [4320, 6500, 8738]}, "edge": {"target": [], "time": []}}, "mouseover": {"state": {"target": ["10", "8", "9", "9", "5", "5", "27"], "time": [3418, 3455, 3507, 3866, 5034, 5485, 7842]}, "edge": {"target": [], "time": []}}, "mouseout": {"state": {"target": ["31", "23", "0", "10", "8", "9", "9", "5", "5", "9", "27", "27"], "time": [1433, 1550, 3307, 3438, 3485, 3599, 4452, 5100, 6627, 7030, 8870, 9152]}, "edge": {"target": [], "time": []}}}, "displayed_time": "16.94", "trialTime": 18009, "trial_type": "mouselab-mdp", "trial_index": 60, "time_elapsed": 2976800, "internal_node_id": "0.0-4.0-1.0-39.0"}}, {"uniqueid": "w69848714:a81308332", "current_trial": 61, "dateTime": 1691162779282, "trialdata": {"rt": 76082, "response": {"Q0": "$-2 to $2", "Q1": "$-16 to $16", "Q2": "$-32 to $32", "Q3": "The cost was always $1.4.", "Q4": "Very motivated"}, "question_order": [0, 1, 2, 3, 4], "trial_id": "final_quiz_control", "trial_type": "survey-multi-choice", "trial_index": 61, "time_elapsed": 3053031, "internal_node_id": "0.0-4.0-2.0"}}, {"uniqueid": "w69848714:a81308332", "current_trial": 62, "dateTime": 1691162889180, "trialdata": {"rt": 109622, "response": {"Q0": "I was checking the nodes by the ends and shift the spider to the highest node.", "Q1": "yes i was playing faster and using the higher positive node", "Q2": "not difficult at all i enjoyed"}, "trial_id": "self_report_control", "trial_type": "survey-text", "trial_index": 62, "time_elapsed": 3162929, "internal_node_id": "0.0-4.0-3.0"}}, {"uniqueid": "w69848714:a81308332", "current_trial": 63, "dateTime": 1691162919440, "trialdata": {"rt": 30252, "response": {"gender": "female", "age": "22", "colorblind": "0", "effort": "0"}, "trial_type": "survey-html-form", "trial_index": 63, "time_elapsed": 3193189, "internal_node_id": "0.0-4.0-4.0"}}, {"uniqueid": "w69848714:a81308332", "current_trial": 64, "dateTime": 1691162947912, "trialdata": {"rt": 28459, "response": {"Q0": "nothing at all", "Q1": "no i didnt ", "Q2": ""}, "trial_type": "survey-text", "trial_index": 64, "time_elapsed": 3221661, "internal_node_id": "0.0-4.0-5.0"}}, {"uniqueid": "w69848714:a81308332", "current_trial": 65, "dateTime": 1691162950559, "trialdata": {"rt": 2570, "stimulus": "Press 'Finish HIT' in order to reach the completion code. Once the data has been saved, you will receive the code either in this window or in the original browser window where you started the experiment.\n", "response": 0, "trial_type": "html-button-response", "trial_index": 65, "time_elapsed": 3224308, "internal_node_id": "0.0-5.0"}}, {"uniqueid": "w69848714:a81308332", "current_trial": 66, "dateTime": 1691162951640, "trialdata": {"success": true, "trial_type": "fullscreen", "trial_index": 66, "time_elapsed": 3225389, "internal_node_id": "0.0-6.0"}}], "questiondata": {"params": {"CODE": "C6DMOQA6", "MIN_TIME": 14, "inspectCost": 1, "startTime": "Fri Aug 04 2023 16:35:23 GMT+0200 (South Africa Standard Time)", "bonusRate": 0.002, "variance": "1_2_4_8_44", "branching": "31123"}, "final_score": 1409.6}, "eventdata": [{"eventtype": "initialized", "value": null, "timestamp": 1691159722183, "interval": 0}, {"eventtype": "window_resize", "value": [1024, 654], "timestamp": 1691159722183, "interval": 0}, {"eventtype": "window_resize", "value": [1024, 654], "timestamp": 1691159723157, "interval": 974}, {"eventtype": "window_resize", "value": [1366, 670], "timestamp": 1691159726165, "interval": 3008}, {"eventtype": "window_resize", "value": [1366, 768], "timestamp": 1691159732200, "interval": 6035}, {"eventtype": "focus", "value": "off", "timestamp": 1691160203979, "interval": 471779}, {"eventtype": "focus", "value": "on", "timestamp": 1691160203979, "interval": 0}, {"eventtype": "window_resize", "value": [1366, 670], "timestamp": 1691160204191, "interval": 212}, {"eventtype": "window_resize", "value": [1366, 768], "timestamp": 1691160206378, "interval": 2187}, {"eventtype": "focus", "value": "off", "timestamp": 1691161327067, "interval": 1120689}, {"eventtype": "focus", "value": "on", "timestamp": 1691161327068, "interval": 1}, {"eventtype": "window_resize", "value": [1366, 670], "timestamp": 1691161327282, "interval": 214}, {"eventtype": "window_resize", "value": [1366, 768], "timestamp": 1691161329888, "interval": 2606}, {"eventtype": "window_resize", "value": [1366, 670], "timestamp": 1691162951032, "interval": 1621144}], "useragent": "Mozilla/5.0 (Windows NT 10.0; Win64; x64) AppleWebKit/537.36 (KHTML, like Gecko) Chrome/115.0.0.0 Safari/537.36", "mode": "live", "id": "w69848714:a81308332", "status": "user data saved", "Beginhit": "2023-08-04 14:35:16.438997", "Beginexp": "2023-08-04 14:35:30.977717", "Endhit": "2023-08-04 15:29:11.822391", "psiturkStatus": 3, "browser": "<redacted>", "platform": "windows", "language": "en-GB"}