{"condition": 1, "counterbalance": 0, "assignmentId": "a20706230", "workerId": "w48600902", "hitId": "h67383520", "currenttrial": 56, "bonus": 0, "data": [{"uniqueid": "w48600902:a20706230", "current_trial": 0, "dateTime": 1693565091091, "trialdata": {"success": true, "trial_type": "fullscreen", "trial_index": 0, "time_elapsed": 14493, "internal_node_id": "0.0-0.0"}}, {"uniqueid": "w48600902:a20706230", "current_trial": 1, "dateTime": 1693565118384, "trialdata": {"view_history": [{"page_index": 0, "viewing_time": 27283}], "rt": 27284, "trial_id": "exp_instructions_misaligned", "trial_type": "instructions", "trial_index": 1, "time_elapsed": 41788, "internal_node_id": "0.0-1.0"}}, {"uniqueid": "w48600902:a20706230", "current_trial": 2, "dateTime": 1693565495879, "trialdata": {"view_history": [{"page_index": 0, "viewing_time": 95001}, {"page_index": 1, "viewing_time": 173617}, {"page_index": 2, "viewing_time": 43418}, {"page_index": 3, "viewing_time": 65454}], "rt": 377491, "trial_id": "mouselab_instructions_1_misaligned", "trial_type": "instructions", "trial_index": 2, "time_elapsed": 419283, "internal_node_id": "0.0-2.0-1.0"}}, {"uniqueid": "w48600902:a20706230", "current_trial": 3, "dateTime": 1693565556494, "trialdata": {"revealed_states": [], "clicked_states": ["23", "24", "12", "1", "2", "3", "8", "9", "11"], "num_clicks_accrued": [0, 0, 0, 0, 0, 0, 0, 0, 0, 0, 0, 0, 0], "stateRewards": ["", 10, 10, -10, -10, -10, -10, -10, -10, 10, 10, -10, 10, 10, -10, -10, -10, -10, -10, -10, -10, 10, 10, 10, 10, -10, 10, 10, -10, -10, -10, 10, 10, -10], "withholdReward": false, "trial_id": "practice_1", "block": "test", "trialIndex": 0, "score": 9, "costs": -4.5, "simulationMode": [null, null, null, null, null], "rewards": [10, 10, -10, -10, 10], "path": ["0", "0", "1", "2", "3", "8", "9"], "rt": [44979, 2449, 2051, 1538, 354], "actions": ["up", "up", "up", "left", "up"], "actionTimes": [47282, 50249, 52817, 54855, 55740], "queries": {"click": {"state": {"target": ["23", "24", "12", "1", "2", "3", "8", "9", "11"], "time": [7842, 14259, 18156, 22189, 25812, 28895, 31949, 37999, 39983]}, "edge": {"target": [], "time": []}}, "mouseover": {"state": {"target": ["1", "2", "1", "1", "23", "24", "23", "13", "12", "13", "1", "1", "2", "3", "8", "9", "8", "11", "8", "3", "2"], "time": [5563, 5713, 6531, 6982, 7350, 11018, 17163, 17566, 17688, 20989, 21455, 21820, 25154, 28138, 31355, 34141, 39205, 39323, 40940, 41674, 42456]}, "edge": {"target": [], "time": []}}, "mouseout": {"state": {"target": ["0", "1", "2", "1", "1", "23", "23", "24", "23", "13", "12", "13", "1", "1", "2", "3", "8", "9", "8", "11", "8", "3", "2"], "time": [5379, 5630, 6297, 6748, 7182, 8047, 10834, 17155, 17187, 17588, 20938, 21370, 21521, 24976, 27856, 31255, 34058, 39023, 39289, 40824, 41491, 42374, 42491]}, "edge": {"target": [], "time": []}}}, "displayed_time": "56.27", "trialTime": 59374, "trial_type": "mouselab-mdp", "trial_index": 3, "time_elapsed": 479896, "internal_node_id": "0.0-2.0-2.0-0.0"}}, {"uniqueid": "w48600902:a20706230", "current_trial": 4, "dateTime": 1693565576494, "trialdata": {"revealed_states": [], "clicked_states": ["12", "1"], "num_clicks_accrued": [0, 0, 0, 0, 0, 0, 0, 0, 0, 0, 0, 0, 0], "stateRewards": ["", 10, 10, 10, -10, 10, 10, 10, -10, 10, 10, -10, -10, 10, 10, 10, 10, -10, 10, -10, -10, -10, 10, -10, -10, -10, 10, 10, -10, 10, -10, 10, -10, -10], "withholdReward": false, "trial_id": "practice_2", "block": "test", "trialIndex": 1, "score": 32.5, "costs": -1, "simulationMode": [null, null, null, null, null], "rewards": [10, 10, 10, -10, 10], "path": ["0", "0", "1", "2", "3", "4", "6"], "rt": [8213, 1774, 1001, 1020, 409], "actions": ["up", "up", "up", "right", "right"], "actionTimes": [11073, 13373, 14897, 16418, 17354], "queries": {"click": {"state": {"target": ["12", "1"], "time": [4082, 7594]}, "edge": {"target": [], "time": []}}, "mouseover": {"state": {"target": ["12", "1"], "time": [3620, 7089]}, "edge": {"target": [], "time": []}}, "mouseout": {"state": {"target": ["0", "12"], "time": [3556, 7004]}, "edge": {"target": [], "time": []}}}, "displayed_time": "17.90", "trialTime": 19481, "trial_type": "mouselab-mdp", "trial_index": 4, "time_elapsed": 499897, "internal_node_id": "0.0-2.0-2.0-1.0"}}, {"uniqueid": "w48600902:a20706230", "current_trial": 5, "dateTime": 1693565646804, "trialdata": {"view_history": [{"page_index": 0, "viewing_time": 55746}, {"page_index": 1, "viewing_time": 14553}], "rt": 70300, "trial_id": "mouselab_instructions_2_misaligned", "trial_type": "instructions", "trial_index": 5, "time_elapsed": 570208, "internal_node_id": "0.0-2.0-3.0"}}, {"uniqueid": "w48600902:a20706230", "current_trial": 6, "dateTime": 1693565691425, "trialdata": {"rt": 44611, "response": {"Q0": "The cost for clicking on nodes may vary between nodes.", "Q1": "The better I perform the higher my bonus will be.", "Q2": "No, the amount of cash at each node of the web may be different each time.", "Q3": "To get the highest total score.", "Q4": "Only before moving the spider.", "Q5": "3 seconds"}, "question_order": [0, 1, 2, 3, 4, 5], "correct": {"Q0": "The cost for clicking on nodes may vary between nodes.", "Q1": "The better I perform the higher my bonus will be.", "Q2": "No, the amount of cash at each node of the web may be different each time.", "Q3": "To get the highest total score.", "Q4": "Only before moving the spider.", "Q5": "3 seconds"}, "trial_id": "mouselab_quiz_misaligned", "trial_type": "survey-multi-choice", "trial_index": 6, "time_elapsed": 614829, "internal_node_id": "0.0-2.0-4.0"}}, {"uniqueid": "w48600902:a20706230", "current_trial": 7, "dateTime": 1693565702714, "trialdata": {"rt": 11282, "response": {"Q0": "No"}, "question_order": [0], "trial_id": "repeat_check", "trial_type": "survey-multi-choice", "trial_index": 7, "time_elapsed": 626118, "internal_node_id": "0.0-4.0-0.0"}}, {"uniqueid": "w48600902:a20706230", "current_trial": 8, "dateTime": 1693565725921, "trialdata": {"rt": 23194, "stimulus": "\n<h1> Get ready to start the game! </h1>\n\nThank you for reading the instructions. Get ready start with the 40 rounds of this game.\n<br><br>\nIf you need to take a break, feel free to take one after the end of a round, before continuing to the next one.\n<br><br>\nRemember, the more money the spider gets, the bigger your bonus will be!\n<br><br>\n<div style='text-align: center;'>Press <code>space</code> to begin.</div>\n\n<br><br>\n(If, at any point, the <code>space</code> key does not take you to the next page, click once on the text and try again.)", "response": " ", "trial_id": "mdp_ready", "trial_type": "html-keyboard-response", "trial_index": 8, "time_elapsed": 649325, "internal_node_id": "0.0-6.0-0.0"}}, {"uniqueid": "w48600902:a20706230", "current_trial": 9, "dateTime": 1693565744900, "trialdata": {"revealed_states": [], "clicked_states": ["23"], "num_clicks_accrued": [0, 0, 0, 0, 0, 0, 0, 0, 0, 0, 0, 0, 0], "stateRewards": ["", 2, -1, 5, 8, 75, -35, -77, 1, -9, -81, -58, 1, 2, -7, 5, 77, -16, 19, 16, -10, -18, 40, -2, 3, 7, -5, 64, 1, -62, 10, 27, 10, 65], "withholdReward": false, "trial_id": "mdp_trial_1", "block": "test", "trialIndex": 2, "score": 28.25, "costs": 0.25, "simulationMode": [null, null, null, null, null], "rewards": [-2, 3, 7, 10, 10], "path": ["0", "0", "23", "24", "25", "30", "32"], "rt": [8112, 1885, 458, 624, 704], "actions": ["left", "left", "left", "down", "down"], "actionTimes": [10741, 13151, 14127, 15259, 16489], "queries": {"click": {"state": {"target": ["23"], "time": [4330]}, "edge": {"target": [], "time": []}}, "mouseover": {"state": {"target": ["23", "24", "23", "23"], "time": [3440, 6841, 9627, 10211]}, "edge": {"target": [], "time": []}}, "mouseout": {"state": {"target": ["1", "0", "23", "24", "23", "23"], "time": [1204, 3390, 6608, 9543, 9727, 10243]}, "edge": {"target": [], "time": []}}}, "displayed_time": "17.00", "trialTime": 18319, "trial_type": "mouselab-mdp", "trial_index": 9, "time_elapsed": 668302, "internal_node_id": "0.0-6.0-1.0-0.0"}}, {"uniqueid": "w48600902:a20706230", "current_trial": 10, "dateTime": 1693565768901, "trialdata": {"revealed_states": [], "clicked_states": ["12", "13", "14", "19", "21"], "num_clicks_accrued": [0, 0, 0, 0, 0, 0, 0, 0, 0, 0, 0, 0, 0], "stateRewards": ["", -1, -3, 1, 13, -64, -29, 12, -4, -33, 50, 56, 2, -3, 4, 11, -64, -58, -55, 12, 47, 38, -25, -2, 2, 5, -15, 85, 7, 84, 10, 8, 57, 26], "withholdReward": false, "trial_id": "mdp_trial_2", "block": "test", "trialIndex": 3, "score": 48.25, "costs": -4.75, "simulationMode": [null, null, null, null, null], "rewards": [2, -3, 4, 12, 38], "path": ["0", "0", "12", "13", "14", "19", "21"], "rt": [14930, 388, 384, 602, 509], "actions": ["right", "right", "right", "down", "down"], "actionTimes": [17537, 18436, 19362, 20503, 21514], "queries": {"click": {"state": {"target": ["12", "13", "14", "19", "21"], "time": [4529, 6060, 7932, 9927, 11222]}, "edge": {"target": [], "time": []}}, "mouseover": {"state": {"target": ["0", "12", "13", "18", "14", "19", "21", "20", "19"], "time": [3939, 4305, 5500, 7167, 7434, 9702, 10626, 16119, 16524]}, "edge": {"target": [], "time": []}}, "mouseout": {"state": {"target": ["0", "12", "13", "18", "14", "19", "19", "21", "20"], "time": [4089, 4734, 6266, 7301, 8954, 10128, 10620, 16020, 16489]}, "edge": {"target": [], "time": []}}}, "displayed_time": "22.02", "trialTime": 23530, "trial_type": "mouselab-mdp", "trial_index": 10, "time_elapsed": 692304, "internal_node_id": "0.0-6.0-1.0-1.0"}}, {"uniqueid": "w48600902:a20706230", "current_trial": 11, "dateTime": 1693565790117, "trialdata": {"revealed_states": [], "clicked_states": ["1", "2", "3", "8", "11"], "num_clicks_accrued": [0, 0, 0, 0, 0, 0, 0, 0, 0, 0, 0, 0, 0], "stateRewards": ["", -2, -1, -6, -14, -55, 78, -13, 11, 14, -71, 59, 2, 2, 6, -6, 9, 38, 14, 7, 85, 11, 68, 1, -4, -1, -3, -63, -85, 9, -2, 63, -86, -10], "withholdReward": false, "trial_id": "mdp_trial_3", "block": "test", "trialIndex": 4, "score": 56.25, "costs": -4.75, "simulationMode": [null, null, null, null, null], "rewards": [-2, -1, -6, 11, 59], "path": ["0", "0", "1", "2", "3", "8", "11"], "rt": [13178, 350, 241, 494, 147], "actions": ["up", "up", "up", "left", "left"], "actionTimes": [15428, 16322, 17075, 18095, 18767], "queries": {"click": {"state": {"target": ["1", "2", "3", "8", "11"], "time": [3792, 5107, 6501, 7616, 8818]}, "edge": {"target": [], "time": []}}, "mouseover": {"state": {"target": ["1", "2", "3", "8", "11", "23", "0", "12", "1"], "time": [3107, 4626, 6069, 7227, 8444, 9931, 12205, 12562, 14229]}, "edge": {"target": [], "time": []}}, "mouseout": {"state": {"target": ["19", "22", "0", "1", "2", "3", "8", "11", "23", "0", "12", "1"], "time": [904, 1222, 1371, 4480, 5896, 7126, 8377, 9595, 12196, 12263, 13344, 20582]}, "edge": {"target": [], "time": []}}}, "displayed_time": "19.30", "trialTime": 20812, "trial_type": "mouselab-mdp", "trial_index": 11, "time_elapsed": 713520, "internal_node_id": "0.0-6.0-1.0-2.0"}}, {"uniqueid": "w48600902:a20706230", "current_trial": 12, "dateTime": 1693565823651, "trialdata": {"revealed_states": [], "clicked_states": ["12", "13", "14", "15", "18", "16", "23", "24", "25", "33", "32"], "num_clicks_accrued": [0, 0, 0, 0, 0, 0, 0, 0, 0, 0, 0, 0, 0], "stateRewards": ["", 2, 3, -6, -5, -3, 55, 40, 11, 61, 11, 51, 2, -4, -6, 9, -25, 29, -15, -6, 7, -77, -2, -2, -4, 1, 14, -43, -1, 56, -12, -54, 41, -74], "withholdReward": false, "trial_id": "mdp_trial_4", "block": "test", "trialIndex": 5, "score": -21.25, "costs": -12.25, "simulationMode": [null, null, null, null, null], "rewards": [2, 3, -6, -5, -3], "path": ["0", "0", "1", "2", "3", "4", "5"], "rt": [22370, 408, 364, 325, 703], "actions": ["up", "up", "up", "right", "up"], "actionTimes": [24664, 25580, 26483, 27324, 28551], "queries": {"click": {"state": {"target": ["12", "13", "14", "15", "18", "16", "23", "24", "25", "33", "32"], "time": [3720, 4784, 5933, 7193, 8372, 11429, 14276, 16254, 17344, 18456, 21490]}, "edge": {"target": [], "time": []}}, "mouseover": {"state": {"target": ["12", "13", "14", "15", "18", "16", "16", "0", "23", "24", "25", "33", "30", "32", "30", "31"], "time": [3407, 4493, 5609, 6677, 7977, 9527, 9944, 13529, 13863, 15793, 16882, 18101, 19496, 21204, 22122, 22672]}, "edge": {"target": [], "time": []}}, "mouseout": {"state": {"target": ["0", "12", "13", "14", "15", "18", "15", "16", "16", "16", "18", "0", "23", "24", "25", "33", "30", "32", "30", "31"], "time": [2973, 4308, 5559, 6526, 7905, 9230, 9361, 9645, 11643, 13247, 13412, 13813, 15727, 16797, 17998, 18931, 20456, 21701, 22439, 23624]}, "edge": {"target": [], "time": []}}}, "displayed_time": "29.06", "trialTime": 32803, "trial_type": "mouselab-mdp", "trial_index": 12, "time_elapsed": 747053, "internal_node_id": "0.0-6.0-1.0-3.0"}}, {"uniqueid": "w48600902:a20706230", "current_trial": 13, "dateTime": 1693565846583, "trialdata": {"revealed_states": [], "clicked_states": ["1", "2", "3", "4", "6", "8", "11"], "num_clicks_accrued": [0, 0, 0, 0, 0, 0, 0, 0, 0, 0, 0, 0, 0], "stateRewards": ["", -1, 1, -5, -6, -78, 47, -13, 12, 48, -88, 20, 2, -3, -2, 13, -20, 37, -57, 14, -38, 30, 31, -2, -2, 8, 2, -23, 78, 28, 12, -74, -88, 8], "withholdReward": false, "trial_id": "mdp_trial_5", "block": "test", "trialIndex": 6, "score": 27.55, "costs": -8.45, "simulationMode": [null, null, null, null, null], "rewards": [-1, 1, -5, -6, 47], "path": ["0", "0", "1", "2", "3", "4", "6"], "rt": [13317, 372, 284, 461, 140], "actions": ["up", "up", "up", "right", "right"], "actionTimes": [16216, 17105, 17917, 18880, 19521], "queries": {"click": {"state": {"target": ["1", "2", "3", "4", "6", "8", "11"], "time": [4180, 5208, 6193, 7243, 8176, 11681, 13125]}, "edge": {"target": [], "time": []}}, "mouseover": {"state": {"target": ["1", "2", "3", "4", "6", "8", "8", "8", "11", "9", "2", "1", "1"], "time": [3620, 4840, 5791, 6941, 7824, 9175, 9490, 10470, 12742, 13693, 15211, 15327, 15578]}, "edge": {"target": [], "time": []}}, "mouseout": {"state": {"target": ["0", "1", "2", "3", "4", "6", "4", "8", "8", "8", "11", "9", "2", "1", "1"], "time": [3537, 4739, 5704, 6824, 7742, 8974, 9060, 9275, 9620, 12698, 13327, 14960, 15244, 15361, 21228]}, "edge": {"target": [], "time": []}}}, "displayed_time": "20.03", "trialTime": 22215, "trial_type": "mouselab-mdp", "trial_index": 13, "time_elapsed": 769986, "internal_node_id": "0.0-6.0-1.0-4.0"}}, {"uniqueid": "w48600902:a20706230", "current_trial": 14, "dateTime": 1693565869429, "trialdata": {"revealed_states": [], "clicked_states": ["1", "2", "3", "8", "9"], "num_clicks_accrued": [0, 0, 0, 0, 0, 0, 0, 0, 0, 0, 0, 0, 0], "stateRewards": ["", -1, 2, 5, -6, 13, -64, -47, 8, -79, -80, -33, 1, 2, -2, -16, 56, -71, -10, 3, 29, 44, 85, -1, 4, 5, 4, -36, -56, 19, 8, 52, -13, -2], "withholdReward": false, "trial_id": "mdp_trial_6", "block": "test", "trialIndex": 7, "score": -68.75, "costs": -4.75, "simulationMode": [null, null, null, null, null], "rewards": [-1, 2, 5, -6, -64], "path": ["0", "0", "1", "2", "3", "4", "6"], "rt": [13810, 268, 190, 619, 706], "actions": ["up", "up", "up", "right", "right"], "actionTimes": [15740, 16526, 17233, 18395, 19614], "queries": {"click": {"state": {"target": ["1", "2", "3", "8", "9"], "time": [3831, 5045, 6700, 7808, 8762]}, "edge": {"target": [], "time": []}}, "mouseover": {"state": {"target": ["1", "2", "3", "8", "9", "4", "3", "8", "3", "4"], "time": [3108, 4680, 6197, 7465, 8400, 10578, 13863, 13948, 14314, 14586]}, "edge": {"target": [], "time": []}}, "mouseout": {"state": {"target": ["0", "1", "2", "3", "8", "9", "4", "3", "8", "3"], "time": [2925, 4562, 6115, 7347, 8318, 10227, 13813, 13898, 14247, 14448]}, "edge": {"target": [], "time": []}}}, "displayed_time": "20.16", "trialTime": 22459, "trial_type": "mouselab-mdp", "trial_index": 14, "time_elapsed": 792832, "internal_node_id": "0.0-6.0-1.0-5.0"}}, {"uniqueid": "w48600902:a20706230", "current_trial": 15, "dateTime": 1693565908959, "trialdata": {"revealed_states": [], "clicked_states": ["23", "24", "25", "26", "27", "28", "30", "32", "33", "21"], "num_clicks_accrued": [0, 0, 0, 0, 0, 0, 0, 0, 0, 0, 0, 0, 0], "stateRewards": ["", -2, -3, 8, -4, -30, 31, 69, 9, 66, 87, 64, -2, 2, 8, 5, 47, 16, -39, -8, -54, 51, -19, 1, -2, -2, -11, -25, -26, 43, -9, 19, -84, 86], "withholdReward": false, "trial_id": "mdp_trial_7", "block": "test", "trialIndex": 8, "score": 59.099999999999994, "costs": -14.900000000000002, "simulationMode": [null, null, null, null, null], "rewards": [1, -2, -2, -9, 86], "path": ["0", "0", "23", "24", "25", "30", "33"], "rt": [25806, 388, 358, 524, 182], "actions": ["left", "left", "left", "down", "left"], "actionTimes": [31610, 32530, 33419, 34453, 35177], "queries": {"click": {"state": {"target": ["23", "24", "25", "26", "27", "28", "30", "32", "33", "21"], "time": [7477, 8677, 9889, 10756, 11497, 14696, 18313, 19960, 22757, 25798]}, "edge": {"target": [], "time": []}}, "mouseover": {"state": {"target": ["23", "24", "25", "25", "26", "27", "29", "28", "28", "25", "30", "32", "32", "31", "30", "33", "31", "21", "19", "19", "22"], "time": [7110, 8429, 9133, 9663, 10312, 11181, 12080, 13864, 14298, 15332, 15398, 19033, 19567, 20407, 22042, 22151, 23652, 24903, 26486, 28138, 28256]}, "edge": {"target": [], "time": []}}, "mouseout": {"state": {"target": ["4", "1", "0", "0", "23", "24", "25", "25", "26", "27", "29", "26", "28", "28", "25", "30", "32", "32", "31", "30", "33", "31", "21", "19", "19", "22"], "time": [4606, 4759, 4841, 6478, 7912, 8894, 9164, 10264, 10958, 11880, 13731, 13816, 14031, 14917, 15366, 18984, 19133, 20400, 22036, 22084, 22967, 24552, 26454, 27836, 28250, 28282]}, "edge": {"target": [], "time": []}}}, "displayed_time": "35.71", "trialTime": 38060, "trial_type": "mouselab-mdp", "trial_index": 15, "time_elapsed": 832362, "internal_node_id": "0.0-6.0-1.0-6.0"}}, {"uniqueid": "w48600902:a20706230", "current_trial": 16, "dateTime": 1693565940130, "trialdata": {"revealed_states": [], "clicked_states": ["21", "33", "27", "9", "5", "6"], "num_clicks_accrued": [0, 0, 0, 0, 0, 0, 0, 0, 0, 0, 0, 0, 0], "stateRewards": ["", -1, 1, -2, 5, 73, 15, 61, 8, 7, 38, 76, 2, 2, -4, -6, -6, -26, 43, -5, -45, -85, -35, -2, 1, -4, 15, -10, 69, 72, -11, 84, -49, -38], "withholdReward": false, "trial_id": "mdp_trial_8", "block": "test", "trialIndex": 9, "score": 63.1, "costs": -12.9, "simulationMode": [null, null, null, null, null, null], "rewards": [-1, 1, -2, 5, 73], "path": ["0", "0", "1", "2", "3", "4", "5"], "rt": [20447, 1244, 324, 449, 472, 88], "actions": ["up", "up", "up", "up", "right", "up"], "actionTimes": [24415, 25666, 26506, 27456, 28447, 29064], "queries": {"click": {"state": {"target": ["21", "33", "27", "9", "5", "6"], "time": [6520, 10121, 12930, 15903, 19097, 22360]}, "edge": {"target": [], "time": []}}, "mouseover": {"state": {"target": ["12", "13", "19", "21", "20", "19", "33", "33", "26", "27", "9", "5", "6", "4", "3", "2"], "time": [5062, 5161, 5494, 5862, 7430, 7737, 8031, 8347, 10682, 10815, 14413, 17251, 19838, 23366, 23450, 23699]}, "edge": {"target": [], "time": []}}, "mouseout": {"state": {"target": ["12", "13", "19", "21", "20", "19", "33", "33", "26", "27", "9", "5", "6", "6", "4", "3"], "time": [5112, 5194, 5812, 7180, 7731, 7766, 8147, 10341, 10747, 14016, 16751, 19653, 22579, 23315, 23399, 23633]}, "edge": {"target": [], "time": []}}}, "displayed_time": "29.58", "trialTime": 30750, "trial_type": "mouselab-mdp", "trial_index": 16, "time_elapsed": 863532, "internal_node_id": "0.0-6.0-1.0-7.0"}}, {"uniqueid": "w48600902:a20706230", "current_trial": 17, "dateTime": 1693565964957, "trialdata": {"revealed_states": [], "clicked_states": ["33", "29", "27", "9"], "num_clicks_accrued": [0, 0, 0, 0, 0, 0, 0, 0, 0, 0, 0, 0, 0], "stateRewards": ["", 1, -1, 8, -3, 38, 85, -20, -4, 8, 23, 73, 2, -4, 6, -13, 44, 7, -28, -11, -77, 45, -69, 1, -1, -7, -11, 75, -51, -87, 7, 36, -53, -26], "withholdReward": false, "trial_id": "mdp_trial_9", "block": "test", "trialIndex": 10, "score": 48.4, "costs": -8.6, "simulationMode": [null, null, null, null, null, null], "rewards": [1, -1, -7, -11, 75], "path": ["0", "0", "23", "24", "25", "26", "27"], "rt": [12927, 1558, 319, 147, 395, 533], "actions": ["left", "left", "left", "left", "up", "up"], "actionTimes": [15245, 16819, 17655, 18301, 19200, 20258], "queries": {"click": {"state": {"target": ["33", "29", "27", "9"], "time": [3933, 6971, 9864, 12811]}, "edge": {"target": [], "time": []}}, "mouseover": {"state": {"target": ["23", "24", "25", "33", "29", "27", "11", "9", "11"], "time": [3162, 3298, 3398, 3530, 4703, 7682, 10618, 10951, 13670]}, "edge": {"target": [], "time": []}}, "mouseout": {"state": {"target": ["2", "1", "0", "0", "23", "24", "25", "33", "29", "27", "11", "9", "11"], "time": [677, 793, 910, 3112, 3248, 3331, 3447, 4433, 7500, 10094, 10667, 13554, 13770]}, "edge": {"target": [], "time": []}}}, "displayed_time": "20.76", "trialTime": 24139, "trial_type": "mouselab-mdp", "trial_index": 17, "time_elapsed": 888360, "internal_node_id": "0.0-6.0-1.0-8.0"}}, {"uniqueid": "w48600902:a20706230", "current_trial": 18, "dateTime": 1693565984059, "trialdata": {"revealed_states": [], "clicked_states": ["21"], "num_clicks_accrued": [0, 0, 0, 0, 0, 0, 0, 0, 0, 0, 0, 0, 0], "stateRewards": ["", -1, -1, 4, -16, -75, 81, -51, -7, -84, 73, -30, -2, 1, -3, -16, -77, 33, 14, 1, 45, 87, -66, 2, 2, -5, -7, -19, -17, 79, -3, 8, 49, 47], "withholdReward": false, "trial_id": "mdp_trial_10", "block": "test", "trialIndex": 11, "score": 81.85, "costs": -2.15, "simulationMode": [null, null, null, null, null], "rewards": [-2, 1, -3, 1, 87], "path": ["0", "0", "12", "13", "14", "19", "21"], "rt": [6246, 256, 278, 179, 763], "actions": ["right", "right", "right", "down", "down"], "actionTimes": [9554, 10325, 11132, 11853, 13121], "queries": {"click": {"state": {"target": ["21"], "time": [4880]}, "edge": {"target": [], "time": []}}, "mouseover": {"state": {"target": ["12", "13", "14", "20", "21", "20", "22"], "time": [3809, 3862, 3945, 4249, 4547, 5969, 8796]}, "edge": {"target": [], "time": []}}, "mouseout": {"state": {"target": ["1", "0", "12", "13", "14", "20", "21", "20", "22"], "time": [692, 3779, 3859, 3942, 4164, 4414, 5634, 8729, 8829]}, "edge": {"target": [], "time": []}}}, "displayed_time": "17.32", "trialTime": 18516, "trial_type": "mouselab-mdp", "trial_index": 18, "time_elapsed": 907462, "internal_node_id": "0.0-6.0-1.0-9.0"}}, {"uniqueid": "w48600902:a20706230", "current_trial": 19, "dateTime": 1693566004092, "trialdata": {"revealed_states": [], "clicked_states": ["21", "32"], "num_clicks_accrued": [0, 0, 0, 0, 0, 0, 0, 0, 0, 0, 0, 0, 0], "stateRewards": ["", 2, -4, -4, 13, -80, 62, 13, -11, 57, -13, -44, 1, 4, 3, -4, -29, -88, 15, 16, -58, 68, -45, -1, -3, -1, -9, -44, -86, -19, -7, -36, 59, 66], "withholdReward": false, "trial_id": "mdp_trial_11", "block": "test", "trialIndex": 12, "score": 87.7, "costs": -4.3, "simulationMode": [null, null, null, null, null], "rewards": [1, 4, 3, 16, 68], "path": ["0", "0", "12", "13", "14", "19", "21"], "rt": [10143, 113, 32, 124, 30], "actions": ["right", "right", "right", "down", "down"], "actionTimes": [13093, 13709, 14244, 14919, 15460], "queries": {"click": {"state": {"target": ["21", "32"], "time": [4572, 8659]}, "edge": {"target": [], "time": []}}, "mouseover": {"state": {"target": ["19", "21", "32", "33", "30"], "time": [3795, 4148, 6366, 9755, 11155]}, "edge": {"target": [], "time": []}}, "mouseout": {"state": {"target": ["0", "19", "21", "32", "33", "30"], "time": [3648, 4049, 5982, 9405, 10155, 11255]}, "edge": {"target": [], "time": []}}}, "displayed_time": "16.96", "trialTime": 19592, "trial_type": "mouselab-mdp", "trial_index": 19, "time_elapsed": 927495, "internal_node_id": "0.0-6.0-1.0-10.0"}}, {"uniqueid": "w48600902:a20706230", "current_trial": 20, "dateTime": 1693566022615, "trialdata": {"revealed_states": [], "clicked_states": ["23", "27"], "num_clicks_accrued": [0, 0, 0, 0, 0, 0, 0, 0, 0, 0, 0, 0, 0], "stateRewards": ["", -1, 1, 6, -6, 70, 66, 67, -16, -75, -35, 37, -1, 4, 4, -6, 47, -9, 63, 15, 21, -63, 13, 1, 3, -6, 10, 79, -29, 18, -15, 9, -67, -19], "withholdReward": false, "trial_id": "mdp_trial_12", "block": "test", "trialIndex": 13, "score": 85.1, "costs": -1.9, "simulationMode": [null, null, null, null, null], "rewards": [1, 3, -6, 10, 79], "path": ["0", "0", "23", "24", "25", "26", "27"], "rt": [7730, 3, 118, 467, 755], "actions": ["left", "left", "left", "up", "up"], "actionTimes": [10564, 11091, 11779, 12759, 14015], "queries": {"click": {"state": {"target": ["23", "27"], "time": [4194, 6257]}, "edge": {"target": [], "time": []}}, "mouseover": {"state": {"target": ["23", "24", "25", "27", "8", "9", "8"], "time": [3799, 4917, 5566, 5817, 7687, 7904, 10002]}, "edge": {"target": [], "time": []}}, "mouseout": {"state": {"target": ["23", "24", "25", "27", "8", "9", "8"], "time": [4751, 5484, 5716, 6481, 7854, 9952, 10052]}, "edge": {"target": [], "time": []}}}, "displayed_time": "16.84", "trialTime": 17972, "trial_type": "mouselab-mdp", "trial_index": 20, "time_elapsed": 946018, "internal_node_id": "0.0-6.0-1.0-11.0"}}, {"uniqueid": "w48600902:a20706230", "current_trial": 21, "dateTime": 1693566042318, "trialdata": {"revealed_states": [], "clicked_states": ["9", "5"], "num_clicks_accrued": [0, 0, 0, 0, 0, 0, 0, 0, 0, 0, 0, 0, 0], "stateRewards": ["", 2, 3, 8, 14, 69, -27, 17, 2, -71, -65, -10, 2, -3, 7, 8, 65, -10, 65, -12, 73, -12, 13, -2, -2, 6, 10, -79, -69, -18, 10, -85, 67, 74], "withholdReward": false, "trial_id": "mdp_trial_13", "block": "test", "trialIndex": 14, "score": 91.7, "costs": -4.3, "simulationMode": [null, null, null, null, null], "rewards": [2, 3, 8, 14, 69], "path": ["0", "0", "1", "2", "3", "4", "5"], "rt": [9748, 139, 265, 393, 328], "actions": ["up", "up", "up", "right", "up"], "actionTimes": [12600, 13285, 14096, 15023, 15859], "queries": {"click": {"state": {"target": ["9", "5"], "time": [4637, 8232]}, "edge": {"target": [], "time": []}}, "mouseover": {"state": {"target": ["1", "2", "5", "9", "5", "6", "16", "15", "18"], "time": [3413, 3460, 3804, 4237, 6572, 11426, 11559, 11652, 11883]}, "edge": {"target": [], "time": []}}, "mouseout": {"state": {"target": ["10", "23", "0", "0", "1", "2", "5", "9", "5", "6", "16", "15", "18"], "time": [1434, 1583, 2001, 3408, 3454, 3488, 3905, 5838, 11375, 11508, 11642, 11874, 11910]}, "edge": {"target": [], "time": []}}}, "displayed_time": "16.86", "trialTime": 19188, "trial_type": "mouselab-mdp", "trial_index": 21, "time_elapsed": 965720, "internal_node_id": "0.0-6.0-1.0-12.0"}}, {"uniqueid": "w48600902:a20706230", "current_trial": 22, "dateTime": 1693566071594, "trialdata": {"revealed_states": [], "clicked_states": ["33", "21", "17"], "num_clicks_accrued": [0, 0, 0, 0, 0, 0, 0, 0, 0, 0, 0, 0, 0], "stateRewards": ["", 1, 2, 7, 13, 88, -71, 27, 3, 60, 5, -53, -2, 2, -6, -1, -30, 79, 47, -4, -14, 46, 68, 1, 1, 8, 10, -14, 86, 48, -11, -67, -44, 5], "withholdReward": false, "trial_id": "mdp_trial_14", "block": "test", "trialIndex": 15, "score": 65.55, "costs": -6.449999999999999, "simulationMode": [null, null, null, null, null], "rewards": [-2, 2, -6, -1, 79], "path": ["0", "0", "12", "13", "14", "15", "17"], "rt": [15398, 188, 310, 508, 745], "actions": ["right", "right", "right", "up", "right"], "actionTimes": [19938, 20656, 21478, 22509, 23780], "queries": {"click": {"state": {"target": ["33", "21", "17"], "time": [6612, 10919, 14895]}, "edge": {"target": [], "time": []}}, "mouseover": {"state": {"target": ["23", "24", "33", "30", "19", "20", "21", "17", "15"], "time": [5450, 5586, 6171, 8185, 8438, 9203, 10489, 14307, 18309]}, "edge": {"target": [], "time": []}}, "mouseout": {"state": {"target": ["0", "23", "24", "33", "30", "19", "20", "21", "17"], "time": [5317, 5552, 5652, 8040, 8326, 8506, 10455, 13991, 18278]}, "edge": {"target": [], "time": []}}}, "displayed_time": "24.29", "trialTime": 28490, "trial_type": "mouselab-mdp", "trial_index": 22, "time_elapsed": 994996, "internal_node_id": "0.0-6.0-1.0-13.0"}}, {"uniqueid": "w48600902:a20706230", "current_trial": 23, "dateTime": 1693566091332, "trialdata": {"revealed_states": [], "clicked_states": ["9", "5"], "num_clicks_accrued": [0, 0, 0, 0, 0, 0, 0, 0, 0, 0, 0, 0, 0], "stateRewards": ["", -1, -4, -6, -15, 21, -67, -63, 9, 51, 69, -14, -1, 3, 8, -8, 39, 72, 63, 15, 19, 47, 15, 1, 4, 5, 16, -18, 34, 35, -14, -80, 40, 1], "withholdReward": false, "trial_id": "mdp_trial_15", "block": "test", "trialIndex": 16, "score": 44.7, "costs": -4.3, "simulationMode": [null, null, null, null, null], "rewards": [-1, -4, -6, 9, 51], "path": ["0", "0", "1", "2", "3", "8", "9"], "rt": [10019, 130, 223, 436, 1095], "actions": ["up", "up", "up", "left", "up"], "actionTimes": [12052, 12698, 13436, 14387, 15980], "queries": {"click": {"state": {"target": ["9", "5"], "time": [3894, 7410]}, "edge": {"target": [], "time": []}}, "mouseover": {"state": {"target": ["23", "2", "3", "9", "5", "3"], "time": [2807, 3092, 3132, 3426, 5346, 11112]}, "edge": {"target": [], "time": []}}, "mouseout": {"state": {"target": ["15", "18", "0", "0", "23", "2", "3", "9", "5"], "time": [839, 923, 1056, 2725, 3008, 3125, 3210, 4878, 11030]}, "edge": {"target": [], "time": []}}}, "displayed_time": "16.50", "trialTime": 18972, "trial_type": "mouselab-mdp", "trial_index": 23, "time_elapsed": 1014735, "internal_node_id": "0.0-6.0-1.0-14.0"}}, {"uniqueid": "w48600902:a20706230", "current_trial": 24, "dateTime": 1693566119688, "trialdata": {"revealed_states": [], "clicked_states": ["5", "9", "29", "33", "32"], "num_clicks_accrued": [0, 0, 0, 0, 0, 0, 0, 0, 0, 0, 0, 0, 0], "stateRewards": ["", 1, 4, 7, -16, -84, -6, -46, -12, -7, -49, -26, -1, 2, -4, 2, 22, 37, -64, 1, 88, -13, -10, 1, -4, -2, 5, 2, -10, -34, 9, 66, 55, 38], "withholdReward": false, "trial_id": "mdp_trial_16", "block": "test", "trialIndex": 17, "score": 48.25, "costs": -10.75, "simulationMode": [null, null, null, null, null], "rewards": [1, -4, -2, 9, 55], "path": ["0", "0", "23", "24", "25", "30", "32"], "rt": [21538, 351, 114, 99, 6], "actions": ["left", "left", "left", "down", "down"], "actionTimes": [23378, 24260, 24922, 25590, 26150], "queries": {"click": {"state": {"target": ["5", "9", "29", "33", "32"], "time": [4576, 7760, 11196, 15469, 19035]}, "edge": {"target": [], "time": []}}, "mouseover": {"state": {"target": ["1", "7", "4", "5", "5", "9", "9", "27", "29", "29", "33", "33", "30", "32"], "time": [3193, 3527, 3778, 3944, 4226, 5447, 6047, 8548, 8696, 9031, 11948, 14902, 16273, 17406]}, "edge": {"target": [], "time": []}}, "mouseout": {"state": {"target": ["3", "2", "1", "1", "7", "4", "5", "5", "9", "9", "27", "29", "29", "33", "33", "30", "32"], "time": [856, 940, 1007, 3226, 3577, 3844, 3993, 4791, 5579, 7960, 8598, 8747, 11850, 11999, 16236, 16302, 21954]}, "edge": {"target": [], "time": []}}}, "displayed_time": "26.71", "trialTime": 27788, "trial_type": "mouselab-mdp", "trial_index": 24, "time_elapsed": 1043090, "internal_node_id": "0.0-6.0-1.0-15.0"}}, {"uniqueid": "w48600902:a20706230", "current_trial": 25, "dateTime": 1693566148185, "trialdata": {"revealed_states": [], "clicked_states": ["17", "16", "21", "33"], "num_clicks_accrued": [0, 0, 0, 0, 0, 0, 0, 0, 0, 0, 0, 0, 0], "stateRewards": ["", -2, -3, -6, -7, 9, 16, 65, 5, -41, 20, -25, -1, -4, 1, -11, -49, -4, 71, 1, 39, -62, 52, -2, -3, 7, -9, -28, -70, 84, 8, 24, -58, 82], "withholdReward": false, "trial_id": "mdp_trial_17", "block": "test", "trialIndex": 18, "score": 83.4, "costs": -8.6, "simulationMode": [null, null, null, null, null], "rewards": [-2, -3, 7, 8, 82], "path": ["0", "0", "23", "24", "25", "30", "33"], "rt": [17223, 933, 222, 193, 733], "actions": ["left", "left", "left", "down", "left"], "actionTimes": [21179, 22654, 23415, 24118, 25361], "queries": {"click": {"state": {"target": ["17", "16", "21", "33"], "time": [5966, 9278, 12545, 16581]}, "edge": {"target": [], "time": []}}, "mouseover": {"state": {"target": ["13", "14", "17", "16", "15", "14", "19", "21", "31", "30", "33", "29"], "time": [5110, 5180, 5524, 7197, 9962, 9999, 10050, 10178, 15929, 16063, 16201, 18569]}, "edge": {"target": [], "time": []}}, "mouseout": {"state": {"target": ["0", "13", "14", "17", "16", "15", "14", "19", "21", "31", "30", "33"], "time": [4857, 5176, 5309, 7095, 9930, 9995, 10046, 10105, 15721, 16029, 16134, 16793]}, "edge": {"target": [], "time": []}}}, "displayed_time": "25.90", "trialTime": 27946, "trial_type": "mouselab-mdp", "trial_index": 25, "time_elapsed": 1071588, "internal_node_id": "0.0-6.0-1.0-16.0"}}, {"uniqueid": "w48600902:a20706230", "current_trial": 26, "dateTime": 1693566168325, "trialdata": {"revealed_states": [], "clicked_states": [], "num_clicks_accrued": [0, 0, 0, 0, 0, 0, 0, 0, 0, 0, 0, 0, 0], "stateRewards": ["", 1, -1, 4, -2, -75, -75, 84, -9, -60, -79, 59, 2, -4, 8, 9, -17, -82, 80, 14, -4, 49, 49, -1, 3, 6, -11, -33, 34, 55, 9, -57, 5, 59], "withholdReward": false, "trial_id": "mdp_trial_18", "block": "test", "trialIndex": 19, "score": 86, "costs": 0, "simulationMode": [null, null, null, null, null], "rewards": [1, -1, 4, -2, 84], "path": ["0", "0", "1", "2", "3", "4", "7"], "rt": [5764, 826, 243, 760, 97], "actions": ["up", "up", "up", "right", "down"], "actionTimes": [9290, 10645, 11414, 12715, 13360], "queries": {"click": {"state": {"target": [], "time": []}, "edge": {"target": [], "time": []}}, "mouseover": {"state": {"target": ["9", "2", "1"], "time": [6312, 7796, 8363]}, "edge": {"target": [], "time": []}}, "mouseout": {"state": {"target": ["29", "26", "23", "0", "9", "2", "1", "0"], "time": [2026, 2093, 2629, 5662, 7679, 8113, 18616, 18667]}, "edge": {"target": [], "time": []}}}, "displayed_time": "17.54", "trialTime": 19590, "trial_type": "mouselab-mdp", "trial_index": 26, "time_elapsed": 1091727, "internal_node_id": "0.0-6.0-1.0-17.0"}}, {"uniqueid": "w48600902:a20706230", "current_trial": 27, "dateTime": 1693566192732, "trialdata": {"revealed_states": [], "clicked_states": ["32", "27", "10"], "num_clicks_accrued": [0, 0, 0, 0, 0, 0, 0, 0, 0, 0, 0, 0, 0], "stateRewards": ["", -1, -4, -1, -5, -28, -23, -15, -15, -38, 59, -87, 2, 2, -5, 9, -55, -39, -71, -6, 85, -85, -11, -1, -2, 5, -10, 1, 25, 41, -4, 69, -35, 86], "withholdReward": false, "trial_id": "mdp_trial_19", "block": "test", "trialIndex": 20, "score": 31.55, "costs": -6.449999999999999, "simulationMode": [null, null, null, null, null], "rewards": [-1, -4, -1, -15, 59], "path": ["0", "0", "1", "2", "3", "8", "10"], "rt": [13414, 155, 178, 391, 158], "actions": ["up", "up", "up", "left", "down"], "actionTimes": [16672, 17331, 18006, 18900, 19567], "queries": {"click": {"state": {"target": ["32", "27", "10"], "time": [4601, 7642, 12030]}, "edge": {"target": [], "time": []}}, "mouseover": {"state": {"target": ["23", "31", "30", "32", "30", "25", "26", "27", "10", "3", "7", "2", "1", "10", "2", "7", "7"], "time": [3833, 3999, 4117, 4283, 5318, 5385, 5684, 5868, 10370, 10619, 11036, 11202, 11423, 11637, 13604, 13754, 14072]}, "edge": {"target": [], "time": []}}, "mouseout": {"state": {"target": ["0", "23", "31", "30", "32", "30", "25", "26", "27", "10", "3", "7", "2", "1", "10", "2", "7"], "time": [3799, 3867, 4083, 4199, 5284, 5352, 5601, 5819, 9737, 10426, 10686, 11119, 11337, 11587, 13538, 13688, 13838]}, "edge": {"target": [], "time": []}}}, "displayed_time": "20.11", "trialTime": 23763, "trial_type": "mouselab-mdp", "trial_index": 27, "time_elapsed": 1116135, "internal_node_id": "0.0-6.0-1.0-18.0"}}, {"uniqueid": "w48600902:a20706230", "current_trial": 28, "dateTime": 1693566211455, "trialdata": {"revealed_states": [], "clicked_states": [], "num_clicks_accrued": [0, 0, 0, 0, 0, 0, 0, 0, 0, 0, 0, 0, 0], "stateRewards": ["", -1, -2, 8, -6, -79, -6, 87, 9, -5, -66, -38, 2, 2, 5, -6, -82, 74, 85, -8, 67, -30, -15, 1, -2, -2, -2, 87, 64, 49, 7, 2, -38, -9], "withholdReward": false, "trial_id": "mdp_trial_20", "block": "test", "trialIndex": 21, "score": -29, "costs": 0, "simulationMode": [null, null, null, null, null], "rewards": [2, 2, 5, -8, -30], "path": ["0", "0", "12", "13", "14", "19", "21"], "rt": [1833, 203, 166, 108, 372], "actions": ["right", "right", "right", "down", "down"], "actionTimes": [4620, 5345, 6010, 6652, 7534], "queries": {"click": {"state": {"target": [], "time": []}, "edge": {"target": [], "time": []}}, "mouseover": {"state": {"target": [], "time": []}, "edge": {"target": [], "time": []}}, "mouseout": {"state": {"target": ["7", "0"], "time": [1587, 2054]}, "edge": {"target": [], "time": []}}}, "displayed_time": "16.81", "trialTime": 18200, "trial_type": "mouselab-mdp", "trial_index": 28, "time_elapsed": 1134858, "internal_node_id": "0.0-6.0-1.0-19.0"}}, {"uniqueid": "w48600902:a20706230", "current_trial": 29, "dateTime": 1693566230023, "trialdata": {"revealed_states": [], "clicked_states": ["9", "5"], "num_clicks_accrued": [0, 0, 0, 0, 0, 0, 0, 0, 0, 0, 0, 0, 0], "stateRewards": ["", -1, 2, -2, 13, -56, -28, 10, 14, 53, -80, -29, 1, -3, -3, -14, 14, 9, -40, -9, 18, 18, 48, 1, 1, 1, -9, 64, -39, -9, 7, -52, -78, 7], "withholdReward": false, "trial_id": "mdp_trial_21", "block": "test", "trialIndex": 22, "score": 61.7, "costs": -4.3, "simulationMode": [null, null, null, null, null], "rewards": [-1, 2, -2, 14, 53], "path": ["0", "0", "1", "2", "3", "8", "9"], "rt": [7628, 186, 338, 192, 660], "actions": ["up", "up", "up", "left", "up"], "actionTimes": [10294, 10984, 11824, 12529, 13711], "queries": {"click": {"state": {"target": ["9", "5"], "time": [4045, 7059]}, "edge": {"target": [], "time": []}}, "mouseover": {"state": {"target": ["1", "8", "9", "5", "6", "15"], "time": [3128, 3328, 3526, 5178, 8647, 8862]}, "edge": {"target": [], "time": []}}, "mouseout": {"state": {"target": ["0", "1", "8", "9", "5", "5", "6"], "time": [738, 3161, 3409, 4862, 7274, 8563, 8729]}, "edge": {"target": [], "time": []}}}, "displayed_time": "16.69", "trialTime": 18031, "trial_type": "mouselab-mdp", "trial_index": 29, "time_elapsed": 1153426, "internal_node_id": "0.0-6.0-1.0-20.0"}}, {"uniqueid": "w48600902:a20706230", "current_trial": 30, "dateTime": 1693566247686, "trialdata": {"revealed_states": [], "clicked_states": ["32"], "num_clicks_accrued": [0, 0, 0, 0, 0, 0, 0, 0, 0, 0, 0, 0, 0], "stateRewards": ["", -1, -3, -7, -4, -85, -70, 79, 8, 84, -66, 42, 2, -2, -3, -16, -54, -66, 68, -3, 21, -14, 7, -2, -1, -3, -8, 75, 80, 86, -7, -84, 73, -16], "withholdReward": false, "trial_id": "mdp_trial_22", "block": "test", "trialIndex": 23, "score": 57.85, "costs": -2.15, "simulationMode": [null, null, null, null, null], "rewards": [-2, -1, -3, -7, 73], "path": ["0", "0", "23", "24", "25", "30", "32"], "rt": [5959, 268, 229, 102, 85], "actions": ["left", "left", "left", "down", "down"], "actionTimes": [8093, 8884, 9609, 10236, 10854], "queries": {"click": {"state": {"target": ["32"], "time": [3354]}, "edge": {"target": [], "time": []}}, "mouseover": {"state": {"target": ["23", "30", "32", "33", "30"], "time": [2550, 2627, 2944, 4077, 6794]}, "edge": {"target": [], "time": []}}, "mouseout": {"state": {"target": ["15", "12", "0", "23", "30", "32", "33", "30"], "time": [991, 1140, 2543, 2595, 2678, 4011, 6761, 6878]}, "edge": {"target": [], "time": []}}}, "displayed_time": "16.14", "trialTime": 17218, "trial_type": "mouselab-mdp", "trial_index": 30, "time_elapsed": 1171089, "internal_node_id": "0.0-6.0-1.0-21.0"}}, {"uniqueid": "w48600902:a20706230", "current_trial": 31, "dateTime": 1693566271174, "trialdata": {"revealed_states": [], "clicked_states": ["20", "21", "32", "33"], "num_clicks_accrued": [0, 0, 0, 0, 0, 0, 0, 0, 0, 0, 0, 0, 0], "stateRewards": ["", 2, -1, -2, -5, -47, -57, -33, -11, 31, -18, -72, -2, 1, -4, -8, -46, -53, -50, 15, -85, -9, 39, -2, -2, 1, 14, -1, -8, 53, -12, -41, -74, 62], "withholdReward": false, "trial_id": "mdp_trial_23", "block": "test", "trialIndex": 24, "score": 38.4, "costs": -8.6, "simulationMode": [null, null, null, null, null], "rewards": [-2, -2, 1, -12, 62], "path": ["0", "0", "23", "24", "25", "30", "33"], "rt": [16118, 111, 208, 701, 87], "actions": ["left", "left", "left", "down", "left"], "actionTimes": [17963, 18597, 19347, 20572, 21157], "queries": {"click": {"state": {"target": ["20", "21", "32", "33"], "time": [3312, 6871, 10451, 13476]}, "edge": {"target": [], "time": []}}, "mouseover": {"state": {"target": ["14", "20", "21", "21", "32", "33", "29", "27", "11", "11", "11", "9", "11"], "time": [2623, 2890, 3898, 4443, 7860, 12366, 14331, 14813, 15214, 15429, 15713, 16049, 16798]}, "edge": {"target": [], "time": []}}, "mouseout": {"state": {"target": ["31", "0", "14", "20", "21", "21", "32", "33", "29", "27", "11", "11", "11", "9", "11"], "time": [821, 2407, 2690, 3891, 3975, 7628, 11446, 14282, 14379, 15181, 15298, 15649, 15865, 16764, 16849]}, "edge": {"target": [], "time": []}}}, "displayed_time": "21.72", "trialTime": 22911, "trial_type": "mouselab-mdp", "trial_index": 31, "time_elapsed": 1194576, "internal_node_id": "0.0-6.0-1.0-22.0"}}, {"uniqueid": "w48600902:a20706230", "current_trial": 32, "dateTime": 1693566294951, "trialdata": {"revealed_states": [], "clicked_states": ["7", "10", "11"], "num_clicks_accrued": [0, 0, 0, 0, 0, 0, 0, 0, 0, 0, 0, 0, 0], "stateRewards": ["", 2, -4, 1, -12, -59, -53, -74, 16, -88, -66, 66, 1, -2, 8, -9, -14, 22, 25, -1, -39, 47, -14, -1, -1, -2, 1, -4, 52, -26, 15, -7, 46, 43], "withholdReward": false, "trial_id": "mdp_trial_24", "block": "test", "trialIndex": 25, "score": 74.55, "costs": -6.449999999999999, "simulationMode": [null, null, null, null, null], "rewards": [2, -4, 1, 16, 66], "path": ["0", "0", "1", "2", "3", "8", "11"], "rt": [14103, 29, 160, 277, 302], "actions": ["up", "up", "up", "left", "left"], "actionTimes": [17841, 18394, 19093, 19895, 20722], "queries": {"click": {"state": {"target": ["7", "10", "11"], "time": [5552, 9803, 13683]}, "edge": {"target": [], "time": []}}, "mouseover": {"state": {"target": ["1", "4", "7", "10", "11", "8"], "time": [4370, 4537, 5139, 9405, 13308, 17042]}, "edge": {"target": [], "time": []}}, "mouseout": {"state": {"target": ["23", "12", "0", "1", "4", "7", "10", "11", "8"], "time": [2483, 2718, 4336, 4420, 5087, 9005, 10008, 16808, 22027]}, "edge": {"target": [], "time": []}}}, "displayed_time": "21.24", "trialTime": 23110, "trial_type": "mouselab-mdp", "trial_index": 32, "time_elapsed": 1218354, "internal_node_id": "0.0-6.0-1.0-23.0"}}, {"uniqueid": "w48600902:a20706230", "current_trial": 33, "dateTime": 1693566318187, "trialdata": {"revealed_states": [], "clicked_states": ["6", "11", "29", "33"], "num_clicks_accrued": [0, 0, 0, 0, 0, 0, 0, 0, 0, 0, 0, 0, 0], "stateRewards": ["", 1, -2, -3, 14, -42, -87, -37, -11, -50, 33, -44, -2, 4, -7, 13, 48, -75, -66, 12, 23, -2, 82, 1, -4, 3, 12, 51, -15, -26, -11, -52, -29, 82], "withholdReward": false, "trial_id": "mdp_trial_25", "block": "test", "trialIndex": 26, "score": 62.4, "costs": -8.6, "simulationMode": [null, null, null, null, null], "rewards": [1, -4, 3, -11, 82], "path": ["0", "0", "23", "24", "25", "30", "33"], "rt": [15317, 162, 185, 128, 234], "actions": ["left", "left", "left", "down", "left"], "actionTimes": [17369, 18040, 18762, 19440, 20211], "queries": {"click": {"state": {"target": ["6", "11", "29", "33"], "time": [3350, 6885, 9837, 13076]}, "edge": {"target": [], "time": []}}, "mouseover": {"state": {"target": ["6", "4", "3", "11", "8", "8", "11", "26", "29", "33", "32"], "time": [2914, 4482, 4649, 5333, 5582, 5950, 6151, 7953, 8050, 11720, 14288]}, "edge": {"target": [], "time": []}}, "mouseout": {"state": {"target": ["2", "1", "0", "6", "4", "3", "11", "8", "8", "11", "26", "29", "33"], "time": [895, 978, 2598, 3553, 4599, 4700, 5495, 5772, 6033, 7650, 7984, 10618, 13936]}, "edge": {"target": [], "time": []}}}, "displayed_time": "20.72", "trialTime": 22680, "trial_type": "mouselab-mdp", "trial_index": 33, "time_elapsed": 1241590, "internal_node_id": "0.0-6.0-1.0-24.0"}}, {"uniqueid": "w48600902:a20706230", "current_trial": 34, "dateTime": 1693566337683, "trialdata": {"revealed_states": [], "clicked_states": ["25", "33"], "num_clicks_accrued": [0, 0, 0, 0, 0, 0, 0, 0, 0, 0, 0, 0, 0], "stateRewards": ["", 1, -2, -8, -3, 31, -84, -55, -14, 15, -58, 17, -2, -3, 7, 7, -12, 48, 67, 4, -44, -68, 46, 2, 3, -5, -7, 76, 27, 5, 11, 57, 52, 59], "withholdReward": false, "trial_id": "mdp_trial_26", "block": "test", "trialIndex": 27, "score": 66.9, "costs": -3.0999999999999996, "simulationMode": [null, null, null, null, null], "rewards": [2, 3, -5, 11, 59], "path": ["0", "0", "23", "24", "25", "30", "33"], "rt": [9783, 284, 239, 272, 570], "actions": ["left", "left", "left", "down", "left"], "actionTimes": [12389, 13210, 13948, 14735, 15855], "queries": {"click": {"state": {"target": ["25", "33"], "time": [5514, 7819]}, "edge": {"target": [], "time": []}}, "mouseover": {"state": {"target": ["0", "23", "24", "25", "33", "22", "19", "21", "21"], "time": [3554, 3804, 3859, 4971, 7588, 8602, 8702, 9704, 10655]}, "edge": {"target": [], "time": []}}, "mouseout": {"state": {"target": ["32", "31", "0", "0", "23", "24", "25", "33", "22", "19", "21", "21"], "time": [1301, 1384, 1884, 3770, 3853, 3888, 6305, 8046, 8640, 9620, 9973, 18527]}, "edge": {"target": [], "time": []}}}, "displayed_time": "16.61", "trialTime": 18807, "trial_type": "mouselab-mdp", "trial_index": 34, "time_elapsed": 1261086, "internal_node_id": "0.0-6.0-1.0-25.0"}}, {"uniqueid": "w48600902:a20706230", "current_trial": 35, "dateTime": 1693566355107, "trialdata": {"revealed_states": [], "clicked_states": ["20"], "num_clicks_accrued": [0, 0, 0, 0, 0, 0, 0, 0, 0, 0, 0, 0, 0], "stateRewards": ["", -1, 3, -4, -14, 78, 67, 2, 13, -32, 28, 39, -2, 1, -4, -4, -4, -42, -86, 11, 64, -29, -32, -1, -4, 2, -7, 5, 68, -61, 2, -21, 85, 50], "withholdReward": false, "trial_id": "mdp_trial_27", "block": "test", "trialIndex": 28, "score": 67.85, "costs": -2.15, "simulationMode": [null, null, null, null, null], "rewards": [-2, 1, -4, 11, 64], "path": ["0", "0", "12", "13", "14", "19", "20"], "rt": [5802, 211, 208, 49, 72], "actions": ["right", "right", "right", "down", "right"], "actionTimes": [7986, 8722, 9453, 10028, 10651], "queries": {"click": {"state": {"target": ["20"], "time": [3636]}, "edge": {"target": [], "time": []}}, "mouseover": {"state": {"target": ["12", "13", "20", "20", "17", "17", "15"], "time": [2669, 2727, 2919, 3269, 4771, 5120, 7254]}, "edge": {"target": [], "time": []}}, "mouseout": {"state": {"target": ["0", "12", "13", "20", "20", "17", "17", "15"], "time": [1117, 2720, 2769, 3002, 4586, 4819, 7188, 7290]}, "edge": {"target": [], "time": []}}}, "displayed_time": "16.20", "trialTime": 16788, "trial_type": "mouselab-mdp", "trial_index": 35, "time_elapsed": 1278509, "internal_node_id": "0.0-6.0-1.0-26.0"}}, {"uniqueid": "w48600902:a20706230", "current_trial": 36, "dateTime": 1693566381529, "trialdata": {"revealed_states": [], "clicked_states": ["10", "33", "21", "32"], "num_clicks_accrued": [0, 0, 0, 0, 0, 0, 0, 0, 0, 0, 0, 0, 0], "stateRewards": ["", -2, 3, -1, -9, 44, 48, -37, -3, 71, -39, 87, -1, 3, -4, 4, -21, 59, -15, -8, -1, 28, -38, 2, 4, 4, 8, -85, -72, -63, 14, 58, 63, -46], "withholdReward": false, "trial_id": "mdp_trial_28", "block": "test", "trialIndex": 29, "score": 78.4, "costs": -8.6, "simulationMode": [null, null, null, null, null], "rewards": [2, 4, 4, 14, 63], "path": ["0", "0", "23", "24", "25", "30", "32"], "rt": [19374, 176, 300, 91, 67], "actions": ["left", "left", "left", "down", "down"], "actionTimes": [21616, 22295, 23136, 23743, 24387], "queries": {"click": {"state": {"target": ["10", "33", "21", "32"], "time": [4708, 9150, 12996, 17224]}, "edge": {"target": [], "time": []}}, "mouseover": {"state": {"target": ["1", "2", "8", "10", "11", "27", "26", "33", "32", "21", "32", "30"], "time": [3005, 3621, 4138, 4338, 8074, 8298, 8352, 8607, 11391, 12725, 16826, 20524]}, "edge": {"target": [], "time": []}}, "mouseout": {"state": {"target": ["12", "1", "2", "8", "10", "11", "27", "26", "33", "32", "21", "32", "30"], "time": [1184, 3586, 3718, 4289, 7973, 8291, 8344, 8407, 11126, 11841, 16460, 17437, 20562]}, "edge": {"target": [], "time": []}}}, "displayed_time": "24.89", "trialTime": 25606, "trial_type": "mouselab-mdp", "trial_index": 36, "time_elapsed": 1304931, "internal_node_id": "0.0-6.0-1.0-27.0"}}, {"uniqueid": "w48600902:a20706230", "current_trial": 37, "dateTime": 1693566399803, "trialdata": {"revealed_states": [], "clicked_states": [], "num_clicks_accrued": [0, 0, 0, 0, 0, 0, 0, 0, 0, 0, 0, 0, 0], "stateRewards": ["", 2, 3, -2, -8, -8, -41, 74, 15, -23, -80, 1, 1, 3, 3, -15, -63, -78, 67, 13, 75, -41, 86, 2, -2, 6, -3, -8, -49, 50, -6, 83, 74, 80], "withholdReward": false, "trial_id": "mdp_trial_29", "block": "test", "trialIndex": 30, "score": -46, "costs": 0, "simulationMode": [null, null, null, null, null], "rewards": [2, 3, -2, -8, -41], "path": ["0", "0", "1", "2", "3", "4", "6"], "rt": [5304, 442, 219, 167, 86], "actions": ["up", "up", "up", "right", "right"], "actionTimes": [7504, 8485, 9236, 9919, 10538], "queries": {"click": {"state": {"target": [], "time": []}, "edge": {"target": [], "time": []}}, "mouseover": {"state": {"target": ["13", "2", "2", "2", "3", "9", "2", "1"], "time": [3373, 4106, 4592, 4743, 4887, 5108, 6526, 6726]}, "edge": {"target": [], "time": []}}, "mouseout": {"state": {"target": ["31", "23", "0", "13", "2", "2", "2", "3", "9", "2"], "time": [1073, 1323, 3191, 3440, 4408, 4632, 4804, 4958, 6409, 6561]}, "edge": {"target": [], "time": []}}}, "displayed_time": "16.21", "trialTime": 17757, "trial_type": "mouselab-mdp", "trial_index": 37, "time_elapsed": 1323206, "internal_node_id": "0.0-6.0-1.0-28.0"}}, {"uniqueid": "w48600902:a20706230", "current_trial": 38, "dateTime": 1693566427426, "trialdata": {"revealed_states": [], "clicked_states": ["20", "17", "16", "5"], "num_clicks_accrued": [0, 0, 0, 0, 0, 0, 0, 0, 0, 0, 0, 0, 0], "stateRewards": ["", -1, 4, -3, 3, 57, -61, 5, -11, 23, -1, 34, -2, -4, -1, -13, 27, 38, -36, 4, -45, 21, 88, 1, -2, -1, 1, -69, -5, -78, -12, -9, 38, -54], "withholdReward": false, "trial_id": "mdp_trial_30", "block": "test", "trialIndex": 31, "score": 51.4, "costs": -8.6, "simulationMode": [null, null, null, null, null], "rewards": [-1, 4, -3, 3, 57], "path": ["0", "0", "1", "2", "3", "4", "5"], "rt": [16433, 359, 240, 465, 49], "actions": ["up", "up", "up", "right", "up"], "actionTimes": [20315, 21192, 21972, 22963, 23513], "queries": {"click": {"state": {"target": ["20", "17", "16", "5"], "time": [5203, 8513, 11602, 15795]}, "edge": {"target": [], "time": []}}, "mouseover": {"state": {"target": ["14", "20", "17", "16", "4", "5", "5", "11", "11", "10", "2"], "time": [4464, 4716, 6852, 11050, 12871, 13288, 15555, 18440, 19173, 19473, 19558]}, "edge": {"target": [], "time": []}}, "mouseout": {"state": {"target": ["1", "24", "25", "23", "0", "14", "20", "17", "16", "4", "5", "5", "11", "11", "10"], "time": [829, 1030, 2697, 2930, 4399, 4602, 5431, 10670, 12688, 12922, 13521, 16004, 18706, 19241, 19509]}, "edge": {"target": [], "time": []}}}, "displayed_time": "24.07", "trialTime": 26782, "trial_type": "mouselab-mdp", "trial_index": 38, "time_elapsed": 1350829, "internal_node_id": "0.0-6.0-1.0-29.0"}}, {"uniqueid": "w48600902:a20706230", "current_trial": 39, "dateTime": 1693566446076, "trialdata": {"revealed_states": [], "clicked_states": ["27", "29"], "num_clicks_accrued": [0, 0, 0, 0, 0, 0, 0, 0, 0, 0, 0, 0, 0], "stateRewards": ["", 1, 3, 1, -13, 52, -28, 67, -14, 3, 63, -70, -1, -4, 7, -11, -10, 47, -18, 6, 69, -9, -61, 2, 3, -6, 10, 63, -34, 40, -6, -79, -35, -32], "withholdReward": false, "trial_id": "mdp_trial_31", "block": "test", "trialIndex": 32, "score": 67.7, "costs": -4.3, "simulationMode": [null, null, null, null, null, null], "rewards": [2, 3, -6, 10, 63], "path": ["0", "0", "23", "24", "25", "26", "27"], "rt": [6695, 1240, 135, 156, 468, 30], "actions": ["left", "left", "left", "left", "up", "up"], "actionTimes": [9548, 10795, 11470, 12174, 13150, 13680], "queries": {"click": {"state": {"target": ["27", "29"], "time": [4297, 7438]}, "edge": {"target": [], "time": []}}, "mouseover": {"state": {"target": ["23", "26", "27", "29"], "time": [3506, 3704, 3801, 5292]}, "edge": {"target": [], "time": []}}, "mouseout": {"state": {"target": ["2", "1", "0", "23", "26", "27"], "time": [1851, 1920, 3472, 3571, 3772, 5141]}, "edge": {"target": [], "time": []}}}, "displayed_time": "16.86", "trialTime": 18112, "trial_type": "mouselab-mdp", "trial_index": 39, "time_elapsed": 1369480, "internal_node_id": "0.0-6.0-1.0-30.0"}}, {"uniqueid": "w48600902:a20706230", "current_trial": 40, "dateTime": 1693566463344, "trialdata": {"revealed_states": [], "clicked_states": ["5"], "num_clicks_accrued": [0, 0, 0, 0, 0, 0, 0, 0, 0, 0, 0, 0, 0], "stateRewards": ["", 2, -1, -4, -13, 74, 77, 3, 2, -43, -2, -11, 2, 3, 7, 11, -26, -29, -33, -3, -3, -13, -3, 1, 3, -7, 14, -59, 33, 9, -5, 34, 79, 68], "withholdReward": false, "trial_id": "mdp_trial_32", "block": "test", "trialIndex": 33, "score": 55.85, "costs": -2.15, "simulationMode": [null, null, null, null, null], "rewards": [2, -1, -4, -13, 74], "path": ["0", "0", "1", "2", "3", "4", "5"], "rt": [6149, 420, 197, 768, 41], "actions": ["up", "up", "up", "right", "up"], "actionTimes": [8151, 9098, 9827, 11133, 11708], "queries": {"click": {"state": {"target": ["5"], "time": [3645]}, "edge": {"target": [], "time": []}}, "mouseover": {"state": {"target": ["1", "2", "4", "5", "9"], "time": [2671, 2755, 2889, 3039, 4589]}, "edge": {"target": [], "time": []}}, "mouseout": {"state": {"target": ["29", "26", "1", "2", "4", "5"], "time": [919, 952, 2723, 2854, 3004, 4405]}, "edge": {"target": [], "time": []}}}, "displayed_time": "16.01", "trialTime": 16786, "trial_type": "mouselab-mdp", "trial_index": 40, "time_elapsed": 1386746, "internal_node_id": "0.0-6.0-1.0-31.0"}}, {"uniqueid": "w48600902:a20706230", "current_trial": 41, "dateTime": 1693566493248, "trialdata": {"revealed_states": [], "clicked_states": ["29", "9", "28", "27", "33"], "num_clicks_accrued": [0, 0, 0, 0, 0, 0, 0, 0, 0, 0, 0, 0, 0], "stateRewards": ["", -2, 4, 3, 5, -61, 4, 30, 1, -47, 83, 10, 1, 4, 7, -14, 19, -74, -83, 6, -2, -2, -65, -1, -2, 4, -11, 12, -1, -68, 11, -38, -28, 66], "withholdReward": false, "trial_id": "mdp_trial_33", "block": "test", "trialIndex": 34, "score": 67.25, "costs": -10.75, "simulationMode": [null, null, null, null, null], "rewards": [-1, -2, 4, 11, 66], "path": ["0", "0", "23", "24", "25", "30", "33"], "rt": [20302, 864, 362, 254, 792], "actions": ["left", "left", "left", "down", "left"], "actionTimes": [23175, 24582, 25474, 26277, 27614], "queries": {"click": {"state": {"target": ["29", "9", "28", "27", "33"], "time": [4437, 8554, 11859, 15356, 18953]}, "edge": {"target": [], "time": []}}, "mouseover": {"state": {"target": ["23", "26", "29", "26", "27", "11", "9", "11", "27", "28", "28", "27", "26", "33", "32"], "time": [3590, 3723, 4108, 7709, 7859, 8042, 8176, 9961, 10228, 10794, 11494, 13979, 17314, 17898, 21798]}, "edge": {"target": [], "time": []}}, "mouseout": {"state": {"target": ["9", "8", "10", "1", "0", "0", "23", "26", "29", "26", "27", "11", "9", "11", "27", "28", "28", "27", "26", "33", "32"], "time": [337, 555, 621, 754, 872, 3555, 3640, 4041, 4658, 7760, 7958, 8095, 8761, 10062, 10268, 11028, 13795, 17264, 17348, 21449, 22364]}, "edge": {"target": [], "time": []}}}, "displayed_time": "28.14", "trialTime": 29303, "trial_type": "mouselab-mdp", "trial_index": 41, "time_elapsed": 1416651, "internal_node_id": "0.0-6.0-1.0-32.0"}}, {"uniqueid": "w48600902:a20706230", "current_trial": 42, "dateTime": 1693566511526, "trialdata": {"revealed_states": [], "clicked_states": ["20", "17", "16"], "num_clicks_accrued": [0, 0, 0, 0, 0, 0, 0, 0, 0, 0, 0, 0, 0], "stateRewards": ["", -2, -1, -2, -15, 87, 57, 29, -10, 77, -80, -7, 1, -3, 6, 14, -11, 87, -59, 4, -71, 16, -11, 2, 2, -7, 2, -47, 61, 50, 14, -20, 17, 81], "withholdReward": false, "trial_id": "mdp_trial_34", "block": "test", "trialIndex": 35, "score": 98.55, "costs": -6.449999999999999, "simulationMode": [null, null, null, null, null, null], "rewards": [1, -3, 6, 14, 87], "path": ["0", "0", "12", "13", "14", "15", "17"], "rt": [9443, 960, 242, 193, 445, 117], "actions": ["right", "right", "right", "right", "up", "right"], "actionTimes": [12036, 13004, 13791, 14526, 15494, 16116], "queries": {"click": {"state": {"target": ["20", "17", "16"], "time": [4203, 7527, 10316]}, "edge": {"target": [], "time": []}}, "mouseover": {"state": {"target": ["13", "20", "17", "16", "15"], "time": [3354, 3803, 5706, 9840, 11308]}, "edge": {"target": [], "time": []}}, "mouseout": {"state": {"target": ["0", "13", "20", "17", "16", "15"], "time": [3320, 3388, 5504, 9690, 11241, 11343]}, "edge": {"target": [], "time": []}}}, "displayed_time": "16.67", "trialTime": 17665, "trial_type": "mouselab-mdp", "trial_index": 42, "time_elapsed": 1434928, "internal_node_id": "0.0-6.0-1.0-33.0"}}, {"uniqueid": "w48600902:a20706230", "current_trial": 43, "dateTime": 1693566544018, "trialdata": {"revealed_states": [], "clicked_states": ["29", "32", "33", "21", "20", "22"], "num_clicks_accrued": [0, 0, 0, 0, 0, 0, 0, 0, 0, 0, 0, 0, 0], "stateRewards": ["", -2, -4, -2, 10, -8, -15, -47, 7, -84, 53, 5, -1, 2, -7, 3, 83, 31, 47, -1, 30, -8, 69, 2, -4, -1, 8, -7, 12, -8, -8, -13, 30, -84], "withholdReward": false, "trial_id": "mdp_trial_35", "block": "test", "trialIndex": 36, "score": 49.1, "costs": -12.9, "simulationMode": [null, null, null, null, null], "rewards": [-1, 2, -7, -1, 69], "path": ["0", "0", "12", "13", "14", "19", "22"], "rt": [24766, 182, 264, 104, 548], "actions": ["right", "right", "right", "down", "left"], "actionTimes": [26870, 27566, 28333, 28970, 30060], "queries": {"click": {"state": {"target": ["29", "32", "33", "21", "20", "22"], "time": [3553, 8588, 11610, 15230, 18457, 22131]}, "edge": {"target": [], "time": []}}, "mouseover": {"state": {"target": ["23", "29", "29", "33", "32", "33", "33", "22", "21", "21", "20", "19", "22", "18"], "time": [2818, 2916, 3200, 5252, 7967, 9503, 10303, 12304, 12738, 12971, 15985, 19291, 19390, 24858]}, "edge": {"target": [], "time": []}}, "mouseout": {"state": {"target": ["15", "18", "0", "23", "29", "29", "29", "33", "32", "33", "33", "22", "21", "21", "20", "19", "22", "18"], "time": [981, 1032, 1414, 2854, 3051, 3784, 4781, 7834, 9344, 9644, 11836, 12338, 12789, 15773, 19242, 19325, 24542, 24959]}, "edge": {"target": [], "time": []}}}, "displayed_time": "30.57", "trialTime": 31880, "trial_type": "mouselab-mdp", "trial_index": 43, "time_elapsed": 1467420, "internal_node_id": "0.0-6.0-1.0-34.0"}}, {"uniqueid": "w48600902:a20706230", "current_trial": 44, "dateTime": 1693566577965, "trialdata": {"revealed_states": [], "clicked_states": ["6", "5", "9", "11", "27", "29", "33"], "num_clicks_accrued": [0, 0, 0, 0, 0, 0, 0, 0, 0, 0, 0, 0, 0], "stateRewards": ["", 2, 4, -3, 16, -58, 30, -35, 11, -60, 47, 27, -2, -1, -7, -16, 23, -70, 68, -10, -65, -43, -34, -2, 1, 7, 9, -63, 34, -31, -8, -12, -86, 59], "withholdReward": false, "trial_id": "mdp_trial_36", "block": "test", "trialIndex": 37, "score": 41.95, "costs": -15.05, "simulationMode": [null, null, null, null, null], "rewards": [-2, 1, 7, -8, 59], "path": ["0", "0", "23", "24", "25", "30", "33"], "rt": [25761, 278, 306, 371, 201], "actions": ["left", "left", "left", "down", "left"], "actionTimes": [27713, 28545, 29387, 30285, 31031], "queries": {"click": {"state": {"target": ["6", "5", "9", "11", "27", "29", "33"], "time": [3946, 7671, 10868, 14064, 17040, 20154, 23379]}, "edge": {"target": [], "time": []}}, "mouseover": {"state": {"target": ["1", "2", "6", "5", "9", "11", "27", "27", "29", "33", "32"], "time": [3162, 3243, 3629, 5083, 9299, 13502, 16236, 16600, 18636, 21086, 25421]}, "edge": {"target": [], "time": []}}, "mouseout": {"state": {"target": ["0", "1", "2", "6", "5", "9", "11", "11", "27", "27", "29", "33"], "time": [3113, 3191, 3276, 4154, 8531, 12951, 14284, 16167, 16285, 18269, 20956, 24187]}, "edge": {"target": [], "time": []}}}, "displayed_time": "31.57", "trialTime": 33245, "trial_type": "mouselab-mdp", "trial_index": 44, "time_elapsed": 1501368, "internal_node_id": "0.0-6.0-1.0-35.0"}}, {"uniqueid": "w48600902:a20706230", "current_trial": 45, "dateTime": 1693566615789, "trialdata": {"revealed_states": [], "clicked_states": ["5", "6", "17", "16", "18", "22", "21", "20"], "num_clicks_accrued": [0, 0, 0, 0, 0, 0, 0, 0, 0, 0, 0, 0, 0], "stateRewards": ["", 1, 1, -3, 2, 22, -25, -11, -5, 50, 49, 3, 1, -1, 8, 14, -85, -30, 57, -6, -39, -16, 59, -2, -1, 5, 5, 59, -16, 8, 4, 67, 56, -9], "withholdReward": false, "trial_id": "mdp_trial_37", "block": "test", "trialIndex": 38, "score": 43.8, "costs": -17.2, "simulationMode": [null, null, null, null, null], "rewards": [1, -1, 8, -6, 59], "path": ["0", "0", "12", "13", "14", "19", "22"], "rt": [29616, 230, 196, 264, 295], "actions": ["right", "right", "right", "down", "left"], "actionTimes": [31488, 32230, 32949, 33729, 34544], "queries": {"click": {"state": {"target": ["5", "6", "17", "16", "18", "22", "21", "20"], "time": [3772, 6828, 10343, 13709, 17222, 20868, 23692, 28561]}, "edge": {"target": [], "time": []}}, "mouseover": {"state": {"target": ["4", "5", "6", "16", "17", "16", "15", "18", "13", "22", "21", "20"], "time": [2690, 2774, 4757, 7458, 7577, 11945, 14405, 14774, 18007, 18652, 22262, 28359]}, "edge": {"target": [], "time": []}}, "mouseout": {"state": {"target": ["32", "31", "0", "4", "5", "6", "16", "17", "16", "15", "18", "13", "22", "22", "21"], "time": [787, 870, 1086, 2724, 4423, 7425, 7502, 11727, 14304, 14641, 17906, 18110, 21093, 21661, 26957]}, "edge": {"target": [], "time": []}}}, "displayed_time": "35.07", "trialTime": 37099, "trial_type": "mouselab-mdp", "trial_index": 45, "time_elapsed": 1539191, "internal_node_id": "0.0-6.0-1.0-36.0"}}, {"uniqueid": "w48600902:a20706230", "current_trial": 46, "dateTime": 1693566638042, "trialdata": {"revealed_states": [], "clicked_states": ["29", "33", "32"], "num_clicks_accrued": [0, 0, 0, 0, 0, 0, 0, 0, 0, 0, 0, 0, 0], "stateRewards": ["", 2, -1, -3, 16, -3, -16, -62, -1, 13, -26, 43, -1, 4, 3, -9, -54, -37, -3, -12, -71, -68, -57, 1, -3, 2, -9, 2, -2, -9, -11, 84, -52, 55], "withholdReward": false, "trial_id": "mdp_trial_38", "block": "test", "trialIndex": 39, "score": 37.55, "costs": -6.449999999999999, "simulationMode": [null, null, null, null, null], "rewards": [1, -3, 2, -11, 55], "path": ["0", "0", "23", "24", "25", "30", "33"], "rt": [13089, 424, 235, 54, 336], "actions": ["left", "left", "left", "down", "left"], "actionTimes": [15756, 16708, 17468, 18039, 18906], "queries": {"click": {"state": {"target": ["29", "33", "32"], "time": [4826, 8410, 12141]}, "edge": {"target": [], "time": []}}, "mouseover": {"state": {"target": ["2", "3", "11", "27", "26", "29", "33", "32"], "time": [3405, 3570, 3888, 4038, 4122, 4473, 6124, 9291]}, "edge": {"target": [], "time": []}}, "mouseout": {"state": {"target": ["20", "19", "22", "0", "2", "3", "11", "27", "26", "29", "33"], "time": [929, 986, 1202, 3321, 3455, 3654, 3973, 4073, 4422, 5840, 9142]}, "edge": {"target": [], "time": []}}}, "displayed_time": "19.44", "trialTime": 21624, "trial_type": "mouselab-mdp", "trial_index": 46, "time_elapsed": 1561445, "internal_node_id": "0.0-6.0-1.0-37.0"}}, {"uniqueid": "w48600902:a20706230", "current_trial": 47, "dateTime": 1693566666157, "trialdata": {"revealed_states": [], "clicked_states": ["21", "22", "20", "16", "7"], "num_clicks_accrued": [0, 0, 0, 0, 0, 0, 0, 0, 0, 0, 0, 0, 0], "stateRewards": ["", 1, -1, 1, 13, 31, -56, 72, 2, 41, 5, 63, -2, -3, -2, 3, -71, -26, 52, 13, -31, 24, -67, 2, -2, 5, 4, 66, 43, 72, 9, 86, -26, 44], "withholdReward": false, "trial_id": "mdp_trial_39", "block": "test", "trialIndex": 40, "score": 75.25, "costs": -10.75, "simulationMode": [null, null, null, null, null], "rewards": [1, -1, 1, 13, 72], "path": ["0", "0", "1", "2", "3", "4", "7"], "rt": [19915, 167, 118, 514, 198], "actions": ["up", "up", "up", "right", "down"], "actionTimes": [21684, 22397, 23030, 24078, 24780], "queries": {"click": {"state": {"target": ["21", "22", "20", "16", "7"], "time": [3160, 6684, 10016, 13844, 17153]}, "edge": {"target": [], "time": []}}, "mouseover": {"state": {"target": ["20", "21", "22", "19", "20", "20", "14", "15", "16", "7", "2"], "time": [2660, 2745, 5213, 7415, 7482, 7800, 12319, 12750, 13635, 16356, 20054]}, "edge": {"target": [], "time": []}}, "mouseout": {"state": {"target": ["32", "20", "21", "22", "19", "20", "20", "14", "15", "16", "7", "2"], "time": [807, 2694, 4979, 7381, 7447, 7580, 10214, 12716, 12803, 14055, 19805, 20188]}, "edge": {"target": [], "time": []}}}, "displayed_time": "25.28", "trialTime": 27436, "trial_type": "mouselab-mdp", "trial_index": 47, "time_elapsed": 1589559, "internal_node_id": "0.0-6.0-1.0-38.0"}}, {"uniqueid": "w48600902:a20706230", "current_trial": 48, "dateTime": 1693566684525, "trialdata": {"revealed_states": [], "clicked_states": ["29"], "num_clicks_accrued": [0, 0, 0, 0, 0, 0, 0, 0, 0, 0, 0, 0, 0], "stateRewards": ["", -2, -3, 1, -7, 39, -67, 16, 5, -20, 73, 66, -1, 4, 5, -3, 23, -68, -87, -8, 3, -3, 17, 1, -4, -2, -13, -32, 34, 61, -5, -11, -18, 12], "withholdReward": false, "trial_id": "mdp_trial_40", "block": "test", "trialIndex": 41, "score": 40.85, "costs": -2.15, "simulationMode": [null, null, null, null, null], "rewards": [1, -4, -2, -13, 61], "path": ["0", "0", "23", "24", "25", "26", "29"], "rt": [6389, 59, 156, 551, 250], "actions": ["left", "left", "left", "up", "left"], "actionTimes": [8625, 9186, 9878, 10945, 11711], "queries": {"click": {"state": {"target": ["29"], "time": [3983]}, "edge": {"target": [], "time": []}}, "mouseover": {"state": {"target": ["23", "24", "29", "33"], "time": [3368, 3407, 3634, 7354]}, "edge": {"target": [], "time": []}}, "mouseout": {"state": {"target": ["23", "24", "29", "33"], "time": [3401, 3452, 6789, 7855]}, "edge": {"target": [], "time": []}}}, "displayed_time": "16.24", "trialTime": 17732, "trial_type": "mouselab-mdp", "trial_index": 48, "time_elapsed": 1607928, "internal_node_id": "0.0-6.0-1.0-39.0"}}, {"uniqueid": "w48600902:a20706230", "current_trial": 49, "dateTime": 1693566739872, "trialdata": {"rt": 55330, "response": {"Q0": "$-2 to $2", "Q1": "$-4 to $4", "Q2": "$-88 to $88", "Q3": "The cost for clicking on nodes varied between nodes.", "Q4": "Slightly motivated"}, "question_order": [0, 1, 2, 3, 4], "trial_id": "final_quiz_control", "trial_type": "survey-multi-choice", "trial_index": 49, "time_elapsed": 1663275, "internal_node_id": "0.0-6.0-2.0"}}, {"uniqueid": "w48600902:a20706230", "current_trial": 50, "dateTime": 1693566849227, "trialdata": {"rt": 109321, "response": {"Q0": "I checked the nobes at the very end cause they had more money and I only moved after I found one that was above 50", "Q1": "Yes, I had a better strategy on checking.", "Q2": "It was not difficult"}, "trial_id": "self_report_control", "trial_type": "survey-text", "trial_index": 50, "time_elapsed": 1772630, "internal_node_id": "0.0-6.0-3.0"}}, {"uniqueid": "w48600902:a20706230", "current_trial": 51, "dateTime": 1693566912865, "trialdata": {"rt": 63631, "response": {"Q0": "Disagree", "Q1": "Disagree", "Q2": "Disagree", "Q3": "Disagree", "Q4": "Disagree", "Q5": "Neither disagree nor agree", "Q6": "Disagree"}, "question_order": [0, 1, 2, 3, 4, 5, 6], "trial_id": "self_report_2", "trial_type": "survey-multi-choice", "trial_index": 51, "time_elapsed": 1836269, "internal_node_id": "0.0-6.0-4.0"}}, {"uniqueid": "w48600902:a20706230", "current_trial": 52, "dateTime": 1693566942792, "trialdata": {"rt": 29906, "response": {"gender": "female", "age": "22", "colorblind": "0", "effort": "1"}, "trial_type": "survey-html-form", "trial_index": 52, "time_elapsed": 1866195, "internal_node_id": "0.0-6.0-5.0"}}, {"uniqueid": "w48600902:a20706230", "current_trial": 53, "dateTime": 1693566973845, "trialdata": {"rt": 31040, "response": {"Q0": "No", "Q1": "NO", "Q2": "No comment"}, "trial_type": "survey-text", "trial_index": 53, "time_elapsed": 1897249, "internal_node_id": "0.0-6.0-6.0"}}, {"uniqueid": "w48600902:a20706230", "current_trial": 54, "dateTime": 1693567047232, "trialdata": {"rt": 73372, "stimulus": "<h1>Completion Code Instructions (1/2)</h1>\n<br><br><br><br>\nYou have reached the end of the experiment! The completion code consists of two parts: (1) a code with 2 characters (2) a code with 6 characters. On this page, you will receive the second part of the code. The first part of the completion code will be on the next page.\n<br><br>\nThe second part of your completion code is: <b>EWEK22</b>\n<br><br>\nPlease note this down. Then, press 'Finish HIT' in order to find the first part of your completion code. Once the data has been saved, you will receive this code either in this window or in the original browser window where you started the experiment.\n", "response": 0, "trial_type": "html-button-response", "trial_index": 54, "time_elapsed": 1970636, "internal_node_id": "0.0-6.0-7.0"}}, {"uniqueid": "w48600902:a20706230", "current_trial": 55, "dateTime": 1693567048256, "trialdata": {"success": true, "trial_type": "fullscreen", "trial_index": 55, "time_elapsed": 1971660, "internal_node_id": "0.0-7.0"}}], "questiondata": {"params": {"CODE": "C6DMOQA6", "MIN_TIME": 14, "inspectCost": 1, "startTime": "Fri Sep 01 2023 12:44:33 GMT+0200 (South Africa Standard Time)", "bonusRate": 0.002, "variance": "1_2_4_8_44", "branching": "31123"}, "final_score": 2009}, "eventdata": [{"eventtype": "initialized", "value": null, "timestamp": 1693565072389, "interval": 0}, {"eventtype": "window_resize", "value": [1536, 766], "timestamp": 1693565072389, "interval": 0}, {"eventtype": "window_resize", "value": [1536, 766], "timestamp": 1693565072916, "interval": 527}, {"eventtype": "window_resize", "value": [1536, 864], "timestamp": 1693565090332, "interval": 17416}, {"eventtype": "window_resize", "value": [1536, 766], "timestamp": 1693567047613, "interval": 1957281}], "useragent": "Mozilla/5.0 (Windows NT 10.0; Win64; x64) AppleWebKit/537.36 (KHTML, like Gecko) Chrome/116.0.0.0 Safari/537.36", "mode": "live", "id": "w48600902:a20706230", "status": "user data saved", "Beginhit": "2023-09-01 10:44:27.736784", "Beginexp": "2023-09-01 10:44:54.413218", "Endhit": "2023-09-01 11:17:34.497934", "psiturkStatus": 3, "browser": "<redacted>", "platform": "windows", "language": "en-US"}