{"condition": 0, "counterbalance": 0, "assignmentId": "a45815564", "workerId": "w58852032", "hitId": "h27369135", "currenttrial": 55, "bonus": 0, "data": [{"uniqueid": "w58852032:a45815564", "current_trial": 0, "dateTime": 1693480871442, "trialdata": {"success": true, "trial_type": "fullscreen", "trial_index": 0, "time_elapsed": 10796, "internal_node_id": "0.0-0.0"}}, {"uniqueid": "w58852032:a45815564", "current_trial": 1, "dateTime": 1693480922495, "trialdata": {"view_history": [{"page_index": 0, "viewing_time": 51049}], "rt": 51049, "trial_id": "exp_instructions_control", "trial_type": "instructions", "trial_index": 1, "time_elapsed": 61848, "internal_node_id": "0.0-1.0"}}, {"uniqueid": "w58852032:a45815564", "current_trial": 2, "dateTime": 1693481238468, "trialdata": {"view_history": [{"page_index": 0, "viewing_time": 111114}, {"page_index": 1, "viewing_time": 114071}, {"page_index": 2, "viewing_time": 32642}, {"page_index": 3, "viewing_time": 58145}], "rt": 315973, "trial_id": "mouselab_instructions_1_control", "trial_type": "instructions", "trial_index": 2, "time_elapsed": 377822, "internal_node_id": "0.0-2.0-1.0"}}, {"uniqueid": "w58852032:a45815564", "current_trial": 3, "dateTime": 1693481284734, "trialdata": {"revealed_states": [], "clicked_states": ["26", "2", "8", "7", "1", "25", "23"], "num_clicks_accrued": [0, 0, 0, 0, 0, 0, 0, 0, 0, 0, 0, 0, 0], "stateRewards": ["", -10, -10, -10, -10, 10, -10, -10, -10, -10, 10, -10, 10, 10, 10, -10, 10, 10, 10, 10, -10, -10, -10, -10, 10, 10, -10, 10, 10, 10, 10, 10, 10, 10], "withholdReward": false, "trial_id": "practice_1", "block": "test", "trialIndex": 0, "score": 10, "costs": -3.5, "simulationMode": [null, null, null, null, null], "rewards": [-10, 10, 10, -10, 10], "path": ["0", "0", "23", "24", "25", "26", "27"], "rt": [33103, 907, 503, 511, 166], "actions": ["left", "left", "left", "up", "up"], "actionTimes": [35331, 36744, 37740, 38748, 39403], "queries": {"click": {"state": {"target": ["26", "2", "8", "7", "1", "25", "23"], "time": [6479, 10758, 15202, 20765, 24190, 27003, 33283]}, "edge": {"target": [], "time": []}}, "mouseover": {"state": {"target": ["23", "24", "26", "28", "7", "4", "18", "13", "14", "15", "18", "2", "8", "4", "4", "5", "4", "7", "2", "1", "28", "26", "25", "23", "0", "12"], "time": [5323, 5440, 5690, 8123, 8457, 9041, 9558, 9674, 9824, 9957, 10124, 10484, 14627, 18644, 19162, 19645, 19978, 20079, 23496, 23864, 25930, 26030, 26431, 28431, 34334, 34366]}, "edge": {"target": [], "time": []}}, "mouseout": {"state": {"target": ["0", "0", "0", "23", "24", "26", "28", "7", "4", "18", "13", "14", "15", "18", "2", "8", "4", "4", "5", "4", "7", "2", "1", "28", "26", "25", "23", "0", "12"], "time": [68, 255, 5305, 5372, 5523, 8040, 8157, 8891, 9191, 9624, 9807, 9891, 10107, 10141, 14292, 17661, 18811, 19595, 19944, 20028, 23413, 23697, 25780, 26013, 26314, 27781, 34301, 34350, 34400]}, "edge": {"target": [], "time": []}}}, "displayed_time": "39.90", "trialTime": 45201, "trial_type": "mouselab-mdp", "trial_index": 3, "time_elapsed": 424087, "internal_node_id": "0.0-2.0-2.0-0.0"}}, {"uniqueid": "w58852032:a45815564", "current_trial": 4, "dateTime": 1693481307640, "trialdata": {"revealed_states": [], "clicked_states": ["15", "3"], "num_clicks_accrued": [0, 0, 0, 0, 0, 0, 0, 0, 0, 0, 0, 0, 0], "stateRewards": ["", -10, 10, 10, -10, 10, 10, 10, -10, -10, -10, -10, -10, -10, -10, 10, -10, -10, 10, 10, 10, 10, 10, 10, -10, 10, -10, 10, -10, 10, 10, -10, -10, 10], "withholdReward": false, "trial_id": "practice_2", "block": "test", "trialIndex": 1, "score": 12.5, "costs": -1, "simulationMode": [null, null, null, null, null], "rewards": [-10, 10, 10, -10, 10], "path": ["0", "0", "1", "2", "3", "4", "5"], "rt": [10884, 119, 216, 1738, 1360], "actions": ["up", "up", "up", "right", "up"], "actionTimes": [13653, 14275, 15004, 17244, 19100], "queries": {"click": {"state": {"target": ["15", "3"], "time": [5050, 9562]}, "edge": {"target": [], "time": []}}, "mouseover": {"state": {"target": ["12", "13", "15", "18", "2", "8", "2", "2", "3", "2"], "time": [3399, 3566, 4496, 6150, 6251, 6422, 7818, 8351, 9068, 10236]}, "edge": {"target": [], "time": []}}, "mouseout": {"state": {"target": ["12", "0", "12", "13", "15", "18", "2", "8", "2", "2", "3"], "time": [2065, 3366, 3449, 4316, 5967, 6183, 6283, 6917, 8052, 9019, 10186]}, "edge": {"target": [], "time": []}}}, "displayed_time": "19.59", "trialTime": 22735, "trial_type": "mouselab-mdp", "trial_index": 4, "time_elapsed": 446994, "internal_node_id": "0.0-2.0-2.0-1.0"}}, {"uniqueid": "w58852032:a45815564", "current_trial": 5, "dateTime": 1693481377236, "trialdata": {"view_history": [{"page_index": 0, "viewing_time": 52948}, {"page_index": 1, "viewing_time": 16645}], "rt": 69594, "trial_id": "mouselab_instructions_2_control", "trial_type": "instructions", "trial_index": 5, "time_elapsed": 516590, "internal_node_id": "0.0-2.0-3.0"}}, {"uniqueid": "w58852032:a45815564", "current_trial": 6, "dateTime": 1693481497186, "trialdata": {"rt": 119946, "response": {"Q0": "The cost for clicking on nodes may vary between nodes.", "Q1": "The better I perform the higher my bonus will be.", "Q2": "No, the amount of cash at each node of the web may be different each time.", "Q3": "To get the highest total score.", "Q4": "Only before moving the spider.", "Q5": "3 seconds"}, "question_order": [0, 1, 2, 3, 4, 5], "correct": {"Q0": "The cost for clicking on nodes may vary between nodes.", "Q1": "The better I perform the higher my bonus will be.", "Q2": "No, the amount of cash at each node of the web may be different each time.", "Q3": "To get the highest total score.", "Q4": "Only before moving the spider.", "Q5": "3 seconds"}, "trial_id": "mouselab_quiz_control", "trial_type": "survey-multi-choice", "trial_index": 6, "time_elapsed": 636540, "internal_node_id": "0.0-2.0-4.0"}}, {"uniqueid": "w58852032:a45815564", "current_trial": 7, "dateTime": 1693481514886, "trialdata": {"rt": 17696, "response": {"Q0": "No"}, "question_order": [0], "trial_id": "repeat_check", "trial_type": "survey-multi-choice", "trial_index": 7, "time_elapsed": 654240, "internal_node_id": "0.0-4.0-0.0"}}, {"uniqueid": "w58852032:a45815564", "current_trial": 8, "dateTime": 1693481537706, "trialdata": {"rt": 22816, "stimulus": "\n<h1> Get ready to start the game! </h1>\n\nThank you for reading the instructions. Get ready start with the 40 rounds of this game.\n<br><br>\nIf you need to take a break, feel free to take one after the end of a round, before continuing to the next one.\n<br><br>\nRemember, the more money the spider gets, the bigger your bonus will be!\n<br><br>\n<div style='text-align: center;'>Press <code>space</code> to begin.</div>\n\n<br><br>\n(If, at any point, the <code>space</code> key does not take you to the next page, click once on the text and try again.)", "response": " ", "trial_id": "mdp_ready", "trial_type": "html-keyboard-response", "trial_index": 8, "time_elapsed": 677060, "internal_node_id": "0.0-6.0-0.0"}}, {"uniqueid": "w58852032:a45815564", "current_trial": 9, "dateTime": 1693481565868, "trialdata": {"revealed_states": [], "clicked_states": ["2"], "num_clicks_accrued": [0, 0, 0, 0, 0, 0, 0, 0, 0, 0, 0, 0, 0], "stateRewards": ["", -1, 2, -2, 13, -56, -28, 10, 14, 53, -80, -29, 1, -3, -3, -14, 14, 9, -40, -9, 18, 18, 48, 1, 1, 1, -9, 64, -39, -9, 7, -52, -78, 7], "withholdReward": false, "trial_id": "mdp_trial_1", "block": "test", "trialIndex": 2, "score": 64.6, "costs": -1.4, "simulationMode": [null, null, null, null, null], "rewards": [-1, 2, -2, 14, 53], "path": ["0", "0", "1", "2", "3", "8", "9"], "rt": [11757, 927, 3891, 1149, 206], "actions": ["up", "up", "up", "left", "up"], "actionTimes": [15213, 16634, 21032, 22691, 23399], "queries": {"click": {"state": {"target": ["2"], "time": [5610]}, "edge": {"target": [], "time": []}}, "mouseover": {"state": {"target": ["1", "2", "1", "26", "26", "11", "8", "10", "1", "14"], "time": [5050, 5285, 8469, 8868, 9016, 9236, 9553, 9952, 11002, 11186]}, "edge": {"target": [], "time": []}}, "mouseout": {"state": {"target": ["29", "26", "28", "1", "0", "1", "2", "1", "26", "26", "11", "8", "10", "1", "14"], "time": [1682, 1715, 1732, 1782, 4819, 5168, 5984, 8502, 8925, 9119, 9502, 9886, 10786, 11036, 11402]}, "edge": {"target": [], "time": []}}}, "displayed_time": "23.89", "trialTime": 27982, "trial_type": "mouselab-mdp", "trial_index": 9, "time_elapsed": 705221, "internal_node_id": "0.0-6.0-1.0-0.0"}}, {"uniqueid": "w58852032:a45815564", "current_trial": 10, "dateTime": 1693481592655, "trialdata": {"revealed_states": [], "clicked_states": ["12", "14", "2", "8"], "num_clicks_accrued": [0, 0, 0, 0, 0, 0, 0, 0, 0, 0, 0, 0, 0], "stateRewards": ["", -1, 1, -2, 5, 73, 15, 61, 8, 7, 38, 76, 2, 2, -4, -6, -6, -26, 43, -5, -45, -85, -35, -2, 1, -4, 15, -10, 69, 72, -11, 84, -49, -38], "withholdReward": false, "trial_id": "mdp_trial_2", "block": "test", "trialIndex": 3, "score": 7.4, "costs": -5.6, "simulationMode": [null, null, null, null, null], "rewards": [-1, 1, -2, 8, 7], "path": ["0", "0", "1", "2", "3", "8", "9"], "rt": [15491, 194, 256, 258, 323], "actions": ["up", "up", "up", "left", "up"], "actionTimes": [17900, 18585, 19331, 20084, 20900], "queries": {"click": {"state": {"target": ["12", "14", "2", "8"], "time": [4583, 6697, 10170, 12646]}, "edge": {"target": [], "time": []}}, "mouseover": {"state": {"target": ["12", "18", "18", "13", "12", "13", "14", "13", "18", "28", "10", "2", "3", "8", "7"], "time": [2885, 3018, 3368, 3935, 4368, 5002, 5220, 7936, 8820, 9503, 9720, 9937, 12204, 12255, 13722]}, "edge": {"target": [], "time": []}}, "mouseout": {"state": {"target": ["12", "0", "12", "18", "18", "13", "12", "13", "14", "13", "18", "28", "10", "2", "3", "8"], "time": [1635, 2805, 2901, 3118, 3901, 4236, 4935, 5085, 7903, 8553, 9454, 9537, 9803, 12154, 12221, 13105]}, "edge": {"target": [], "time": []}}}, "displayed_time": "21.39", "trialTime": 26611, "trial_type": "mouselab-mdp", "trial_index": 10, "time_elapsed": 732009, "internal_node_id": "0.0-6.0-1.0-1.0"}}, {"uniqueid": "w58852032:a45815564", "current_trial": 11, "dateTime": 1693481612910, "trialdata": {"revealed_states": [], "clicked_states": [], "num_clicks_accrued": [0, 0, 0, 0, 0, 0, 0, 0, 0, 0, 0, 0, 0], "stateRewards": ["", -2, 1, 6, -2, -10, -78, -69, 14, -15, 7, -1, 1, -1, -2, 13, 77, 32, 87, 5, -74, 30, -26, 1, 3, 4, 12, 39, 54, -43, 2, 10, 23, 13], "withholdReward": false, "trial_id": "mdp_trial_3", "block": "test", "trialIndex": 4, "score": 33, "costs": 0, "simulationMode": [null, null, null, null, null], "rewards": [1, 3, 4, 2, 23], "path": ["0", "0", "23", "24", "25", "30", "32"], "rt": [3746, 182, 131, 194, 133], "actions": ["left", "left", "left", "down", "down"], "actionTimes": [6275, 6978, 7610, 8306, 8929], "queries": {"click": {"state": {"target": [], "time": []}, "edge": {"target": [], "time": []}}, "mouseover": {"state": {"target": ["18"], "time": [2893]}, "edge": {"target": [], "time": []}}, "mouseout": {"state": {"target": ["7", "7"], "time": [1624, 1807]}, "edge": {"target": [], "time": []}}}, "displayed_time": "16.53", "trialTime": 20080, "trial_type": "mouselab-mdp", "trial_index": 11, "time_elapsed": 752264, "internal_node_id": "0.0-6.0-1.0-2.0"}}, {"uniqueid": "w58852032:a45815564", "current_trial": 12, "dateTime": 1693481636737, "trialdata": {"revealed_states": [], "clicked_states": ["12", "23", "2"], "num_clicks_accrued": [0, 0, 0, 0, 0, 0, 0, 0, 0, 0, 0, 0, 0], "stateRewards": ["", -1, -2, -8, 8, -27, -82, 19, -14, -62, 4, 1, -2, 2, 6, 10, 73, -51, -2, 2, 73, -48, 54, -1, 2, -4, 11, -25, 47, 86, 15, 33, 43, -42], "withholdReward": false, "trial_id": "mdp_trial_4", "block": "test", "trialIndex": 5, "score": -21.2, "costs": -4.199999999999999, "simulationMode": [null, null, null, null, null], "rewards": [-1, 2, -4, 11, -25], "path": ["0", "0", "23", "24", "25", "26", "27"], "rt": [14371, 128, 474, 171, 705], "actions": ["left", "left", "left", "up", "up"], "actionTimes": [16704, 17329, 18291, 18973, 20189], "queries": {"click": {"state": {"target": ["12", "23", "2"], "time": [5104, 8148, 11087]}, "edge": {"target": [], "time": []}}, "mouseover": {"state": {"target": ["1", "1", "13", "7", "2", "7", "18", "13", "12", "13", "14", "14", "19", "19", "14", "13", "24", "23", "23", "1", "2", "2", "2", "1", "1"], "time": [2743, 3042, 3593, 3877, 4126, 4511, 4576, 4794, 4927, 5527, 6411, 6978, 7227, 7361, 7428, 7511, 7578, 7712, 7878, 10245, 10295, 10496, 10847, 11413, 14648]}, "edge": {"target": [], "time": []}}, "mouseout": {"state": {"target": ["18", "12", "23", "0", "1", "1", "13", "7", "2", "7", "18", "13", "12", "13", "14", "14", "19", "19", "14", "13", "24", "23", "23", "23", "1", "2", "2", "2", "1"], "time": [1441, 1525, 1808, 2127, 2910, 3060, 3627, 3927, 4476, 4526, 4710, 4877, 5461, 5827, 6912, 7184, 7244, 7394, 7495, 7527, 7662, 7813, 8612, 10212, 10279, 10329, 10512, 11362, 11580]}, "edge": {"target": [], "time": []}}}, "displayed_time": "20.68", "trialTime": 23634, "trial_type": "mouselab-mdp", "trial_index": 12, "time_elapsed": 776090, "internal_node_id": "0.0-6.0-1.0-3.0"}}, {"uniqueid": "w58852032:a45815564", "current_trial": 13, "dateTime": 1693481667051, "trialdata": {"revealed_states": [], "clicked_states": ["2", "3", "8", "4", "5"], "num_clicks_accrued": [0, 0, 0, 0, 0, 0, 0, 0, 0, 0, 0, 0, 0], "stateRewards": ["", -1, 2, 6, 11, 21, -21, -21, -6, 48, -71, 88, -1, -3, 3, 7, 64, 2, 9, -4, 37, -67, 72, 2, 2, -8, -8, -10, 71, -40, -3, 73, 80, 47], "withholdReward": false, "trial_id": "mdp_trial_5", "block": "test", "trialIndex": 6, "score": 32, "costs": -7, "simulationMode": [null, null, null, null, null], "rewards": [-1, 2, 6, 11, 21], "path": ["0", "0", "1", "2", "3", "4", "5"], "rt": [19387, 36, 7, 1161, 337], "actions": ["up", "up", "up", "right", "up"], "actionTimes": [23166, 23697, 24217, 25888, 26730], "queries": {"click": {"state": {"target": ["2", "3", "8", "4", "5"], "time": [5988, 9551, 11828, 15247, 18224]}, "edge": {"target": [], "time": []}}, "mouseover": {"state": {"target": ["0", "0", "23", "1", "1", "1", "2", "1", "10", "10", "8", "3", "8", "11", "2", "7", "4", "4", "7", "5"], "time": [4201, 4483, 4550, 5117, 5218, 5402, 5700, 6687, 8001, 8718, 8985, 9202, 10953, 13221, 14270, 14306, 14454, 14655, 16488, 17772]}, "edge": {"target": [], "time": []}}, "mouseout": {"state": {"target": ["1", "2", "2", "1", "0", "0", "23", "1", "1", "1", "2", "1", "10", "10", "8", "3", "8", "11", "8", "2", "7", "4", "4", "7", "4", "5", "6"], "time": [3032, 3066, 3282, 3349, 4250, 4500, 5067, 5135, 5284, 5667, 6651, 7001, 8152, 8936, 9169, 10703, 13170, 13955, 14238, 14287, 14371, 14537, 16438, 17605, 17688, 18690, 29209]}, "edge": {"target": [], "time": []}}}, "displayed_time": "27.23", "trialTime": 30129, "trial_type": "mouselab-mdp", "trial_index": 13, "time_elapsed": 806405, "internal_node_id": "0.0-6.0-1.0-4.0"}}, {"uniqueid": "w58852032:a45815564", "current_trial": 14, "dateTime": 1693481690484, "trialdata": {"revealed_states": [], "clicked_states": ["12", "19", "21"], "num_clicks_accrued": [0, 0, 0, 0, 0, 0, 0, 0, 0, 0, 0, 0, 0], "stateRewards": ["", 1, -4, -4, 8, 1, -79, 68, -10, -79, 8, -74, -1, -3, -6, 14, 43, 23, 9, 5, -51, 63, 61, -2, 4, 6, -10, 69, -32, 57, 15, -80, -80, -77], "withholdReward": false, "trial_id": "mdp_trial_6", "block": "test", "trialIndex": 7, "score": 53.8, "costs": -4.199999999999999, "simulationMode": [null, null, null, null, null], "rewards": [-1, -3, -6, 5, 63], "path": ["0", "0", "12", "13", "14", "19", "21"], "rt": [13512, 314, 203, 131, 121], "actions": ["right", "right", "right", "down", "down"], "actionTimes": [17200, 18006, 18712, 19340, 19963], "queries": {"click": {"state": {"target": ["12", "19", "21"], "time": [5887, 10160, 13443]}, "edge": {"target": [], "time": []}}, "mouseover": {"state": {"target": ["22", "13", "12", "22", "19", "21"], "time": [4900, 5068, 5434, 6268, 9386, 10638]}, "edge": {"target": [], "time": []}}, "mouseout": {"state": {"target": ["0", "22", "13", "12", "22", "19", "21"], "time": [4084, 5002, 5268, 6235, 9287, 10588, 13905]}, "edge": {"target": [], "time": []}}}, "displayed_time": "20.46", "trialTime": 23234, "trial_type": "mouselab-mdp", "trial_index": 14, "time_elapsed": 829838, "internal_node_id": "0.0-6.0-1.0-5.0"}}, {"uniqueid": "w58852032:a45815564", "current_trial": 15, "dateTime": 1693481714614, "trialdata": {"revealed_states": [], "clicked_states": ["32", "21", "16"], "num_clicks_accrued": [0, 0, 0, 0, 0, 0, 0, 0, 0, 0, 0, 0, 0], "stateRewards": ["", -2, 1, -5, 2, -68, 80, 33, 10, 67, -59, 20, -1, -3, 3, 14, 74, -2, 24, -16, 63, 80, 46, -1, 4, 6, 12, 83, -38, -43, -4, 43, 14, -79], "withholdReward": false, "trial_id": "mdp_trial_7", "block": "test", "trialIndex": 8, "score": 58.8, "costs": -4.199999999999999, "simulationMode": [null, null, null, null, null], "rewards": [-1, -3, 3, -16, 80], "path": ["0", "0", "12", "13", "14", "19", "21"], "rt": [14846, 191, 9, 456, 84], "actions": ["right", "right", "right", "down", "down"], "actionTimes": [17305, 17997, 18515, 19479, 20057], "queries": {"click": {"state": {"target": ["32", "21", "16"], "time": [4147, 7666, 11606]}, "edge": {"target": [], "time": []}}, "mouseover": {"state": {"target": ["0", "32", "21", "21", "19", "14", "16", "15", "14", "18", "7", "4", "5", "6", "18", "14", "20"], "time": [2598, 3832, 6916, 7099, 11034, 11084, 11369, 11851, 12086, 13885, 14120, 14185, 14352, 15252, 15569, 15870, 16571]}, "edge": {"target": [], "time": []}}, "mouseout": {"state": {"target": ["21", "0", "0", "32", "21", "21", "21", "19", "14", "16", "15", "14", "18", "7", "4", "5", "6", "18", "14", "20", "20", "19"], "time": [1864, 2147, 2648, 4466, 6949, 8034, 10985, 11067, 11101, 11819, 11918, 12102, 14085, 14152, 14236, 15219, 15419, 15586, 16487, 16670, 22689, 22705]}, "edge": {"target": [], "time": []}}}, "displayed_time": "20.56", "trialTime": 23936, "trial_type": "mouselab-mdp", "trial_index": 15, "time_elapsed": 853968, "internal_node_id": "0.0-6.0-1.0-6.0"}}, {"uniqueid": "w58852032:a45815564", "current_trial": 16, "dateTime": 1693481740243, "trialdata": {"revealed_states": [], "clicked_states": ["9", "5", "8", "2", "11"], "num_clicks_accrued": [0, 0, 0, 0, 0, 0, 0, 0, 0, 0, 0, 0, 0], "stateRewards": ["", -2, -3, 8, -4, -30, 31, 69, 9, 66, 87, 64, -2, 2, 8, 5, 47, 16, -39, -8, -54, 51, -19, 1, -2, -2, -11, -25, -26, 43, -9, 19, -84, 86], "withholdReward": false, "trial_id": "mdp_trial_8", "block": "test", "trialIndex": 9, "score": 69, "costs": -7, "simulationMode": [null, null, null, null, null], "rewards": [-2, -3, 8, 9, 64], "path": ["0", "0", "1", "2", "3", "8", "11"], "rt": [17255, 41, 287, 63, 118], "actions": ["up", "up", "up", "left", "left"], "actionTimes": [18985, 19531, 20326, 20885, 21507], "queries": {"click": {"state": {"target": ["9", "5", "8", "2", "11"], "time": [2680, 5628, 8456, 11389, 15462]}, "edge": {"target": [], "time": []}}, "mouseover": {"state": {"target": ["1", "2", "3", "9", "8", "3", "5", "4", "4", "3", "8", "2", "10", "2", "18", "15", "18", "7", "3", "8", "11", "11", "2"], "time": [2014, 2047, 2080, 2398, 3031, 3899, 4799, 5982, 7800, 7983, 8166, 8816, 10900, 10934, 11852, 12052, 13601, 13668, 13918, 14419, 14978, 15320, 16553]}, "edge": {"target": [], "time": []}}, "mouseout": {"state": {"target": ["0", "0", "1", "2", "3", "9", "8", "3", "5", "4", "4", "3", "8", "2", "10", "2", "18", "15", "18", "7", "3", "8", "11", "11", "2", "12"], "time": [1380, 1980, 2030, 2064, 2098, 2998, 3064, 4681, 5932, 6250, 7819, 8000, 8767, 9000, 10917, 11618, 12001, 12335, 13635, 13685, 14392, 14585, 15019, 15702, 24322, 24389]}, "edge": {"target": [], "time": []}}}, "displayed_time": "22.01", "trialTime": 25422, "trial_type": "mouselab-mdp", "trial_index": 16, "time_elapsed": 879597, "internal_node_id": "0.0-6.0-1.0-7.0"}}, {"uniqueid": "w58852032:a45815564", "current_trial": 17, "dateTime": 1693481762136, "trialdata": {"revealed_states": [], "clicked_states": ["32", "21", "25", "14"], "num_clicks_accrued": [0, 0, 0, 0, 0, 0, 0, 0, 0, 0, 0, 0, 0], "stateRewards": ["", -2, 1, -8, 12, -65, -79, 16, 7, -80, -17, -45, -2, 2, -5, -2, -85, 23, -4, -7, 48, 27, -76, 2, 3, 5, 2, 43, 71, -13, 7, -49, 59, -31], "withholdReward": false, "trial_id": "mdp_trial_9", "block": "test", "trialIndex": 10, "score": 70.4, "costs": -5.6, "simulationMode": [null, null, null, null, null], "rewards": [2, 3, 5, 7, 59], "path": ["0", "0", "23", "24", "25", "30", "32"], "rt": [12879, 143, 63, 300, 147], "actions": ["left", "left", "left", "down", "down"], "actionTimes": [15156, 15791, 16361, 17165, 17812], "queries": {"click": {"state": {"target": ["32", "21", "25", "14"], "time": [3076, 5641, 9003, 11743]}, "edge": {"target": [], "time": []}}, "mouseover": {"state": {"target": ["0", "32", "21", "25", "29", "25", "13", "14"], "time": [2423, 2791, 5241, 8226, 8309, 8743, 11211, 11360]}, "edge": {"target": [], "time": []}}, "mouseout": {"state": {"target": ["0", "0", "32", "32", "21", "21", "25", "29", "25", "13", "14", "14", "22"], "time": [1739, 2456, 3152, 3391, 6059, 8092, 8259, 8442, 9292, 11327, 11826, 12094, 20247]}, "edge": {"target": [], "time": []}}}, "displayed_time": "18.31", "trialTime": 21698, "trial_type": "mouselab-mdp", "trial_index": 17, "time_elapsed": 901490, "internal_node_id": "0.0-6.0-1.0-8.0"}}, {"uniqueid": "w58852032:a45815564", "current_trial": 18, "dateTime": 1693481799163, "trialdata": {"revealed_states": [], "clicked_states": ["5", "9", "32", "27", "21", "20", "29", "17"], "num_clicks_accrued": [0, 0, 0, 0, 0, 0, 0, 0, 0, 0, 0, 0, 0], "stateRewards": ["", 2, -3, 5, -14, -63, -9, -24, -11, -54, -43, 68, 2, -2, -4, 7, -64, 30, 47, 12, -74, 11, 86, 1, -3, 3, 10, -71, -42, -52, -1, -29, -16, 69], "withholdReward": false, "trial_id": "mdp_trial_10", "block": "test", "trialIndex": 11, "score": 21.799999999999997, "costs": -11.200000000000001, "simulationMode": [null, null, null, null, null], "rewards": [2, -2, -4, 7, 30], "path": ["0", "0", "12", "13", "14", "15", "17"], "rt": [26985, 127, 111, 251, 65], "actions": ["right", "right", "right", "up", "right"], "actionTimes": [31355, 31975, 32576, 33333, 33898], "queries": {"click": {"state": {"target": ["5", "9", "32", "27", "21", "20", "29", "17"], "time": [5450, 7753, 10601, 13462, 16392, 19946, 23683, 27797]}, "edge": {"target": [], "time": []}}, "mouseover": {"state": {"target": ["4", "5", "4", "3", "8", "9", "8", "10", "24", "32", "28", "27", "26", "24", "23", "0", "12", "22", "19", "21", "19", "20", "19", "22", "28", "28", "26", "29", "24", "23", "15", "17", "17"], "time": [4969, 5237, 5736, 7270, 7322, 7488, 8137, 8220, 9954, 10272, 13005, 13139, 13906, 15506, 15524, 15574, 15624, 15773, 15923, 16157, 18942, 19410, 21959, 22009, 22110, 22392, 22876, 23427, 26696, 26995, 27061, 27361, 27596]}, "edge": {"target": [], "time": []}}, "mouseout": {"state": {"target": ["0", "4", "5", "4", "3", "8", "9", "8", "10", "24", "32", "28", "27", "26", "24", "23", "0", "12", "22", "19", "21", "19", "20", "19", "22", "28", "28", "26", "29", "24", "23", "15", "17", "17"], "time": [4553, 5120, 5703, 5789, 7321, 7337, 8087, 8187, 8238, 9988, 10676, 13023, 13823, 14056, 15523, 15557, 15606, 15674, 15825, 15940, 18059, 19292, 21942, 21992, 22026, 22143, 22859, 23110, 26577, 26962, 27028, 27295, 27429, 29812]}, "edge": {"target": [], "time": []}}}, "displayed_time": "34.42", "trialTime": 36845, "trial_type": "mouselab-mdp", "trial_index": 18, "time_elapsed": 938517, "internal_node_id": "0.0-6.0-1.0-9.0"}}, {"uniqueid": "w58852032:a45815564", "current_trial": 19, "dateTime": 1693481823718, "trialdata": {"revealed_states": [], "clicked_states": ["5", "9", "21", "17", "29"], "num_clicks_accrued": [0, 0, 0, 0, 0, 0, 0, 0, 0, 0, 0, 0, 0], "stateRewards": ["", 1, 3, 1, -13, 52, -28, 67, -14, 3, 63, -70, -1, -4, 7, -11, -10, 47, -18, 6, 69, -9, -61, 2, 3, -6, 10, 63, -34, 40, -6, -79, -35, -32], "withholdReward": false, "trial_id": "mdp_trial_11", "block": "test", "trialIndex": 12, "score": 37, "costs": -7, "simulationMode": [null, null, null, null, null], "rewards": [1, 3, 1, -13, 52], "path": ["0", "0", "1", "2", "3", "4", "5"], "rt": [16178, 68, 111, 14, 210], "actions": ["up", "up", "up", "right", "up"], "actionTimes": [18871, 19451, 20060, 20563, 21293], "queries": {"click": {"state": {"target": ["5", "9", "21", "17", "29"], "time": [4510, 7188, 9891, 13200, 15889]}, "edge": {"target": [], "time": []}}, "mouseover": {"state": {"target": ["12", "15", "16", "4", "5", "7", "3", "9", "3", "7", "18", "14", "20", "21", "19", "14", "7", "7", "15", "17", "17", "14", "26", "29", "26", "23", "0", "12"], "time": [3191, 3441, 3574, 3957, 4191, 6376, 6658, 6960, 7542, 7726, 9093, 9126, 9159, 9560, 12011, 12044, 12544, 12727, 12777, 12795, 12928, 15279, 15445, 15496, 16113, 16213, 16246, 16296]}, "edge": {"target": [], "time": []}}, "mouseout": {"state": {"target": ["13", "12", "0", "12", "15", "16", "4", "5", "7", "3", "9", "3", "7", "18", "14", "20", "21", "19", "14", "7", "7", "15", "17", "17", "14", "26", "29", "26", "23", "0", "12"], "time": [1806, 2040, 2700, 3241, 3457, 3590, 4075, 5441, 6593, 6692, 7476, 7559, 9076, 9110, 9143, 9194, 10210, 12027, 12060, 12662, 12744, 12794, 12812, 13462, 15295, 15478, 16047, 16129, 16229, 16262, 17880]}, "edge": {"target": [], "time": []}}}, "displayed_time": "21.78", "trialTime": 24358, "trial_type": "mouselab-mdp", "trial_index": 19, "time_elapsed": 963071, "internal_node_id": "0.0-6.0-1.0-10.0"}}, {"uniqueid": "w58852032:a45815564", "current_trial": 20, "dateTime": 1693481844737, "trialdata": {"revealed_states": [], "clicked_states": [], "num_clicks_accrued": [0, 0, 0, 0, 0, 0, 0, 0, 0, 0, 0, 0, 0], "stateRewards": ["", -1, 2, 5, -6, 13, -64, -47, 8, -79, -80, -33, 1, 2, -2, -16, 56, -71, -10, 3, 29, 44, 85, -1, 4, 5, 4, -36, -56, 19, 8, 52, -13, -2], "withholdReward": false, "trial_id": "mdp_trial_12", "block": "test", "trialIndex": 13, "score": 14, "costs": 0, "simulationMode": [null, null, null, null, null], "rewards": [-1, 4, 5, 8, -2], "path": ["0", "0", "23", "24", "25", "30", "33"], "rt": [2064, 548, 142, 131, 167], "actions": ["left", "left", "left", "down", "left"], "actionTimes": [4059, 5100, 5744, 6367, 7036], "queries": {"click": {"state": {"target": [], "time": []}, "edge": {"target": [], "time": []}}, "mouseover": {"state": {"target": [], "time": []}, "edge": {"target": [], "time": []}}, "mouseout": {"state": {"target": ["13", "18", "0", "12", "13", "19", "20", "21"], "time": [648, 664, 18705, 18772, 18788, 18821, 18856, 19022]}, "edge": {"target": [], "time": []}}}, "displayed_time": "16.00", "trialTime": 20826, "trial_type": "mouselab-mdp", "trial_index": 20, "time_elapsed": 984091, "internal_node_id": "0.0-6.0-1.0-11.0"}}, {"uniqueid": "w58852032:a45815564", "current_trial": 21, "dateTime": 1693481870350, "trialdata": {"revealed_states": [], "clicked_states": ["8", "11", "32", "3", "1"], "num_clicks_accrued": [0, 0, 0, 0, 0, 0, 0, 0, 0, 0, 0, 0, 0], "stateRewards": ["", 2, -4, 1, -12, -59, -53, -74, 16, -88, -66, 66, 1, -2, 8, -9, -14, 22, 25, -1, -39, 47, -14, -1, -1, -2, 1, -4, 52, -26, 15, -7, 46, 43], "withholdReward": false, "trial_id": "mdp_trial_13", "block": "test", "trialIndex": 14, "score": 74, "costs": -7, "simulationMode": [null, null, null, null, null], "rewards": [2, -4, 1, 16, 66], "path": ["0", "0", "1", "2", "3", "8", "11"], "rt": [14725, 80, 75, 1147, 205], "actions": ["up", "up", "up", "left", "left"], "actionTimes": [18569, 19154, 19732, 21371, 22079], "queries": {"click": {"state": {"target": ["8", "11", "32", "3", "1"], "time": [5180, 6996, 9771, 12436, 15670]}, "edge": {"target": [], "time": []}}, "mouseover": {"state": {"target": ["2", "3", "9", "8", "11", "28", "24", "32", "31", "23", "2", "3", "3", "2", "1"], "time": [4466, 4484, 4716, 4867, 5700, 7568, 7618, 9536, 11835, 11869, 11935, 12002, 12196, 12753, 14919]}, "edge": {"target": [], "time": []}}, "mouseout": {"state": {"target": ["22", "0", "2", "3", "9", "8", "11", "28", "24", "32", "31", "23", "2", "3", "3", "2", "1"], "time": [2599, 4417, 4483, 4499, 4766, 5633, 7485, 7601, 7701, 11185, 11852, 11885, 11968, 12086, 12720, 14880, 17154]}, "edge": {"target": [], "time": []}}}, "displayed_time": "22.57", "trialTime": 25381, "trial_type": "mouselab-mdp", "trial_index": 21, "time_elapsed": 1009704, "internal_node_id": "0.0-6.0-1.0-12.0"}}, {"uniqueid": "w58852032:a45815564", "current_trial": 22, "dateTime": 1693481897253, "trialdata": {"revealed_states": [], "clicked_states": ["17", "11", "5", "32", "21", "29"], "num_clicks_accrued": [0, 0, 0, 0, 0, 0, 0, 0, 0, 0, 0, 0, 0], "stateRewards": ["", -1, -3, -7, -7, -76, 30, -49, 11, -70, 56, 2, 1, 4, -3, -14, -59, -83, -25, -9, -21, -67, -73, -2, 4, 4, -9, -11, -32, 60, 9, -87, 22, -64], "withholdReward": false, "trial_id": "mdp_trial_14", "block": "test", "trialIndex": 15, "score": 48.6, "costs": -8.4, "simulationMode": [null, null, null, null, null], "rewards": [-2, 4, 4, -9, 60], "path": ["0", "0", "23", "24", "25", "26", "29"], "rt": [18029, 143, 243, 430, 105], "actions": ["left", "left", "left", "up", "left"], "actionTimes": [20588, 21234, 21968, 22888, 23497], "queries": {"click": {"state": {"target": ["17", "11", "5", "32", "21", "29"], "time": [3525, 6117, 9113, 11797, 14337, 16905]}, "edge": {"target": [], "time": []}}, "mouseover": {"state": {"target": ["12", "13", "17", "20", "14", "11", "4", "6", "5", "4", "1", "31", "32", "21", "31", "29"], "time": [3000, 3032, 3265, 3933, 5617, 5700, 8134, 8434, 8868, 9418, 11068, 11169, 11462, 13987, 16388, 16605]}, "edge": {"target": [], "time": []}}, "mouseout": {"state": {"target": ["12", "13", "17", "20", "14", "11", "4", "6", "5", "4", "1", "31", "32", "21", "31", "29"], "time": [3016, 3133, 3833, 5600, 5634, 7251, 8202, 8652, 9386, 9435, 11085, 11353, 12937, 14670, 16405, 18306]}, "edge": {"target": [], "time": []}}}, "displayed_time": "23.99", "trialTime": 26608, "trial_type": "mouselab-mdp", "trial_index": 22, "time_elapsed": 1036607, "internal_node_id": "0.0-6.0-1.0-13.0"}}, {"uniqueid": "w58852032:a45815564", "current_trial": 23, "dateTime": 1693481927722, "trialdata": {"revealed_states": [], "clicked_states": ["17", "5", "9", "32", "21"], "num_clicks_accrued": [0, 0, 0, 0, 0, 0, 0, 0, 0, 0, 0, 0, 0], "stateRewards": ["", -2, 4, -3, -13, 63, -36, 62, 11, 78, 34, -51, 2, -2, 8, -6, -40, -18, 31, 9, 64, 39, 79, 1, 4, -4, 15, -12, 76, 73, -10, -77, 86, -4], "withholdReward": false, "trial_id": "mdp_trial_15", "block": "test", "trialIndex": 16, "score": 70, "costs": -7, "simulationMode": [null, null, null, null, null], "rewards": [1, 4, -4, -10, 86], "path": ["0", "0", "23", "24", "25", "30", "32"], "rt": [19557, 184, 129, 481, 322], "actions": ["left", "left", "left", "down", "down"], "actionTimes": [23335, 24022, 24666, 25651, 26476], "queries": {"click": {"state": {"target": ["17", "5", "9", "32", "21"], "time": [5692, 9363, 12503, 16254, 19546]}, "edge": {"target": [], "time": []}}, "mouseover": {"state": {"target": ["12", "14", "15", "17", "16", "4", "4", "3", "5", "4", "7", "3", "9", "9", "8", "2", "24", "31", "32", "21", "21"], "time": [4278, 4328, 5063, 5128, 7813, 8263, 8735, 8896, 9197, 9680, 11781, 11814, 12048, 12181, 12831, 12898, 15083, 15115, 15416, 18884, 19199]}, "edge": {"target": [], "time": []}}, "mouseout": {"state": {"target": ["26", "28", "12", "0", "12", "14", "15", "17", "16", "4", "4", "3", "5", "4", "7", "3", "9", "9", "8", "2", "24", "31", "32", "21", "21"], "time": [2293, 2310, 2826, 4194, 4294, 4362, 5078, 7629, 8096, 8381, 8829, 9097, 9630, 9746, 11797, 11830, 12097, 12782, 12848, 14983, 15099, 15267, 17383, 19017, 21551]}, "edge": {"target": [], "time": []}}}, "displayed_time": "26.97", "trialTime": 30244, "trial_type": "mouselab-mdp", "trial_index": 23, "time_elapsed": 1067076, "internal_node_id": "0.0-6.0-1.0-14.0"}}, {"uniqueid": "w58852032:a45815564", "current_trial": 24, "dateTime": 1693481966955, "trialdata": {"revealed_states": [], "clicked_states": ["32", "9", "21", "17", "29", "16", "27", "28"], "num_clicks_accrued": [0, 0, 0, 0, 0, 0, 0, 0, 0, 0, 0, 0, 0], "stateRewards": ["", -2, 1, -3, -16, -39, -52, 30, -7, -41, -59, 11, 2, 1, 8, 2, -11, -26, -42, -13, 87, -59, -48, -1, -1, -1, 16, -79, 31, 50, -1, -84, 34, -82], "withholdReward": false, "trial_id": "mdp_trial_16", "block": "test", "trialIndex": 17, "score": 51.8, "costs": -11.200000000000001, "simulationMode": [null, null, null, null, null], "rewards": [-1, -1, -1, 16, 50], "path": ["0", "0", "23", "24", "25", "26", "29"], "rt": [26399, 100, 249, 259, 240], "actions": ["left", "left", "left", "up", "left"], "actionTimes": [30284, 30883, 31632, 32391, 33123], "queries": {"click": {"state": {"target": ["32", "9", "21", "17", "29", "16", "27", "28"], "time": [5462, 8393, 11345, 14376, 17046, 20857, 24054, 26572]}, "edge": {"target": [], "time": []}}, "mouseover": {"state": {"target": ["0", "23", "31", "32", "10", "8", "9", "9", "4", "15", "14", "19", "21", "21", "19", "17", "29", "26", "28", "16", "16", "18", "23", "28", "27", "28"], "time": [4771, 4820, 4887, 5205, 7738, 7805, 7939, 8139, 10355, 10489, 10556, 10673, 10773, 11023, 13557, 14174, 16825, 19609, 19659, 19994, 20527, 23044, 23211, 23377, 23829, 26195]}, "edge": {"target": [], "time": []}}, "mouseout": {"state": {"target": ["0", "0", "23", "31", "32", "10", "8", "9", "9", "4", "15", "14", "19", "21", "21", "19", "17", "29", "26", "28", "16", "16", "18", "23", "28", "27"], "time": [3603, 4803, 4838, 4937, 5988, 7771, 7838, 8006, 10305, 10372, 10522, 10622, 10723, 10923, 13425, 13607, 16325, 19559, 19642, 19676, 20310, 22994, 23077, 23278, 23627, 26145]}, "edge": {"target": [], "time": []}}}, "displayed_time": "33.63", "trialTime": 39026, "trial_type": "mouselab-mdp", "trial_index": 24, "time_elapsed": 1106309, "internal_node_id": "0.0-6.0-1.0-15.0"}}, {"uniqueid": "w58852032:a45815564", "current_trial": 25, "dateTime": 1693481999895, "trialdata": {"revealed_states": [], "clicked_states": ["1", "29", "32", "31", "11", "5"], "num_clicks_accrued": [0, 0, 0, 0, 0, 0, 0, 0, 0, 0, 0, 0, 0], "stateRewards": ["", -1, 3, -7, 16, -32, -74, -48, 2, 10, 15, -30, 1, 1, -2, 10, 12, -83, 67, 13, -66, 47, 65, -2, 4, 2, -14, -8, -57, 24, 9, 65, 12, 46], "withholdReward": false, "trial_id": "mdp_trial_17", "block": "test", "trialIndex": 18, "score": 69.6, "costs": -8.4, "simulationMode": [null, null, null, null, null], "rewards": [-2, 4, 2, 9, 65], "path": ["0", "0", "23", "24", "25", "30", "31"], "rt": [20220, 123, 23, 336, 260], "actions": ["left", "left", "left", "down", "right"], "actionTimes": [23171, 23795, 24311, 25142, 25899], "queries": {"click": {"state": {"target": ["1", "29", "32", "31", "11", "5"], "time": [4531, 8322, 11012, 13690, 16984, 19892]}, "edge": {"target": [], "time": []}}, "mouseover": {"state": {"target": ["0", "1", "6", "6", "7", "24", "25", "26", "27", "29", "25", "30", "32", "31", "31", "28", "11", "2", "7", "5", "6"], "time": [3897, 4230, 6630, 6847, 6914, 7280, 7348, 7597, 7697, 7915, 10299, 10366, 10549, 13117, 13349, 16467, 16734, 19168, 19218, 19569, 20268]}, "edge": {"target": [], "time": []}}, "mouseout": {"state": {"target": ["28", "23", "0", "12", "0", "0", "1", "6", "6", "7", "1", "24", "25", "26", "27", "29", "25", "30", "32", "31", "31", "28", "11", "2", "7", "5", "6"], "time": [1195, 1500, 2078, 2278, 2578, 3912, 4830, 6681, 6880, 6930, 7030, 7298, 7547, 7664, 7797, 10232, 10314, 10481, 13000, 13200, 16384, 16484, 19086, 19201, 19285, 20219, 21121]}, "edge": {"target": [], "time": []}}}, "displayed_time": "26.39", "trialTime": 32709, "trial_type": "mouselab-mdp", "trial_index": 25, "time_elapsed": 1139248, "internal_node_id": "0.0-6.0-1.0-16.0"}}, {"uniqueid": "w58852032:a45815564", "current_trial": 26, "dateTime": 1693482030904, "trialdata": {"revealed_states": [], "clicked_states": ["12", "21", "32", "9", "5", "4"], "num_clicks_accrued": [0, 0, 0, 0, 0, 0, 0, 0, 0, 0, 0, 0, 0], "stateRewards": ["", -1, 2, -2, 5, 80, -61, -27, 12, 44, -26, -75, -2, -4, 1, -16, 42, -49, -50, 4, -44, 2, 80, -2, -2, 5, -2, 59, 10, 24, 7, -48, -86, -44], "withholdReward": false, "trial_id": "mdp_trial_18", "block": "test", "trialIndex": 19, "score": 75.6, "costs": -8.4, "simulationMode": [null, null, null, null, null], "rewards": [-1, 2, -2, 5, 80], "path": ["0", "0", "1", "2", "3", "4", "5"], "rt": [20011, 190, 120, 125, 228], "actions": ["up", "up", "up", "right", "up"], "actionTimes": [22689, 23392, 24007, 24628, 25347], "queries": {"click": {"state": {"target": ["12", "21", "32", "9", "5", "4"], "time": [5199, 7484, 10296, 12939, 15329, 18597]}, "edge": {"target": [], "time": []}}, "mouseover": {"state": {"target": ["0", "12", "19", "21", "32", "30", "11", "9", "9", "5", "4"], "time": [3110, 4793, 6844, 7011, 10073, 12296, 12412, 12480, 12729, 14964, 17865]}, "edge": {"target": [], "time": []}}, "mouseout": {"state": {"target": ["12", "0", "0", "12", "19", "21", "32", "30", "11", "9", "9", "5", "4", "7", "0"], "time": [1225, 2326, 3777, 6411, 6895, 9445, 12246, 12313, 12429, 12497, 14913, 17831, 29820, 29869, 30003]}, "edge": {"target": [], "time": []}}}, "displayed_time": "25.84", "trialTime": 30737, "trial_type": "mouselab-mdp", "trial_index": 26, "time_elapsed": 1170258, "internal_node_id": "0.0-6.0-1.0-17.0"}}, {"uniqueid": "w58852032:a45815564", "current_trial": 27, "dateTime": 1693482061266, "trialdata": {"revealed_states": [], "clicked_states": ["32", "27", "9", "6", "22", "29", "17", "20"], "num_clicks_accrued": [0, 0, 0, 0, 0, 0, 0, 0, 0, 0, 0, 0, 0], "stateRewards": ["", 1, -3, -2, 14, 49, -40, -39, 2, 26, -61, 73, 1, -4, -8, 12, 79, 29, -65, -13, 55, -26, 27, -1, 3, 3, 9, -17, -60, -18, -8, 35, -88, 69], "withholdReward": false, "trial_id": "mdp_trial_19", "block": "test", "trialIndex": 20, "score": 19.799999999999997, "costs": -11.200000000000001, "simulationMode": [null, null, null, null, null], "rewards": [1, -4, -8, -13, 55], "path": ["0", "0", "12", "13", "14", "19", "20"], "rt": [21291, 128, 92, 69, 89], "actions": ["right", "right", "right", "down", "right"], "actionTimes": [23825, 24460, 25041, 25600, 26187], "queries": {"click": {"state": {"target": ["32", "27", "9", "6", "22", "29", "17", "20"], "time": [3471, 5432, 7370, 9172, 11861, 15126, 17634, 20269]}, "edge": {"target": [], "time": []}}, "mouseover": {"state": {"target": ["0", "31", "32", "25", "26", "27", "7", "16", "16", "6", "4", "9", "6", "16", "17", "20", "21", "22", "19", "20", "23", "24", "25", "29", "26", "17", "20"], "time": [2670, 2820, 2988, 3804, 3939, 4055, 5872, 5922, 6072, 6105, 6188, 6405, 8557, 9707, 10291, 11007, 11192, 11690, 12374, 13925, 14475, 14493, 14510, 14692, 16994, 17443, 19877]}, "edge": {"target": [], "time": []}}, "mouseout": {"state": {"target": ["22", "13", "12", "0", "0", "31", "32", "25", "26", "27", "7", "16", "16", "6", "4", "9", "9", "6", "6", "16", "17", "20", "21", "22", "19", "20", "23", "24", "25", "29", "26", "17", "20", "20"], "time": [1636, 1703, 1786, 1937, 2687, 2922, 3542, 3838, 4004, 5705, 5889, 5939, 6088, 6122, 6223, 7461, 7640, 9278, 9557, 9741, 10390, 11124, 11490, 12225, 13658, 14408, 14492, 14508, 14526, 16992, 17009, 18161, 20376, 21612]}, "edge": {"target": [], "time": []}}}, "displayed_time": "26.68", "trialTime": 30132, "trial_type": "mouselab-mdp", "trial_index": 27, "time_elapsed": 1200620, "internal_node_id": "0.0-6.0-1.0-18.0"}}, {"uniqueid": "w58852032:a45815564", "current_trial": 28, "dateTime": 1693482081399, "trialdata": {"revealed_states": [], "clicked_states": [], "num_clicks_accrued": [0, 0, 0, 0, 0, 0, 0, 0, 0, 0, 0, 0, 0], "stateRewards": ["", -1, -3, -6, -2, -7, 80, -45, -3, -38, -72, 76, 2, 1, 7, 4, -62, 14, -74, 14, -87, -21, -88, -2, 1, -7, -10, 66, 56, -76, 10, -29, -72, -70], "withholdReward": false, "trial_id": "mdp_trial_20", "block": "test", "trialIndex": 21, "score": 63, "costs": 0, "simulationMode": [null, null, null, null, null], "rewards": [-1, -3, -6, -3, 76], "path": ["0", "0", "1", "2", "3", "8", "11"], "rt": [9373, 59, 842, 800, 26], "actions": ["up", "up", "up", "left", "left"], "actionTimes": [11554, 12108, 13458, 14750, 15292], "queries": {"click": {"state": {"target": [], "time": []}, "edge": {"target": [], "time": []}}, "mouseover": {"state": {"target": ["10", "8", "11", "28", "11", "27", "11"], "time": [3477, 3561, 3760, 4094, 4527, 4877, 5411]}, "edge": {"target": [], "time": []}}, "mouseout": {"state": {"target": ["20", "19", "0", "10", "8", "11", "28", "11", "27"], "time": [1476, 1492, 1709, 3526, 3676, 3961, 4161, 4594, 4894]}, "edge": {"target": [], "time": []}}}, "displayed_time": "16.20", "trialTime": 19876, "trial_type": "mouselab-mdp", "trial_index": 28, "time_elapsed": 1220752, "internal_node_id": "0.0-6.0-1.0-19.0"}}, {"uniqueid": "w58852032:a45815564", "current_trial": 29, "dateTime": 1693482122855, "trialdata": {"revealed_states": [], "clicked_states": ["32", "9", "29", "17", "21", "18", "6", "31", "28", "11", "16"], "num_clicks_accrued": [0, 0, 0, 0, 0, 0, 0, 0, 0, 0, 0, 0, 0], "stateRewards": ["", 1, -2, -3, 14, -42, -87, -37, -11, -50, 33, -44, -2, 4, -7, 13, 48, -75, -66, 12, 23, -2, 82, 1, -4, 3, 12, 51, -15, -26, -11, -52, -29, 82], "withholdReward": false, "trial_id": "mdp_trial_21", "block": "test", "trialIndex": 22, "score": 40.599999999999994, "costs": -15.400000000000002, "simulationMode": [null, null, null, null, null], "rewards": [-2, 4, -7, 13, 48], "path": ["0", "0", "12", "13", "14", "15", "16"], "rt": [33632, 90, 161, 27, 11], "actions": ["right", "right", "right", "up", "up"], "actionTimes": [35926, 36513, 37168, 37700, 38218], "queries": {"click": {"state": {"target": ["32", "9", "29", "17", "21", "18", "6", "31", "28", "11", "16"], "time": [3253, 5969, 8397, 11079, 14027, 16910, 20173, 22839, 26201, 29538, 32467]}, "edge": {"target": [], "time": []}}, "mouseover": {"state": {"target": ["23", "31", "30", "33", "32", "21", "23", "28", "27", "9", "27", "29", "26", "1", "15", "17", "20", "19", "21", "21", "16", "18", "7", "6", "6", "7", "23", "31", "23", "28", "10", "8", "11", "10", "11", "10", "1", "13", "14", "15", "15", "16", "17"], "time": [2607, 2641, 2708, 2790, 2924, 4259, 5259, 5277, 5293, 5775, 7959, 8110, 10193, 10244, 10395, 10578, 12995, 13312, 13411, 13646, 16480, 16613, 19331, 19697, 19965, 22182, 22248, 22532, 25534, 25650, 28384, 28435, 28668, 28868, 29268, 30002, 30085, 30185, 31486, 31619, 31952, 32186, 34487]}, "edge": {"target": [], "time": []}}, "mouseout": {"state": {"target": ["11", "2", "0", "23", "31", "30", "33", "32", "21", "23", "28", "27", "9", "27", "29", "26", "1", "15", "17", "20", "19", "21", "21", "16", "18", "7", "6", "6", "7", "23", "31", "23", "28", "10", "8", "11", "10", "11", "10", "1", "13", "14", "15", "15", "16", "16"], "time": [1440, 1606, 1991, 2625, 2668, 2758, 2857, 3625, 5209, 5276, 5292, 5309, 6560, 7993, 9744, 10227, 10260, 10444, 12528, 13279, 13345, 13495, 14816, 16579, 18930, 19631, 19748, 22149, 22198, 22382, 25303, 25566, 28251, 28401, 28450, 28751, 29185, 29886, 30052, 30102, 31452, 31537, 31768, 32169, 32477, 33736]}, "edge": {"target": [], "time": []}}}, "displayed_time": "38.72", "trialTime": 41222, "trial_type": "mouselab-mdp", "trial_index": 29, "time_elapsed": 1262209, "internal_node_id": "0.0-6.0-1.0-20.0"}}, {"uniqueid": "w58852032:a45815564", "current_trial": 30, "dateTime": 1693482144331, "trialdata": {"revealed_states": [], "clicked_states": [], "num_clicks_accrued": [0, 0, 0, 0, 0, 0, 0, 0, 0, 0, 0, 0, 0], "stateRewards": ["", 1, 2, -8, 9, 18, -83, -11, 6, -64, -48, 17, -2, -2, -5, -3, -24, -3, -86, -2, 48, -41, -22, -2, 4, 7, 8, 81, 13, -48, 10, 61, 19, 57], "withholdReward": false, "trial_id": "mdp_trial_22", "block": "test", "trialIndex": 23, "score": -33, "costs": 0, "simulationMode": [null, null, null, null, null], "rewards": [-2, -2, -5, -2, -22], "path": ["0", "0", "12", "13", "14", "19", "22"], "rt": [2896, 606, 179, 342, 434], "actions": ["right", "right", "right", "down", "left"], "actionTimes": [5845, 6972, 7661, 8491, 9434], "queries": {"click": {"state": {"target": [], "time": []}, "edge": {"target": [], "time": []}}, "mouseover": {"state": {"target": ["0"], "time": [3047]}, "edge": {"target": [], "time": []}}, "mouseout": {"state": {"target": ["17", "15", "7", "2", "10", "1", "0"], "time": [1595, 1628, 1695, 1762, 1845, 2179, 3478]}, "edge": {"target": [], "time": []}}}, "displayed_time": "16.95", "trialTime": 21237, "trial_type": "mouselab-mdp", "trial_index": 30, "time_elapsed": 1283685, "internal_node_id": "0.0-6.0-1.0-21.0"}}, {"uniqueid": "w58852032:a45815564", "current_trial": 31, "dateTime": 1693482178234, "trialdata": {"revealed_states": [], "clicked_states": ["32", "9", "6", "29", "17", "16", "21", "20", "31"], "num_clicks_accrued": [0, 0, 0, 0, 0, 0, 0, 0, 0, 0, 0, 0, 0], "stateRewards": ["", -2, -3, -5, 8, 27, 11, 43, -6, -24, -87, 69, -2, 1, 1, 9, 19, 48, -37, 9, -14, 45, 62, 1, 2, 1, 16, -81, -41, 22, 4, -6, -63, 47], "withholdReward": false, "trial_id": "mdp_trial_23", "block": "test", "trialIndex": 24, "score": 41.4, "costs": -12.600000000000001, "simulationMode": [null, null, null, null, null], "rewards": [-2, 1, 1, 9, 45], "path": ["0", "0", "12", "13", "14", "19", "21"], "rt": [26205, 484, 299, 128, 40], "actions": ["right", "right", "right", "down", "down"], "actionTimes": [28657, 29643, 30441, 31069, 31598], "queries": {"click": {"state": {"target": ["32", "9", "6", "29", "17", "16", "21", "20", "31"], "time": [3918, 6321, 8647, 11072, 13978, 17003, 19721, 22393, 25515]}, "edge": {"target": [], "time": []}}, "mouseover": {"state": {"target": ["0", "0", "31", "32", "31", "24", "28", "11", "8", "9", "4", "6", "2", "10", "29", "26", "12", "13", "17", "17", "16", "15", "14", "19", "21", "21", "20", "19", "31"], "time": [2595, 2829, 3295, 3696, 4982, 5029, 5097, 5380, 5814, 6013, 8064, 8115, 10582, 10600, 10898, 13066, 13300, 13350, 13567, 13783, 16601, 18918, 18939, 18969, 19002, 19318, 21853, 24654, 25120]}, "edge": {"target": [], "time": []}}, "mouseout": {"state": {"target": ["0", "0", "0", "31", "32", "32", "31", "24", "28", "11", "8", "9", "4", "6", "2", "10", "29", "26", "12", "13", "17", "17", "16", "15", "14", "19", "21", "21", "20", "19", "31"], "time": [1528, 2713, 3179, 3329, 4446, 4646, 5013, 5063, 5279, 5764, 5947, 7697, 8080, 10532, 10599, 10615, 13050, 13099, 13333, 13400, 13747, 16384, 18901, 18936, 18952, 18985, 19052, 21086, 24637, 24671, 26089]}, "edge": {"target": [], "time": []}}}, "displayed_time": "32.09", "trialTime": 33648, "trial_type": "mouselab-mdp", "trial_index": 31, "time_elapsed": 1317588, "internal_node_id": "0.0-6.0-1.0-22.0"}}, {"uniqueid": "w58852032:a45815564", "current_trial": 32, "dateTime": 1693482205666, "trialdata": {"revealed_states": [], "clicked_states": ["33", "17", "20", "29"], "num_clicks_accrued": [0, 0, 0, 0, 0, 0, 0, 0, 0, 0, 0, 0, 0], "stateRewards": ["", -2, -4, 6, 14, -34, 49, 36, -8, -3, 32, -4, 1, -2, 1, -8, -20, -71, -57, -7, -86, -62, -16, -2, -3, -5, 11, 23, -21, 53, 5, -5, 85, 73], "withholdReward": false, "trial_id": "mdp_trial_24", "block": "test", "trialIndex": 25, "score": 62.4, "costs": -5.6, "simulationMode": [null, null, null, null, null], "rewards": [-2, -3, -5, 5, 73], "path": ["0", "0", "23", "24", "25", "30", "33"], "rt": [12224, 3, 28, 168, 93], "actions": ["left", "left", "left", "down", "left"], "actionTimes": [22756, 23247, 23789, 24463, 25054], "queries": {"click": {"state": {"target": ["33", "17", "20", "29"], "time": [12212, 14610, 17161, 20036]}, "edge": {"target": [], "time": []}}, "mouseover": {"state": {"target": ["23", "31", "30", "32", "30", "33", "30", "31", "15", "17", "20", "21", "20", "21", "31", "25", "29", "33", "33"], "time": [10904, 10955, 10987, 11055, 11705, 11987, 12588, 12622, 12822, 13122, 16489, 16856, 16940, 18591, 19440, 19674, 19825, 20491, 21276]}, "edge": {"target": [], "time": []}}, "mouseout": {"state": {"target": ["0", "23", "31", "30", "32", "30", "33", "33", "30", "31", "15", "17", "20", "21", "20", "21", "31", "25", "29", "33", "33"], "time": [10220, 10937, 10971, 11004, 11655, 11937, 12275, 12572, 12621, 12638, 12838, 16289, 16573, 16889, 18408, 19191, 19457, 19693, 20408, 20658, 21392]}, "edge": {"target": [], "time": []}}}, "displayed_time": "25.55", "trialTime": 27189, "trial_type": "mouselab-mdp", "trial_index": 32, "time_elapsed": 1345020, "internal_node_id": "0.0-6.0-1.0-23.0"}}, {"uniqueid": "w58852032:a45815564", "current_trial": 33, "dateTime": 1693482237491, "trialdata": {"revealed_states": [], "clicked_states": ["11", "6", "27", "32", "3"], "num_clicks_accrued": [0, 0, 0, 0, 0, 0, 0, 0, 0, 0, 0, 0, 0], "stateRewards": ["", -2, 4, -7, -3, -76, 39, -28, 10, 14, 12, 60, 2, -3, 6, -10, 88, -34, -41, -3, 72, -13, -56, 1, 3, 2, 8, -51, 23, -57, 1, 14, -46, -16], "withholdReward": false, "trial_id": "mdp_trial_25", "block": "test", "trialIndex": 26, "score": 24, "costs": -7, "simulationMode": [null, null, null, null, null], "rewards": [-2, 4, -7, -3, 39], "path": ["0", "0", "1", "2", "3", "4", "6"], "rt": [19979, 77, 191, 3346, 316], "actions": ["up", "up", "up", "right", "right"], "actionTimes": [23640, 24222, 24902, 28740, 29561], "queries": {"click": {"state": {"target": ["11", "6", "27", "32", "3"], "time": [4615, 7107, 11218, 13723, 17361]}, "edge": {"target": [], "time": []}}, "mouseover": {"state": {"target": ["1", "10", "11", "11", "8", "3", "4", "6", "7", "1", "24", "28", "10", "8", "9", "9", "27", "25", "30", "32", "28", "11", "11", "8", "2", "7", "15", "14", "1", "10", "2", "7", "4", "3", "2", "1", "7", "4", "5", "4", "15", "12", "13", "18"], "time": [3850, 3900, 3951, 4422, 6068, 6269, 6318, 6951, 9152, 9336, 9586, 9736, 9853, 10052, 10119, 10352, 11070, 13154, 13237, 13471, 14671, 14738, 14872, 15755, 15788, 15806, 15839, 15956, 16089, 16272, 16371, 16623, 16789, 17039, 19573, 19723, 20173, 20606, 20858, 21307, 21423, 21658, 21841, 21924]}, "edge": {"target": [], "time": []}}, "mouseout": {"state": {"target": ["12", "0", "1", "10", "11", "11", "11", "8", "3", "4", "6", "7", "1", "24", "28", "10", "8", "9", "9", "27", "27", "25", "30", "32", "28", "11", "11", "8", "2", "7", "15", "14", "1", "10", "2", "7", "4", "3", "2", "1", "7", "4", "5", "4", "15", "12", "13", "18"], "time": [3233, 3784, 3867, 3917, 3967, 4698, 6051, 6103, 6301, 6334, 7402, 9202, 9453, 9686, 9803, 9987, 10102, 10137, 10886, 11311, 12849, 13187, 13338, 14272, 14687, 14771, 15739, 15772, 15805, 15822, 15855, 16038, 16122, 16322, 16422, 16672, 16989, 19491, 19640, 19973, 20573, 20674, 21290, 21323, 21491, 21707, 21874, 22841]}, "edge": {"target": [], "time": []}}}, "displayed_time": "30.08", "trialTime": 31586, "trial_type": "mouselab-mdp", "trial_index": 33, "time_elapsed": 1376845, "internal_node_id": "0.0-6.0-1.0-24.0"}}, {"uniqueid": "w58852032:a45815564", "current_trial": 34, "dateTime": 1693482260502, "trialdata": {"revealed_states": [], "clicked_states": ["33", "32", "27", "29", "20"], "num_clicks_accrued": [0, 0, 0, 0, 0, 0, 0, 0, 0, 0, 0, 0, 0], "stateRewards": ["", 1, -1, 4, 5, -32, 18, 20, 6, -88, -74, 9, -2, 1, -2, -14, 34, -77, -38, -1, 80, -36, 73, 2, 3, -8, 10, -48, -73, -71, -11, -22, 20, 54], "withholdReward": false, "trial_id": "mdp_trial_26", "block": "test", "trialIndex": 27, "score": 69, "costs": -7, "simulationMode": [null, null, null, null, null], "rewards": [-2, 1, -2, -1, 80], "path": ["0", "0", "12", "13", "14", "19", "20"], "rt": [14219, 529, 137, 91, 103], "actions": ["right", "right", "right", "down", "right"], "actionTimes": [17483, 18518, 19174, 19762, 20357], "queries": {"click": {"state": {"target": ["33", "32", "27", "29", "20"], "time": [4491, 7313, 9696, 11917, 14736]}, "edge": {"target": [], "time": []}}, "mouseover": {"state": {"target": ["23", "24", "30", "33", "32", "32", "30", "25", "26", "27", "27", "29", "25", "24", "21", "20", "19", "22", "30", "33"], "time": [3731, 3797, 3897, 4147, 5982, 6831, 9148, 9167, 9199, 9232, 9516, 11701, 13835, 13852, 14184, 14535, 14917, 14936, 15001, 15286]}, "edge": {"target": [], "time": []}}, "mouseout": {"state": {"target": ["18", "23", "23", "24", "30", "33", "32", "32", "30", "25", "26", "27", "27", "29", "25", "24", "21", "20", "19", "22", "30"], "time": [2479, 2763, 3764, 3813, 4047, 5731, 6681, 9099, 9166, 9182, 9216, 9249, 11545, 13284, 13851, 13867, 14200, 14901, 14935, 14952, 15017]}, "edge": {"target": [], "time": []}}}, "displayed_time": "20.86", "trialTime": 22748, "trial_type": "mouselab-mdp", "trial_index": 34, "time_elapsed": 1399856, "internal_node_id": "0.0-6.0-1.0-25.0"}}, {"uniqueid": "w58852032:a45815564", "current_trial": 35, "dateTime": 1693482281879, "trialdata": {"revealed_states": [], "clicked_states": ["6", "11", "17", "33"], "num_clicks_accrued": [0, 0, 0, 0, 0, 0, 0, 0, 0, 0, 0, 0, 0], "stateRewards": ["", -1, 4, -6, -5, -22, -38, -38, -2, -56, 88, 14, -1, -1, -7, -6, 61, -60, 21, 11, 57, 31, -30, -2, -2, 6, -9, -44, -70, -44, -15, 34, 16, -78], "withholdReward": false, "trial_id": "mdp_trial_27", "block": "test", "trialIndex": 28, "score": -2.6000000000000014, "costs": -5.6, "simulationMode": [null, null, null, null, null], "rewards": [-2, -2, 6, -15, 16], "path": ["0", "0", "23", "24", "25", "30", "32"], "rt": [14178, 348, 271, 60, 24], "actions": ["left", "left", "left", "down", "down"], "actionTimes": [16132, 16981, 17758, 18310, 18841], "queries": {"click": {"state": {"target": ["6", "11", "17", "33"], "time": [3607, 6562, 9276, 12975]}, "edge": {"target": [], "time": []}}, "mouseover": {"state": {"target": ["12", "14", "15", "6", "6", "6", "7", "2", "11", "11", "10", "1", "17", "20", "19", "22", "31", "25", "33", "30", "31"], "time": [2176, 2426, 2576, 2960, 3210, 3410, 5661, 5760, 6144, 6361, 7129, 8528, 8995, 11330, 11446, 11527, 11765, 12046, 12563, 13450, 13580]}, "edge": {"target": [], "time": []}}, "mouseout": {"state": {"target": ["33", "30", "31", "19", "12", "0", "12", "14", "15", "6", "6", "6", "7", "2", "11", "11", "10", "1", "17", "20", "19", "22", "31", "25", "33", "30", "31"], "time": [1158, 1175, 1192, 1392, 1559, 2160, 2226, 2509, 2643, 3026, 3227, 5528, 5727, 5810, 6178, 6946, 7229, 8545, 9545, 11413, 11497, 11580, 11996, 12280, 13296, 13546, 13663]}, "edge": {"target": [], "time": []}}}, "displayed_time": "19.33", "trialTime": 21146, "trial_type": "mouselab-mdp", "trial_index": 35, "time_elapsed": 1421233, "internal_node_id": "0.0-6.0-1.0-26.0"}}, {"uniqueid": "w58852032:a45815564", "current_trial": 36, "dateTime": 1693482300422, "trialdata": {"revealed_states": [], "clicked_states": [], "num_clicks_accrued": [0, 0, 0, 0, 0, 0, 0, 0, 0, 0, 0, 0, 0], "stateRewards": ["", -1, 3, 2, 9, 41, 4, -46, -12, -54, -87, -25, 2, 3, -1, 11, -77, 12, -33, -9, -32, 35, 72, 1, 3, -7, 4, 37, 65, -73, 6, 77, -43, 8], "withholdReward": false, "trial_id": "mdp_trial_28", "block": "test", "trialIndex": 29, "score": 17, "costs": 0, "simulationMode": [null, null, null, null, null], "rewards": [-1, 3, 2, 9, 4], "path": ["0", "0", "1", "2", "3", "4", "6"], "rt": [1667, 362, 527, 77, 406], "actions": ["up", "up", "up", "right", "right"], "actionTimes": [4148, 5022, 6054, 6622, 7516], "queries": {"click": {"state": {"target": [], "time": []}, "edge": {"target": [], "time": []}}, "mouseover": {"state": {"target": ["0", "12"], "time": [2758, 2874]}, "edge": {"target": [], "time": []}}, "mouseout": {"state": {"target": ["23", "0", "0", "0"], "time": [1723, 1890, 2107, 2774]}, "edge": {"target": [], "time": []}}}, "displayed_time": "16.48", "trialTime": 18295, "trial_type": "mouselab-mdp", "trial_index": 36, "time_elapsed": 1439775, "internal_node_id": "0.0-6.0-1.0-27.0"}}, {"uniqueid": "w58852032:a45815564", "current_trial": 37, "dateTime": 1693482319563, "trialdata": {"revealed_states": [], "clicked_states": [], "num_clicks_accrued": [0, 0, 0, 0, 0, 0, 0, 0, 0, 0, 0, 0, 0], "stateRewards": ["", 2, -1, -3, 16, -3, -16, -62, -1, 13, -26, 43, -1, 4, 3, -9, -54, -37, -3, -12, -71, -68, -57, 1, -3, 2, -9, 2, -2, -9, -11, 84, -52, 55], "withholdReward": false, "trial_id": "mdp_trial_29", "block": "test", "trialIndex": 30, "score": -6, "costs": 0, "simulationMode": [null, null, null, null, null], "rewards": [-1, 4, 3, -9, -3], "path": ["0", "0", "12", "13", "14", "15", "18"], "rt": [5455, 1130, 299, 2246, 1075], "actions": ["right", "right", "right", "up", "left"], "actionTimes": [8204, 9823, 10626, 13372, 14936], "queries": {"click": {"state": {"target": [], "time": []}, "edge": {"target": [], "time": []}}, "mouseover": {"state": {"target": [], "time": []}, "edge": {"target": [], "time": []}}, "mouseout": {"state": {"target": ["12", "0"], "time": [2138, 2439]}, "edge": {"target": [], "time": []}}}, "displayed_time": "16.75", "trialTime": 18844, "trial_type": "mouselab-mdp", "trial_index": 37, "time_elapsed": 1458917, "internal_node_id": "0.0-6.0-1.0-28.0"}}, {"uniqueid": "w58852032:a45815564", "current_trial": 38, "dateTime": 1693482340992, "trialdata": {"revealed_states": [], "clicked_states": [], "num_clicks_accrued": [0, 0, 0, 0, 0, 0, 0, 0, 0, 0, 0, 0, 0], "stateRewards": ["", 2, 3, -1, 16, -78, -11, 46, 2, -20, 79, -67, 2, 3, 2, 11, -83, -42, -58, -11, -67, -22, 55, 2, -1, -1, -16, -83, -82, 23, -11, -29, 13, 13], "withholdReward": false, "trial_id": "mdp_trial_30", "block": "test", "trialIndex": 31, "score": -98, "costs": 0, "simulationMode": [null, null, null, null, null], "rewards": [2, -1, -1, -16, -82], "path": ["0", "0", "23", "24", "25", "26", "28"], "rt": [2560, 210, 808, 472, 74], "actions": ["left", "left", "left", "up", "right"], "actionTimes": [5045, 5775, 7090, 8071, 8640], "queries": {"click": {"state": {"target": [], "time": []}, "edge": {"target": [], "time": []}}, "mouseover": {"state": {"target": [], "time": []}, "edge": {"target": [], "time": []}}, "mouseout": {"state": {"target": ["0"], "time": [2266]}, "edge": {"target": [], "time": []}}}, "displayed_time": "16.49", "trialTime": 21156, "trial_type": "mouselab-mdp", "trial_index": 38, "time_elapsed": 1480346, "internal_node_id": "0.0-6.0-1.0-29.0"}}, {"uniqueid": "w58852032:a45815564", "current_trial": 39, "dateTime": 1693482364598, "trialdata": {"revealed_states": [], "clicked_states": ["32", "29", "28", "27", "11"], "num_clicks_accrued": [0, 0, 0, 0, 0, 0, 0, 0, 0, 0, 0, 0, 0], "stateRewards": ["", 2, 4, -6, -13, -75, -81, 30, 7, 5, 59, -65, -1, -1, 7, 14, -38, 36, -41, 1, -54, -5, 64, 2, -1, 5, 6, -19, 79, 11, 16, -33, -50, 58], "withholdReward": false, "trial_id": "mdp_trial_31", "block": "test", "trialIndex": 32, "score": 84, "costs": -7, "simulationMode": [null, null, null, null, null], "rewards": [2, -1, 5, 6, 79], "path": ["0", "0", "23", "24", "25", "26", "28"], "rt": [14174, 586, 51, 134, 440], "actions": ["left", "left", "left", "up", "right"], "actionTimes": [15970, 17048, 17595, 18246, 19185], "queries": {"click": {"state": {"target": ["32", "29", "28", "27", "11"], "time": [2921, 5196, 7601, 10384, 12920]}, "edge": {"target": [], "time": []}}, "mouseover": {"state": {"target": ["23", "24", "32", "30", "33", "29", "26", "26", "28", "26", "27", "10", "8", "11", "11", "28", "28", "1", "18"], "time": [2287, 2420, 2653, 4338, 4725, 4871, 6672, 6789, 6856, 9823, 10074, 12008, 12175, 12441, 12624, 13692, 14791, 14841, 14942]}, "edge": {"target": [], "time": []}}, "mouseout": {"state": {"target": ["0", "23", "24", "32", "32", "30", "33", "29", "26", "26", "28", "28", "26", "27", "10", "8", "11", "11", "28", "28", "1", "18"], "time": [1622, 2303, 2487, 3254, 3737, 4454, 4804, 6638, 6689, 6822, 8639, 9807, 9840, 10774, 12024, 12307, 12475, 13341, 13741, 14808, 14859, 15059]}, "edge": {"target": [], "time": []}}}, "displayed_time": "19.68", "trialTime": 23312, "trial_type": "mouselab-mdp", "trial_index": 39, "time_elapsed": 1503952, "internal_node_id": "0.0-6.0-1.0-30.0"}}, {"uniqueid": "w58852032:a45815564", "current_trial": 40, "dateTime": 1693482382471, "trialdata": {"revealed_states": [], "clicked_states": ["20", "29", "5"], "num_clicks_accrued": [0, 0, 0, 0, 0, 0, 0, 0, 0, 0, 0, 0, 0], "stateRewards": ["", -2, 3, 3, -14, 62, 36, 49, 16, 11, 17, -84, 2, -1, 6, 2, -82, -73, 49, -6, -87, 48, 50, -1, -2, -1, -16, -11, 37, -44, 4, 55, 73, -10], "withholdReward": false, "trial_id": "mdp_trial_32", "block": "test", "trialIndex": 33, "score": 47.8, "costs": -4.199999999999999, "simulationMode": [null, null, null, null, null], "rewards": [-2, 3, 3, -14, 62], "path": ["0", "0", "1", "2", "3", "4", "5"], "rt": [9774, 99, 66, 43, 101], "actions": ["up", "up", "up", "right", "up"], "actionTimes": [12040, 12628, 13197, 13740, 14348], "queries": {"click": {"state": {"target": ["20", "29", "5"], "time": [3353, 6386, 9121]}, "edge": {"target": [], "time": []}}, "mouseover": {"state": {"target": ["13", "14", "19", "20", "33", "29", "26", "2", "7", "6", "5", "6"], "time": [2708, 2740, 2907, 2958, 5509, 5942, 8392, 8443, 8461, 8527, 8894, 9410]}, "edge": {"target": [], "time": []}}, "mouseout": {"state": {"target": ["0", "0", "13", "14", "19", "20", "33", "29", "26", "2", "7", "6", "5", "6"], "time": [1657, 2657, 2725, 2874, 2924, 3874, 5525, 8376, 8409, 8460, 8477, 8660, 9360, 9460]}, "edge": {"target": [], "time": []}}}, "displayed_time": "16.27", "trialTime": 17563, "trial_type": "mouselab-mdp", "trial_index": 40, "time_elapsed": 1521825, "internal_node_id": "0.0-6.0-1.0-31.0"}}, {"uniqueid": "w58852032:a45815564", "current_trial": 41, "dateTime": 1693482400951, "trialdata": {"revealed_states": [], "clicked_states": [], "num_clicks_accrued": [0, 0, 0, 0, 0, 0, 0, 0, 0, 0, 0, 0, 0], "stateRewards": ["", 1, -3, -4, -11, -56, 61, -47, -16, -28, -9, 69, -2, -3, -4, -8, 40, -86, 59, -4, 80, 27, 54, -1, 3, -1, 8, 67, 23, 50, 6, 83, -43, -29], "withholdReward": false, "trial_id": "mdp_trial_33", "block": "test", "trialIndex": 34, "score": -22, "costs": 0, "simulationMode": [null, null, null, null, null], "rewards": [-1, 3, -1, 6, -29], "path": ["0", "0", "23", "24", "25", "30", "33"], "rt": [4316, 338, 114, 47, 39], "actions": ["left", "left", "left", "down", "left"], "actionTimes": [7103, 7937, 8546, 9096, 9639], "queries": {"click": {"state": {"target": [], "time": []}, "edge": {"target": [], "time": []}}, "mouseover": {"state": {"target": [], "time": []}, "edge": {"target": [], "time": []}}, "mouseout": {"state": {"target": ["18", "12", "0"], "time": [2161, 2244, 2478]}, "edge": {"target": [], "time": []}}}, "displayed_time": "16.79", "trialTime": 18206, "trial_type": "mouselab-mdp", "trial_index": 41, "time_elapsed": 1540304, "internal_node_id": "0.0-6.0-1.0-32.0"}}, {"uniqueid": "w58852032:a45815564", "current_trial": 42, "dateTime": 1693482421691, "trialdata": {"revealed_states": [], "clicked_states": ["17", "11", "21", "32", "29"], "num_clicks_accrued": [0, 0, 0, 0, 0, 0, 0, 0, 0, 0, 0, 0, 0], "stateRewards": ["", 2, -1, -4, -13, 74, 77, 3, 2, -43, -2, -11, 2, 3, 7, 11, -26, -29, -33, -3, -3, -13, -3, 1, 3, -7, 14, -59, 33, 9, -5, 34, 79, 68], "withholdReward": false, "trial_id": "mdp_trial_34", "block": "test", "trialIndex": 35, "score": 64, "costs": -7, "simulationMode": [null, null, null, null, null], "rewards": [1, 3, -7, -5, 79], "path": ["0", "0", "23", "24", "25", "30", "32"], "rt": [15108, 41, 44, 3, 3], "actions": ["left", "left", "left", "down", "down"], "actionTimes": [16853, 17389, 17942, 18452, 18970], "queries": {"click": {"state": {"target": ["17", "11", "21", "32", "29"], "time": [2413, 4772, 8255, 10578, 13732]}, "edge": {"target": [], "time": []}}, "mouseover": {"state": {"target": ["12", "13", "14", "17", "20", "19", "10", "11", "10", "2", "4", "6", "14", "19", "21", "21", "32", "32", "33", "29", "25", "31"], "time": [1840, 1874, 1907, 2241, 4193, 4227, 4341, 4608, 5360, 6575, 6659, 6843, 7093, 7159, 7377, 7861, 10194, 10378, 13012, 13195, 14079, 14129]}, "edge": {"target": [], "time": []}}, "mouseout": {"state": {"target": ["0", "0", "12", "13", "14", "17", "20", "19", "10", "11", "10", "2", "4", "6", "14", "19", "21", "21", "32", "32", "32", "33", "29", "25", "31"], "time": [1291, 1474, 1857, 1890, 1924, 2691, 4225, 4242, 4425, 5209, 6559, 6609, 6693, 7026, 7126, 7343, 7560, 9427, 10227, 11879, 12946, 13111, 14062, 14112, 14145]}, "edge": {"target": [], "time": []}}}, "displayed_time": "19.50", "trialTime": 20469, "trial_type": "mouselab-mdp", "trial_index": 42, "time_elapsed": 1561045, "internal_node_id": "0.0-6.0-1.0-33.0"}}, {"uniqueid": "w58852032:a45815564", "current_trial": 43, "dateTime": 1693482444563, "trialdata": {"revealed_states": [], "clicked_states": ["17", "21", "32", "9", "29"], "num_clicks_accrued": [0, 0, 0, 0, 0, 0, 0, 0, 0, 0, 0, 0, 0], "stateRewards": ["", -2, -3, 1, -14, 48, -49, 67, -1, -35, -48, 3, -2, 1, -4, -5, 86, -84, 39, 1, 48, 41, -42, -1, -4, 2, -7, 18, -86, 17, 7, -9, 57, -69], "withholdReward": false, "trial_id": "mdp_trial_35", "block": "test", "trialIndex": 36, "score": 54, "costs": -7, "simulationMode": [null, null, null, null, null], "rewards": [-1, -4, 2, 7, 57], "path": ["0", "0", "23", "24", "25", "30", "32"], "rt": [15688, 33, 247, 167, 172], "actions": ["left", "left", "left", "down", "down"], "actionTimes": [17923, 18467, 19214, 19885, 20556], "queries": {"click": {"state": {"target": ["17", "21", "32", "9", "29"], "time": [3479, 5963, 8598, 11800, 15191]}, "edge": {"target": [], "time": []}}, "mouseover": {"state": {"target": ["12", "18", "15", "17", "20", "21", "21", "32", "32", "33", "26", "8", "9", "8", "24", "30", "33", "33", "29", "29", "26", "23", "0"], "time": [2358, 2591, 2625, 2908, 5292, 5475, 5776, 8060, 8344, 10844, 10994, 11111, 11345, 12429, 13813, 14013, 14212, 14429, 14546, 14831, 15630, 15797, 15931]}, "edge": {"target": [], "time": []}}, "mouseout": {"state": {"target": ["32", "31", "12", "18", "15", "17", "20", "21", "21", "32", "32", "33", "26", "8", "9", "8", "24", "30", "33", "33", "29", "29", "26", "23"], "time": [874, 923, 2374, 2608, 2658, 4160, 5392, 5509, 7943, 8094, 10811, 10862, 11011, 11162, 12345, 12495, 13879, 14129, 14246, 14463, 14631, 15547, 15680, 15830]}, "edge": {"target": [], "time": []}}}, "displayed_time": "21.05", "trialTime": 22567, "trial_type": "mouselab-mdp", "trial_index": 43, "time_elapsed": 1583916, "internal_node_id": "0.0-6.0-1.0-34.0"}}, {"uniqueid": "w58852032:a45815564", "current_trial": 44, "dateTime": 1693482467047, "trialdata": {"revealed_states": [], "clicked_states": ["17", "28", "33", "6", "9"], "num_clicks_accrued": [0, 0, 0, 0, 0, 0, 0, 0, 0, 0, 0, 0, 0], "stateRewards": ["", -2, -4, -6, 12, -58, -70, -80, 2, 16, -88, -62, 1, 2, -5, 11, 77, -35, -44, -5, 18, -83, 87, 1, -3, -5, 13, -44, -21, -86, 10, -52, 8, 29], "withholdReward": false, "trial_id": "mdp_trial_36", "block": "test", "trialIndex": 37, "score": 25, "costs": -7, "simulationMode": [null, null, null, null, null], "rewards": [1, -3, -5, 10, 29], "path": ["0", "0", "23", "24", "25", "30", "33"], "rt": [15797, 53, 209, 104, 176], "actions": ["left", "left", "left", "down", "left"], "actionTimes": [18266, 18807, 19530, 20125, 20797], "queries": {"click": {"state": {"target": ["17", "28", "33", "6", "9"], "time": [3587, 7113, 9908, 12523, 15069]}, "edge": {"target": [], "time": []}}, "mouseover": {"state": {"target": ["12", "13", "17", "20", "19", "22", "24", "26", "28", "24", "31", "30", "33", "30", "23", "7", "6", "18", "15", "14", "2", "11", "9", "2", "1", "24", "25", "33"], "time": [2846, 2879, 3396, 5647, 5713, 5748, 5813, 6297, 6865, 9165, 9265, 9382, 9532, 11817, 11883, 12082, 12299, 13016, 13050, 14402, 14467, 14500, 14817, 15467, 16018, 16184, 16217, 17285]}, "edge": {"target": [], "time": []}}, "mouseout": {"state": {"target": ["0", "12", "14", "15", "18", "0", "12", "13", "17", "20", "19", "22", "24", "26", "28", "24", "31", "30", "33", "30", "23", "7", "6", "18", "15", "14", "2", "11", "9", "9", "2", "1", "24", "25", "33"], "time": [1462, 1495, 1545, 1679, 1712, 2179, 2863, 2896, 5440, 5680, 5747, 5764, 5847, 6631, 8433, 9215, 9298, 9449, 11815, 11833, 11899, 12099, 12834, 13033, 13083, 14418, 14483, 14516, 15102, 15351, 15801, 16135, 16201, 16234, 17484]}, "edge": {"target": [], "time": []}}}, "displayed_time": "21.29", "trialTime": 22197, "trial_type": "mouselab-mdp", "trial_index": 44, "time_elapsed": 1606401, "internal_node_id": "0.0-6.0-1.0-35.0"}}, {"uniqueid": "w58852032:a45815564", "current_trial": 45, "dateTime": 1693482489481, "trialdata": {"revealed_states": [], "clicked_states": ["16", "32", "27", "9"], "num_clicks_accrued": [0, 0, 0, 0, 0, 0, 0, 0, 0, 0, 0, 0, 0], "stateRewards": ["", 1, 1, 1, -3, -7, -1, -41, -10, 20, -72, -63, 1, -4, -2, 2, -66, 30, -84, -2, 49, 23, 71, -1, -4, 4, -12, 67, 5, 18, -16, 88, 56, -5], "withholdReward": false, "trial_id": "mdp_trial_37", "block": "test", "trialIndex": 38, "score": 48.4, "costs": -5.6, "simulationMode": [null, null, null, null, null], "rewards": [-1, -4, 4, -12, 67], "path": ["0", "0", "23", "24", "25", "26", "27"], "rt": [14534, 104, 126, 130, 77], "actions": ["left", "left", "left", "up", "up"], "actionTimes": [17144, 17737, 18360, 18980, 19561], "queries": {"click": {"state": {"target": ["16", "32", "27", "9"], "time": [3900, 6652, 9522, 12879]}, "edge": {"target": [], "time": []}}, "mouseover": {"state": {"target": ["18", "16", "15", "33", "32", "33", "30", "31", "30", "27", "28", "8", "9", "8", "27", "5", "4"], "time": [3225, 3684, 5293, 5876, 6327, 7444, 7877, 7979, 8561, 9278, 11466, 12112, 12646, 13788, 14930, 15514, 15881]}, "edge": {"target": [], "time": []}}, "mouseout": {"state": {"target": ["25", "24", "23", "23", "0", "18", "16", "15", "33", "32", "33", "30", "31", "30", "27", "28", "8", "9", "8", "27", "5", "4"], "time": [1808, 1841, 1924, 2024, 3125, 3342, 4944, 5659, 5893, 6751, 7677, 7944, 8111, 8628, 10028, 11897, 12346, 13364, 13829, 15231, 15781, 21365]}, "edge": {"target": [], "time": []}}}, "displayed_time": "20.05", "trialTime": 22169, "trial_type": "mouselab-mdp", "trial_index": 45, "time_elapsed": 1628835, "internal_node_id": "0.0-6.0-1.0-36.0"}}, {"uniqueid": "w58852032:a45815564", "current_trial": 46, "dateTime": 1693482514889, "trialdata": {"revealed_states": [], "clicked_states": ["33", "17", "27", "6", "9", "18"], "num_clicks_accrued": [0, 0, 0, 0, 0, 0, 0, 0, 0, 0, 0, 0, 0], "stateRewards": ["", 1, 4, -4, 14, 35, 51, 19, -13, 54, 78, -74, -2, -1, -3, 13, -11, -42, -73, -15, -24, -3, -69, 2, -1, 5, 16, -27, 73, 58, 9, -60, 5, -60], "withholdReward": false, "trial_id": "mdp_trial_38", "block": "test", "trialIndex": 39, "score": 33.6, "costs": -8.4, "simulationMode": [null, null, null, null, null], "rewards": [1, 4, -4, -13, 54], "path": ["0", "0", "1", "2", "3", "8", "9"], "rt": [19336, 55, 85, 65, 107], "actions": ["up", "up", "up", "left", "up"], "actionTimes": [20959, 21526, 22121, 22686, 23294], "queries": {"click": {"state": {"target": ["33", "17", "27", "6", "9", "18"], "time": [3493, 6009, 8613, 11088, 14434, 17509]}, "edge": {"target": [], "time": []}}, "mouseover": {"state": {"target": ["0", "30", "32", "33", "30", "31", "19", "17", "14", "13", "12", "28", "27", "3", "4", "6", "4", "11", "8", "9", "3", "7", "6", "3", "3", "7", "18", "10", "11", "9", "8", "2"], "time": [2110, 2461, 2694, 3295, 5345, 5363, 5428, 5811, 6896, 7896, 7929, 8012, 8363, 10613, 10647, 10831, 13222, 13749, 14132, 14198, 14832, 14916, 15600, 16750, 16832, 16866, 16932, 17933, 18401, 19667, 20001, 20034]}, "edge": {"target": [], "time": []}}, "mouseout": {"state": {"target": ["1", "0", "0", "30", "32", "33", "30", "31", "19", "17", "14", "13", "12", "28", "27", "3", "4", "6", "4", "11", "8", "9", "9", "3", "7", "6", "3", "3", "7", "18", "10", "11", "9", "8", "2"], "time": [1060, 1310, 2160, 2611, 3060, 5328, 5361, 5378, 5461, 6430, 6996, 7912, 7950, 8062, 9231, 10630, 10663, 13181, 13234, 14098, 14149, 14522, 14748, 14848, 15015, 16716, 16766, 16849, 16899, 17833, 17949, 19417, 19984, 20019, 20067]}, "edge": {"target": [], "time": []}}}, "displayed_time": "23.79", "trialTime": 25136, "trial_type": "mouselab-mdp", "trial_index": 46, "time_elapsed": 1654242, "internal_node_id": "0.0-6.0-1.0-37.0"}}, {"uniqueid": "w58852032:a45815564", "current_trial": 47, "dateTime": 1693482536412, "trialdata": {"revealed_states": [], "clicked_states": ["21", "32", "6", "29"], "num_clicks_accrued": [0, 0, 0, 0, 0, 0, 0, 0, 0, 0, 0, 0, 0], "stateRewards": ["", -1, -4, -6, -15, 21, -67, -63, 9, 51, 69, -14, -1, 3, 8, -8, 39, 72, 63, 15, 19, 47, 15, 1, 4, 5, 16, -18, 34, 35, -14, -80, 40, 1], "withholdReward": false, "trial_id": "mdp_trial_39", "block": "test", "trialIndex": 40, "score": 66.4, "costs": -5.6, "simulationMode": [null, null, null, null, null], "rewards": [-1, 3, 8, 15, 47], "path": ["0", "0", "12", "13", "14", "19", "21"], "rt": [13279, 159, 82, 624, 124], "actions": ["right", "right", "right", "down", "down"], "actionTimes": [15591, 16267, 16841, 17967, 18584], "queries": {"click": {"state": {"target": ["21", "32", "6", "29"], "time": [3441, 6030, 9227, 12840]}, "edge": {"target": [], "time": []}}, "mouseover": {"state": {"target": ["0", "22", "21", "32", "31", "24", "28", "8", "5", "6", "3", "8", "27", "29", "26", "26"], "time": [2532, 2868, 3168, 5586, 8070, 8120, 8153, 8304, 8655, 9037, 12072, 12146, 12256, 12590, 13139, 13274]}, "edge": {"target": [], "time": []}}, "mouseout": {"state": {"target": ["0", "0", "22", "21", "21", "32", "31", "24", "28", "8", "5", "6", "3", "8", "27", "29", "29", "26"], "time": [2442, 2602, 2918, 3516, 3769, 6438, 8087, 8137, 8187, 8371, 8987, 12038, 12105, 12157, 12356, 12916, 13106, 13173]}, "edge": {"target": [], "time": []}}}, "displayed_time": "19.09", "trialTime": 21258, "trial_type": "mouselab-mdp", "trial_index": 47, "time_elapsed": 1675765, "internal_node_id": "0.0-6.0-1.0-38.0"}}, {"uniqueid": "w58852032:a45815564", "current_trial": 48, "dateTime": 1693482563263, "trialdata": {"revealed_states": [], "clicked_states": ["6", "29", "11", "32", "21"], "num_clicks_accrued": [0, 0, 0, 0, 0, 0, 0, 0, 0, 0, 0, 0, 0], "stateRewards": ["", 2, 3, 8, 11, 25, -80, 6, -4, -56, 84, -23, -2, -4, -3, 4, -51, -9, -61, -15, -64, 67, -35, 1, -1, -7, -6, 83, 59, -15, 12, -79, 56, 41], "withholdReward": false, "trial_id": "mdp_trial_40", "block": "test", "trialIndex": 41, "score": 36, "costs": -7, "simulationMode": [null, null, null, null, null], "rewards": [-2, -4, -3, -15, 67], "path": ["0", "0", "12", "13", "14", "19", "21"], "rt": [17359, 34, 153, 23, 115], "actions": ["right", "right", "right", "down", "down"], "actionTimes": [19632, 20171, 20857, 21377, 21985], "queries": {"click": {"state": {"target": ["6", "29", "11", "32", "21"], "time": [4886, 7614, 10065, 12900, 15805]}, "edge": {"target": [], "time": []}}, "mouseover": {"state": {"target": ["1", "15", "3", "4", "6", "5", "6", "7", "29", "29", "27", "11", "28", "24", "31", "32", "21", "14"], "time": [2579, 2829, 3695, 4079, 4112, 4413, 4695, 6746, 6914, 7397, 9580, 9681, 11931, 11966, 12000, 12266, 15583, 18418]}, "edge": {"target": [], "time": []}}, "mouseout": {"state": {"target": ["26", "28", "8", "9", "3", "1", "15", "3", "4", "6", "5", "6", "7", "29", "29", "27", "11", "28", "24", "31", "32", "21", "14"], "time": [1261, 1328, 1394, 1410, 1544, 2594, 2845, 4062, 4095, 4129, 4646, 5746, 6763, 6947, 7622, 9614, 11266, 11965, 11999, 12099, 12972, 18018, 18485]}, "edge": {"target": [], "time": []}}}, "displayed_time": "22.50", "trialTime": 26577, "trial_type": "mouselab-mdp", "trial_index": 48, "time_elapsed": 1702617, "internal_node_id": "0.0-6.0-1.0-39.0"}}, {"uniqueid": "w58852032:a45815564", "current_trial": 49, "dateTime": 1693482659087, "trialdata": {"rt": 95815, "response": {"Q0": "$-2 to $2", "Q1": "$-16 to $16", "Q2": "$-88 to $88", "Q3": "The cost was always $1.4.", "Q4": "Very motivated"}, "question_order": [0, 1, 2, 3, 4], "trial_id": "final_quiz_control", "trial_type": "survey-multi-choice", "trial_index": 49, "time_elapsed": 1798440, "internal_node_id": "0.0-6.0-2.0"}}, {"uniqueid": "w58852032:a45815564", "current_trial": 50, "dateTime": 1693482734566, "trialdata": {"rt": 75469, "response": {"Q0": "I clicked on the Nodes at the end and the one with the highest number was what i went for", "Q1": "No, I did not", "Q2": "Not difficult at all"}, "trial_id": "self_report_control", "trial_type": "survey-text", "trial_index": 50, "time_elapsed": 1873920, "internal_node_id": "0.0-6.0-3.0"}}, {"uniqueid": "w58852032:a45815564", "current_trial": 51, "dateTime": 1693482772094, "trialdata": {"rt": 37524, "response": {"gender": "female", "age": "26", "colorblind": "0", "effort": "0"}, "trial_type": "survey-html-form", "trial_index": 51, "time_elapsed": 1911448, "internal_node_id": "0.0-6.0-4.0"}}, {"uniqueid": "w58852032:a45815564", "current_trial": 52, "dateTime": 1693482805814, "trialdata": {"rt": 33716, "response": {"Q0": "No", "Q1": "No", "Q2": "Loved the game"}, "trial_type": "survey-text", "trial_index": 52, "time_elapsed": 1945168, "internal_node_id": "0.0-6.0-5.0"}}, {"uniqueid": "w58852032:a45815564", "current_trial": 53, "dateTime": 1693482874844, "trialdata": {"rt": 69025, "stimulus": "<h1>Completion Code Instructions (1/2)</h1>\n<br><br><br><br>\nYou have reached the end of the experiment! The completion code consists of two parts: (1) a code with 2 characters (2) a code with 6 characters. On this page, you will receive the second part of the code. The first part of the completion code will be on the next page.\n<br><br>\nThe second part of your completion code is: <b>EWEK22</b>\n<br><br>\nPlease note this down. Then, press 'Finish HIT' in order to find the first part of your completion code. Once the data has been saved, you will receive this code either in this window or in the original browser window where you started the experiment.\n", "response": 0, "trial_type": "html-button-response", "trial_index": 53, "time_elapsed": 2014198, "internal_node_id": "0.0-6.0-6.0"}}, {"uniqueid": "w58852032:a45815564", "current_trial": 54, "dateTime": 1693482875848, "trialdata": {"success": true, "trial_type": "fullscreen", "trial_index": 54, "time_elapsed": 2015202, "internal_node_id": "0.0-7.0"}}], "questiondata": {"params": {"CODE": "C6DMOQA6", "MIN_TIME": 14, "inspectCost": 1, "startTime": "Thu Aug 31 2023 13:20:57 GMT+0200 (South Africa Standard Time)", "bonusRate": 0.002, "variance": "1_2_4_8_44", "branching": "31123"}}, "eventdata": [{"eventtype": "initialized", "value": null, "timestamp": 1693480857141, "interval": 0}, {"eventtype": "window_resize", "value": [1028, 778], "timestamp": 1693480857141, "interval": 0}, {"eventtype": "window_resize", "value": [1028, 778], "timestamp": 1693480857655, "interval": 514}, {"eventtype": "window_resize", "value": [1536, 806], "timestamp": 1693480864536, "interval": 6881}, {"eventtype": "window_resize", "value": [1536, 864], "timestamp": 1693480870669, "interval": 6133}, {"eventtype": "window_resize", "value": [1536, 806], "timestamp": 1693482875096, "interval": 2004427}], "useragent": "Mozilla/5.0 (Windows NT 10.0; Win64; x64) AppleWebKit/537.36 (KHTML, like Gecko) Chrome/116.0.0.0 Safari/537.36", "mode": "live", "id": "w58852032:a45815564", "status": "user data saved", "Beginhit": "2023-08-31 11:20:52.34687", "Beginexp": "2023-08-31 11:21:11.864989", "Endhit": "2023-08-31 11:54:36.892064", "psiturkStatus": 3, "browser": "<redacted>", "platform": "windows", "language": "en-US"}