{"condition": 0, "counterbalance": 0, "assignmentId": "a22090199", "workerId": "w12856162", "hitId": "h52700287", "currenttrial": 28, "bonus": 0, "data": [{"uniqueid": "w12856162:a22090199", "current_trial": 0, "dateTime": 1693580507891, "trialdata": {"success": true, "trial_type": "fullscreen", "trial_index": 0, "time_elapsed": 7150, "internal_node_id": "0.0-0.0"}}, {"uniqueid": "w12856162:a22090199", "current_trial": 1, "dateTime": 1693580558886, "trialdata": {"view_history": [{"page_index": 0, "viewing_time": 50974}], "rt": 50977, "trial_id": "exp_instructions_control", "trial_type": "instructions", "trial_index": 1, "time_elapsed": 58147, "internal_node_id": "0.0-1.0"}}, {"uniqueid": "w12856162:a22090199", "current_trial": 2, "dateTime": 1693580927573, "trialdata": {"view_history": [{"page_index": 0, "viewing_time": 127918}, {"page_index": 1, "viewing_time": 159344}, {"page_index": 2, "viewing_time": 32659}, {"page_index": 3, "viewing_time": 48759}], "rt": 368681, "trial_id": "mouselab_instructions_1_control", "trial_type": "instructions", "trial_index": 2, "time_elapsed": 426834, "internal_node_id": "0.0-2.0-1.0"}}, {"uniqueid": "w12856162:a22090199", "current_trial": 3, "dateTime": 1693581030350, "trialdata": {"revealed_states": [], "clicked_states": ["1", "28", "12", "23", "2", "3", "4", "13", "14", "19", "21", "24", "30", "32", "25", "26", "27", "29", "31"], "num_clicks_accrued": [0, 0, 0, 0, 0, 0, 0, 0, 0, 0, 0, 0, 0], "stateRewards": ["", 10, -10, 10, -10, -10, -10, 10, 10, 10, 10, 10, 10, -10, -10, -10, -10, 10, 10, -10, -10, 10, -10, 10, 10, -10, -10, -10, -10, -10, 10, 10, 10, -10], "withholdReward": false, "trial_id": "practice_1", "block": "test", "trialIndex": 0, "score": 24, "costs": -9.5, "simulationMode": [null, null, null, null, null], "rewards": [10, 10, -10, 10, 10], "path": ["0", "0", "23", "24", "25", "30", "32"], "rt": [81081, 546, 189, 1089, 16], "actions": ["left", "left", "left", "down", "down"], "actionTimes": [87384, 88470, 89247, 90891, 91454], "queries": {"click": {"state": {"target": ["1", "28", "12", "23", "2", "3", "4", "13", "14", "19", "21", "24", "30", "32", "25", "26", "27", "29", "31"], "time": [9786, 14625, 16113, 18683, 23661, 25440, 27669, 32280, 34170, 36363, 37428, 40409, 41846, 44518, 46907, 52948, 54322, 56253, 60343]}, "edge": {"target": [], "time": []}}, "mouseover": {"state": {"target": ["1", "2", "28", "12", "0", "23", "1", "2", "3", "4", "5", "7", "13", "14", "14", "19", "19", "21", "18", "1", "24", "25", "30", "32", "31", "25", "24", "23", "0", "0", "23", "24", "25", "26", "26", "27", "29", "28", "25", "30", "31", "30", "30", "25", "26", "25", "25", "31", "12", "23", "23"], "time": [7501, 12240, 14268, 15674, 16850, 17222, 21223, 23320, 25151, 26433, 28167, 31436, 32065, 32615, 33752, 34607, 35983, 37065, 39405, 39551, 39819, 40604, 41277, 42397, 46251, 46485, 47704, 49278, 50053, 51444, 51882, 52003, 52091, 52235, 52679, 53168, 55941, 57832, 58820, 59502, 60019, 61048, 61814, 62869, 63002, 66960, 67011, 67155, 71725, 76361, 77240]}, "edge": {"target": [], "time": []}}, "mouseout": {"state": {"target": ["13", "12", "0", "1", "2", "28", "12", "12", "0", "23", "1", "2", "3", "4", "5", "4", "7", "13", "14", "14", "19", "19", "19", "21", "19", "18", "1", "24", "25", "30", "30", "32", "31", "25", "24", "23", "0", "0", "23", "24", "25", "26", "26", "27", "29", "29", "26", "28", "25", "30", "31", "30", "30", "25", "26", "25", "25", "31", "12", "23", "23"], "time": [1110, 1278, 4998, 11554, 13993, 15354, 16174, 16798, 17093, 19177, 22661, 24835, 26062, 28016, 31262, 31385, 31461, 32317, 33272, 34438, 35103, 36424, 36724, 37514, 39349, 39430, 39618, 40524, 41103, 41882, 42222, 44572, 46305, 47448, 49076, 50026, 50605, 51696, 51956, 52068, 52152, 52443, 53102, 54836, 56290, 56946, 57170, 58599, 59243, 59652, 60949, 61115, 62809, 62920, 66905, 66991, 67035, 67178, 71759, 76494, 77757]}, "edge": {"target": [], "time": []}}}, "displayed_time": "92.02", "trialTime": 100882, "trial_type": "mouselab-mdp", "trial_index": 3, "time_elapsed": 529602, "internal_node_id": "0.0-2.0-2.0-0.0"}}, {"uniqueid": "w12856162:a22090199", "current_trial": 4, "dateTime": 1693581065818, "trialdata": {"revealed_states": [], "clicked_states": ["23", "25", "30", "12", "14", "21"], "num_clicks_accrued": [0, 0, 0, 0, 0, 0, 0, 0, 0, 0, 0, 0, 0], "stateRewards": ["", -10, -10, -10, -10, -10, 10, -10, -10, -10, -10, -10, -10, 10, -10, 10, 10, 10, -10, -10, 10, -10, 10, 10, -10, -10, -10, -10, -10, 10, 10, 10, -10, 10], "withholdReward": false, "trial_id": "practice_2", "block": "test", "trialIndex": 1, "score": -9.5, "costs": -3, "simulationMode": [null, null, null, null, null], "rewards": [10, -10, -10, 10, -10], "path": ["0", "0", "23", "24", "25", "30", "32"], "rt": [12550, 396, 352, 931, 432], "actions": ["left", "left", "left", "down", "down"], "actionTimes": [18163, 19130, 20052, 21545, 22508], "queries": {"click": {"state": {"target": ["23", "25", "30", "12", "14", "21"], "time": [6723, 8394, 10320, 12377, 13830, 15372]}, "edge": {"target": [], "time": []}}, "mouseover": {"state": {"target": ["23", "24", "25", "24", "24", "30", "32", "12", "13", "14", "19", "21"], "time": [6409, 6970, 7597, 8893, 9158, 9995, 10884, 12054, 12564, 13155, 14229, 15143]}, "edge": {"target": [], "time": []}}, "mouseout": {"state": {"target": ["23", "0", "23", "24", "25", "24", "24", "30", "30", "32", "12", "13", "14", "19", "21", "13"], "time": [4090, 6355, 6846, 7499, 8819, 8957, 9777, 10370, 10790, 11404, 12520, 13112, 14136, 14982, 15595, 26296]}, "edge": {"target": [], "time": []}}}, "displayed_time": "23.04", "trialTime": 34198, "trial_type": "mouselab-mdp", "trial_index": 4, "time_elapsed": 565071, "internal_node_id": "0.0-2.0-2.0-1.0"}}, {"uniqueid": "w12856162:a22090199", "current_trial": 5, "dateTime": 1693581135210, "trialdata": {"view_history": [{"page_index": 0, "viewing_time": 60912}, {"page_index": 1, "viewing_time": 8425}], "rt": 69339, "trial_id": "mouselab_instructions_2_control", "trial_type": "instructions", "trial_index": 5, "time_elapsed": 634470, "internal_node_id": "0.0-2.0-3.0"}}, {"uniqueid": "w12856162:a22090199", "current_trial": 6, "dateTime": 1693581192651, "trialdata": {"rt": 57413, "response": {"Q0": "There is no cost for clicking on nodes.", "Q1": "The better I perform the higher my bonus will be.", "Q2": "No, the amount of cash at each node of the web may be different each time.", "Q3": "To get the highest total score.", "Q4": "Only before moving the spider.", "Q5": "3 seconds"}, "question_order": [0, 1, 2, 3, 4, 5], "correct": {"Q0": "The cost for clicking on nodes may vary between nodes.", "Q1": "The better I perform the higher my bonus will be.", "Q2": "No, the amount of cash at each node of the web may be different each time.", "Q3": "To get the highest total score.", "Q4": "Only before moving the spider.", "Q5": "3 seconds"}, "trial_id": "mouselab_quiz_control", "trial_type": "survey-multi-choice", "trial_index": 6, "time_elapsed": 691912, "internal_node_id": "0.0-2.0-4.0"}}, {"uniqueid": "w12856162:a22090199", "current_trial": 7, "dateTime": 1693581223332, "trialdata": {"success": true, "trial_type": "fullscreen", "trial_index": 7, "time_elapsed": 722593, "internal_node_id": "0.0-2.1-0.1-0.1"}}, {"uniqueid": "w12856162:a22090199", "current_trial": 8, "dateTime": 1693581297253, "trialdata": {"view_history": [{"page_index": 0, "viewing_time": 15284}, {"page_index": 1, "viewing_time": 16544}, {"page_index": 2, "viewing_time": 31191}, {"page_index": 3, "viewing_time": 10890}], "rt": 73911, "trial_id": "mouselab_instructions_1_control", "trial_type": "instructions", "trial_index": 8, "time_elapsed": 796514, "internal_node_id": "0.0-2.1-1.1"}}, {"uniqueid": "w12856162:a22090199", "current_trial": 9, "dateTime": 1693581356127, "trialdata": {"revealed_states": [], "clicked_states": ["23", "24", "25", "30", "32", "12", "13", "14", "19", "21", "20", "22", "31", "33", "26", "28", "29", "27", "15", "18", "17", "16"], "num_clicks_accrued": [0, 0, 0, 0, 0, 0, 0, 0, 0, 0, 0, 0, 0], "stateRewards": ["", 10, -10, 10, -10, -10, -10, 10, 10, 10, 10, 10, 10, -10, -10, -10, -10, 10, 10, -10, -10, 10, -10, 10, 10, -10, -10, -10, -10, -10, 10, 10, 10, -10], "withholdReward": false, "trial_id": "practice_1", "block": "test", "trialIndex": 2, "score": 22.5, "costs": -11, "simulationMode": [null, null, null, null, null], "rewards": [10, 10, -10, 10, 10], "path": ["0", "0", "23", "24", "25", "30", "32"], "rt": [40017, 353, 426, 829, 416], "actions": ["left", "left", "left", "down", "down"], "actionTimes": [42682, 43622, 44595, 45985, 46939], "queries": {"click": {"state": {"target": ["23", "24", "25", "30", "32", "12", "13", "14", "19", "21", "20", "22", "31", "33", "26", "28", "29", "27", "15", "18", "17", "16"], "time": [3739, 5757, 7628, 10725, 12660, 14372, 16491, 18245, 19629, 20725, 21926, 23145, 24544, 26592, 28355, 29528, 30836, 31954, 33237, 34409, 36309, 37568]}, "edge": {"target": [], "time": []}}, "mouseover": {"state": {"target": ["23", "24", "25", "24", "25", "30", "32", "12", "13", "14", "19", "21", "20", "22", "31", "30", "33", "25", "26", "28", "29", "27", "15", "18", "17", "16", "12"], "time": [3414, 4019, 4677, 5366, 6028, 9545, 11999, 13765, 15635, 17051, 18763, 20247, 21386, 22581, 24222, 25019, 25170, 27199, 27373, 29074, 30205, 31656, 32916, 33694, 35195, 36885, 38783]}, "edge": {"target": [], "time": []}}, "mouseout": {"state": {"target": ["0", "23", "24", "25", "24", "25", "30", "32", "12", "13", "14", "19", "21", "20", "20", "19", "22", "22", "31", "30", "33", "25", "26", "28", "26", "29", "27", "15", "18", "15", "17", "16", "16", "18", "12", "12", "13", "14", "19"], "time": [2730, 3972, 4547, 5310, 5984, 9388, 11796, 13207, 15596, 17008, 18643, 20101, 21127, 22014, 22391, 22534, 23189, 23633, 24974, 25109, 27122, 27268, 28971, 29944, 30047, 31283, 32406, 33647, 34809, 34997, 36808, 37632, 38344, 38503, 39377, 54657, 54692, 54721, 55379]}, "edge": {"target": [], "time": []}}}, "displayed_time": "47.51", "trialTime": 57610, "trial_type": "mouselab-mdp", "trial_index": 9, "time_elapsed": 855382, "internal_node_id": "0.0-2.1-2.1-0.1"}}, {"uniqueid": "w12856162:a22090199", "current_trial": 10, "dateTime": 1693581401055, "trialdata": {"revealed_states": [], "clicked_states": ["1", "2", "3", "4", "5", "8", "9", "6", "12", "14", "13", "19", "21", "23", "24", "25", "32"], "num_clicks_accrued": [0, 0, 0, 0, 0, 0, 0, 0, 0, 0, 0, 0, 0], "stateRewards": ["", -10, -10, -10, -10, -10, 10, -10, -10, -10, -10, -10, -10, 10, -10, 10, 10, 10, -10, -10, 10, -10, 10, 10, -10, -10, -10, -10, -10, 10, 10, 10, -10, 10], "withholdReward": false, "trial_id": "practice_2", "block": "test", "trialIndex": 3, "score": -55, "costs": -8.5, "simulationMode": [null, null, null, null, null], "rewards": [-10, -10, -10, -10, -10], "path": ["0", "0", "1", "2", "3", "8", "9"], "rt": [28069, 131, 8, 798, 824], "actions": ["up", "up", "up", "left", "up"], "actionTimes": [31607, 32274, 32866, 34214, 35590], "queries": {"click": {"state": {"target": ["1", "2", "3", "4", "5", "8", "9", "6", "12", "14", "13", "19", "21", "23", "24", "25", "32"], "time": [4772, 6075, 7151, 8220, 9413, 10503, 11765, 14653, 16471, 18575, 19777, 20894, 22185, 23282, 24343, 26794, 28909]}, "edge": {"target": [], "time": []}}, "mouseover": {"state": {"target": ["1", "2", "3", "4", "5", "8", "9", "11", "3", "4", "6", "2", "1", "0", "12", "13", "14", "13", "19", "21", "23", "24", "24", "25", "30", "25", "30", "32"], "time": [4393, 5334, 6581, 7886, 9071, 10224, 11388, 12418, 13749, 14051, 14382, 15430, 15548, 15966, 16133, 17139, 18082, 19460, 20420, 21778, 22976, 23825, 23996, 24843, 26190, 26530, 27502, 28533]}, "edge": {"target": [], "time": []}}, "mouseout": {"state": {"target": ["19", "0", "1", "2", "3", "4", "5", "8", "9", "11", "8", "3", "4", "6", "2", "1", "0", "12", "12", "13", "14", "13", "19", "19", "21", "23", "23", "24", "24", "24", "25", "30", "25", "30", "32"], "time": [1677, 1729, 5176, 6474, 7262, 8910, 9883, 10548, 12142, 13595, 13683, 13776, 14216, 14695, 15474, 15625, 16022, 16511, 16951, 17933, 19165, 20259, 21004, 21670, 22562, 23326, 23779, 23870, 24454, 24769, 25844, 26482, 27283, 28307, 29637]}, "edge": {"target": [], "time": []}}}, "displayed_time": "36.13", "trialTime": 43618, "trial_type": "mouselab-mdp", "trial_index": 10, "time_elapsed": 900306, "internal_node_id": "0.0-2.1-2.1-1.1"}}, {"uniqueid": "w12856162:a22090199", "current_trial": 11, "dateTime": 1693581473783, "trialdata": {"view_history": [{"page_index": 0, "viewing_time": 70184}, {"page_index": 1, "viewing_time": 2518}], "rt": 72703, "trial_id": "mouselab_instructions_2_control", "trial_type": "instructions", "trial_index": 11, "time_elapsed": 973044, "internal_node_id": "0.0-2.1-3.1"}}, {"uniqueid": "w12856162:a22090199", "current_trial": 12, "dateTime": 1693581553128, "trialdata": {"rt": 79329, "response": {"Q0": "There is no cost for clicking on nodes.", "Q1": "The better I perform the higher my bonus will be.", "Q2": "No, the amount of cash at each node of the web may be different each time.", "Q3": "To get the highest total score.", "Q4": "Any time during the round.", "Q5": "3 seconds"}, "question_order": [0, 1, 2, 3, 4, 5], "correct": {"Q0": "The cost for clicking on nodes may vary between nodes.", "Q1": "The better I perform the higher my bonus will be.", "Q2": "No, the amount of cash at each node of the web may be different each time.", "Q3": "To get the highest total score.", "Q4": "Only before moving the spider.", "Q5": "3 seconds"}, "trial_id": "mouselab_quiz_control", "trial_type": "survey-multi-choice", "trial_index": 12, "time_elapsed": 1052389, "internal_node_id": "0.0-2.1-4.1"}}, {"uniqueid": "w12856162:a22090199", "current_trial": 13, "dateTime": 1693581563736, "trialdata": {"success": true, "trial_type": "fullscreen", "trial_index": 13, "time_elapsed": 1062997, "internal_node_id": "0.0-2.2-0.2-0.2"}}, {"uniqueid": "w12856162:a22090199", "current_trial": 14, "dateTime": 1693581691473, "trialdata": {"view_history": [{"page_index": 0, "viewing_time": 75433}, {"page_index": 1, "viewing_time": 46263}, {"page_index": 2, "viewing_time": 4250}, {"page_index": 3, "viewing_time": 1771}], "rt": 127718, "trial_id": "mouselab_instructions_1_control", "trial_type": "instructions", "trial_index": 14, "time_elapsed": 1190734, "internal_node_id": "0.0-2.2-1.2"}}, {"uniqueid": "w12856162:a22090199", "current_trial": 15, "dateTime": 1693581735429, "trialdata": {"revealed_states": [], "clicked_states": ["23", "25", "30", "12", "14", "15", "16", "19", "20", "22", "31", "33", "32"], "num_clicks_accrued": [0, 0, 0, 0, 0, 0, 0, 0, 0, 0, 0, 0, 0], "stateRewards": ["", 10, -10, 10, -10, -10, -10, 10, 10, 10, 10, 10, 10, -10, -10, -10, -10, 10, 10, -10, -10, 10, -10, 10, 10, -10, -10, -10, -10, -10, 10, 10, 10, -10], "withholdReward": false, "trial_id": "practice_1", "block": "test", "trialIndex": 4, "score": 27, "costs": -6.5, "simulationMode": [null, null, null, null, null], "rewards": [10, 10, -10, 10, 10], "path": ["0", "0", "23", "24", "25", "30", "32"], "rt": [23926, 553, 527, 924, 616], "actions": ["left", "left", "left", "down", "down"], "actionTimes": [30041, 31146, 32200, 33665, 34811], "queries": {"click": {"state": {"target": ["23", "25", "30", "12", "14", "15", "16", "19", "20", "22", "31", "33", "32"], "time": [7523, 8590, 10480, 13371, 15593, 17463, 19271, 20386, 22401, 23813, 25192, 27176, 28312]}, "edge": {"target": [], "time": []}}, "mouseover": {"state": {"target": ["23", "24", "25", "30", "30", "32", "12", "13", "14", "15", "15", "16", "20", "19", "21", "20", "22", "30", "31", "30", "33", "32"], "time": [6871, 7726, 8230, 9087, 10251, 11167, 13017, 13907, 15001, 16026, 16302, 17871, 19845, 20035, 21040, 22002, 23363, 24708, 24893, 25678, 26025, 28066]}, "edge": {"target": [], "time": []}}, "mouseout": {"state": {"target": ["31", "24", "23", "0", "23", "24", "25", "30", "30", "32", "12", "13", "14", "15", "15", "16", "20", "19", "21", "20", "20", "19", "22", "30", "31", "30", "33", "33", "32", "31", "31"], "time": [4298, 4447, 4597, 5013, 7645, 8213, 9040, 9805, 10814, 12501, 13546, 14951, 15675, 16074, 17728, 19735, 19894, 20863, 21942, 22512, 22852, 23231, 23941, 24819, 25632, 25852, 27219, 27771, 28360, 28941, 41291]}, "edge": {"target": [], "time": []}}}, "displayed_time": "35.34", "trialTime": 42514, "trial_type": "mouselab-mdp", "trial_index": 15, "time_elapsed": 1234680, "internal_node_id": "0.0-2.2-2.2-0.2"}}, {"uniqueid": "w12856162:a22090199", "current_trial": 16, "dateTime": 1693581783122, "trialdata": {"revealed_states": [], "clicked_states": ["23", "24", "25", "30", "32", "31", "33", "12", "13", "14", "19", "21", "20", "22", "15", "17", "18", "16"], "num_clicks_accrued": [0, 0, 0, 0, 0, 0, 0, 0, 0, 0, 0, 0, 0], "stateRewards": ["", -10, -10, -10, -10, -10, 10, -10, -10, -10, -10, -10, -10, 10, -10, 10, 10, 10, -10, -10, 10, -10, 10, 10, -10, -10, -10, -10, -10, 10, 10, 10, -10, 10], "withholdReward": false, "trial_id": "practice_2", "block": "test", "trialIndex": 5, "score": -35.5, "costs": -9, "simulationMode": [null, null, null, null, null], "rewards": [-10, 10, -10, -10, -10], "path": ["0", "0", "12", "13", "14", "19", "21"], "rt": [27914, 244, 11, 693, 140], "actions": ["right", "right", "right", "down", "down"], "actionTimes": [34717, 35511, 36075, 37330, 38045], "queries": {"click": {"state": {"target": ["23", "24", "25", "30", "32", "31", "33", "12", "13", "14", "19", "21", "20", "22", "15", "17", "18", "16"], "time": [8038, 9434, 10838, 11947, 14109, 15407, 17246, 18517, 20424, 21488, 23096, 24321, 25750, 27070, 28150, 29649, 30917, 32001]}, "edge": {"target": [], "time": []}}, "mouseover": {"state": {"target": ["23", "24", "25", "30", "32", "31", "32", "31", "33", "12", "13", "14", "19", "21", "20", "22", "14", "15", "17", "18", "16", "13"], "time": [7590, 8441, 9913, 11364, 12452, 13202, 13669, 14568, 15964, 18209, 19048, 21059, 22121, 23682, 24876, 26228, 27498, 27834, 28772, 30294, 31396, 32818]}, "edge": {"target": [], "time": []}}, "mouseout": {"state": {"target": ["12", "0", "23", "24", "25", "30", "32", "31", "32", "31", "30", "33", "12", "13", "14", "19", "21", "20", "19", "22", "22", "14", "15", "17", "15", "18", "16", "16", "13"], "time": [5149, 7559, 8425, 9804, 11253, 12345, 13057, 13583, 14269, 15715, 15825, 17732, 18905, 20902, 22009, 23570, 24671, 26017, 26123, 27137, 27231, 27604, 28523, 29956, 30130, 31182, 32132, 32473, 33064]}, "edge": {"target": [], "time": []}}}, "displayed_time": "38.62", "trialTime": 46292, "trial_type": "mouselab-mdp", "trial_index": 16, "time_elapsed": 1282381, "internal_node_id": "0.0-2.2-2.2-1.2"}}, {"uniqueid": "w12856162:a22090199", "current_trial": 17, "dateTime": 1693581796563, "trialdata": {"view_history": [{"page_index": 0, "viewing_time": 12024}, {"page_index": 1, "viewing_time": 1398}], "rt": 13423, "trial_id": "mouselab_instructions_2_control", "trial_type": "instructions", "trial_index": 17, "time_elapsed": 1295824, "internal_node_id": "0.0-2.2-3.2"}}, {"uniqueid": "w12856162:a22090199", "current_trial": 18, "dateTime": 1693581851114, "trialdata": {"rt": 54536, "response": {"Q0": "There is no cost for clicking on nodes.", "Q1": "The better I perform the higher my bonus will be.", "Q2": "No, the amount of cash at each node of the web may be different each time.", "Q3": "To get the highest total score.", "Q4": "Only before moving the spider.", "Q5": "3 seconds"}, "question_order": [0, 1, 2, 3, 4, 5], "correct": {"Q0": "The cost for clicking on nodes may vary between nodes.", "Q1": "The better I perform the higher my bonus will be.", "Q2": "No, the amount of cash at each node of the web may be different each time.", "Q3": "To get the highest total score.", "Q4": "Only before moving the spider.", "Q5": "3 seconds"}, "trial_id": "mouselab_quiz_control", "trial_type": "survey-multi-choice", "trial_index": 18, "time_elapsed": 1350375, "internal_node_id": "0.0-2.2-4.2"}}, {"uniqueid": "w12856162:a22090199", "current_trial": 19, "dateTime": 1693581860930, "trialdata": {"success": true, "trial_type": "fullscreen", "trial_index": 19, "time_elapsed": 1360190, "internal_node_id": "0.0-2.3-0.3-0.3"}}, {"uniqueid": "w12856162:a22090199", "current_trial": 20, "dateTime": 1693581876927, "trialdata": {"view_history": [{"page_index": 0, "viewing_time": 7887}, {"page_index": 1, "viewing_time": 3454}, {"page_index": 2, "viewing_time": 1861}, {"page_index": 3, "viewing_time": 2772}], "rt": 15975, "trial_id": "mouselab_instructions_1_control", "trial_type": "instructions", "trial_index": 20, "time_elapsed": 1376188, "internal_node_id": "0.0-2.3-1.3"}}, {"uniqueid": "w12856162:a22090199", "current_trial": 21, "dateTime": 1693581901286, "trialdata": {"revealed_states": [], "clicked_states": ["12", "13", "14", "19", "21", "20"], "num_clicks_accrued": [0, 0, 0, 0, 0, 0, 0, 0, 0, 0, 0, 0, 0], "stateRewards": ["", 10, -10, 10, -10, -10, -10, 10, 10, 10, 10, 10, 10, -10, -10, -10, -10, 10, 10, -10, -10, 10, -10, 10, 10, -10, -10, -10, -10, -10, 10, 10, 10, -10], "withholdReward": false, "trial_id": "practice_1", "block": "test", "trialIndex": 6, "score": -9.5, "costs": -3, "simulationMode": [null, null, null, null, null], "rewards": [10, -10, -10, -10, 10], "path": ["0", "0", "12", "13", "14", "19", "21"], "rt": [13010, 130, 7, 644, 34], "actions": ["right", "right", "right", "down", "down"], "actionTimes": [16009, 16699, 17263, 18459, 19033], "queries": {"click": {"state": {"target": ["12", "13", "14", "19", "21", "20"], "time": [4046, 5773, 9105, 10617, 12179, 13433]}, "edge": {"target": [], "time": []}}, "mouseover": {"state": {"target": ["12", "13", "14", "19", "21", "20", "12"], "time": [3675, 4578, 8478, 10260, 11780, 13217, 14093]}, "edge": {"target": [], "time": []}}, "mouseout": {"state": {"target": ["0", "12", "13", "14", "19", "19", "21", "19", "20", "12"], "time": [3640, 4532, 8427, 10162, 10783, 11642, 12526, 13009, 13587, 14141]}, "edge": {"target": [], "time": []}}}, "displayed_time": "19.61", "trialTime": 23026, "trial_type": "mouselab-mdp", "trial_index": 21, "time_elapsed": 1400541, "internal_node_id": "0.0-2.3-2.3-0.3"}}, {"uniqueid": "w12856162:a22090199", "current_trial": 22, "dateTime": 1693581944906, "trialdata": {"revealed_states": [], "clicked_states": ["23", "24", "25", "30", "32", "31", "33", "12", "13", "14", "19", "21", "22", "20", "1", "2", "3"], "num_clicks_accrued": [0, 0, 0, 0, 0, 0, 0, 0, 0, 0, 0, 0, 0], "stateRewards": ["", -10, -10, -10, -10, -10, 10, -10, -10, -10, -10, -10, -10, 10, -10, 10, 10, 10, -10, -10, 10, -10, 10, 10, -10, -10, -10, -10, -10, 10, 10, 10, -10, 10], "withholdReward": false, "trial_id": "practice_2", "block": "test", "trialIndex": 7, "score": -55, "costs": -8.5, "simulationMode": [null, null, null, null, null], "rewards": [-10, -10, -10, -10, -10], "path": ["0", "0", "1", "2", "3", "8", "11"], "rt": [26656, 77, 7, 4603, 39], "actions": ["up", "up", "up", "left", "left"], "actionTimes": [30987, 31625, 32181, 37321, 37914], "queries": {"click": {"state": {"target": ["23", "24", "25", "30", "32", "31", "33", "12", "13", "14", "19", "21", "22", "20", "1", "2", "3"], "time": [5369, 6987, 9060, 10852, 12346, 13419, 14765, 16171, 17546, 18840, 20227, 21477, 23630, 24722, 26521, 27924, 29372]}, "edge": {"target": [], "time": []}}, "mouseover": {"state": {"target": ["0", "23", "24", "25", "24", "25", "30", "30", "32", "31", "33", "30", "12", "13", "13", "14", "19", "21", "22", "20", "20", "12", "2", "1", "2", "3"], "time": [4799, 5073, 5570, 6121, 6542, 7437, 9511, 9753, 11793, 12993, 14345, 15189, 15747, 16794, 17133, 18494, 19805, 21297, 21990, 24191, 24511, 25483, 25883, 26282, 27090, 28838]}, "edge": {"target": [], "time": []}}, "mouseout": {"state": {"target": ["25", "31", "0", "0", "23", "24", "25", "24", "24", "25", "30", "30", "32", "31", "33", "30", "12", "12", "13", "13", "14", "14", "19", "19", "21", "22", "19", "20", "20", "12", "2", "1", "2", "3", "2"], "time": [2745, 2779, 4396, 5038, 5519, 6072, 6502, 7029, 7391, 9495, 9627, 11587, 12494, 13468, 14917, 15243, 16216, 16745, 17056, 18219, 18884, 19647, 20473, 20979, 21673, 23672, 24141, 24370, 25258, 25536, 26066, 26564, 28559, 40856, 40951]}, "edge": {"target": [], "time": []}}}, "displayed_time": "38.48", "trialTime": 42263, "trial_type": "mouselab-mdp", "trial_index": 22, "time_elapsed": 1444157, "internal_node_id": "0.0-2.3-2.3-1.3"}}, {"uniqueid": "w12856162:a22090199", "current_trial": 23, "dateTime": 1693581954857, "trialdata": {"view_history": [{"page_index": 0, "viewing_time": 8361}, {"page_index": 1, "viewing_time": 1554}], "rt": 9916, "trial_id": "mouselab_instructions_2_control", "trial_type": "instructions", "trial_index": 23, "time_elapsed": 1454118, "internal_node_id": "0.0-2.3-3.3"}}, {"uniqueid": "w12856162:a22090199", "current_trial": 24, "dateTime": 1693581977611, "trialdata": {"rt": 22740, "response": {"Q0": "There is no cost for clicking on nodes.", "Q1": "The better I perform the higher my bonus will be.", "Q2": "Yes.", "Q3": "To get the highest total score.", "Q4": "Only before moving the spider.", "Q5": "3 seconds"}, "question_order": [0, 1, 2, 3, 4, 5], "correct": {"Q0": "The cost for clicking on nodes may vary between nodes.", "Q1": "The better I perform the higher my bonus will be.", "Q2": "No, the amount of cash at each node of the web may be different each time.", "Q3": "To get the highest total score.", "Q4": "Only before moving the spider.", "Q5": "3 seconds"}, "trial_id": "mouselab_quiz_control", "trial_type": "survey-multi-choice", "trial_index": 24, "time_elapsed": 1476871, "internal_node_id": "0.0-2.3-4.3"}}, {"uniqueid": "w12856162:a22090199", "current_trial": 25, "dateTime": 1693582066247, "trialdata": {"rt": 88338, "response": {"Q0": "the instructions where not clear", "Q1": "20", "Q2": "Female", "Q3": "no", "Q4": "too many instructions made it confusing to understand"}, "trial_id": "finish_fail", "trial_type": "survey-text", "trial_index": 25, "time_elapsed": 1565507, "internal_node_id": "0.0-3.0-0.0"}}, {"uniqueid": "w12856162:a22090199", "current_trial": 26, "dateTime": 1693582145066, "trialdata": {"rt": 78777, "stimulus": "<h1>Completion Code Instructions (1/2)</h1>\n<br><br><br><br>\nYou have reached the end of the experiment! The completion code consists of two parts: (1) a code with 2 characters (2) a code with 6 characters. On this page, you will receive the second part of the code. The first part of the completion code will be on the next page.\n<br><br>\nThe second part of your completion code is: <b>AYIWIP</b>\n<br><br>\nPlease note this down. Then, press 'Next' in order to find the first part of your completion code. Once the data has been saved, you will receive this code either in this window or in the original browser window where you started the experiment.\n <br><br>\n<h2 style='color: red;'>Note: this is <strong>NOT</strong> the full completion code. Copy this down and click 'Next' to get the full completion code on the next page.</h2>", "response": 0, "trial_type": "html-button-response", "trial_index": 26, "time_elapsed": 1644327, "internal_node_id": "0.0-3.0-1.0"}}, {"uniqueid": "w12856162:a22090199", "current_trial": 27, "dateTime": 1693582146076, "trialdata": {"success": true, "trial_type": "fullscreen", "trial_index": 27, "time_elapsed": 1645336, "internal_node_id": "0.0-7.0"}}], "questiondata": {"params": {"CODE": "C6DMOQA6", "MIN_TIME": 14, "inspectCost": 1, "startTime": "Fri Sep 01 2023 10:01:34 GMT-0500 (Central Daylight Time)", "bonusRate": 0.002, "variance": "1_2_4_8_44", "branching": "31123"}, "final_score": 0}, "eventdata": [{"eventtype": "initialized", "value": null, "timestamp": 1693580492422, "interval": 0}, {"eventtype": "window_resize", "value": [1024, 720], "timestamp": 1693580492422, "interval": 0}, {"eventtype": "window_resize", "value": [1024, 720], "timestamp": 1693580493958, "interval": 1536}, {"eventtype": "window_resize", "value": [1366, 768], "timestamp": 1693580507155, "interval": 13197}, {"eventtype": "focus", "value": "off", "timestamp": 1693581219236, "interval": 712081}, {"eventtype": "focus", "value": "on", "timestamp": 1693581219237, "interval": 1}, {"eventtype": "window_resize", "value": [1024, 720], "timestamp": 1693581219482, "interval": 245}, {"eventtype": "window_resize", "value": [1366, 768], "timestamp": 1693581222597, "interval": 3115}, {"eventtype": "focus", "value": "off", "timestamp": 1693581560186, "interval": 337589}, {"eventtype": "focus", "value": "on", "timestamp": 1693581560187, "interval": 1}, {"eventtype": "window_resize", "value": [1024, 720], "timestamp": 1693581560434, "interval": 247}, {"eventtype": "window_resize", "value": [1366, 768], "timestamp": 1693581563015, "interval": 2581}, {"eventtype": "focus", "value": "off", "timestamp": 1693581854853, "interval": 291838}, {"eventtype": "focus", "value": "on", "timestamp": 1693581854855, "interval": 2}, {"eventtype": "window_resize", "value": [1024, 720], "timestamp": 1693581855104, "interval": 249}, {"eventtype": "window_resize", "value": [1366, 768], "timestamp": 1693581860188, "interval": 5084}, {"eventtype": "window_resize", "value": [1024, 720], "timestamp": 1693582145447, "interval": 285259}], "useragent": "Mozilla/5.0 (Windows NT 10.0; Win64; x64) AppleWebKit/537.36 (KHTML, like Gecko) Chrome/83.0.4103.116 Safari/537.36", "mode": "live", "id": "w12856162:a22090199", "status": "user data saved", "Beginhit": "2023-09-01 15:01:26.12488", "Beginexp": "2023-09-01 15:01:49.059464", "Endhit": "2023-09-01 15:29:08.377816", "psiturkStatus": 3, "browser": "<redacted>", "platform": "windows", "language": "en-ZA", "excludeReason": "quizfail"}