{"condition": 0, "counterbalance": 0, "assignmentId": "a25198380", "workerId": "w78561753", "hitId": "h94921678", "currenttrial": 61, "bonus": 0, "data": [{"uniqueid": "w78561753:a25198380", "current_trial": 0, "dateTime": 1693564689754, "trialdata": {"success": true, "trial_type": "fullscreen", "trial_index": 0, "time_elapsed": 205805, "internal_node_id": "0.0-0.0"}}, {"uniqueid": "w78561753:a25198380", "current_trial": 1, "dateTime": 1693566231424, "trialdata": {"view_history": [{"page_index": 0, "viewing_time": 1541676}], "rt": 1541677, "trial_id": "exp_instructions_control", "trial_type": "instructions", "trial_index": 1, "time_elapsed": 1747476, "internal_node_id": "0.0-1.0"}}, {"uniqueid": "w78561753:a25198380", "current_trial": 2, "dateTime": 1693566838362, "trialdata": {"view_history": [{"page_index": 0, "viewing_time": 115491}, {"page_index": 1, "viewing_time": 158535}, {"page_index": 2, "viewing_time": 28824}, {"page_index": 3, "viewing_time": 304086}], "rt": 606936, "trial_id": "mouselab_instructions_1_control", "trial_type": "instructions", "trial_index": 2, "time_elapsed": 2354414, "internal_node_id": "0.0-2.0-1.0"}}, {"uniqueid": "w78561753:a25198380", "current_trial": 3, "dateTime": 1693566879212, "trialdata": {"revealed_states": [], "clicked_states": ["12", "23", "1"], "num_clicks_accrued": [0, 0, 0, 0, 0, 0, 0, 0, 0, 0, 0, 0, 0], "stateRewards": ["", 10, -10, -10, 10, 10, 10, 10, -10, -10, 10, 10, -10, 10, 10, 10, -10, -10, -10, 10, 10, 10, 10, 10, -10, -10, 10, 10, 10, 10, -10, 10, -10, -10], "withholdReward": false, "trial_id": "practice_1", "block": "test", "trialIndex": 0, "score": -28, "costs": -1.5, "simulationMode": [null, null, null, null, null], "rewards": [10, -10, -10, -10, -10], "path": ["0", "0", "1", "2", "3", "8", "9"], "rt": [14309, 4424, 6682, 666, 143], "actions": ["up", "up", "up", "left", "up"], "actionTimes": [20384, 25304, 32496, 33672, 34320], "queries": {"click": {"state": {"target": ["12", "23", "1"], "time": [10151, 12856, 14249]}, "edge": {"target": [], "time": []}}, "mouseover": {"state": {"target": ["1", "0", "12", "0", "23", "23", "1", "2", "1"], "time": [7714, 8552, 9774, 11863, 12048, 12482, 14004, 18132, 19587]}, "edge": {"target": [], "time": []}}, "mouseout": {"state": {"target": ["0", "1", "1", "1", "0", "12", "0", "23", "23", "1", "23", "2", "1", "2", "3", "2", "10", "10", "8", "10", "3", "4"], "time": [2396, 2812, 3166, 7818, 9708, 11763, 11981, 12098, 13916, 15241, 17748, 19471, 22039, 23573, 23736, 24157, 24641, 28388, 29944, 30459, 36332, 36366]}, "edge": {"target": [], "time": []}}}, "displayed_time": "34.83", "trialTime": 39288, "trial_type": "mouselab-mdp", "trial_index": 3, "time_elapsed": 2395263, "internal_node_id": "0.0-2.0-2.0-0.0"}}, {"uniqueid": "w78561753:a25198380", "current_trial": 4, "dateTime": 1693566891226, "trialdata": {"revealed_states": [], "clicked_states": [], "num_clicks_accrued": [0, 0, 0, 0, 0, 0, 0, 0, 0, 0, 0, 0, 0], "stateRewards": ["", -10, 10, -10, 10, 10, -10, -10, 10, 10, -10, -10, 10, -10, 10, 10, 10, 10, -10, -10, -10, -10, -10, 10, -10, 10, 10, -10, -10, -10, 10, 10, -10, -10], "withholdReward": false, "trial_id": "practice_2", "block": "test", "trialIndex": 1, "score": 33.5, "costs": 0, "simulationMode": [null, null, null, null, null], "rewards": [10, -10, 10, 10, 10], "path": ["0", "0", "12", "13", "14", "15", "16"], "rt": [2674, 178, 341, 209, 123], "actions": ["right", "right", "right", "up", "up"], "actionTimes": [4911, 5598, 6446, 7150, 7782], "queries": {"click": {"state": {"target": [], "time": []}, "edge": {"target": [], "time": []}}, "mouseover": {"state": {"target": ["1", "1"], "time": [2975, 3257]}, "edge": {"target": [], "time": []}}, "mouseout": {"state": {"target": ["1", "1", "21"], "time": [3060, 3289, 10553]}, "edge": {"target": [], "time": []}}}, "displayed_time": "8.28", "trialTime": 11741, "trial_type": "mouselab-mdp", "trial_index": 4, "time_elapsed": 2407277, "internal_node_id": "0.0-2.0-2.0-1.0"}}, {"uniqueid": "w78561753:a25198380", "current_trial": 5, "dateTime": 1693566924482, "trialdata": {"view_history": [{"page_index": 0, "viewing_time": 15612}, {"page_index": 1, "viewing_time": 17640}], "rt": 33253, "trial_id": "mouselab_instructions_2_control", "trial_type": "instructions", "trial_index": 5, "time_elapsed": 2440534, "internal_node_id": "0.0-2.0-3.0"}}, {"uniqueid": "w78561753:a25198380", "current_trial": 6, "dateTime": 1693567016242, "trialdata": {"rt": 91756, "response": {"Q0": "The cost for clicking on nodes may vary between nodes.", "Q1": "The better I perform the higher my bonus will be.", "Q2": "No, the amount of cash at each node of the web may be different each time.", "Q3": "To click on the least number of nodes.", "Q4": "Only before moving the spider.", "Q5": "3 seconds"}, "question_order": [0, 1, 2, 3, 4, 5], "correct": {"Q0": "The cost for clicking on nodes may vary between nodes.", "Q1": "The better I perform the higher my bonus will be.", "Q2": "No, the amount of cash at each node of the web may be different each time.", "Q3": "To get the highest total score.", "Q4": "Only before moving the spider.", "Q5": "3 seconds"}, "trial_id": "mouselab_quiz_control", "trial_type": "survey-multi-choice", "trial_index": 6, "time_elapsed": 2532294, "internal_node_id": "0.0-2.0-4.0"}}, {"uniqueid": "w78561753:a25198380", "current_trial": 7, "dateTime": 1693567029930, "trialdata": {"success": true, "trial_type": "fullscreen", "trial_index": 7, "time_elapsed": 2545982, "internal_node_id": "0.0-2.1-0.1-0.1"}}, {"uniqueid": "w78561753:a25198380", "current_trial": 8, "dateTime": 1693567100584, "trialdata": {"view_history": [{"page_index": 0, "viewing_time": 14779}, {"page_index": 1, "viewing_time": 5648}, {"page_index": 2, "viewing_time": 4848}, {"page_index": 3, "viewing_time": 45376}], "rt": 70651, "trial_id": "mouselab_instructions_1_control", "trial_type": "instructions", "trial_index": 8, "time_elapsed": 2616636, "internal_node_id": "0.0-2.1-1.1"}}, {"uniqueid": "w78561753:a25198380", "current_trial": 9, "dateTime": 1693567111888, "trialdata": {"revealed_states": [], "clicked_states": [], "num_clicks_accrued": [0, 0, 0, 0, 0, 0, 0, 0, 0, 0, 0, 0, 0], "stateRewards": ["", 10, -10, -10, 10, 10, 10, 10, -10, -10, 10, 10, -10, 10, 10, 10, -10, -10, -10, 10, 10, 10, 10, 10, -10, -10, 10, 10, 10, 10, -10, 10, -10, -10], "withholdReward": false, "trial_id": "practice_1", "block": "test", "trialIndex": 2, "score": -26.5, "costs": 0, "simulationMode": [null, null, null, null, null], "rewards": [10, -10, -10, -10, -10], "path": ["0", "0", "1", "2", "3", "8", "9"], "rt": [1272, 369, 164, 262, 141], "actions": ["up", "up", "up", "left", "up"], "actionTimes": [5517, 6388, 7052, 7819, 8468], "queries": {"click": {"state": {"target": [], "time": []}, "edge": {"target": [], "time": []}}, "mouseover": {"state": {"target": [], "time": []}, "edge": {"target": [], "time": []}}, "mouseout": {"state": {"target": ["0"], "time": [3943]}, "edge": {"target": [], "time": []}}}, "displayed_time": "8.96", "trialTime": 11028, "trial_type": "mouselab-mdp", "trial_index": 9, "time_elapsed": 2627940, "internal_node_id": "0.0-2.1-2.1-0.1"}}, {"uniqueid": "w78561753:a25198380", "current_trial": 10, "dateTime": 1693567120250, "trialdata": {"revealed_states": [], "clicked_states": [], "num_clicks_accrued": [0, 0, 0, 0, 0, 0, 0, 0, 0, 0, 0, 0, 0], "stateRewards": ["", -10, 10, -10, 10, 10, -10, -10, 10, 10, -10, -10, 10, -10, 10, 10, 10, 10, -10, -10, -10, -10, -10, 10, -10, 10, 10, -10, -10, -10, 10, 10, -10, -10], "withholdReward": false, "trial_id": "practice_2", "block": "test", "trialIndex": 3, "score": -6.5, "costs": 0, "simulationMode": [null, null, null, null, null], "rewards": [10, -10, 10, -10, -10], "path": ["0", "0", "12", "13", "14", "19", "21"], "rt": [1377, 2, 98, 86, 37], "actions": ["right", "right", "right", "down", "down"], "actionTimes": [3455, 3958, 4566, 5158, 5694], "queries": {"click": {"state": {"target": [], "time": []}, "edge": {"target": [], "time": []}}, "mouseover": {"state": {"target": [], "time": []}, "edge": {"target": [], "time": []}}, "mouseout": {"state": {"target": ["0"], "time": [1837]}, "edge": {"target": [], "time": []}}}, "displayed_time": "6.19", "trialTime": 8054, "trial_type": "mouselab-mdp", "trial_index": 10, "time_elapsed": 2636301, "internal_node_id": "0.0-2.1-2.1-1.1"}}, {"uniqueid": "w78561753:a25198380", "current_trial": 11, "dateTime": 1693567169943, "trialdata": {"view_history": [{"page_index": 0, "viewing_time": 47905}, {"page_index": 1, "viewing_time": 1784}], "rt": 49689, "trial_id": "mouselab_instructions_2_control", "trial_type": "instructions", "trial_index": 11, "time_elapsed": 2685995, "internal_node_id": "0.0-2.1-3.1"}}, {"uniqueid": "w78561753:a25198380", "current_trial": 12, "dateTime": 1693567231032, "trialdata": {"rt": 61086, "response": {"Q0": "The cost for clicking on nodes may vary between nodes.", "Q1": "The better I perform the higher my bonus will be.", "Q2": "No, the amount of cash at each node of the web may be different each time.", "Q3": "To get the highest total score.", "Q4": "Only before moving the spider.", "Q5": "3 seconds"}, "question_order": [0, 1, 2, 3, 4, 5], "correct": {"Q0": "The cost for clicking on nodes may vary between nodes.", "Q1": "The better I perform the higher my bonus will be.", "Q2": "No, the amount of cash at each node of the web may be different each time.", "Q3": "To get the highest total score.", "Q4": "Only before moving the spider.", "Q5": "3 seconds"}, "trial_id": "mouselab_quiz_control", "trial_type": "survey-multi-choice", "trial_index": 12, "time_elapsed": 2747084, "internal_node_id": "0.0-2.1-4.1"}}, {"uniqueid": "w78561753:a25198380", "current_trial": 13, "dateTime": 1693567251743, "trialdata": {"rt": 20705, "response": {"Q0": "No"}, "question_order": [0], "trial_id": "repeat_check", "trial_type": "survey-multi-choice", "trial_index": 13, "time_elapsed": 2767795, "internal_node_id": "0.0-4.0-0.0"}}, {"uniqueid": "w78561753:a25198380", "current_trial": 14, "dateTime": 1693567259104, "trialdata": {"rt": 7355, "stimulus": "\n<h1> Get ready to start the game! </h1>\n\nThank you for reading the instructions. Get ready start with the 40 rounds of this game.\n<br><br>\nIf you need to take a break, feel free to take one after the end of a round, before continuing to the next one.\n<br><br>\nRemember, the more money the spider gets, the bigger your bonus will be!\n<br><br>\n<div style='text-align: center;'>Press <code>space</code> to begin.</div>\n\n<br><br>\n(If, at any point, the <code>space</code> key does not take you to the next page, click once on the text and try again.)", "response": " ", "trial_id": "mdp_ready", "trial_type": "html-keyboard-response", "trial_index": 14, "time_elapsed": 2775156, "internal_node_id": "0.0-6.0-0.0"}}, {"uniqueid": "w78561753:a25198380", "current_trial": 15, "dateTime": 1693567277625, "trialdata": {"revealed_states": [], "clicked_states": [], "num_clicks_accrued": [0, 0, 0, 0, 0, 0, 0, 0, 0, 0, 0, 0, 0], "stateRewards": ["", 2, 4, 4, 9, -88, -10, 44, 16, -54, 64, 78, 1, 2, 5, 16, 80, 36, 7, -4, 9, -47, -70, -1, -3, 6, -16, 11, 80, 28, 8, -1, 34, -17], "withholdReward": false, "trial_id": "mdp_trial_1", "block": "test", "trialIndex": 4, "score": 44, "costs": 0, "simulationMode": [null, null, null, null, null], "rewards": [-1, -3, 6, 8, 34], "path": ["0", "0", "23", "24", "25", "30", "32"], "rt": [6970, 505, 325, 307, 246], "actions": ["left", "left", "left", "down", "down"], "actionTimes": [9471, 10477, 11301, 12117, 12861], "queries": {"click": {"state": {"target": [], "time": []}, "edge": {"target": [], "time": []}}, "mouseover": {"state": {"target": ["0", "31", "32"], "time": [4645, 4768, 5138]}, "edge": {"target": [], "time": []}}, "mouseout": {"state": {"target": ["29", "26", "23", "0", "31", "32", "32"], "time": [1505, 1606, 1958, 4669, 4986, 15690, 15808]}, "edge": {"target": [], "time": []}}}, "displayed_time": "16.50", "trialTime": 18213, "trial_type": "mouselab-mdp", "trial_index": 15, "time_elapsed": 2793676, "internal_node_id": "0.0-6.0-1.0-0.0"}}, {"uniqueid": "w78561753:a25198380", "current_trial": 16, "dateTime": 1693567294625, "trialdata": {"revealed_states": [], "clicked_states": ["21"], "num_clicks_accrued": [0, 0, 0, 0, 0, 0, 0, 0, 0, 0, 0, 0, 0], "stateRewards": ["", 2, -4, 4, 9, 69, 9, -75, 12, -86, 66, 25, -1, 3, 2, -13, -88, -3, 1, 4, -69, 49, -84, 2, -1, 4, 2, -18, -81, -52, -15, -69, -54, 25], "withholdReward": false, "trial_id": "mdp_trial_2", "block": "test", "trialIndex": 5, "score": -73.4, "costs": -1.4, "simulationMode": [null, null, null, null, null], "rewards": [2, -4, 4, 12, -86], "path": ["0", "0", "1", "2", "3", "8", "9"], "rt": [5191, 31, 304, 126, 19], "actions": ["up", "up", "up", "left", "up"], "actionTimes": [6296, 6837, 7662, 8286, 8805], "queries": {"click": {"state": {"target": ["21"], "time": [2463]}, "edge": {"target": [], "time": []}}, "mouseover": {"state": {"target": ["12", "13", "14", "19", "21", "22", "10"], "time": [1570, 1602, 1771, 1922, 2305, 3425, 3743]}, "edge": {"target": [], "time": []}}, "mouseout": {"state": {"target": ["23", "12", "13", "14", "19", "21", "22", "10"], "time": [498, 1587, 1633, 1888, 2223, 2570, 3442, 5469]}, "edge": {"target": [], "time": []}}}, "displayed_time": "15.11", "trialTime": 16694, "trial_type": "mouselab-mdp", "trial_index": 16, "time_elapsed": 2810676, "internal_node_id": "0.0-6.0-1.0-1.0"}}, {"uniqueid": "w78561753:a25198380", "current_trial": 17, "dateTime": 1693567311761, "trialdata": {"revealed_states": [], "clicked_states": ["27"], "num_clicks_accrued": [0, 0, 0, 0, 0, 0, 0, 0, 0, 0, 0, 0, 0], "stateRewards": ["", -2, -3, -3, 9, 79, 67, 22, -15, -56, 27, -85, -2, 4, -4, -15, -20, -32, 60, 15, 71, 57, 17, 1, 2, -8, 15, -37, -81, 82, 15, 21, -3, 2], "withholdReward": false, "trial_id": "mdp_trial_3", "block": "test", "trialIndex": 6, "score": 5.6, "costs": -1.4, "simulationMode": [null, null, null, null, null], "rewards": [1, 2, -8, 15, -3], "path": ["0", "0", "23", "24", "25", "30", "32"], "rt": [3833, 76, 254, 20, 100], "actions": ["left", "left", "left", "down", "down"], "actionTimes": [5393, 5967, 6728, 7247, 7864], "queries": {"click": {"state": {"target": ["27"], "time": [3064]}, "edge": {"target": [], "time": []}}, "mouseover": {"state": {"target": ["23", "24", "26", "27", "28", "23", "0"], "time": [2144, 2192, 2579, 2812, 3696, 3746, 3780]}, "edge": {"target": [], "time": []}}, "mouseout": {"state": {"target": ["23", "23", "24", "26", "27", "28", "23", "0", "24"], "time": [1137, 2174, 2233, 2729, 3646, 3713, 3764, 3797, 10589]}, "edge": {"target": [], "time": []}}}, "displayed_time": "15.56", "trialTime": 16808, "trial_type": "mouselab-mdp", "trial_index": 17, "time_elapsed": 2827812, "internal_node_id": "0.0-6.0-1.0-2.0"}}, {"uniqueid": "w78561753:a25198380", "current_trial": 18, "dateTime": 1693567328615, "trialdata": {"revealed_states": [], "clicked_states": [], "num_clicks_accrued": [0, 0, 0, 0, 0, 0, 0, 0, 0, 0, 0, 0, 0], "stateRewards": ["", -1, 3, 8, 9, -53, 20, -84, 2, -28, -62, -31, -1, -2, -7, 2, 51, 58, 45, -4, -17, -41, 36, 2, -2, -7, -15, 29, -54, -37, -16, -43, 65, -17], "withholdReward": false, "trial_id": "mdp_trial_4", "block": "test", "trialIndex": 7, "score": -65, "costs": 0, "simulationMode": [null, null, null, null, null], "rewards": [-1, 3, 8, 9, -84], "path": ["0", "0", "1", "2", "3", "4", "7"], "rt": [3046, 532, 151, 68, 36], "actions": ["up", "up", "up", "right", "down"], "actionTimes": [4637, 5676, 6332, 6899, 7435], "queries": {"click": {"state": {"target": [], "time": []}, "edge": {"target": [], "time": []}}, "mouseover": {"state": {"target": [], "time": []}, "edge": {"target": [], "time": []}}, "mouseout": {"state": {"target": ["0"], "time": [8923]}, "edge": {"target": [], "time": []}}}, "displayed_time": "15.59", "trialTime": 16491, "trial_type": "mouselab-mdp", "trial_index": 18, "time_elapsed": 2844666, "internal_node_id": "0.0-6.0-1.0-3.0"}}, {"uniqueid": "w78561753:a25198380", "current_trial": 19, "dateTime": 1693567350409, "trialdata": {"revealed_states": [], "clicked_states": [], "num_clicks_accrued": [0, 0, 0, 0, 0, 0, 0, 0, 0, 0, 0, 0, 0], "stateRewards": ["", 2, -1, -1, 7, 11, -40, -22, -2, 69, 37, 8, -2, 4, -8, -12, -2, -72, -3, -12, 17, 63, 12, 1, 3, -7, 6, 25, 61, 61, -9, 28, -17, 27], "withholdReward": false, "trial_id": "mdp_trial_5", "block": "test", "trialIndex": 8, "score": -21, "costs": 0, "simulationMode": [null, null, null, null, null], "rewards": [-2, 4, -8, -12, -3], "path": ["0", "0", "12", "13", "14", "15", "18"], "rt": [1318, 348, 51, 29, 119], "actions": ["right", "right", "right", "up", "left"], "actionTimes": [2590, 3446, 4006, 4549, 5190], "queries": {"click": {"state": {"target": [], "time": []}, "edge": {"target": [], "time": []}}, "mouseover": {"state": {"target": [], "time": []}, "edge": {"target": [], "time": []}}, "mouseout": {"state": {"target": ["0", "30", "25"], "time": [6776, 10122, 12245]}, "edge": {"target": [], "time": []}}}, "displayed_time": "15.28", "trialTime": 21455, "trial_type": "mouselab-mdp", "trial_index": 19, "time_elapsed": 2866460, "internal_node_id": "0.0-6.0-1.0-4.0"}}, {"uniqueid": "w78561753:a25198380", "current_trial": 20, "dateTime": 1693567367905, "trialdata": {"revealed_states": [], "clicked_states": [], "num_clicks_accrued": [0, 0, 0, 0, 0, 0, 0, 0, 0, 0, 0, 0, 0], "stateRewards": ["", -2, -3, 8, 14, -73, 73, 84, -12, -2, -50, -17, 2, 1, -2, -9, -44, -27, -33, 16, -63, -47, -66, -2, 1, 4, -5, -33, -11, 50, 9, 38, -79, 31], "withholdReward": false, "trial_id": "mdp_trial_6", "block": "test", "trialIndex": 9, "score": 48, "costs": 0, "simulationMode": [null, null, null, null, null], "rewards": [-2, 1, 4, -5, 50], "path": ["0", "0", "23", "24", "25", "26", "29"], "rt": [2883, 108, 98, 17, 42], "actions": ["left", "left", "left", "up", "left"], "actionTimes": [4422, 5037, 5628, 6148, 6692], "queries": {"click": {"state": {"target": [], "time": []}, "edge": {"target": [], "time": []}}, "mouseover": {"state": {"target": ["23", "24", "25", "26"], "time": [2085, 2202, 3203, 3404]}, "edge": {"target": [], "time": []}}, "mouseout": {"state": {"target": ["25", "24", "23", "0", "23", "24", "25", "26", "23"], "time": [832, 857, 1130, 2052, 2136, 3073, 3270, 7621, 7788]}, "edge": {"target": [], "time": []}}}, "displayed_time": "15.54", "trialTime": 17165, "trial_type": "mouselab-mdp", "trial_index": 20, "time_elapsed": 2883956, "internal_node_id": "0.0-6.0-1.0-5.0"}}, {"uniqueid": "w78561753:a25198380", "current_trial": 21, "dateTime": 1693567387489, "trialdata": {"revealed_states": [], "clicked_states": [], "num_clicks_accrued": [0, 0, 0, 0, 0, 0, 0, 0, 0, 0, 0, 0, 0], "stateRewards": ["", -1, 4, -5, 9, 29, -75, -42, -16, 24, -28, -41, 2, -3, 1, 10, 60, 47, 55, -1, -53, 22, -40, 2, -3, -6, 4, -26, 44, 54, 15, -76, 42, 14], "withholdReward": false, "trial_id": "mdp_trial_7", "block": "test", "trialIndex": 10, "score": 41, "costs": 0, "simulationMode": [null, null, null, null, null], "rewards": [2, -3, -6, 4, 44], "path": ["0", "0", "23", "24", "25", "26", "28"], "rt": [1907, 68, 59, 58, 18], "actions": ["left", "left", "left", "up", "right"], "actionTimes": [3179, 3746, 4307, 4874, 5402], "queries": {"click": {"state": {"target": [], "time": []}, "edge": {"target": [], "time": []}}, "mouseover": {"state": {"target": ["23", "24"], "time": [1807, 1858]}, "edge": {"target": [], "time": []}}, "mouseout": {"state": {"target": ["0", "23", "24"], "time": [1774, 1840, 7794]}, "edge": {"target": [], "time": []}}}, "displayed_time": "15.28", "trialTime": 19243, "trial_type": "mouselab-mdp", "trial_index": 21, "time_elapsed": 2903540, "internal_node_id": "0.0-6.0-1.0-6.0"}}, {"uniqueid": "w78561753:a25198380", "current_trial": 22, "dateTime": 1693567406184, "trialdata": {"revealed_states": [], "clicked_states": [], "num_clicks_accrued": [0, 0, 0, 0, 0, 0, 0, 0, 0, 0, 0, 0, 0], "stateRewards": ["", -1, -3, 1, -4, -48, -63, -49, -2, -84, -19, 65, 2, -2, -2, -12, -4, 59, 9, 6, 75, 69, -13, -1, -3, -3, -2, -37, -68, -36, 13, 32, 18, -14], "withholdReward": false, "trial_id": "mdp_trial_8", "block": "test", "trialIndex": 11, "score": 24, "costs": 0, "simulationMode": [null, null, null, null, null], "rewards": [-1, -3, -3, 13, 18], "path": ["0", "0", "23", "24", "25", "30", "32"], "rt": [1469, 479, 93, 60, 76], "actions": ["left", "left", "left", "down", "down"], "actionTimes": [2965, 3957, 4557, 5124, 5709], "queries": {"click": {"state": {"target": [], "time": []}, "edge": {"target": [], "time": []}}, "mouseover": {"state": {"target": [], "time": []}, "edge": {"target": [], "time": []}}, "mouseout": {"state": {"target": ["24", "23", "0", "0", "31"], "time": [830, 1081, 3155, 7154, 8191]}, "edge": {"target": [], "time": []}}}, "displayed_time": "15.50", "trialTime": 18333, "trial_type": "mouselab-mdp", "trial_index": 22, "time_elapsed": 2922235, "internal_node_id": "0.0-6.0-1.0-7.0"}}, {"uniqueid": "w78561753:a25198380", "current_trial": 23, "dateTime": 1693567423326, "trialdata": {"revealed_states": [], "clicked_states": [], "num_clicks_accrued": [0, 0, 0, 0, 0, 0, 0, 0, 0, 0, 0, 0, 0], "stateRewards": ["", 2, -1, 5, 6, 10, 86, 55, 10, -45, 63, -71, 1, -2, 5, -8, -50, -72, 36, 15, 61, 12, 33, -1, -4, 6, 5, 79, -56, -21, -16, -87, 60, -81], "withholdReward": false, "trial_id": "mdp_trial_9", "block": "test", "trialIndex": 12, "score": 45, "costs": 0, "simulationMode": [null, null, null, null, null], "rewards": [-1, -4, 6, -16, 60], "path": ["0", "0", "23", "24", "25", "30", "32"], "rt": [1090, 867, 144, 2, 77], "actions": ["left", "left", "left", "down", "down"], "actionTimes": [2339, 3707, 4355, 4865, 5459], "queries": {"click": {"state": {"target": [], "time": []}, "edge": {"target": [], "time": []}}, "mouseover": {"state": {"target": [], "time": []}, "edge": {"target": [], "time": []}}, "mouseout": {"state": {"target": ["24", "23", "0"], "time": [530, 614, 7921]}, "edge": {"target": [], "time": []}}}, "displayed_time": "15.25", "trialTime": 16795, "trial_type": "mouselab-mdp", "trial_index": 23, "time_elapsed": 2939378, "internal_node_id": "0.0-6.0-1.0-8.0"}}, {"uniqueid": "w78561753:a25198380", "current_trial": 24, "dateTime": 1693567441272, "trialdata": {"revealed_states": [], "clicked_states": [], "num_clicks_accrued": [0, 0, 0, 0, 0, 0, 0, 0, 0, 0, 0, 0, 0], "stateRewards": ["", 1, 1, -3, 2, 22, -25, -11, -5, 50, 49, 3, 1, -1, 8, 14, -85, -30, 57, -6, -39, -16, 59, -2, -1, 5, 5, 59, -16, 8, 4, 67, 56, -9], "withholdReward": false, "trial_id": "mdp_trial_10", "block": "test", "trialIndex": 13, "score": 61, "costs": 0, "simulationMode": [null, null, null, null, null], "rewards": [1, -1, 8, -6, 59], "path": ["0", "0", "12", "13", "14", "19", "22"], "rt": [1001, 176, 2, 62, 158], "actions": ["right", "right", "right", "down", "left"], "actionTimes": [2730, 3410, 3921, 4497, 5162], "queries": {"click": {"state": {"target": [], "time": []}, "edge": {"target": [], "time": []}}, "mouseover": {"state": {"target": [], "time": []}, "edge": {"target": [], "time": []}}, "mouseout": {"state": {"target": ["0", "0"], "time": [1305, 15274]}, "edge": {"target": [], "time": []}}}, "displayed_time": "15.73", "trialTime": 17586, "trial_type": "mouselab-mdp", "trial_index": 24, "time_elapsed": 2957323, "internal_node_id": "0.0-6.0-1.0-9.0"}}, {"uniqueid": "w78561753:a25198380", "current_trial": 25, "dateTime": 1693567458432, "trialdata": {"revealed_states": [], "clicked_states": [], "num_clicks_accrued": [0, 0, 0, 0, 0, 0, 0, 0, 0, 0, 0, 0, 0], "stateRewards": ["", -1, -4, 8, 8, -68, 47, 24, -7, -61, 49, -69, -1, -1, 8, -7, 42, 1, -45, -11, 10, -63, -6, 1, 4, 6, -16, 79, -37, -58, -12, 81, 18, -53], "withholdReward": false, "trial_id": "mdp_trial_11", "block": "test", "trialIndex": 14, "score": 5, "costs": 0, "simulationMode": [null, null, null, null, null], "rewards": [-1, -1, 8, -11, 10], "path": ["0", "0", "12", "13", "14", "19", "20"], "rt": [900, 143, 251, 57, 329], "actions": ["right", "right", "right", "down", "right"], "actionTimes": [2048, 2688, 3448, 4007, 4848], "queries": {"click": {"state": {"target": [], "time": []}, "edge": {"target": [], "time": []}}, "mouseover": {"state": {"target": [], "time": []}, "edge": {"target": [], "time": []}}, "mouseout": {"state": {"target": ["0", "0"], "time": [887, 14203]}, "edge": {"target": [], "time": []}}}, "displayed_time": "15.15", "trialTime": 16816, "trial_type": "mouselab-mdp", "trial_index": 25, "time_elapsed": 2974483, "internal_node_id": "0.0-6.0-1.0-10.0"}}, {"uniqueid": "w78561753:a25198380", "current_trial": 26, "dateTime": 1693567475944, "trialdata": {"revealed_states": [], "clicked_states": [], "num_clicks_accrued": [0, 0, 0, 0, 0, 0, 0, 0, 0, 0, 0, 0, 0], "stateRewards": ["", -1, 2, -7, -12, -62, 12, -13, 5, 77, -71, 83, 1, -4, 7, 15, -42, -87, -4, 5, -25, 44, 88, -1, 4, -5, -8, 14, 51, 8, -5, 83, -24, -19], "withholdReward": false, "trial_id": "mdp_trial_12", "block": "test", "trialIndex": 15, "score": 97, "costs": 0, "simulationMode": [null, null, null, null, null], "rewards": [1, -4, 7, 5, 88], "path": ["0", "0", "12", "13", "14", "19", "22"], "rt": [1602, 679, 2157, 42, 3347], "actions": ["right", "right", "right", "down", "left"], "actionTimes": [2679, 3871, 6535, 7079, 10950], "queries": {"click": {"state": {"target": [], "time": []}, "edge": {"target": [], "time": []}}, "mouseover": {"state": {"target": [], "time": []}, "edge": {"target": [], "time": []}}, "mouseout": {"state": {"target": ["0", "0"], "time": [822, 16590]}, "edge": {"target": [], "time": []}}}, "displayed_time": "15.08", "trialTime": 17159, "trial_type": "mouselab-mdp", "trial_index": 26, "time_elapsed": 2991995, "internal_node_id": "0.0-6.0-1.0-11.0"}}, {"uniqueid": "w78561753:a25198380", "current_trial": 27, "dateTime": 1693567495694, "trialdata": {"revealed_states": [], "clicked_states": [], "num_clicks_accrued": [0, 0, 0, 0, 0, 0, 0, 0, 0, 0, 0, 0, 0], "stateRewards": ["", -2, 1, -8, 12, -65, -79, 16, 7, -80, -17, -45, -2, 2, -5, -2, -85, 23, -4, -7, 48, 27, -76, 2, 3, 5, 2, 43, 71, -13, 7, -49, 59, -31], "withholdReward": false, "trial_id": "mdp_trial_13", "block": "test", "trialIndex": 16, "score": -14, "costs": 0, "simulationMode": [null, null, null, null, null], "rewards": [2, 3, 5, 7, -31], "path": ["0", "0", "23", "24", "25", "30", "33"], "rt": [3234, 31, 232, 506, 165], "actions": ["left", "left", "left", "down", "left"], "actionTimes": [4417, 4944, 5680, 6689, 7353], "queries": {"click": {"state": {"target": [], "time": []}, "edge": {"target": [], "time": []}}, "mouseover": {"state": {"target": [], "time": []}, "edge": {"target": [], "time": []}}, "mouseout": {"state": {"target": ["12", "0"], "time": [629, 10098]}, "edge": {"target": [], "time": []}}}, "displayed_time": "15.19", "trialTime": 19401, "trial_type": "mouselab-mdp", "trial_index": 27, "time_elapsed": 3011746, "internal_node_id": "0.0-6.0-1.0-12.0"}}, {"uniqueid": "w78561753:a25198380", "current_trial": 28, "dateTime": 1693567512472, "trialdata": {"revealed_states": [], "clicked_states": [], "num_clicks_accrued": [0, 0, 0, 0, 0, 0, 0, 0, 0, 0, 0, 0, 0], "stateRewards": ["", 2, -1, -1, -9, -81, -30, 55, -6, 78, 25, 62, 2, 4, -1, 9, -85, 1, -19, 1, -60, 12, -34, 1, 4, -1, -13, -24, -16, -83, -8, 16, 43, 9], "withholdReward": false, "trial_id": "mdp_trial_14", "block": "test", "trialIndex": 17, "score": -5, "costs": 0, "simulationMode": [null, null, null, null, null], "rewards": [2, 4, -1, 9, -19], "path": ["0", "0", "12", "13", "14", "15", "18"], "rt": [2434, 301, 170, 61, 54], "actions": ["right", "right", "right", "up", "left"], "actionTimes": [3325, 4132, 4804, 5364, 5923], "queries": {"click": {"state": {"target": [], "time": []}, "edge": {"target": [], "time": []}}, "mouseover": {"state": {"target": [], "time": []}, "edge": {"target": [], "time": []}}, "mouseout": {"state": {"target": ["0", "0", "22", "13", "13", "12"], "time": [643, 9512, 15520, 15688, 15955, 16206]}, "edge": {"target": [], "time": []}}}, "displayed_time": "14.89", "trialTime": 16428, "trial_type": "mouselab-mdp", "trial_index": 28, "time_elapsed": 3028523, "internal_node_id": "0.0-6.0-1.0-13.0"}}, {"uniqueid": "w78561753:a25198380", "current_trial": 29, "dateTime": 1693567528902, "trialdata": {"revealed_states": [], "clicked_states": [], "num_clicks_accrued": [0, 0, 0, 0, 0, 0, 0, 0, 0, 0, 0, 0, 0], "stateRewards": ["", -2, 4, -5, -12, 85, -24, -18, -15, -78, -22, 26, -1, -1, 2, 14, -45, 52, -23, 7, -33, 24, -6, -2, -4, 5, -7, -16, 36, -39, 5, 71, -87, -23], "withholdReward": false, "trial_id": "mdp_trial_15", "block": "test", "trialIndex": 18, "score": 8, "costs": 0, "simulationMode": [null, null, null, null, null], "rewards": [-2, 4, -5, -15, 26], "path": ["0", "0", "1", "2", "3", "8", "11"], "rt": [856, 412, 223, 519, 11], "actions": ["up", "up", "up", "left", "left"], "actionTimes": [2051, 2970, 3699, 4715, 5227], "queries": {"click": {"state": {"target": [], "time": []}, "edge": {"target": [], "time": []}}, "mouseover": {"state": {"target": [], "time": []}, "edge": {"target": [], "time": []}}, "mouseout": {"state": {"target": ["0", "25", "23", "0"], "time": [10451, 11923, 12006, 12023]}, "edge": {"target": [], "time": []}}}, "displayed_time": "15.20", "trialTime": 16082, "trial_type": "mouselab-mdp", "trial_index": 29, "time_elapsed": 3044953, "internal_node_id": "0.0-6.0-1.0-14.0"}}, {"uniqueid": "w78561753:a25198380", "current_trial": 30, "dateTime": 1693567547064, "trialdata": {"revealed_states": [], "clicked_states": [], "num_clicks_accrued": [0, 0, 0, 0, 0, 0, 0, 0, 0, 0, 0, 0, 0], "stateRewards": ["", 2, -4, -8, -15, 71, -43, -41, 7, -17, 20, 67, -1, -1, -4, 6, 37, -24, -47, 9, 34, 57, 45, 1, 2, -4, -5, -23, 88, -5, 13, -40, 43, 44], "withholdReward": false, "trial_id": "mdp_trial_16", "block": "test", "trialIndex": 19, "score": -11, "costs": 0, "simulationMode": [null, null, null, null, null], "rewards": [1, 2, -4, -5, -5], "path": ["0", "0", "23", "24", "25", "26", "29"], "rt": [2567, 360, 419, 85, 722], "actions": ["left", "left", "left", "up", "left"], "actionTimes": [3614, 4484, 5412, 5997, 7221], "queries": {"click": {"state": {"target": [], "time": []}, "edge": {"target": [], "time": []}}, "mouseover": {"state": {"target": ["1"], "time": [1714]}, "edge": {"target": [], "time": []}}, "mouseout": {"state": {"target": ["0", "0", "0", "1"], "time": [70, 391, 659, 10226]}, "edge": {"target": [], "time": []}}}, "displayed_time": "15.05", "trialTime": 17829, "trial_type": "mouselab-mdp", "trial_index": 30, "time_elapsed": 3063115, "internal_node_id": "0.0-6.0-1.0-15.0"}}, {"uniqueid": "w78561753:a25198380", "current_trial": 31, "dateTime": 1693567564125, "trialdata": {"revealed_states": [], "clicked_states": ["3"], "num_clicks_accrued": [0, 0, 0, 0, 0, 0, 0, 0, 0, 0, 0, 0, 0], "stateRewards": ["", -1, 2, -6, 6, -82, -19, -39, -16, -83, 11, -33, -2, -2, 4, -6, -82, -1, -19, -6, -10, -67, -41, -2, 1, -7, 16, -23, -78, -52, 14, 31, -71, 74], "withholdReward": false, "trial_id": "mdp_trial_17", "block": "test", "trialIndex": 20, "score": -39.4, "costs": -1.4, "simulationMode": [null, null, null, null, null], "rewards": [-1, 2, -6, 6, -39], "path": ["0", "0", "1", "2", "3", "4", "7"], "rt": [4674, 20, 172, 578, 57], "actions": ["up", "up", "up", "right", "down"], "actionTimes": [6385, 6910, 7591, 8671, 9238], "queries": {"click": {"state": {"target": ["3"], "time": [2655]}, "edge": {"target": [], "time": []}}, "mouseover": {"state": {"target": ["10", "3", "2", "1", "12", "15"], "time": [2207, 2506, 3124, 3224, 5251, 5498]}, "edge": {"target": [], "time": []}}, "mouseout": {"state": {"target": ["0", "10", "3", "2", "1", "12", "15", "14", "22"], "time": [1368, 2224, 3074, 3207, 3275, 5299, 12041, 12392, 12472]}, "edge": {"target": [], "time": []}}}, "displayed_time": "15.71", "trialTime": 16702, "trial_type": "mouselab-mdp", "trial_index": 31, "time_elapsed": 3080177, "internal_node_id": "0.0-6.0-1.0-16.0"}}, {"uniqueid": "w78561753:a25198380", "current_trial": 32, "dateTime": 1693567581341, "trialdata": {"revealed_states": [], "clicked_states": ["32"], "num_clicks_accrued": [0, 0, 0, 0, 0, 0, 0, 0, 0, 0, 0, 0, 0], "stateRewards": ["", 1, -3, 4, 13, -72, 52, 5, 5, -58, 5, 14, 2, 1, 3, -14, -86, -4, 73, 6, -58, -50, 49, 2, -3, -4, 2, 33, -41, 42, -11, 81, 45, 53], "withholdReward": false, "trial_id": "mdp_trial_18", "block": "test", "trialIndex": 21, "score": 27.6, "costs": -1.4, "simulationMode": [null, null, null, null, null], "rewards": [2, -3, -4, -11, 45], "path": ["0", "0", "23", "24", "25", "30", "32"], "rt": [4913, 37, 199, 15, 529], "actions": ["left", "left", "left", "down", "down"], "actionTimes": [6054, 6598, 7310, 7830, 8879], "queries": {"click": {"state": {"target": ["32"], "time": [3208]}, "edge": {"target": [], "time": []}}, "mouseover": {"state": {"target": ["28", "25", "26", "30", "32"], "time": [2061, 2312, 2578, 2881, 2998]}, "edge": {"target": [], "time": []}}, "mouseout": {"state": {"target": ["0", "28", "25", "26", "30", "32"], "time": [1694, 2145, 2360, 2764, 2931, 4150]}, "edge": {"target": [], "time": []}}}, "displayed_time": "15.14", "trialTime": 16814, "trial_type": "mouselab-mdp", "trial_index": 32, "time_elapsed": 3097393, "internal_node_id": "0.0-6.0-1.0-17.0"}}, {"uniqueid": "w78561753:a25198380", "current_trial": 33, "dateTime": 1693567598615, "trialdata": {"revealed_states": [], "clicked_states": ["17"], "num_clicks_accrued": [0, 0, 0, 0, 0, 0, 0, 0, 0, 0, 0, 0, 0], "stateRewards": ["", 1, 1, 6, -14, -40, 37, 16, -13, 33, -68, 49, 2, 4, 3, 6, 55, 27, 32, 10, -65, 20, -87, 2, 1, -6, -5, -42, 12, 29, -8, 16, 76, -33], "withholdReward": false, "trial_id": "mdp_trial_19", "block": "test", "trialIndex": 22, "score": 40.6, "costs": -1.4, "simulationMode": [null, null, null, null, null], "rewards": [2, 4, 3, 6, 27], "path": ["0", "0", "12", "13", "14", "15", "17"], "rt": [3600, 3, 101, 26, 18], "actions": ["right", "right", "right", "up", "right"], "actionTimes": [5017, 5528, 6143, 6671, 7199], "queries": {"click": {"state": {"target": ["17"], "time": [2209]}, "edge": {"target": [], "time": []}}, "mouseover": {"state": {"target": ["17", "14"], "time": [1862, 2888]}, "edge": {"target": [], "time": []}}, "mouseout": {"state": {"target": ["0", "17", "14"], "time": [1611, 2864, 2903]}, "edge": {"target": [], "time": []}}}, "displayed_time": "15.42", "trialTime": 16927, "trial_type": "mouselab-mdp", "trial_index": 33, "time_elapsed": 3114666, "internal_node_id": "0.0-6.0-1.0-18.0"}}, {"uniqueid": "w78561753:a25198380", "current_trial": 34, "dateTime": 1693567615669, "trialdata": {"revealed_states": [], "clicked_states": ["11"], "num_clicks_accrued": [0, 0, 0, 0, 0, 0, 0, 0, 0, 0, 0, 0, 0], "stateRewards": ["", -1, 1, 8, -3, -24, 11, -65, -6, -77, 48, 44, -2, 1, -2, -7, -55, -35, 33, 8, -28, 19, -53, -1, -1, -5, -5, -70, 10, 44, 8, -58, -70, 51], "withholdReward": false, "trial_id": "mdp_trial_20", "block": "test", "trialIndex": 23, "score": 44.6, "costs": -1.4, "simulationMode": [null, null, null, null, null], "rewards": [-1, 1, 8, -6, 44], "path": ["0", "0", "1", "2", "3", "8", "11"], "rt": [5157, 234, 286, 916, 78], "actions": ["up", "up", "up", "left", "left"], "actionTimes": [6685, 7419, 8203, 9619, 10203], "queries": {"click": {"state": {"target": ["11"], "time": [4052]}, "edge": {"target": [], "time": []}}, "mouseover": {"state": {"target": ["12", "1", "10", "8", "11", "10"], "time": [2161, 2565, 2649, 3084, 3232, 4655]}, "edge": {"target": [], "time": []}}, "mouseout": {"state": {"target": ["0", "12", "1", "10", "8", "11", "10", "0", "23"], "time": [2115, 2178, 2596, 2833, 3117, 4587, 4771, 12564, 16377]}, "edge": {"target": [], "time": []}}}, "displayed_time": "15.53", "trialTime": 16707, "trial_type": "mouselab-mdp", "trial_index": 34, "time_elapsed": 3131721, "internal_node_id": "0.0-6.0-1.0-19.0"}}, {"uniqueid": "w78561753:a25198380", "current_trial": 35, "dateTime": 1693567632575, "trialdata": {"revealed_states": [], "clicked_states": [], "num_clicks_accrued": [0, 0, 0, 0, 0, 0, 0, 0, 0, 0, 0, 0, 0], "stateRewards": ["", 2, -4, 1, -12, -59, -53, -74, 16, -88, -66, 66, 1, -2, 8, -9, -14, 22, 25, -1, -39, 47, -14, -1, -1, -2, 1, -4, 52, -26, 15, -7, 46, 43], "withholdReward": false, "trial_id": "mdp_trial_21", "block": "test", "trialIndex": 24, "score": -29, "costs": 0, "simulationMode": [null, null, null, null, null], "rewards": [-1, -1, -2, 1, -26], "path": ["0", "0", "23", "24", "25", "26", "29"], "rt": [1465, 367, 154, 135, 118], "actions": ["left", "left", "left", "up", "left"], "actionTimes": [2827, 3690, 4346, 4978, 5602], "queries": {"click": {"state": {"target": [], "time": []}, "edge": {"target": [], "time": []}}, "mouseover": {"state": {"target": ["0"], "time": [1700]}, "edge": {"target": [], "time": []}}, "mouseout": {"state": {"target": ["1", "12", "0"], "time": [676, 844, 7270]}, "edge": {"target": [], "time": []}}}, "displayed_time": "15.36", "trialTime": 16522, "trial_type": "mouselab-mdp", "trial_index": 35, "time_elapsed": 3148626, "internal_node_id": "0.0-6.0-1.0-20.0"}}, {"uniqueid": "w78561753:a25198380", "current_trial": 36, "dateTime": 1693567650125, "trialdata": {"revealed_states": [], "clicked_states": [], "num_clicks_accrued": [0, 0, 0, 0, 0, 0, 0, 0, 0, 0, 0, 0, 0], "stateRewards": ["", -1, -1, 7, -15, -43, -21, -84, -9, -45, -66, 2, 1, -2, 2, 8, -27, 44, -52, -5, -84, 11, 53, 1, 4, -4, 16, 83, -82, -15, -16, 68, -43, 81], "withholdReward": false, "trial_id": "mdp_trial_22", "block": "test", "trialIndex": 25, "score": -43, "costs": 0, "simulationMode": [null, null, null, null, null], "rewards": [1, -2, 2, 8, -52], "path": ["0", "0", "12", "13", "14", "15", "18"], "rt": [1748, 221, 945, 506, 294], "actions": ["right", "right", "right", "up", "left"], "actionTimes": [3102, 3830, 5270, 6270, 7062], "queries": {"click": {"state": {"target": [], "time": []}, "edge": {"target": [], "time": []}}, "mouseover": {"state": {"target": [], "time": []}, "edge": {"target": [], "time": []}}, "mouseout": {"state": {"target": ["0", "12", "12"], "time": [8541, 16466, 16700]}, "edge": {"target": [], "time": []}}}, "displayed_time": "15.36", "trialTime": 17182, "trial_type": "mouselab-mdp", "trial_index": 36, "time_elapsed": 3166177, "internal_node_id": "0.0-6.0-1.0-21.0"}}, {"uniqueid": "w78561753:a25198380", "current_trial": 37, "dateTime": 1693567667319, "trialdata": {"revealed_states": [], "clicked_states": ["21"], "num_clicks_accrued": [0, 0, 0, 0, 0, 0, 0, 0, 0, 0, 0, 0, 0], "stateRewards": ["", 2, 3, -3, 4, 72, -28, 34, -12, 57, -64, -15, 2, 1, -4, -15, 2, 49, 31, -1, -42, -58, 31, -2, 1, -2, -13, -75, -19, -22, -6, 61, 10, -56], "withholdReward": false, "trial_id": "mdp_trial_23", "block": "test", "trialIndex": 26, "score": -39.4, "costs": -1.4, "simulationMode": [null, null, null, null, null], "rewards": [-2, 1, -2, -13, -22], "path": ["0", "0", "23", "24", "25", "26", "29"], "rt": [4682, 3, 322, 69, 4], "actions": ["left", "left", "left", "up", "left"], "actionTimes": [6165, 6668, 7509, 8085, 8588], "queries": {"click": {"state": {"target": ["21"], "time": [2597]}, "edge": {"target": [], "time": []}}, "mouseover": {"state": {"target": ["12", "22", "21"], "time": [2008, 2075, 2460]}, "edge": {"target": [], "time": []}}, "mouseout": {"state": {"target": ["12", "22", "21", "22", "22"], "time": [2025, 2109, 2651, 11795, 16196]}, "edge": {"target": [], "time": []}}}, "displayed_time": "15.48", "trialTime": 16789, "trial_type": "mouselab-mdp", "trial_index": 37, "time_elapsed": 3183370, "internal_node_id": "0.0-6.0-1.0-22.0"}}, {"uniqueid": "w78561753:a25198380", "current_trial": 38, "dateTime": 1693567697575, "trialdata": {"revealed_states": [], "clicked_states": ["28"], "num_clicks_accrued": [0, 0, 0, 0, 0, 0, 0, 0, 0, 0, 0, 0, 0], "stateRewards": ["", 2, -4, -4, 13, -80, 62, 13, -11, 57, -13, -44, 1, 4, 3, -4, -29, -88, 15, 16, -58, 68, -45, -1, -3, -1, -9, -44, -86, -19, -7, -36, 59, 66], "withholdReward": false, "trial_id": "mdp_trial_24", "block": "test", "trialIndex": 27, "score": -85.4, "costs": -1.4, "simulationMode": [null, null, null, null, null], "rewards": [1, 4, 3, -4, -88], "path": ["0", "0", "12", "13", "14", "15", "17"], "rt": [4406, 125, 370, 12, 53], "actions": ["right", "right", "right", "up", "right"], "actionTimes": [5659, 6281, 7145, 7656, 8232], "queries": {"click": {"state": {"target": ["28"], "time": [2353]}, "edge": {"target": [], "time": []}}, "mouseover": {"state": {"target": ["23", "24", "25", "26", "28", "23"], "time": [1723, 1747, 1788, 1992, 2192, 2909]}, "edge": {"target": [], "time": []}}, "mouseout": {"state": {"target": ["23", "23", "24", "25", "26", "28", "23", "23", "0"], "time": [636, 1740, 1771, 1874, 2056, 2826, 2984, 9418, 28401]}, "edge": {"target": [], "time": []}}}, "displayed_time": "15.25", "trialTime": 29865, "trial_type": "mouselab-mdp", "trial_index": 38, "time_elapsed": 3213626, "internal_node_id": "0.0-6.0-1.0-23.0"}}, {"uniqueid": "w78561753:a25198380", "current_trial": 39, "dateTime": 1693567715406, "trialdata": {"revealed_states": [], "clicked_states": ["9"], "num_clicks_accrued": [0, 0, 0, 0, 0, 0, 0, 0, 0, 0, 0, 0, 0], "stateRewards": ["", 1, -2, -2, 10, -31, -77, 35, 9, -47, 8, 48, -2, 1, -4, -3, -26, -50, 43, -11, 76, -38, 17, 1, -1, 6, 10, 15, -9, 12, -8, 85, 11, -55], "withholdReward": false, "trial_id": "mdp_trial_25", "block": "test", "trialIndex": 28, "score": 81.6, "costs": -1.4, "simulationMode": [null, null, null, null, null], "rewards": [1, -1, 6, -8, 85], "path": ["0", "0", "23", "24", "25", "30", "31"], "rt": [4746, 106, 672, 77, 591], "actions": ["left", "left", "left", "down", "right"], "actionTimes": [5708, 6315, 7483, 8059, 9163], "queries": {"click": {"state": {"target": ["9"], "time": [2300]}, "edge": {"target": [], "time": []}}, "mouseover": {"state": {"target": ["1", "2", "3", "8", "9", "8", "1"], "time": [1493, 1541, 1640, 1791, 2074, 2744, 2996]}, "edge": {"target": [], "time": []}}, "mouseout": {"state": {"target": ["1", "1", "2", "3", "8", "9", "8", "1", "0"], "time": [387, 1526, 1606, 1743, 1808, 2711, 2795, 4617, 10421]}, "edge": {"target": [], "time": []}}}, "displayed_time": "14.96", "trialTime": 17443, "trial_type": "mouselab-mdp", "trial_index": 39, "time_elapsed": 3231457, "internal_node_id": "0.0-6.0-1.0-24.0"}}, {"uniqueid": "w78561753:a25198380", "current_trial": 40, "dateTime": 1693567756086, "trialdata": {"revealed_states": [], "clicked_states": ["7"], "num_clicks_accrued": [0, 0, 0, 0, 0, 0, 0, 0, 0, 0, 0, 0, 0], "stateRewards": ["", -2, -4, 6, 14, -34, 49, 36, -8, -3, 32, -4, 1, -2, 1, -8, -20, -71, -57, -7, -86, -62, -16, -2, -3, -5, 11, 23, -21, 53, 5, -5, 85, 73], "withholdReward": false, "trial_id": "mdp_trial_26", "block": "test", "trialIndex": 29, "score": 48.6, "costs": -1.4, "simulationMode": [null, null, null, null, null], "rewards": [-2, -4, 6, 14, 36], "path": ["0", "0", "1", "2", "3", "4", "7"], "rt": [3484, 37, 51, 74, 55], "actions": ["up", "up", "up", "right", "down"], "actionTimes": [4442, 4987, 5553, 6145, 6697], "queries": {"click": {"state": {"target": ["7"], "time": [2090]}, "edge": {"target": [], "time": []}}, "mouseover": {"state": {"target": ["1", "2", "7"], "time": [1467, 1554, 1906]}, "edge": {"target": [], "time": []}}, "mouseout": {"state": {"target": ["0", "1", "2", "7", "12", "23", "1", "2", "7", "2", "3", "2", "7", "12", "0", "28", "10", "1", "31", "30", "31", "29", "27", "8", "4", "2", "1", "0", "28", "8", "9", "11", "10", "27", "29", "33", "32", "32", "31", "22", "21", "20", "17", "16", "18", "4", "5", "27", "27", "27", "26", "27", "28", "23", "26", "27", "26", "18", "18", "12", "25", "6", "6", "7", "12", "0"], "time": [549, 1501, 1705, 2741, 7991, 8359, 9429, 9868, 10738, 10989, 11222, 11590, 11673, 11757, 11821, 11888, 12009, 12076, 12173, 12259, 14626, 14784, 14932, 14982, 15336, 15536, 15653, 15720, 15855, 16155, 16859, 17192, 17362, 18012, 18397, 18832, 18983, 19150, 19484, 19986, 20236, 20888, 21357, 21658, 21993, 22394, 22595, 24702, 25118, 29687, 30004, 30609, 30674, 30725, 30920, 31877, 32062, 32848, 33584, 33615, 34537, 34637, 36791, 36842, 39571, 39605]}, "edge": {"target": [], "time": []}}}, "displayed_time": "14.96", "trialTime": 40290, "trial_type": "mouselab-mdp", "trial_index": 40, "time_elapsed": 3272137, "internal_node_id": "0.0-6.0-1.0-25.0"}}, {"uniqueid": "w78561753:a25198380", "current_trial": 41, "dateTime": 1693567774790, "trialdata": {"revealed_states": [], "clicked_states": [], "num_clicks_accrued": [0, 0, 0, 0, 0, 0, 0, 0, 0, 0, 0, 0, 0], "stateRewards": ["", -1, -3, -7, -4, -85, -70, 79, 8, 84, -66, 42, 2, -2, -3, -16, -54, -66, 68, -3, 21, -14, 7, -2, -1, -3, -8, 75, 80, 86, -7, -84, 73, -16], "withholdReward": false, "trial_id": "mdp_trial_27", "block": "test", "trialIndex": 30, "score": -100, "costs": 0, "simulationMode": [null, null, null, null, null], "rewards": [-1, -3, -7, -4, -85], "path": ["0", "0", "1", "2", "3", "4", "5"], "rt": [1296, 174, 113, 870, 51], "actions": ["up", "up", "up", "right", "up"], "actionTimes": [2635, 3307, 3923, 5292, 5843], "queries": {"click": {"state": {"target": [], "time": []}, "edge": {"target": [], "time": []}}, "mouseover": {"state": {"target": [], "time": []}, "edge": {"target": [], "time": []}}, "mouseout": {"state": {"target": ["0", "12", "4", "5"], "time": [7923, 8067, 16396, 17015]}, "edge": {"target": [], "time": []}}}, "displayed_time": "15.34", "trialTime": 18324, "trial_type": "mouselab-mdp", "trial_index": 41, "time_elapsed": 3290841, "internal_node_id": "0.0-6.0-1.0-26.0"}}, {"uniqueid": "w78561753:a25198380", "current_trial": 42, "dateTime": 1693567798614, "trialdata": {"revealed_states": [], "clicked_states": ["9"], "num_clicks_accrued": [0, 0, 0, 0, 0, 0, 0, 0, 0, 0, 0, 0, 0], "stateRewards": ["", -2, 4, -7, -3, -76, 39, -28, 10, 14, 12, 60, 2, -3, 6, -10, 88, -34, -41, -3, 72, -13, -56, 1, 3, 2, 8, -51, 23, -57, 1, 14, -46, -16], "withholdReward": false, "trial_id": "mdp_trial_28", "block": "test", "trialIndex": 31, "score": 17.6, "costs": -1.4, "simulationMode": [null, null, null, null, null], "rewards": [-2, 4, -7, 10, 14], "path": ["0", "0", "1", "2", "3", "8", "9"], "rt": [5512, 21, 22, 22, 473], "actions": ["up", "up", "up", "left", "up"], "actionTimes": [6665, 7191, 7726, 8247, 9231], "queries": {"click": {"state": {"target": ["9"], "time": [3296]}, "edge": {"target": [], "time": []}}, "mouseover": {"state": {"target": ["23", "28", "9", "8", "10"], "time": [1550, 1648, 2032, 5766, 5829]}, "edge": {"target": [], "time": []}}, "mouseout": {"state": {"target": ["5", "7", "0", "23", "28", "9", "8", "10", "4", "7", "1", "12", "30"], "time": [395, 445, 727, 1582, 1665, 5748, 5795, 9919, 10349, 10516, 17606, 21885, 22403]}, "edge": {"target": [], "time": []}}}, "displayed_time": "15.15", "trialTime": 23456, "trial_type": "mouselab-mdp", "trial_index": 42, "time_elapsed": 3314665, "internal_node_id": "0.0-6.0-1.0-27.0"}}, {"uniqueid": "w78561753:a25198380", "current_trial": 43, "dateTime": 1693567823750, "trialdata": {"revealed_states": [], "clicked_states": [], "num_clicks_accrued": [0, 0, 0, 0, 0, 0, 0, 0, 0, 0, 0, 0, 0], "stateRewards": ["", -2, 2, 2, -6, 9, 37, 50, -13, -7, -18, -75, -2, -4, 4, 7, 23, -57, -66, -7, -81, -48, -76, 1, 1, -8, 1, 51, -2, 70, 14, 59, 71, -37], "withholdReward": false, "trial_id": "mdp_trial_29", "block": "test", "trialIndex": 32, "score": -52, "costs": 0, "simulationMode": [null, null, null, null, null], "rewards": [-2, -4, 4, 7, -57], "path": ["0", "0", "12", "13", "14", "15", "17"], "rt": [16372, 467, 161, 146, 318], "actions": ["right", "right", "right", "up", "right"], "actionTimes": [18684, 19658, 20322, 20978, 21801], "queries": {"click": {"state": {"target": [], "time": []}, "edge": {"target": [], "time": []}}, "mouseover": {"state": {"target": ["23", "24", "25", "24", "23", "0", "0", "23"], "time": [3032, 3099, 8504, 14708, 14876, 14940, 16849, 16915]}, "edge": {"target": [], "time": []}}, "mouseout": {"state": {"target": ["26", "0", "0", "23", "24", "25", "24", "23", "0", "0", "23", "0"], "time": [775, 1274, 3001, 3065, 3149, 8554, 14842, 14906, 16031, 16867, 17619, 23774]}, "edge": {"target": [], "time": []}}}, "displayed_time": "22.30", "trialTime": 24770, "trial_type": "mouselab-mdp", "trial_index": 43, "time_elapsed": 3339801, "internal_node_id": "0.0-6.0-1.0-28.0"}}, {"uniqueid": "w78561753:a25198380", "current_trial": 44, "dateTime": 1693567842366, "trialdata": {"revealed_states": [], "clicked_states": [], "num_clicks_accrued": [0, 0, 0, 0, 0, 0, 0, 0, 0, 0, 0, 0, 0], "stateRewards": ["", -1, -4, -1, -11, 43, 69, 39, 4, 17, -20, -82, -2, -1, 4, 8, -79, 24, -79, 11, 36, 64, 41, 2, 4, -1, 11, -79, -47, 75, -3, 63, -36, -19], "withholdReward": false, "trial_id": "mdp_trial_30", "block": "test", "trialIndex": 33, "score": 65, "costs": 0, "simulationMode": [null, null, null, null, null], "rewards": [2, 4, -1, -3, 63], "path": ["0", "0", "23", "24", "25", "30", "31"], "rt": [3159, 1370, 4, 1084, 608], "actions": ["left", "left", "left", "down", "right"], "actionTimes": [4404, 7902, 8412, 10010, 11122], "queries": {"click": {"state": {"target": [], "time": []}, "edge": {"target": [], "time": []}}, "mouseover": {"state": {"target": [], "time": []}, "edge": {"target": [], "time": []}}, "mouseout": {"state": {"target": ["0"], "time": [659]}, "edge": {"target": [], "time": []}}}, "displayed_time": "15.25", "trialTime": 18235, "trial_type": "mouselab-mdp", "trial_index": 44, "time_elapsed": 3358417, "internal_node_id": "0.0-6.0-1.0-29.0"}}, {"uniqueid": "w78561753:a25198380", "current_trial": 45, "dateTime": 1693567863749, "trialdata": {"revealed_states": [], "clicked_states": ["20"], "num_clicks_accrued": [0, 0, 0, 0, 0, 0, 0, 0, 0, 0, 0, 0, 0], "stateRewards": ["", -2, 2, 5, -14, -56, 64, 84, -5, 52, 39, 85, -2, 1, 7, 8, 21, 29, -78, -9, -10, -69, 10, -2, -1, -7, 15, 72, 20, 41, -2, 52, 80, 22], "withholdReward": false, "trial_id": "mdp_trial_31", "block": "test", "trialIndex": 34, "score": 66.6, "costs": -1.4, "simulationMode": [null, null, null, null, null], "rewards": [-2, -1, -7, -2, 80], "path": ["0", "0", "23", "24", "25", "30", "32"], "rt": [7024, 72, 1650, 42, 151], "actions": ["left", "left", "left", "down", "down"], "actionTimes": [8365, 8940, 11085, 11636, 12284], "queries": {"click": {"state": {"target": ["20"], "time": [4269]}, "edge": {"target": [], "time": []}}, "mouseover": {"state": {"target": ["14", "20", "21"], "time": [3784, 4084, 5103]}, "edge": {"target": [], "time": []}}, "mouseout": {"state": {"target": ["0", "14", "20", "21", "22", "19", "21", "22", "19", "19", "21", "22"], "time": [1067, 3800, 5069, 5120, 14133, 14153, 14835, 15203, 15255, 16612, 18752, 18820]}, "edge": {"target": [], "time": []}}}, "displayed_time": "15.34", "trialTime": 21013, "trial_type": "mouselab-mdp", "trial_index": 45, "time_elapsed": 3379801, "internal_node_id": "0.0-6.0-1.0-30.0"}}, {"uniqueid": "w78561753:a25198380", "current_trial": 46, "dateTime": 1693567885356, "trialdata": {"revealed_states": [], "clicked_states": ["22"], "num_clicks_accrued": [0, 0, 0, 0, 0, 0, 0, 0, 0, 0, 0, 0, 0], "stateRewards": ["", -2, 2, -4, -4, -59, 88, 62, -3, 69, -15, -34, 1, -2, -5, 7, -54, -20, 78, -16, -74, -53, -21, 2, -4, 2, 13, -8, -44, 26, 9, 72, 4, 17], "withholdReward": false, "trial_id": "mdp_trial_32", "block": "test", "trialIndex": 35, "score": -97.4, "costs": -1.4, "simulationMode": [null, null, null, null, null], "rewards": [1, -2, -5, -16, -74], "path": ["0", "0", "12", "13", "14", "19", "20"], "rt": [4293, 115, 201, 4, 181], "actions": ["right", "right", "right", "down", "right"], "actionTimes": [5464, 6087, 6791, 7296, 7993], "queries": {"click": {"state": {"target": ["22"], "time": [2945]}, "edge": {"target": [], "time": []}}, "mouseover": {"state": {"target": ["3", "4", "16", "20", "19", "22", "22", "15"], "time": [1790, 1957, 2189, 2322, 2439, 2473, 2692, 4063]}, "edge": {"target": [], "time": []}}, "mouseout": {"state": {"target": ["12", "0", "3", "4", "16", "20", "19", "22", "22", "15", "17", "14", "22", "22", "19", "20", "19", "22", "19", "20", "20", "19", "22", "19", "20"], "time": [665, 1656, 1807, 2121, 2206, 2405, 2456, 2489, 4013, 4079, 11156, 11239, 11623, 16775, 16874, 17257, 17495, 18701, 18733, 18748, 19080, 19265, 19381, 19703, 20435]}, "edge": {"target": [], "time": []}}}, "displayed_time": "15.17", "trialTime": 21192, "trial_type": "mouselab-mdp", "trial_index": 46, "time_elapsed": 3401407, "internal_node_id": "0.0-6.0-1.0-31.0"}}, {"uniqueid": "w78561753:a25198380", "current_trial": 47, "dateTime": 1693567903228, "trialdata": {"revealed_states": [], "clicked_states": ["9"], "num_clicks_accrued": [0, 0, 0, 0, 0, 0, 0, 0, 0, 0, 0, 0, 0], "stateRewards": ["", 1, -3, -4, -11, -56, 61, -47, -16, -28, -9, 69, -2, -3, -4, -8, 40, -86, 59, -4, 80, 27, 54, -1, 3, -1, 8, 67, 23, 50, 6, 83, -43, -29], "withholdReward": false, "trial_id": "mdp_trial_33", "block": "test", "trialIndex": 36, "score": 45.6, "costs": -1.4, "simulationMode": [null, null, null, null, null], "rewards": [1, -3, -4, -16, 69], "path": ["0", "0", "1", "2", "3", "8", "11"], "rt": [5569, 341, 9, 41, 107], "actions": ["up", "up", "up", "left", "left"], "actionTimes": [6679, 7517, 8020, 8572, 9173], "queries": {"click": {"state": {"target": ["9"], "time": [2641]}, "edge": {"target": [], "time": []}}, "mouseover": {"state": {"target": ["1", "2", "3", "9", "8"], "time": [1573, 1673, 1788, 2443, 3260]}, "edge": {"target": [], "time": []}}, "mouseout": {"state": {"target": ["1", "2", "3", "9", "8", "23", "0", "1", "2", "8", "8", "1", "0", "0", "0", "1"], "time": [1640, 1740, 2376, 3226, 3277, 14013, 15823, 15885, 15969, 16073, 16290, 16371, 16424, 16776, 17041, 17307]}, "edge": {"target": [], "time": []}}}, "displayed_time": "15.11", "trialTime": 17406, "trial_type": "mouselab-mdp", "trial_index": 47, "time_elapsed": 3419280, "internal_node_id": "0.0-6.0-1.0-32.0"}}, {"uniqueid": "w78561753:a25198380", "current_trial": 48, "dateTime": 1693567923243, "trialdata": {"revealed_states": [], "clicked_states": ["33"], "num_clicks_accrued": [0, 0, 0, 0, 0, 0, 0, 0, 0, 0, 0, 0, 0], "stateRewards": ["", -2, 2, 3, -7, -31, -33, 29, -8, -57, 50, -83, -1, -1, 5, 13, -23, -62, 25, 5, -66, -85, 14, 1, -2, -1, 16, 71, 33, -19, -14, 5, -43, 79], "withholdReward": false, "trial_id": "mdp_trial_34", "block": "test", "trialIndex": 37, "score": 61.6, "costs": -1.4, "simulationMode": [null, null, null, null, null], "rewards": [1, -2, -1, -14, 79], "path": ["0", "0", "23", "24", "25", "30", "33"], "rt": [4523, 162, 326, 891, 134], "actions": ["left", "left", "left", "down", "left"], "actionTimes": [5664, 6326, 7158, 8543, 9175], "queries": {"click": {"state": {"target": ["33"], "time": [2903]}, "edge": {"target": [], "time": []}}, "mouseover": {"state": {"target": ["30", "33", "30", "31"], "time": [2013, 2786, 4440, 4555]}, "edge": {"target": [], "time": []}}, "mouseout": {"state": {"target": ["1", "0", "30", "33", "30", "31", "32", "33"], "time": [557, 1158, 2080, 4389, 4506, 4589, 16045, 16517]}, "edge": {"target": [], "time": []}}}, "displayed_time": "15.14", "trialTime": 19566, "trial_type": "mouselab-mdp", "trial_index": 48, "time_elapsed": 3439294, "internal_node_id": "0.0-6.0-1.0-33.0"}}, {"uniqueid": "w78561753:a25198380", "current_trial": 49, "dateTime": 1693567939906, "trialdata": {"revealed_states": [], "clicked_states": [], "num_clicks_accrued": [0, 0, 0, 0, 0, 0, 0, 0, 0, 0, 0, 0, 0], "stateRewards": ["", -2, -3, 1, -14, 48, -49, 67, -1, -35, -48, 3, -2, 1, -4, -5, 86, -84, 39, 1, 48, 41, -42, -1, -4, 2, -7, 18, -86, 17, 7, -9, 57, -69], "withholdReward": false, "trial_id": "mdp_trial_35", "block": "test", "trialIndex": 38, "score": -5, "costs": 0, "simulationMode": [null, null, null, null, null], "rewards": [-1, -4, 2, 7, -9], "path": ["0", "0", "23", "24", "25", "30", "31"], "rt": [5190, 150, 377, 132, 97], "actions": ["left", "left", "left", "down", "right"], "actionTimes": [6278, 6925, 7804, 8445, 9045], "queries": {"click": {"state": {"target": [], "time": []}, "edge": {"target": [], "time": []}}, "mouseover": {"state": {"target": ["1", "30", "31"], "time": [1656, 3629, 4180]}, "edge": {"target": [], "time": []}}, "mouseout": {"state": {"target": ["24", "0", "1", "30", "31"], "time": [47, 1572, 1756, 4148, 10340]}, "edge": {"target": [], "time": []}}}, "displayed_time": "15.09", "trialTime": 16268, "trial_type": "mouselab-mdp", "trial_index": 49, "time_elapsed": 3455958, "internal_node_id": "0.0-6.0-1.0-34.0"}}, {"uniqueid": "w78561753:a25198380", "current_trial": 50, "dateTime": 1693567958478, "trialdata": {"revealed_states": [], "clicked_states": ["16"], "num_clicks_accrued": [0, 0, 0, 0, 0, 0, 0, 0, 0, 0, 0, 0, 0], "stateRewards": ["", 1, 1, -6, -2, 7, 77, 3, 16, -16, 66, 31, -1, 3, -8, -6, 33, -50, -48, 7, -60, -66, 36, 2, -3, 3, -7, -12, -61, -79, -4, 8, 74, -70], "withholdReward": false, "trial_id": "mdp_trial_36", "block": "test", "trialIndex": 39, "score": 19.6, "costs": -1.4, "simulationMode": [null, null, null, null, null], "rewards": [-1, 3, -8, -6, 33], "path": ["0", "0", "12", "13", "14", "15", "16"], "rt": [3626, 208, 90, 7, 690], "actions": ["right", "right", "right", "up", "up"], "actionTimes": [4809, 5511, 6095, 6599, 7799], "queries": {"click": {"state": {"target": ["16"], "time": [2760]}, "edge": {"target": [], "time": []}}, "mouseover": {"state": {"target": ["1", "2", "3", "4", "16", "15"], "time": [1620, 1671, 1754, 2172, 2422, 3178]}, "edge": {"target": [], "time": []}}, "mouseout": {"state": {"target": ["1", "2", "3", "4", "16", "15"], "time": [1638, 1705, 2105, 2257, 3161, 3228]}, "edge": {"target": [], "time": []}}}, "displayed_time": "15.19", "trialTime": 18096, "trial_type": "mouselab-mdp", "trial_index": 50, "time_elapsed": 3474529, "internal_node_id": "0.0-6.0-1.0-35.0"}}, {"uniqueid": "w78561753:a25198380", "current_trial": 51, "dateTime": 1693567975259, "trialdata": {"revealed_states": [], "clicked_states": [], "num_clicks_accrued": [0, 0, 0, 0, 0, 0, 0, 0, 0, 0, 0, 0, 0], "stateRewards": ["", 2, -3, -5, 5, 11, -9, -33, 6, 67, 6, -30, -1, -2, -6, 13, 55, 13, 72, -14, 75, 21, -66, -2, -4, 6, 15, -1, -35, 60, 2, 51, -73, 12], "withholdReward": false, "trial_id": "mdp_trial_37", "block": "test", "trialIndex": 40, "score": -20, "costs": 0, "simulationMode": [null, null, null, null, null], "rewards": [-2, -4, 6, 15, -35], "path": ["0", "0", "23", "24", "25", "26", "28"], "rt": [2765, 654, 126, 82, 186], "actions": ["left", "left", "left", "up", "right"], "actionTimes": [4197, 5349, 5973, 6565, 7253], "queries": {"click": {"state": {"target": [], "time": []}, "edge": {"target": [], "time": []}}, "mouseover": {"state": {"target": ["24", "24"], "time": [3334, 3504]}, "edge": {"target": [], "time": []}}, "mouseout": {"state": {"target": ["13", "0", "24", "24"], "time": [625, 2323, 3434, 3585]}, "edge": {"target": [], "time": []}}}, "displayed_time": "15.43", "trialTime": 16372, "trial_type": "mouselab-mdp", "trial_index": 51, "time_elapsed": 3491310, "internal_node_id": "0.0-6.0-1.0-36.0"}}, {"uniqueid": "w78561753:a25198380", "current_trial": 52, "dateTime": 1693567991764, "trialdata": {"revealed_states": [], "clicked_states": ["3"], "num_clicks_accrued": [0, 0, 0, 0, 0, 0, 0, 0, 0, 0, 0, 0, 0], "stateRewards": ["", 2, 4, -6, -13, -75, -81, 30, 7, 5, 59, -65, -1, -1, 7, 14, -38, 36, -41, 1, -54, -5, 64, 2, -1, 5, 6, -19, 79, 11, 16, -33, -50, 58], "withholdReward": false, "trial_id": "mdp_trial_38", "block": "test", "trialIndex": 41, "score": 15.6, "costs": -1.4, "simulationMode": [null, null, null, null, null], "rewards": [2, 4, -6, -13, 30], "path": ["0", "0", "1", "2", "3", "4", "7"], "rt": [3444, 74, 130, 1606, 723], "actions": ["up", "up", "up", "right", "down"], "actionTimes": [4619, 5193, 5818, 7929, 9153], "queries": {"click": {"state": {"target": ["3"], "time": [2546]}, "edge": {"target": [], "time": []}}, "mouseover": {"state": {"target": ["1", "2", "3"], "time": [1654, 1771, 1954]}, "edge": {"target": [], "time": []}}, "mouseout": {"state": {"target": ["1", "2", "3", "2", "1"], "time": [1721, 1870, 10639, 11308, 11487]}, "edge": {"target": [], "time": []}}}, "displayed_time": "15.18", "trialTime": 16010, "trial_type": "mouselab-mdp", "trial_index": 52, "time_elapsed": 3507815, "internal_node_id": "0.0-6.0-1.0-37.0"}}, {"uniqueid": "w78561753:a25198380", "current_trial": 53, "dateTime": 1693568009903, "trialdata": {"revealed_states": [], "clicked_states": [], "num_clicks_accrued": [0, 0, 0, 0, 0, 0, 0, 0, 0, 0, 0, 0, 0], "stateRewards": ["", 2, -1, -4, -13, 74, 77, 3, 2, -43, -2, -11, 2, 3, 7, 11, -26, -29, -33, -3, -3, -13, -3, 1, 3, -7, 14, -59, 33, 9, -5, 34, 79, 68], "withholdReward": false, "trial_id": "mdp_trial_39", "block": "test", "trialIndex": 42, "score": 60, "costs": 0, "simulationMode": [null, null, null, null, null], "rewards": [1, 3, -7, -5, 68], "path": ["0", "0", "23", "24", "25", "30", "33"], "rt": [3693, 33, 244, 43, 109], "actions": ["left", "left", "left", "down", "left"], "actionTimes": [5145, 5687, 6432, 6983, 7591], "queries": {"click": {"state": {"target": [], "time": []}, "edge": {"target": [], "time": []}}, "mouseover": {"state": {"target": ["23", "24"], "time": [1923, 2003]}, "edge": {"target": [], "time": []}}, "mouseout": {"state": {"target": ["23", "24"], "time": [1970, 2053]}, "edge": {"target": [], "time": []}}}, "displayed_time": "15.45", "trialTime": 17723, "trial_type": "mouselab-mdp", "trial_index": 53, "time_elapsed": 3525954, "internal_node_id": "0.0-6.0-1.0-38.0"}}, {"uniqueid": "w78561753:a25198380", "current_trial": 54, "dateTime": 1693568028924, "trialdata": {"revealed_states": [], "clicked_states": [], "num_clicks_accrued": [0, 0, 0, 0, 0, 0, 0, 0, 0, 0, 0, 0, 0], "stateRewards": ["", 1, 1, 1, -3, -7, -1, -41, -10, 20, -72, -63, 1, -4, -2, 2, -66, 30, -84, -2, 49, 23, 71, -1, -4, 4, -12, 67, 5, 18, -16, 88, 56, -5], "withholdReward": false, "trial_id": "mdp_trial_40", "block": "test", "trialIndex": 43, "score": 16, "costs": 0, "simulationMode": [null, null, null, null, null], "rewards": [1, -4, -2, -2, 23], "path": ["0", "0", "12", "13", "14", "19", "21"], "rt": [6209, 268, 466, 2272, 1175], "actions": ["right", "right", "right", "down", "down"], "actionTimes": [7419, 8187, 9155, 11931, 13611], "queries": {"click": {"state": {"target": [], "time": []}, "edge": {"target": [], "time": []}}, "mouseover": {"state": {"target": [], "time": []}, "edge": {"target": [], "time": []}}, "mouseout": {"state": {"target": ["31", "23", "0", "0"], "time": [188, 707, 806, 17533]}, "edge": {"target": [], "time": []}}}, "displayed_time": "15.21", "trialTime": 18555, "trial_type": "mouselab-mdp", "trial_index": 54, "time_elapsed": 3544975, "internal_node_id": "0.0-6.0-1.0-39.0"}}, {"uniqueid": "w78561753:a25198380", "current_trial": 55, "dateTime": 1693568117818, "trialdata": {"rt": 88886, "response": {"Q0": "$-16 to 16", "Q1": "$-16 to $16", "Q2": "$-88 to $88", "Q3": "The cost was always $1.4.", "Q4": "Neither motivated nor unmotivated"}, "question_order": [0, 1, 2, 3, 4], "trial_id": "final_quiz_control", "trial_type": "survey-multi-choice", "trial_index": 55, "time_elapsed": 3633870, "internal_node_id": "0.0-6.0-2.0"}}, {"uniqueid": "w78561753:a25198380", "current_trial": 56, "dateTime": 1693568196977, "trialdata": {"rt": 79095, "response": {"Q0": "Try all end nodes first ", "Q1": "Yes by using node inspector every 2nd round", "Q2": "The time limit on using the node inspector"}, "trial_id": "self_report_control", "trial_type": "survey-text", "trial_index": 56, "time_elapsed": 3713029, "internal_node_id": "0.0-6.0-3.0"}}, {"uniqueid": "w78561753:a25198380", "current_trial": 57, "dateTime": 1693568242769, "trialdata": {"rt": 45788, "response": {"gender": "male", "age": "30", "colorblind": "2", "effort": "2"}, "trial_type": "survey-html-form", "trial_index": 57, "time_elapsed": 3758821, "internal_node_id": "0.0-6.0-4.0"}}, {"uniqueid": "w78561753:a25198380", "current_trial": 58, "dateTime": 1693568263929, "trialdata": {"rt": 21141, "response": {"Q0": "no", "Q1": "no", "Q2": ""}, "trial_type": "survey-text", "trial_index": 58, "time_elapsed": 3779980, "internal_node_id": "0.0-6.0-5.0"}}, {"uniqueid": "w78561753:a25198380", "current_trial": 59, "dateTime": 1693568271529, "trialdata": {"rt": 7596, "stimulus": "<h1>Completion Code Instructions (1/2)</h1>\n<br><br><br><br>\nYou have reached the end of the experiment! The completion code consists of two parts: (1) a code with 2 characters (2) a code with 6 characters. On this page, you will receive the second part of the code. The first part of the completion code will be on the next page.\n<br><br>\nThe second part of your completion code is: <b>EWEK22</b>\n<br><br>\nPlease note this down. Then, press 'Finish HIT' in order to find the first part of your completion code. Once the data has been saved, you will receive this code either in this window or in the original browser window where you started the experiment.\n", "response": 0, "trial_type": "html-button-response", "trial_index": 59, "time_elapsed": 3787581, "internal_node_id": "0.0-6.0-6.0"}}, {"uniqueid": "w78561753:a25198380", "current_trial": 60, "dateTime": 1693568272564, "trialdata": {"success": true, "trial_type": "fullscreen", "trial_index": 60, "time_elapsed": 3788616, "internal_node_id": "0.0-7.0"}}], "questiondata": {"params": {"CODE": "C6DMOQA6", "MIN_TIME": 14, "inspectCost": 1, "startTime": "Fri Sep 01 2023 12:34:41 GMT+0200 (South Africa Standard Time)", "bonusRate": 0.002, "variance": "1_2_4_8_44", "branching": "31123"}, "final_score": 289.2}, "eventdata": [{"eventtype": "initialized", "value": null, "timestamp": 1693564480715, "interval": 0}, {"eventtype": "window_resize", "value": [1024, 654], "timestamp": 1693564480715, "interval": 0}, {"eventtype": "window_resize", "value": [1024, 654], "timestamp": 1693564481294, "interval": 579}, {"eventtype": "focus", "value": "off", "timestamp": 1693564517107, "interval": 35813}, {"eventtype": "focus", "value": "on", "timestamp": 1693564687606, "interval": 170499}, {"eventtype": "window_resize", "value": [1366, 768], "timestamp": 1693564689073, "interval": 1467}, {"eventtype": "window_resize", "value": [1024, 654], "timestamp": 1693564692194, "interval": 3121}, {"eventtype": "focus", "value": "off", "timestamp": 1693564726796, "interval": 34602}, {"eventtype": "focus", "value": "on", "timestamp": 1693566215895, "interval": 1489099}, {"eventtype": "focus", "value": "off", "timestamp": 1693566232569, "interval": 16674}, {"eventtype": "focus", "value": "on", "timestamp": 1693566238765, "interval": 6196}, {"eventtype": "window_resize", "value": [1366, 670], "timestamp": 1693566240504, "interval": 1739}, {"eventtype": "focus", "value": "off", "timestamp": 1693566274977, "interval": 34473}, {"eventtype": "focus", "value": "on", "timestamp": 1693566278163, "interval": 3186}, {"eventtype": "focus", "value": "off", "timestamp": 1693566544213, "interval": 266050}, {"eventtype": "focus", "value": "on", "timestamp": 1693566634398, "interval": 90185}, {"eventtype": "focus", "value": "off", "timestamp": 1693566802850, "interval": 168452}, {"eventtype": "focus", "value": "on", "timestamp": 1693566824087, "interval": 21237}, {"eventtype": "focus", "value": "off", "timestamp": 1693567023875, "interval": 199788}, {"eventtype": "focus", "value": "on", "timestamp": 1693567023875, "interval": 0}, {"eventtype": "window_resize", "value": [1366, 768], "timestamp": 1693567029141, "interval": 5266}, {"eventtype": "window_resize", "value": [1366, 670], "timestamp": 1693568271802, "interval": 1242661}], "useragent": "Mozilla/5.0 (Windows NT 10.0; Win64; x64) AppleWebKit/537.36 (KHTML, like Gecko) Chrome/116.0.0.0 Safari/537.36", "mode": "live", "id": "w78561753:a25198380", "status": "user data saved", "Beginhit": "2023-09-01 10:34:37.068229", "Beginexp": "2023-09-01 10:38:11.354906", "Endhit": "2023-09-01 11:37:54.811279", "psiturkStatus": 3, "browser": "<redacted>", "platform": "windows", "language": "en-US", "excludeReason": "noeffort"}