{"condition": 1, "counterbalance": 0, "assignmentId": "a76851338", "workerId": "w32915339", "hitId": "h46439668", "currenttrial": 56, "bonus": 0, "data": [{"uniqueid": "w32915339:a76851338", "current_trial": 0, "dateTime": 1691143414337, "trialdata": {"success": true, "trial_type": "fullscreen", "trial_index": 0, "time_elapsed": 6484, "internal_node_id": "0.0-0.0"}}, {"uniqueid": "w32915339:a76851338", "current_trial": 1, "dateTime": 1691143425802, "trialdata": {"view_history": [{"page_index": 0, "viewing_time": 11455}], "rt": 11455, "trial_id": "exp_instructions_misaligned", "trial_type": "instructions", "trial_index": 1, "time_elapsed": 17949, "internal_node_id": "0.0-1.0"}}, {"uniqueid": "w32915339:a76851338", "current_trial": 2, "dateTime": 1691143428507, "trialdata": {"success": true, "trial_type": "fullscreen", "trial_index": 2, "time_elapsed": 20654, "internal_node_id": "0.0-2.0-0.0"}}, {"uniqueid": "w32915339:a76851338", "current_trial": 3, "dateTime": 1691143585479, "trialdata": {"view_history": [{"page_index": 0, "viewing_time": 48368}, {"page_index": 1, "viewing_time": 61872}, {"page_index": 2, "viewing_time": 18055}, {"page_index": 3, "viewing_time": 28673}], "rt": 156968, "trial_id": "mouselab_instructions_1_misaligned", "trial_type": "instructions", "trial_index": 3, "time_elapsed": 177625, "internal_node_id": "0.0-2.0-1.0"}}, {"uniqueid": "w32915339:a76851338", "current_trial": 4, "dateTime": 1691143620374, "trialdata": {"revealed_states": [], "clicked_states": ["26", "25", "30", "32", "33", "31", "12", "13", "14", "19", "20", "22"], "num_clicks_accrued": [0, 0, 0, 0, 0, 0, 0, 0, 0, 0, 0, 0, 0], "stateRewards": ["", -10, -10, 10, 10, 10, -10, -10, -10, -10, -10, -10, 10, 10, 10, -10, -10, 10, -10, -10, 10, -10, 10, 10, -10, 10, -10, 10, -10, 10, 10, 10, -10, -10], "withholdReward": false, "trial_id": "practice_1", "block": "test", "trialIndex": 0, "score": 27.5, "costs": -6, "simulationMode": [null, null, null, null, null], "rewards": [10, 10, 10, -10, 10], "path": ["0", "0", "12", "13", "14", "19", "22"], "rt": [22227, 236, 209, 144, 36], "actions": ["right", "right", "right", "down", "left"], "actionTimes": [25468, 26291, 27091, 27815, 28488], "queries": {"click": {"state": {"target": ["26", "25", "30", "32", "33", "31", "12", "13", "14", "19", "20", "22"], "time": [6010, 7810, 9170, 10873, 12442, 13710, 15935, 17931, 19224, 20783, 22371, 24110]}, "edge": {"target": [], "time": []}}, "mouseover": {"state": {"target": ["23", "24", "25", "26", "24", "24", "26", "25", "30", "32", "33", "31", "29", "23", "0", "12", "13", "18", "13", "14", "19", "20", "21", "22"], "time": [4769, 4838, 4927, 5219, 5487, 5669, 5781, 6387, 8368, 10252, 12174, 13573, 14516, 15152, 15241, 15518, 16580, 17166, 17702, 18413, 19778, 21459, 22902, 23184]}, "edge": {"target": [], "time": []}}, "mouseout": {"state": {"target": ["0", "23", "24", "25", "26", "24", "24", "26", "25", "30", "32", "33", "31", "31", "29", "23", "0", "12", "13", "18", "13", "14", "19", "20", "21", "22"], "time": [4724, 4820, 4876, 5016, 5423, 5537, 5729, 6329, 8349, 10234, 11236, 12702, 14019, 14348, 14934, 15216, 15281, 16466, 17107, 17418, 18299, 19716, 21226, 22630, 22962, 24510]}, "edge": {"target": [], "time": []}}}, "displayed_time": "29.04", "trialTime": 34072, "trial_type": "mouselab-mdp", "trial_index": 4, "time_elapsed": 212521, "internal_node_id": "0.0-2.0-2.0-0.0"}}, {"uniqueid": "w32915339:a76851338", "current_trial": 5, "dateTime": 1691143639769, "trialdata": {"revealed_states": [], "clicked_states": ["12", "14", "13", "15", "17"], "num_clicks_accrued": [0, 0, 0, 0, 0, 0, 0, 0, 0, 0, 0, 0, 0], "stateRewards": ["", 10, 10, 10, 10, -10, 10, 10, 10, -10, -10, 10, 10, 10, 10, 10, -10, -10, 10, 10, -10, -10, -10, 10, -10, 10, -10, -10, -10, 10, -10, 10, -10, -10], "withholdReward": false, "trial_id": "practice_2", "block": "test", "trialIndex": 1, "score": 31, "costs": -2.5, "simulationMode": [null, null, null, null, null], "rewards": [10, 10, 10, 10, -10], "path": ["0", "0", "12", "13", "14", "15", "17"], "rt": [10848, 61, 51, 35, 51], "actions": ["right", "right", "right", "up", "right"], "actionTimes": [12920, 13595, 14261, 14878, 15509], "queries": {"click": {"state": {"target": ["12", "14", "13", "15", "17"], "time": [3882, 6836, 8020, 9365, 10901]}, "edge": {"target": [], "time": []}}, "mouseover": {"state": {"target": ["12", "13", "14", "13", "15", "17"], "time": [2627, 4214, 5486, 7620, 8808, 10108]}, "edge": {"target": [], "time": []}}, "mouseout": {"state": {"target": ["0", "12", "13", "14", "13", "15", "17"], "time": [2555, 4150, 5297, 7559, 8591, 9994, 11212]}, "edge": {"target": [], "time": []}}}, "displayed_time": "16.09", "trialTime": 18711, "trial_type": "mouselab-mdp", "trial_index": 5, "time_elapsed": 231916, "internal_node_id": "0.0-2.0-2.0-1.0"}}, {"uniqueid": "w32915339:a76851338", "current_trial": 6, "dateTime": 1691143674387, "trialdata": {"view_history": [{"page_index": 0, "viewing_time": 27549}, {"page_index": 1, "viewing_time": 7064}], "rt": 34613, "trial_id": "mouselab_instructions_2_misaligned", "trial_type": "instructions", "trial_index": 6, "time_elapsed": 266533, "internal_node_id": "0.0-2.0-3.0"}}, {"uniqueid": "w32915339:a76851338", "current_trial": 7, "dateTime": 1691143703721, "trialdata": {"rt": 29326, "response": {"Q0": "The cost for clicking on nodes may vary between nodes.", "Q1": "The better I perform the higher my bonus will be.", "Q2": "No, the amount of cash at each node of the web may be different each time.", "Q3": "To get the highest total score.", "Q4": "Only before moving the spider.", "Q5": "3 seconds"}, "question_order": [0, 1, 2, 3, 4, 5], "correct": {"Q0": "The cost for clicking on nodes may vary between nodes.", "Q1": "The better I perform the higher my bonus will be.", "Q2": "No, the amount of cash at each node of the web may be different each time.", "Q3": "To get the highest total score.", "Q4": "Only before moving the spider.", "Q5": "3 seconds"}, "trial_id": "mouselab_quiz_misaligned", "trial_type": "survey-multi-choice", "trial_index": 7, "time_elapsed": 295868, "internal_node_id": "0.0-2.0-4.0"}}, {"uniqueid": "w32915339:a76851338", "current_trial": 8, "dateTime": 1691143715337, "trialdata": {"rt": 11609, "stimulus": "\n<h1> Get ready to start the game! </h1>\n\nThank you for reading the instructions. Get ready start with the 40 rounds of this game.\n<br><br>\nIf you need to take a break, feel free to take one after the end of a round, before continuing to the next one.\n<br><br>\nRemember, the more money the spider gets, the bigger your bonus will be!\n<br><br>\n<div style='text-align: center;'>Press <code>space</code> to begin.</div>\n\n<br><br>\n(If, at any point, the <code>space</code> key does not take you to the next page, click once on the text and try again.)", "response": " ", "trial_id": "mdp_ready", "trial_type": "html-keyboard-response", "trial_index": 8, "time_elapsed": 307484, "internal_node_id": "0.0-4.0-0.0"}}, {"uniqueid": "w32915339:a76851338", "current_trial": 9, "dateTime": 1691143737758, "trialdata": {"revealed_states": [], "clicked_states": ["23", "24", "25", "26", "1", "2", "12", "13", "14"], "num_clicks_accrued": [0, 0, 0, 0, 0, 0, 0, 0, 0, 0, 0, 0, 0], "stateRewards": ["", 1, -4, 6, -3, 40, 76, -51, 5, -24, -63, 44, -2, -2, 8, 1, 76, -85, -58, 10, 59, 20, 11, -2, 3, -3, 3, -82, -10, 54, -7, -57, -6, -32], "withholdReward": false, "trial_id": "mdp_trial_1", "block": "test", "trialIndex": 2, "score": 30.25, "costs": -3.75, "simulationMode": [null, null, null, null, null], "rewards": [-2, -2, 8, 10, 20], "path": ["0", "0", "12", "13", "14", "19", "21"], "rt": [12457, 105, 109, 103, 168], "actions": ["right", "right", "right", "down", "down"], "actionTimes": [14577, 15296, 15984, 16664, 17416], "queries": {"click": {"state": {"target": ["23", "24", "25", "26", "1", "2", "12", "13", "14"], "time": [3497, 4752, 6215, 7457, 9366, 10456, 11689, 12346, 13087]}, "edge": {"target": [], "time": []}}, "mouseover": {"state": {"target": ["23", "24", "25", "26", "30", "0", "12", "1", "2", "10", "12", "13", "14"], "time": [2500, 4258, 5471, 6774, 8048, 8576, 8691, 9100, 10165, 11089, 11488, 12110, 12835]}, "edge": {"target": [], "time": []}}, "mouseout": {"state": {"target": ["0", "23", "24", "25", "26", "30", "0", "12", "1", "2", "10", "1", "12", "13", "14"], "time": [2209, 4147, 5300, 6700, 7724, 8225, 8639, 9031, 9998, 11027, 11204, 11319, 11998, 12687, 13300]}, "edge": {"target": [], "time": []}}}, "displayed_time": "18.00", "trialTime": 21734, "trial_type": "mouselab-mdp", "trial_index": 9, "time_elapsed": 329904, "internal_node_id": "0.0-4.0-1.0-0.0"}}, {"uniqueid": "w32915339:a76851338", "current_trial": 10, "dateTime": 1691143767738, "trialdata": {"revealed_states": [], "clicked_states": ["1", "2", "3", "12", "13", "14", "15", "18", "17"], "num_clicks_accrued": [0, 0, 0, 0, 0, 0, 0, 0, 0, 0, 0, 0, 0], "stateRewards": ["", -2, -4, -8, 8, 63, -50, -19, -7, -17, -31, 31, 1, 3, -5, 12, -35, -63, -29, -4, -17, -75, -79, -2, -3, -2, 8, -3, -85, 10, -2, -82, -82, 56], "withholdReward": false, "trial_id": "mdp_trial_2", "block": "test", "trialIndex": 3, "score": -31.95, "costs": -7.949999999999999, "simulationMode": [null, null, null, null, null], "rewards": [1, 3, -5, 12, -35], "path": ["0", "0", "12", "13", "14", "15", "16"], "rt": [15474, 73, 91, 116, 68], "actions": ["right", "right", "right", "up", "up"], "actionTimes": [18733, 19419, 20131, 20826, 21505], "queries": {"click": {"state": {"target": ["1", "2", "3", "12", "13", "14", "15", "18", "17"], "time": [4088, 4996, 5865, 6849, 7989, 9004, 10293, 11529, 14820]}, "edge": {"target": [], "time": []}}, "mouseover": {"state": {"target": ["1", "2", "3", "12", "13", "14", "15", "18", "17", "17", "16"], "time": [3787, 4742, 5544, 6594, 7463, 8638, 10003, 11180, 12298, 13792, 16267]}, "edge": {"target": [], "time": []}}, "mouseout": {"state": {"target": ["14", "13", "12", "0", "1", "2", "3", "12", "13", "14", "15", "18", "15", "17", "17", "16", "17"], "time": [516, 884, 1211, 3722, 4631, 5486, 6313, 7236, 8580, 9876, 10969, 12005, 12179, 13175, 15531, 17932, 17993]}, "edge": {"target": [], "time": []}}}, "displayed_time": "22.07", "trialTime": 29292, "trial_type": "mouselab-mdp", "trial_index": 10, "time_elapsed": 359884, "internal_node_id": "0.0-4.0-1.0-1.0"}}, {"uniqueid": "w32915339:a76851338", "current_trial": 11, "dateTime": 1691143800337, "trialdata": {"revealed_states": [], "clicked_states": ["23", "24", "25", "26", "30", "12", "13", "14", "19", "22", "20"], "num_clicks_accrued": [0, 0, 0, 0, 0, 0, 0, 0, 0, 0, 0, 0, 0], "stateRewards": ["", -1, 2, 6, 11, 21, -21, -21, -6, 48, -71, 88, -1, -3, 3, 7, 64, 2, 9, -4, 37, -67, 72, 2, 2, -8, -8, -10, 71, -40, -3, 73, 80, 47], "withholdReward": false, "trial_id": "mdp_trial_3", "block": "test", "trialIndex": 4, "score": 55.95, "costs": -11.049999999999999, "simulationMode": [null, null, null, null, null], "rewards": [-1, -3, 3, -4, 72], "path": ["0", "0", "12", "13", "14", "19", "22"], "rt": [15783, 217, 114, 88, 129], "actions": ["right", "right", "right", "down", "left"], "actionTimes": [17980, 18764, 19491, 20163, 20875], "queries": {"click": {"state": {"target": ["23", "24", "25", "26", "30", "12", "13", "14", "19", "22", "20"], "time": [3239, 4214, 5337, 6277, 7096, 8295, 9045, 9774, 10912, 11774, 14865]}, "edge": {"target": [], "time": []}}, "mouseover": {"state": {"target": ["23", "24", "25", "25", "26", "30", "0", "12", "13", "14", "19", "22", "20", "21"], "time": [2679, 3896, 4788, 5081, 5904, 6789, 7682, 8200, 8790, 9524, 10201, 11467, 12144, 15515]}, "edge": {"target": [], "time": []}}, "mouseout": {"state": {"target": ["0", "23", "24", "25", "25", "26", "30", "0", "12", "13", "14", "19", "22", "19", "20", "21"], "time": [2617, 3715, 4768, 4900, 5835, 6673, 7571, 7742, 8674, 9347, 10134, 11403, 12015, 12085, 15300, 17159]}, "edge": {"target": [], "time": []}}}, "displayed_time": "21.49", "trialTime": 31916, "trial_type": "mouselab-mdp", "trial_index": 11, "time_elapsed": 392484, "internal_node_id": "0.0-4.0-1.0-2.0"}}, {"uniqueid": "w32915339:a76851338", "current_trial": 12, "dateTime": 1691143840825, "trialdata": {"revealed_states": [], "clicked_states": ["23", "24", "25", "26", "27", "28", "29", "1", "2", "3", "12", "13", "14", "15", "30", "31"], "num_clicks_accrued": [0, 0, 0, 0, 0, 0, 0, 0, 0, 0, 0, 0, 0], "stateRewards": ["", -1, -3, -3, 1, -38, 2, -53, -2, -1, -81, 70, -1, 1, -5, -9, 46, 15, 35, -1, -22, 38, 59, -2, 4, -8, 13, 1, -83, -43, 4, 76, 13, 48], "withholdReward": false, "trial_id": "mdp_trial_4", "block": "test", "trialIndex": 5, "score": 57.6, "costs": -16.4, "simulationMode": [null, null, null, null, null], "rewards": [-2, 4, -8, 4, 76], "path": ["0", "0", "23", "24", "25", "30", "31"], "rt": [28145, 160, 79, 62, 48], "actions": ["left", "left", "left", "down", "right"], "actionTimes": [30153, 30908, 31563, 32203, 32859], "queries": {"click": {"state": {"target": ["23", "24", "25", "26", "27", "28", "29", "1", "2", "3", "12", "13", "14", "15", "30", "31"], "time": [2784, 3468, 4288, 5254, 6663, 10059, 13095, 17226, 18280, 19273, 20468, 21181, 21901, 22822, 24741, 25805]}, "edge": {"target": [], "time": []}}, "mouseover": {"state": {"target": ["23", "24", "25", "26", "30", "27", "28", "26", "28", "26", "29", "31", "30", "31", "0", "1", "31", "1", "2", "3", "12", "13", "14", "15", "19", "32", "30", "31", "32", "21"], "time": [2539, 3203, 3977, 4890, 6002, 6439, 7137, 8786, 9076, 10383, 10608, 14781, 15075, 15324, 15492, 15932, 16419, 16807, 17567, 18982, 20160, 20742, 21465, 22633, 24069, 24320, 24425, 25486, 26270, 29707]}, "edge": {"target": [], "time": []}}, "mouseout": {"state": {"target": ["20", "0", "0", "23", "24", "25", "26", "25", "30", "26", "27", "28", "26", "28", "26", "29", "31", "30", "31", "0", "1", "31", "1", "2", "3", "12", "13", "14", "15", "19", "32", "30", "31", "32", "21"], "time": [706, 992, 2476, 3099, 3918, 4768, 5766, 5885, 6176, 6294, 6862, 8728, 8846, 10323, 10497, 13871, 14901, 15301, 15373, 15551, 16356, 16741, 17500, 18865, 19720, 20677, 21446, 22188, 23040, 24123, 24372, 25369, 26143, 28957, 29762]}, "edge": {"target": [], "time": []}}}, "displayed_time": "33.48", "trialTime": 39827, "trial_type": "mouselab-mdp", "trial_index": 12, "time_elapsed": 432972, "internal_node_id": "0.0-4.0-1.0-3.0"}}, {"uniqueid": "w32915339:a76851338", "current_trial": 13, "dateTime": 1691143867081, "trialdata": {"revealed_states": [], "clicked_states": ["23", "24", "25", "26", "27", "28", "30"], "num_clicks_accrued": [0, 0, 0, 0, 0, 0, 0, 0, 0, 0, 0, 0, 0], "stateRewards": ["", -2, -1, -2, -15, 87, 57, 29, -10, 77, -80, -7, 1, -3, 6, 14, -11, 87, -59, 4, -71, 16, -11, 2, 2, -7, 2, -47, 61, 50, 14, -20, 17, 81], "withholdReward": false, "trial_id": "mdp_trial_5", "block": "test", "trialIndex": 6, "score": 51.55, "costs": -8.450000000000001, "simulationMode": [null, null, null, null, null], "rewards": [2, 2, -7, 2, 61], "path": ["0", "0", "23", "24", "25", "26", "28"], "rt": [12966, 86, 65, 55, 68], "actions": ["left", "left", "left", "up", "right"], "actionTimes": [14823, 15535, 16215, 16879, 17561], "queries": {"click": {"state": {"target": ["23", "24", "25", "26", "27", "28", "30"], "time": [2923, 3746, 4675, 5764, 6726, 10428, 13608]}, "edge": {"target": [], "time": []}}, "mouseover": {"state": {"target": ["23", "23", "24", "25", "26", "27", "28", "26", "29", "30", "30", "31"], "time": [2370, 2639, 3378, 4273, 5463, 6422, 7051, 10831, 10949, 12095, 12353, 14238]}, "edge": {"target": [], "time": []}}, "mouseout": {"state": {"target": ["19", "22", "0", "23", "23", "24", "25", "26", "27", "28", "26", "29", "30", "30", "31"], "time": [459, 511, 2309, 2423, 3201, 4151, 5227, 6305, 6992, 10813, 10885, 12026, 12231, 14179, 14297]}, "edge": {"target": [], "time": []}}}, "displayed_time": "18.13", "trialTime": 25482, "trial_type": "mouselab-mdp", "trial_index": 13, "time_elapsed": 459228, "internal_node_id": "0.0-4.0-1.0-4.0"}}, {"uniqueid": "w32915339:a76851338", "current_trial": 14, "dateTime": 1691143908127, "trialdata": {"revealed_states": [], "clicked_states": ["23", "24", "25", "30", "32", "31", "26", "28", "1", "2", "3", "8", "11"], "num_clicks_accrued": [0, 0, 0, 0, 0, 0, 0, 0, 0, 0, 0, 0, 0], "stateRewards": ["", 1, -1, 8, -3, 38, 85, -20, -4, 8, 23, 73, 2, -4, 6, -13, 44, 7, -28, -11, -77, 45, -69, 1, -1, -7, -11, 75, -51, -87, 7, 36, -53, -26], "withholdReward": false, "trial_id": "mdp_trial_6", "block": "test", "trialIndex": 7, "score": 61.65, "costs": -15.350000000000001, "simulationMode": [null, null, null, null, null], "rewards": [1, -1, 8, -4, 73], "path": ["0", "0", "1", "2", "3", "8", "11"], "rt": [25369, 3, 54, 59, 133], "actions": ["up", "up", "up", "left", "left"], "actionTimes": [26753, 27361, 28024, 28682, 29376], "queries": {"click": {"state": {"target": ["23", "24", "25", "30", "32", "31", "26", "28", "1", "2", "3", "8", "11"], "time": [2415, 3413, 4200, 5118, 6054, 9374, 12988, 14830, 17990, 18999, 20169, 21430, 22799]}, "edge": {"target": [], "time": []}}, "mouseover": {"state": {"target": ["23", "24", "25", "30", "32", "31", "30", "33", "25", "26", "28", "1", "2", "3", "8", "11", "9", "6"], "time": [2129, 2968, 3820, 4579, 5523, 6518, 9719, 9826, 10306, 10417, 13594, 15659, 18365, 19594, 20968, 22131, 23496, 26582]}, "edge": {"target": [], "time": []}}, "mouseout": {"state": {"target": ["0", "23", "24", "25", "30", "32", "31", "30", "33", "25", "26", "28", "1", "2", "3", "8", "11", "9", "6"], "time": [2054, 2903, 3754, 4553, 5503, 6395, 9700, 9767, 10286, 10353, 13529, 15387, 18302, 19574, 20949, 22110, 23431, 26498, 26639]}, "edge": {"target": [], "time": []}}}, "displayed_time": "29.98", "trialTime": 40191, "trial_type": "mouselab-mdp", "trial_index": 14, "time_elapsed": 500274, "internal_node_id": "0.0-4.0-1.0-5.0"}}, {"uniqueid": "w32915339:a76851338", "current_trial": 15, "dateTime": 1691143957758, "trialdata": {"revealed_states": [], "clicked_states": ["23", "24", "25", "26", "27", "28", "30", "31", "32", "1", "2", "3", "4", "6", "7", "5", "8", "10"], "num_clicks_accrued": [0, 0, 0, 0, 0, 0, 0, 0, 0, 0, 0, 0, 0], "stateRewards": ["", 1, 4, 5, 8, -55, -11, 8, 16, -37, 77, -22, -2, 3, -8, -10, 45, 87, -67, 4, 17, -33, -22, -1, -3, 7, 6, -39, -85, 75, -1, 7, -48, 45], "withholdReward": false, "trial_id": "mdp_trial_7", "block": "test", "trialIndex": 8, "score": 77.5, "costs": -25.499999999999996, "simulationMode": [null, null, null, null, null], "rewards": [1, 4, 5, 16, 77], "path": ["0", "0", "1", "2", "3", "8", "10"], "rt": [38145, 0, 0, 1, 1], "actions": ["up", "up", "up", "left", "down"], "actionTimes": [39790, 40380, 40971, 41567, 42160], "queries": {"click": {"state": {"target": ["23", "24", "25", "26", "27", "28", "30", "31", "32", "1", "2", "3", "4", "6", "7", "5", "8", "10"], "time": [2376, 3235, 4098, 5108, 6251, 9549, 12879, 15075, 18339, 21566, 22309, 23259, 24022, 24986, 28391, 31896, 35193, 36290]}, "edge": {"target": [], "time": []}}, "mouseover": {"state": {"target": ["23", "24", "25", "26", "27", "28", "26", "30", "31", "32", "0", "1", "2", "3", "4", "6", "7", "4", "5", "8", "10", "12"], "time": [2125, 2980, 3746, 4681, 5920, 6905, 9939, 10286, 13388, 15551, 19069, 19568, 21947, 22822, 23661, 24677, 25639, 28737, 28850, 33105, 35693, 37232]}, "edge": {"target": [], "time": []}}, "mouseout": {"state": {"target": ["12", "12", "0", "23", "24", "25", "26", "27", "28", "26", "30", "31", "32", "0", "1", "2", "3", "4", "6", "7", "4", "5", "8", "10", "12"], "time": [93, 341, 2033, 2924, 3680, 4616, 5808, 6620, 9920, 10054, 13276, 15439, 18727, 19185, 21830, 22762, 23602, 24492, 25368, 28718, 28786, 32650, 35628, 36615, 40083]}, "edge": {"target": [], "time": []}}}, "displayed_time": "42.75", "trialTime": 48950, "trial_type": "mouselab-mdp", "trial_index": 15, "time_elapsed": 549905, "internal_node_id": "0.0-4.0-1.0-6.0"}}, {"uniqueid": "w32915339:a76851338", "current_trial": 16, "dateTime": 1691143995401, "trialdata": {"revealed_states": [], "clicked_states": ["1", "2", "3", "8", "11", "9", "10", "4", "12", "13", "14", "15", "23", "24", "25", "30", "32"], "num_clicks_accrued": [0, 0, 0, 0, 0, 0, 0, 0, 0, 0, 0, 0, 0], "stateRewards": ["", 2, -4, 7, 3, 23, -42, 4, 7, -81, -33, 7, -2, -4, 5, -1, 50, -57, -14, -13, -14, 44, 55, -2, -2, 5, -2, 33, 1, 57, -13, -7, 58, 87], "withholdReward": false, "trial_id": "mdp_trial_8", "block": "test", "trialIndex": 9, "score": 28.05, "costs": -17.95, "simulationMode": [null, null, null, null, null], "rewards": [-2, -2, 5, -13, 58], "path": ["0", "0", "23", "24", "25", "30", "32"], "rt": [27838, 39, 81, 648, 57], "actions": ["left", "left", "left", "down", "down"], "actionTimes": [29497, 30121, 30762, 32026, 32659], "queries": {"click": {"state": {"target": ["1", "2", "3", "8", "11", "9", "10", "4", "12", "13", "14", "15", "23", "24", "25", "30", "32"], "time": [2401, 3105, 4123, 5109, 6175, 9698, 13038, 16422, 17422, 18313, 19047, 20821, 21950, 22861, 23616, 24608, 25246]}, "edge": {"target": [], "time": []}}, "mouseover": {"state": {"target": ["1", "2", "3", "8", "11", "9", "10", "4", "12", "13", "14", "0", "23", "0", "17", "15", "18", "23", "24", "25", "30", "32", "26", "28", "1"], "time": [2042, 2814, 3866, 4641, 5571, 7225, 10192, 13481, 17131, 18059, 18727, 19567, 19692, 20283, 20415, 20573, 21151, 21698, 22273, 23253, 23961, 24909, 26189, 29199, 29305]}, "edge": {"target": [], "time": []}}, "mouseout": {"state": {"target": ["0", "1", "2", "3", "8", "11", "9", "10", "4", "12", "13", "14", "0", "23", "0", "17", "15", "18", "23", "24", "25", "30", "32", "30", "26", "28", "1"], "time": [1888, 2758, 3630, 4582, 5512, 7111, 10078, 13366, 16791, 17708, 18601, 19271, 19626, 20216, 20335, 20521, 21132, 21206, 22162, 23138, 23942, 24890, 25794, 25853, 28828, 29252, 29357]}, "edge": {"target": [], "time": []}}}, "displayed_time": "33.26", "trialTime": 36884, "trial_type": "mouselab-mdp", "trial_index": 16, "time_elapsed": 587548, "internal_node_id": "0.0-4.0-1.0-7.0"}}, {"uniqueid": "w32915339:a76851338", "current_trial": 17, "dateTime": 1691144025393, "trialdata": {"revealed_states": [], "clicked_states": ["1", "2", "3", "8", "23", "24", "25", "26", "28", "30", "12", "13", "14", "15", "19", "21"], "num_clicks_accrued": [0, 0, 0, 0, 0, 0, 0, 0, 0, 0, 0, 0, 0], "stateRewards": ["", -1, 4, -6, -5, -22, -38, -38, -2, -56, 88, 14, -1, -1, -7, -6, 61, -60, 21, 11, 57, 31, -30, -2, -2, 6, -9, -44, -70, -44, -15, 34, 16, -78], "withholdReward": false, "trial_id": "mdp_trial_9", "block": "test", "trialIndex": 10, "score": 17.799999999999997, "costs": -15.200000000000001, "simulationMode": [null, null, null, null, null], "rewards": [-1, -1, -7, 11, 31], "path": ["0", "0", "12", "13", "14", "19", "21"], "rt": [22863, 16, 122, 29, 96], "actions": ["right", "right", "right", "down", "down"], "actionTimes": [24355, 24971, 25666, 26251, 26948], "queries": {"click": {"state": {"target": ["1", "2", "3", "8", "23", "24", "25", "26", "28", "30", "12", "13", "14", "15", "19", "21"], "time": [2341, 3229, 4213, 5030, 6218, 6981, 7758, 8862, 9793, 13062, 14456, 15294, 16111, 17290, 18501, 20198]}, "edge": {"target": [], "time": []}}, "mouseover": {"state": {"target": ["1", "2", "3", "8", "10", "23", "24", "25", "26", "28", "30", "30", "31", "12", "13", "14", "15", "19", "3", "4", "7", "22", "21", "22", "19", "20"], "time": [2025, 3034, 3968, 4789, 5676, 5965, 6623, 7463, 8601, 9554, 10255, 10490, 13404, 13769, 15037, 15758, 16899, 17947, 19046, 19376, 19455, 19521, 19865, 20858, 24231, 24335]}, "edge": {"target": [], "time": []}}, "mouseout": {"state": {"target": ["0", "1", "2", "3", "8", "10", "23", "24", "25", "24", "26", "28", "30", "30", "31", "12", "13", "14", "15", "19", "3", "4", "7", "22", "21", "22", "19", "20"], "time": [1958, 2701, 3687, 4725, 5443, 5735, 6599, 7439, 8273, 8383, 9530, 10075, 10321, 13385, 13450, 14918, 15647, 16618, 17829, 18927, 19163, 19435, 19503, 19571, 20627, 24176, 24283, 24447]}, "edge": {"target": [], "time": []}}}, "displayed_time": "27.52", "trialTime": 29268, "trial_type": "mouselab-mdp", "trial_index": 17, "time_elapsed": 617539, "internal_node_id": "0.0-4.0-1.0-8.0"}}, {"uniqueid": "w32915339:a76851338", "current_trial": 18, "dateTime": 1691144055201, "trialdata": {"revealed_states": [], "clicked_states": ["1", "2", "3", "4", "8", "23", "24", "25", "26", "28"], "num_clicks_accrued": [0, 0, 0, 0, 0, 0, 0, 0, 0, 0, 0, 0, 0], "stateRewards": ["", -1, 1, -6, -1, 80, 23, 2, -11, 73, -81, 59, 1, 3, 5, -1, -26, 28, -3, 16, -59, -13, -50, -2, -2, 2, 15, -50, 86, 17, -4, 37, 35, 44], "withholdReward": false, "trial_id": "mdp_trial_10", "block": "test", "trialIndex": 11, "score": 90.1, "costs": -8.899999999999999, "simulationMode": [null, null, null, null, null], "rewards": [-2, -2, 2, 15, 86], "path": ["0", "0", "23", "24", "25", "26", "28"], "rt": [13142, 10, 43, 0, 133], "actions": ["left", "left", "left", "up", "right"], "actionTimes": [15482, 16097, 16719, 17347, 18057], "queries": {"click": {"state": {"target": ["1", "2", "3", "4", "8", "23", "24", "25", "26", "28"], "time": [3274, 4015, 4913, 5951, 6887, 7996, 8684, 9659, 10772, 11952]}, "edge": {"target": [], "time": []}}, "mouseover": {"state": {"target": ["1", "2", "3", "4", "8", "23", "24", "25", "26", "28", "29"], "time": [2753, 3650, 4544, 5650, 6577, 7534, 8378, 9108, 10285, 11772, 12621]}, "edge": {"target": [], "time": []}}, "mouseout": {"state": {"target": ["20", "19", "22", "23", "0", "1", "2", "3", "4", "8", "23", "24", "25", "26", "28", "26", "29"], "time": [961, 998, 1032, 1436, 2550, 3550, 4485, 5528, 6518, 7470, 8266, 9041, 10163, 11749, 12438, 12557, 16002]}, "edge": {"target": [], "time": []}}}, "displayed_time": "18.69", "trialTime": 29114, "trial_type": "mouselab-mdp", "trial_index": 18, "time_elapsed": 647348, "internal_node_id": "0.0-4.0-1.0-9.0"}}, {"uniqueid": "w32915339:a76851338", "current_trial": 19, "dateTime": 1691144103090, "trialdata": {"revealed_states": [], "clicked_states": ["23", "24", "25", "26", "30", "1", "2", "3", "4", "5", "6", "8", "11", "12", "13", "14", "15", "16", "17", "19", "20", "22"], "num_clicks_accrued": [0, 0, 0, 0, 0, 0, 0, 0, 0, 0, 0, 0, 0], "stateRewards": ["", 2, 3, -1, 16, -78, -11, 46, 2, -20, 79, -67, 2, 3, 2, 11, -83, -42, -58, -11, -67, -22, 55, 2, -1, -1, -16, -83, -82, 23, -11, -29, 13, 13], "withholdReward": false, "trial_id": "mdp_trial_11", "block": "test", "trialIndex": 12, "score": 23.500000000000007, "costs": -27.499999999999993, "simulationMode": [null, null, null, null, null], "rewards": [2, 3, 2, -11, 55], "path": ["0", "0", "12", "13", "14", "19", "22"], "rt": [39704, 1, 13, 21, 38], "actions": ["right", "right", "right", "down", "left"], "actionTimes": [41324, 41912, 42507, 43138, 43769], "queries": {"click": {"state": {"target": ["23", "24", "25", "26", "30", "1", "2", "3", "4", "5", "6", "8", "11", "12", "13", "14", "15", "16", "17", "19", "20", "22"], "time": [2220, 2994, 3867, 4682, 5483, 6617, 7404, 8288, 9115, 10212, 14001, 17681, 19142, 23092, 23799, 24431, 25179, 26189, 29989, 33320, 34261, 38039]}, "edge": {"target": [], "time": []}}, "mouseover": {"state": {"target": ["23", "24", "25", "26", "30", "31", "1", "2", "3", "4", "5", "6", "7", "8", "11", "9", "8", "1", "12", "13", "14", "15", "16", "17", "17", "19", "20", "21", "12", "21", "22", "31"], "time": [1972, 2590, 3316, 4391, 5125, 6049, 6479, 7046, 7921, 8815, 9955, 11005, 14441, 17595, 18521, 19458, 22527, 22606, 22876, 23374, 24144, 24981, 25824, 29654, 29804, 30360, 33824, 34747, 36252, 37478, 37838, 39453]}, "edge": {"target": [], "time": []}}, "mouseout": {"state": {"target": ["19", "0", "23", "24", "25", "26", "25", "30", "31", "1", "2", "3", "4", "5", "6", "7", "8", "11", "9", "8", "1", "12", "13", "14", "15", "16", "17", "17", "19", "20", "21", "12", "21", "22", "31"], "time": [490, 824, 2441, 3252, 4323, 4908, 5034, 6026, 6149, 6885, 7862, 8691, 9779, 10933, 14376, 17310, 18408, 19346, 22472, 22587, 22646, 23355, 24017, 24850, 25759, 29288, 29709, 30247, 33703, 34585, 34963, 36363, 37730, 38307, 39642]}, "edge": {"target": [], "time": []}}}, "displayed_time": "44.38", "trialTime": 47227, "trial_type": "mouselab-mdp", "trial_index": 19, "time_elapsed": 695236, "internal_node_id": "0.0-4.0-1.0-10.0"}}, {"uniqueid": "w32915339:a76851338", "current_trial": 20, "dateTime": 1691144122009, "trialdata": {"revealed_states": [], "clicked_states": ["23", "24", "25", "26", "28", "27"], "num_clicks_accrued": [0, 0, 0, 0, 0, 0, 0, 0, 0, 0, 0, 0, 0], "stateRewards": ["", -2, 2, 2, -6, 9, 37, 50, -13, -7, -18, -75, -2, -4, 4, 7, 23, -57, -66, -7, -81, -48, -76, 1, 1, -8, 1, 51, -2, 70, 14, 59, 71, -37], "withholdReward": false, "trial_id": "mdp_trial_12", "block": "test", "trialIndex": 13, "score": 39.1, "costs": -6.9, "simulationMode": [null, null, null, null, null], "rewards": [1, 1, -8, 1, 51], "path": ["0", "0", "23", "24", "25", "26", "27"], "rt": [11749, 12, 1, 37, 26], "actions": ["left", "left", "left", "up", "up"], "actionTimes": [13712, 14287, 14864, 15494, 16126], "queries": {"click": {"state": {"target": ["23", "24", "25", "26", "28", "27"], "time": [2622, 3337, 4205, 5103, 5994, 9912]}, "edge": {"target": [], "time": []}}, "mouseover": {"state": {"target": ["23", "24", "25", "26", "28", "24", "27", "25", "30", "30"], "time": [2190, 3015, 3852, 4765, 5754, 9448, 9682, 10283, 10415, 13692]}, "edge": {"target": [], "time": []}}, "mouseout": {"state": {"target": ["19", "22", "0", "23", "24", "25", "26", "28", "24", "27", "25", "30", "30", "31", "19"], "time": [220, 277, 2049, 2880, 3788, 4706, 5735, 9382, 9501, 10121, 10356, 13326, 13746, 13867, 14035]}, "edge": {"target": [], "time": []}}}, "displayed_time": "17.05", "trialTime": 18201, "trial_type": "mouselab-mdp", "trial_index": 20, "time_elapsed": 714156, "internal_node_id": "0.0-4.0-1.0-11.0"}}, {"uniqueid": "w32915339:a76851338", "current_trial": 21, "dateTime": 1691144150397, "trialdata": {"revealed_states": [], "clicked_states": ["23", "24", "25", "26", "30", "31", "32", "33"], "num_clicks_accrued": [0, 0, 0, 0, 0, 0, 0, 0, 0, 0, 0, 0, 0], "stateRewards": ["", -2, -3, 8, 14, -73, 73, 84, -12, -2, -50, -17, 2, 1, -2, -9, -44, -27, -33, 16, -63, -47, -66, -2, 1, 4, -5, -33, -11, 50, 9, 38, -79, 31], "withholdReward": false, "trial_id": "mdp_trial_13", "block": "test", "trialIndex": 14, "score": 39.4, "costs": -10.6, "simulationMode": [null, null, null, null, null], "rewards": [-2, 1, 4, 9, 38], "path": ["0", "0", "23", "24", "25", "30", "31"], "rt": [15729, 556, 139, 62, 96], "actions": ["left", "left", "left", "down", "right"], "actionTimes": [18283, 19450, 20201, 20881, 21591], "queries": {"click": {"state": {"target": ["23", "24", "25", "26", "30", "31", "32", "33"], "time": [3193, 3925, 4726, 5727, 6705, 7681, 11327, 14888]}, "edge": {"target": [], "time": []}}, "mouseover": {"state": {"target": ["23", "24", "25", "26", "30", "31", "32", "33"], "time": [2964, 3636, 4588, 5316, 6447, 7489, 9179, 12087]}, "edge": {"target": [], "time": []}}, "mouseout": {"state": {"target": ["19", "0", "23", "24", "25", "26", "30", "31", "32", "33"], "time": [467, 2916, 3580, 4347, 5205, 6321, 7469, 9002, 11694, 15224]}, "edge": {"target": [], "time": []}}}, "displayed_time": "22.21", "trialTime": 27727, "trial_type": "mouselab-mdp", "trial_index": 21, "time_elapsed": 742544, "internal_node_id": "0.0-4.0-1.0-12.0"}}, {"uniqueid": "w32915339:a76851338", "current_trial": 22, "dateTime": 1691144173177, "trialdata": {"revealed_states": [], "clicked_states": ["23", "24", "25", "26", "28", "27"], "num_clicks_accrued": [0, 0, 0, 0, 0, 0, 0, 0, 0, 0, 0, 0, 0], "stateRewards": ["", 1, 4, 5, -5, 58, -80, 75, 6, 25, -39, 46, 2, -2, 4, 2, 59, 31, -22, -12, -61, 15, 72, 1, -2, -7, 8, 77, 76, -23, -7, 71, -15, -3], "withholdReward": false, "trial_id": "mdp_trial_14", "block": "test", "trialIndex": 15, "score": 70.1, "costs": -6.9, "simulationMode": [null, null, null, null, null], "rewards": [1, -2, -7, 8, 77], "path": ["0", "0", "23", "24", "25", "26", "27"], "rt": [11637, 32, 1, 7, 53], "actions": ["left", "left", "left", "up", "up"], "actionTimes": [13256, 13871, 14474, 15073, 15688], "queries": {"click": {"state": {"target": ["23", "24", "25", "26", "28", "27"], "time": [2170, 2854, 3645, 4365, 5547, 9420]}, "edge": {"target": [], "time": []}}, "mouseover": {"state": {"target": ["23", "24", "25", "26", "30", "28", "27", "24"], "time": [1738, 2595, 3154, 4170, 4837, 5353, 6486, 9869]}, "edge": {"target": [], "time": []}}, "mouseout": {"state": {"target": ["20", "0", "23", "24", "25", "26", "30", "25", "28", "27", "24"], "time": [435, 1718, 2484, 3083, 4046, 4647, 5112, 5186, 6319, 9810, 9929]}, "edge": {"target": [], "time": []}}}, "displayed_time": "16.67", "trialTime": 22048, "trial_type": "mouselab-mdp", "trial_index": 22, "time_elapsed": 765324, "internal_node_id": "0.0-4.0-1.0-13.0"}}, {"uniqueid": "w32915339:a76851338", "current_trial": 23, "dateTime": 1691144196550, "trialdata": {"revealed_states": [], "clicked_states": ["23", "24", "25", "26", "28", "27", "29"], "num_clicks_accrued": [0, 0, 0, 0, 0, 0, 0, 0, 0, 0, 0, 0, 0], "stateRewards": ["", -1, 3, 2, 9, 41, 4, -46, -12, -54, -87, -25, 2, 3, -1, 11, -77, 12, -33, -9, -32, 35, 72, 1, 3, -7, 4, 37, 65, -73, 6, 77, -43, 8], "withholdReward": false, "trial_id": "mdp_trial_15", "block": "test", "trialIndex": 16, "score": 56.95, "costs": -9.05, "simulationMode": [null, null, null, null, null], "rewards": [1, 3, -7, 4, 65], "path": ["0", "0", "23", "24", "25", "26", "28"], "rt": [15073, 1, 9, 623, 164], "actions": ["left", "left", "left", "up", "right"], "actionTimes": [16853, 17462, 18044, 19291, 20044], "queries": {"click": {"state": {"target": ["23", "24", "25", "26", "28", "27", "29"], "time": [2508, 3312, 4008, 4903, 5804, 9642, 13564]}, "edge": {"target": [], "time": []}}, "mouseover": {"state": {"target": ["23", "23", "24", "25", "26", "28", "27", "24", "29"], "time": [1911, 2201, 2865, 3655, 4612, 5575, 7268, 13149, 13268]}, "edge": {"target": [], "time": []}}, "mouseout": {"state": {"target": ["20", "0", "23", "23", "24", "25", "26", "28", "27", "24", "29"], "time": [372, 1868, 2017, 2768, 3584, 4550, 5551, 6623, 10167, 13214, 13770]}, "edge": {"target": [], "time": []}}}, "displayed_time": "20.66", "trialTime": 22651, "trial_type": "mouselab-mdp", "trial_index": 23, "time_elapsed": 788697, "internal_node_id": "0.0-4.0-1.0-14.0"}}, {"uniqueid": "w32915339:a76851338", "current_trial": 24, "dateTime": 1691144249878, "trialdata": {"revealed_states": [], "clicked_states": ["23", "24", "25", "26", "30", "32", "1", "2", "3", "4", "8", "11", "9", "12", "13", "14", "19", "15", "22", "21", "20"], "num_clicks_accrued": [0, 0, 0, 0, 0, 0, 0, 0, 0, 0, 0, 0, 0], "stateRewards": ["", -2, -3, 4, 1, 33, -53, 15, 9, -12, 61, -6, -2, 4, 6, -11, 47, -43, -7, -11, 46, 23, -28, -1, -1, 3, -10, 11, 76, -76, 10, 18, -38, 87], "withholdReward": false, "trial_id": "mdp_trial_16", "block": "test", "trialIndex": 17, "score": 17.650000000000006, "costs": -25.349999999999994, "simulationMode": [null, null, null, null, null], "rewards": [-2, 4, 6, -11, 46], "path": ["0", "0", "12", "13", "14", "19", "20"], "rt": [35884, 38, 84, 8, 157], "actions": ["right", "right", "right", "down", "right"], "actionTimes": [40099, 40710, 41369, 41992, 42759], "queries": {"click": {"state": {"target": ["23", "24", "25", "26", "30", "32", "1", "2", "3", "4", "8", "11", "9", "12", "13", "14", "19", "15", "22", "21", "20"], "time": [5063, 5814, 6530, 7298, 8323, 9758, 13652, 14339, 15064, 15914, 16794, 17667, 21302, 24641, 25319, 26097, 27026, 27989, 29520, 33100, 36579]}, "edge": {"target": [], "time": []}}, "mouseover": {"state": {"target": ["23", "24", "25", "26", "30", "23", "31", "32", "31", "1", "2", "3", "4", "8", "11", "9", "9", "2", "12", "13", "14", "19", "15", "22", "21", "20", "17"], "time": [4676, 5440, 6214, 6993, 8121, 8842, 9040, 9382, 10618, 13343, 14025, 14782, 15723, 16366, 17537, 18703, 21125, 21682, 22181, 24969, 25612, 26660, 27656, 29294, 32895, 34083, 38730]}, "edge": {"target": [], "time": []}}, "mouseout": {"state": {"target": ["0", "23", "24", "25", "26", "25", "30", "23", "31", "32", "31", "1", "2", "3", "4", "3", "8", "11", "9", "9", "2", "12", "13", "14", "19", "14", "15", "22", "21", "20", "17"], "time": [4631, 5332, 6078, 6934, 7832, 7954, 8500, 9017, 9090, 10445, 13114, 13913, 14762, 15607, 16197, 16307, 17424, 18477, 19591, 21620, 21744, 24910, 25544, 26601, 27572, 27636, 29003, 29954, 33201, 36920, 40296]}, "edge": {"target": [], "time": []}}}, "displayed_time": "43.34", "trialTime": 52687, "trial_type": "mouselab-mdp", "trial_index": 24, "time_elapsed": 842025, "internal_node_id": "0.0-4.0-1.0-15.0"}}, {"uniqueid": "w32915339:a76851338", "current_trial": 25, "dateTime": 1691144272318, "trialdata": {"revealed_states": [], "clicked_states": ["23", "24", "25", "26", "30", "32", "31"], "num_clicks_accrued": [0, 0, 0, 0, 0, 0, 0, 0, 0, 0, 0, 0, 0], "stateRewards": ["", -2, 4, -5, -12, 85, -24, -18, -15, -78, -22, 26, -1, -1, 2, 14, -45, 52, -23, 7, -33, 24, -6, -2, -4, 5, -7, -16, 36, -39, 5, 71, -87, -23], "withholdReward": false, "trial_id": "mdp_trial_17", "block": "test", "trialIndex": 18, "score": 66.55, "costs": -8.45, "simulationMode": [null, null, null, null, null], "rewards": [-2, -4, 5, 5, 71], "path": ["0", "0", "23", "24", "25", "30", "31"], "rt": [13325, 74, 44, 1, 27], "actions": ["left", "left", "left", "down", "right"], "actionTimes": [14967, 15606, 16221, 16831, 17497], "queries": {"click": {"state": {"target": ["23", "24", "25", "26", "30", "32", "31"], "time": [2181, 2779, 3640, 4453, 5462, 6523, 10803]}, "edge": {"target": [], "time": []}}, "mouseover": {"state": {"target": ["23", "24", "25", "26", "30", "32", "31", "1", "31", "23", "0", "1"], "time": [1833, 2469, 3376, 4204, 5162, 6319, 7391, 8227, 10454, 11423, 11679, 11810]}, "edge": {"target": [], "time": []}}, "mouseout": {"state": {"target": ["12", "0", "23", "24", "25", "26", "30", "32", "31", "1", "32", "31", "23", "0", "1"], "time": [331, 1723, 2415, 3304, 4093, 5099, 6259, 7090, 7850, 10049, 10343, 11251, 11483, 11744, 15179]}, "edge": {"target": [], "time": []}}}, "displayed_time": "18.07", "trialTime": 21684, "trial_type": "mouselab-mdp", "trial_index": 25, "time_elapsed": 864465, "internal_node_id": "0.0-4.0-1.0-16.0"}}, {"uniqueid": "w32915339:a76851338", "current_trial": 26, "dateTime": 1691144329889, "trialdata": {"revealed_states": [], "clicked_states": ["23", "24", "25", "26", "30", "31", "1", "2", "3", "4", "8", "11", "10", "12", "13", "14", "15", "17", "18", "16", "19", "22", "21", "20"], "num_clicks_accrued": [0, 0, 0, 0, 0, 0, 0, 0, 0, 0, 0, 0, 0], "stateRewards": ["", 1, -3, -6, -5, 47, 80, -29, 11, -71, 10, -29, -2, 3, -6, 12, 2, -78, -6, 8, 34, -16, -5, -1, 3, 3, -13, 84, -36, -62, -3, -27, 66, 15], "withholdReward": false, "trial_id": "mdp_trial_18", "block": "test", "trialIndex": 19, "score": 5.20000000000001, "costs": -31.79999999999999, "simulationMode": [null, null, null, null, null], "rewards": [-2, 3, -6, 8, 34], "path": ["0", "0", "12", "13", "14", "19", "20"], "rt": [44373, 1, 1, 590, 92], "actions": ["right", "right", "right", "down", "right"], "actionTimes": [46902, 47491, 48080, 49296, 49991], "queries": {"click": {"state": {"target": ["23", "24", "25", "26", "30", "31", "1", "2", "3", "4", "8", "11", "10", "12", "13", "14", "15", "17", "18", "16", "19", "22", "21", "20"], "time": [3152, 3797, 4540, 5410, 6487, 7725, 11123, 11950, 12777, 13488, 14542, 15698, 19056, 22484, 23184, 23802, 24671, 25815, 29181, 32513, 35617, 36884, 40225, 43577]}, "edge": {"target": [], "time": []}}, "mouseover": {"state": {"target": ["23", "24", "25", "26", "30", "31", "0", "1", "2", "3", "4", "8", "11", "10", "12", "13", "14", "15", "17", "18", "16", "19", "22", "21", "20", "32"], "time": [2891, 3626, 4313, 5198, 6077, 7471, 8836, 8960, 11706, 12408, 13235, 14295, 15450, 16953, 19691, 22930, 23473, 24428, 25670, 26458, 29777, 32966, 36288, 39137, 41865, 44320]}, "edge": {"target": [], "time": []}}, "mouseout": {"state": {"target": ["14", "13", "12", "0", "23", "24", "25", "26", "30", "31", "0", "1", "2", "3", "4", "3", "8", "8", "11", "10", "12", "13", "14", "15", "17", "15", "18", "16", "19", "22", "21", "20", "32"], "time": [1285, 1342, 1730, 2623, 3428, 4290, 5027, 5953, 7355, 8055, 8898, 11488, 12295, 13170, 14112, 14273, 15055, 15335, 16381, 19372, 22863, 23406, 24362, 25559, 26268, 26439, 29543, 32842, 36268, 38852, 40641, 43890, 47139]}, "edge": {"target": [], "time": []}}}, "displayed_time": "50.56", "trialTime": 56928, "trial_type": "mouselab-mdp", "trial_index": 26, "time_elapsed": 922036, "internal_node_id": "0.0-4.0-1.0-17.0"}}, {"uniqueid": "w32915339:a76851338", "current_trial": 27, "dateTime": 1691144368386, "trialdata": {"revealed_states": [], "clicked_states": ["23", "24", "25", "26", "28", "29", "27", "30", "1", "2", "3", "4", "12", "13", "14", "15", "17"], "num_clicks_accrued": [0, 0, 0, 0, 0, 0, 0, 0, 0, 0, 0, 0, 0], "stateRewards": ["", -2, -4, -2, 10, -8, -15, -47, 7, -84, 53, 5, -1, 2, -7, 3, 83, 31, 47, -1, 30, -8, 69, 2, -4, -1, 8, -7, 12, -8, -8, -13, 30, -84], "withholdReward": false, "trial_id": "mdp_trial_19", "block": "test", "trialIndex": 20, "score": 10.05, "costs": -17.95, "simulationMode": [null, null, null, null, null], "rewards": [-1, 2, -7, 3, 31], "path": ["0", "0", "12", "13", "14", "15", "17"], "rt": [28674, 27, 59, 1, 48], "actions": ["right", "right", "right", "up", "right"], "actionTimes": [30774, 31374, 31999, 32616, 33254], "queries": {"click": {"state": {"target": ["23", "24", "25", "26", "28", "29", "27", "30", "1", "2", "3", "4", "12", "13", "14", "15", "17"], "time": [3923, 4652, 5512, 6367, 7544, 11505, 15454, 18738, 20075, 20765, 21537, 22197, 23157, 23976, 24771, 25526, 26619]}, "edge": {"target": [], "time": []}}, "mouseover": {"state": {"target": ["23", "23", "24", "25", "26", "30", "28", "30", "29", "30", "25", "26", "27", "30", "31", "1", "1", "2", "3", "4", "7", "12", "13", "14", "15", "17", "19"], "time": [2537, 3628, 4235, 4947, 6061, 7108, 7284, 7823, 11207, 11785, 14891, 14987, 15141, 15893, 19165, 19552, 19779, 20516, 21262, 21878, 22501, 22629, 23659, 24562, 25166, 26471, 26941]}, "edge": {"target": [], "time": []}}, "mouseout": {"state": {"target": ["22", "0", "23", "23", "24", "25", "26", "25", "30", "28", "30", "29", "30", "25", "26", "27", "30", "31", "1", "1", "2", "3", "4", "7", "12", "13", "14", "15", "14", "17", "19", "20"], "time": [1007, 2455, 2578, 4177, 4874, 6001, 6821, 6883, 7172, 7765, 11141, 11726, 14871, 14934, 15088, 15730, 19103, 19438, 19613, 20451, 21243, 21756, 22482, 22564, 23374, 24266, 25107, 26068, 26289, 26829, 31078, 31144]}, "edge": {"target": [], "time": []}}}, "displayed_time": "33.88", "trialTime": 37838, "trial_type": "mouselab-mdp", "trial_index": 27, "time_elapsed": 960533, "internal_node_id": "0.0-4.0-1.0-18.0"}}, {"uniqueid": "w32915339:a76851338", "current_trial": 28, "dateTime": 1691144404506, "trialdata": {"revealed_states": [], "clicked_states": ["23", "24", "25", "26", "28", "29"], "num_clicks_accrued": [0, 0, 0, 0, 0, 0, 0, 0, 0, 0, 0, 0, 0], "stateRewards": ["", 2, -1, -2, -5, -47, -57, -33, -11, 31, -18, -72, -2, 1, -4, -8, -46, -53, -50, 15, -85, -9, 39, -2, -2, 1, 14, -1, -8, 53, -12, -41, -74, 62], "withholdReward": false, "trial_id": "mdp_trial_20", "block": "test", "trialIndex": 21, "score": 57.1, "costs": -6.9, "simulationMode": [null, null, null, null, null], "rewards": [-2, -2, 1, 14, 53], "path": ["0", "0", "23", "24", "25", "26", "29"], "rt": [10772, 35, 70, 55, 80], "actions": ["left", "left", "left", "up", "left"], "actionTimes": [12421, 13030, 13661, 14326, 15007], "queries": {"click": {"state": {"target": ["23", "24", "25", "26", "28", "29"], "time": [2294, 3031, 3700, 4491, 5395, 8739]}, "edge": {"target": [], "time": []}}, "mouseover": {"state": {"target": ["0", "23", "24", "25", "26", "28", "29", "30", "26", "27"], "time": [1727, 1824, 2555, 3286, 4306, 5254, 6431, 9613, 10354, 10585]}, "edge": {"target": [], "time": []}}, "mouseout": {"state": {"target": ["21", "0", "0", "23", "24", "25", "26", "28", "29", "30", "26", "27"], "time": [498, 824, 1782, 2506, 3223, 4247, 5137, 6372, 9328, 10294, 10412, 15528]}, "edge": {"target": [], "time": []}}}, "displayed_time": "16.51", "trialTime": 35464, "trial_type": "mouselab-mdp", "trial_index": 28, "time_elapsed": 996653, "internal_node_id": "0.0-4.0-1.0-19.0"}}, {"uniqueid": "w32915339:a76851338", "current_trial": 29, "dateTime": 1691144426833, "trialdata": {"revealed_states": [], "clicked_states": ["23", "24", "25", "26", "27", "28", "29", "30"], "num_clicks_accrued": [0, 0, 0, 0, 0, 0, 0, 0, 0, 0, 0, 0, 0], "stateRewards": ["", 2, 4, 7, -6, -76, -81, 2, 5, -66, -3, 36, -2, -4, 6, -2, -69, 4, -49, -6, 67, 38, -67, 2, 1, 1, 6, -68, -21, 52, -16, -16, 6, -70], "withholdReward": false, "trial_id": "mdp_trial_21", "block": "test", "trialIndex": 22, "score": 51.4, "costs": -10.600000000000001, "simulationMode": [null, null, null, null, null], "rewards": [2, 1, 1, 6, 52], "path": ["0", "0", "23", "24", "25", "26", "29"], "rt": [15512, 13, 35, 53, 92], "actions": ["left", "left", "left", "up", "left"], "actionTimes": [16971, 17558, 18155, 18804, 19500], "queries": {"click": {"state": {"target": ["23", "24", "25", "26", "27", "28", "29", "30"], "time": [2199, 2868, 3743, 4565, 5381, 8763, 12052, 15892]}, "edge": {"target": [], "time": []}}, "mouseover": {"state": {"target": ["23", "23", "24", "25", "26", "27", "28", "26", "29", "30", "31"], "time": [1725, 1953, 2646, 3256, 4194, 5186, 6472, 9145, 9228, 12483, 16441]}, "edge": {"target": [], "time": []}}, "mouseout": {"state": {"target": ["25", "0", "23", "23", "24", "25", "26", "27", "28", "26", "29", "30", "31"], "time": [269, 1670, 1773, 2457, 3126, 4136, 4670, 6408, 9082, 9207, 12423, 16421, 17290]}, "edge": {"target": [], "time": []}}}, "displayed_time": "20.08", "trialTime": 21685, "trial_type": "mouselab-mdp", "trial_index": 29, "time_elapsed": 1018980, "internal_node_id": "0.0-4.0-1.0-20.0"}}, {"uniqueid": "w32915339:a76851338", "current_trial": 30, "dateTime": 1691144452623, "trialdata": {"revealed_states": [], "clicked_states": ["23", "24", "25", "26", "30", "28", "1", "2", "3", "4", "6"], "num_clicks_accrued": [0, 0, 0, 0, 0, 0, 0, 0, 0, 0, 0, 0, 0], "stateRewards": ["", 1, 3, 3, -10, 52, 68, 59, 12, 7, 49, 21, -2, -3, -4, -2, -2, 63, 63, -4, 44, 43, -76, -2, -3, -6, 13, 48, 36, 12, -5, -36, -33, -11], "withholdReward": false, "trial_id": "mdp_trial_22", "block": "test", "trialIndex": 23, "score": 53.95, "costs": -11.049999999999999, "simulationMode": [null, null, null, null, null], "rewards": [1, 3, 3, -10, 68], "path": ["0", "0", "1", "2", "3", "4", "6"], "rt": [16224, 566, 190, 82, 59], "actions": ["up", "up", "up", "right", "right"], "actionTimes": [17816, 19000, 19771, 20446, 21117], "queries": {"click": {"state": {"target": ["23", "24", "25", "26", "30", "28", "1", "2", "3", "4", "6"], "time": [2406, 3149, 3754, 4620, 5438, 6400, 10112, 10894, 11640, 12811, 13834]}, "edge": {"target": [], "time": []}}, "mouseover": {"state": {"target": ["23", "24", "25", "26", "30", "28", "1", "2", "3", "4", "6", "8"], "time": [2196, 2896, 3429, 4319, 5081, 6209, 6963, 10643, 11314, 12246, 13642, 14214]}, "edge": {"target": [], "time": []}}, "mouseout": {"state": {"target": ["0", "23", "24", "25", "26", "25", "30", "26", "28", "1", "2", "3", "4", "6", "8"], "time": [2176, 2785, 3362, 4246, 4902, 4963, 5933, 6095, 6783, 10478, 11192, 12125, 13470, 14040, 18123]}, "edge": {"target": [], "time": []}}}, "displayed_time": "21.73", "trialTime": 25158, "trial_type": "mouselab-mdp", "trial_index": 30, "time_elapsed": 1044770, "internal_node_id": "0.0-4.0-1.0-21.0"}}, {"uniqueid": "w32915339:a76851338", "current_trial": 31, "dateTime": 1691144491597, "trialdata": {"revealed_states": [], "clicked_states": ["23", "24", "25", "26", "30", "1", "2", "3", "12", "13", "14", "15", "17", "18", "16", "19", "21", "20"], "num_clicks_accrued": [0, 0, 0, 0, 0, 0, 0, 0, 0, 0, 0, 0, 0], "stateRewards": ["", -1, -4, -1, -5, -28, -23, -15, -15, -38, 59, -87, 2, 2, -5, 9, -55, -39, -71, -6, 85, -85, -11, -1, -2, 5, -10, 1, 25, 41, -4, 69, -35, 86], "withholdReward": false, "trial_id": "mdp_trial_23", "block": "test", "trialIndex": 24, "score": 57.900000000000006, "costs": -20.099999999999998, "simulationMode": [null, null, null, null, null], "rewards": [2, 2, -5, -6, 85], "path": ["0", "0", "12", "13", "14", "19", "20"], "rt": [29346, 17, 2, 1, 1], "actions": ["right", "right", "right", "down", "right"], "actionTimes": [32064, 32685, 33295, 33885, 34528], "queries": {"click": {"state": {"target": ["23", "24", "25", "26", "30", "1", "2", "3", "12", "13", "14", "15", "17", "18", "16", "19", "21", "20"], "time": [3621, 4360, 5085, 5872, 7035, 8465, 9220, 9968, 11038, 11630, 12588, 13384, 14320, 17656, 20943, 24235, 25250, 28555]}, "edge": {"target": [], "time": []}}, "mouseover": {"state": {"target": ["23", "24", "25", "26", "30", "31", "0", "1", "1", "2", "3", "12", "13", "14", "15", "17", "18", "16", "14", "19", "21", "20", "19", "22"], "time": [3322, 3906, 4664, 5671, 6897, 7653, 7828, 7908, 8186, 8779, 9517, 10672, 11364, 12040, 13128, 14162, 14843, 18142, 21441, 21626, 24918, 25738, 28890, 28999]}, "edge": {"target": [], "time": []}}, "mouseout": {"state": {"target": ["13", "12", "12", "0", "0", "23", "24", "25", "26", "25", "30", "31", "0", "1", "1", "2", "3", "12", "13", "14", "15", "17", "17", "18", "16", "14", "19", "21", "20", "19", "22", "19"], "time": [366, 404, 520, 703, 2797, 3850, 4589, 5547, 6613, 6734, 7583, 7769, 7889, 7954, 8719, 9382, 10559, 11253, 11914, 13109, 14052, 14432, 14614, 17962, 21325, 21507, 24899, 25467, 28870, 28939, 32198, 32260]}, "edge": {"target": [], "time": []}}}, "displayed_time": "35.14", "trialTime": 38299, "trial_type": "mouselab-mdp", "trial_index": 31, "time_elapsed": 1083743, "internal_node_id": "0.0-4.0-1.0-22.0"}}, {"uniqueid": "w32915339:a76851338", "current_trial": 32, "dateTime": 1691144519121, "trialdata": {"revealed_states": [], "clicked_states": ["23", "24", "25", "26", "28", "29", "30", "31"], "num_clicks_accrued": [0, 0, 0, 0, 0, 0, 0, 0, 0, 0, 0, 0, 0], "stateRewards": ["", -1, -4, 8, 8, -68, 47, 24, -7, -61, 49, -69, -1, -1, 8, -7, 42, 1, -45, -11, 10, -63, -6, 1, 4, 6, -16, 79, -37, -58, -12, 81, 18, -53], "withholdReward": false, "trial_id": "mdp_trial_24", "block": "test", "trialIndex": 25, "score": 69.4, "costs": -10.600000000000001, "simulationMode": [null, null, null, null, null], "rewards": [1, 4, 6, -12, 81], "path": ["0", "0", "23", "24", "25", "30", "31"], "rt": [16057, 1, 1, 15, 53], "actions": ["left", "left", "left", "down", "right"], "actionTimes": [17834, 18455, 19034, 19689, 20375], "queries": {"click": {"state": {"target": ["23", "24", "25", "26", "28", "29", "30", "31"], "time": [2644, 3404, 4170, 4996, 5930, 9349, 12867, 14352]}, "edge": {"target": [], "time": []}}, "mouseover": {"state": {"target": ["23", "24", "25", "26", "28", "29", "30", "31", "32"], "time": [2340, 3134, 3725, 4747, 5565, 6628, 10019, 14250, 14899]}, "edge": {"target": [], "time": []}}, "mouseout": {"state": {"target": ["14", "13", "12", "23", "23", "24", "25", "26", "28", "29", "30", "31", "32"], "time": [745, 876, 1013, 2686, 2839, 3660, 4677, 5123, 6562, 9676, 14191, 14779, 18039]}, "edge": {"target": [], "time": []}}}, "displayed_time": "20.93", "trialTime": 26866, "trial_type": "mouselab-mdp", "trial_index": 32, "time_elapsed": 1111268, "internal_node_id": "0.0-4.0-1.0-23.0"}}, {"uniqueid": "w32915339:a76851338", "current_trial": 33, "dateTime": 1691144539954, "trialdata": {"revealed_states": [], "clicked_states": ["23", "24", "25", "26", "28"], "num_clicks_accrued": [0, 0, 0, 0, 0, 0, 0, 0, 0, 0, 0, 0, 0], "stateRewards": ["", -1, 1, -2, 5, 73, 15, 61, 8, 7, 38, 76, 2, 2, -4, -6, -6, -26, 43, -5, -45, -85, -35, -2, 1, -4, 15, -10, 69, 72, -11, 84, -49, -38], "withholdReward": false, "trial_id": "mdp_trial_25", "block": "test", "trialIndex": 26, "score": 74.25, "costs": -4.75, "simulationMode": [null, null, null, null, null], "rewards": [-2, 1, -4, 15, 69], "path": ["0", "0", "23", "24", "25", "26", "28"], "rt": [7554, 44, 71, 25, 55], "actions": ["left", "left", "left", "up", "right"], "actionTimes": [8771, 9434, 10107, 10737, 11386], "queries": {"click": {"state": {"target": ["23", "24", "25", "26", "28"], "time": [1762, 2379, 3102, 3985, 4938]}, "edge": {"target": [], "time": []}}, "mouseover": {"state": {"target": ["23", "24", "25", "26", "28", "29"], "time": [1309, 2105, 2663, 3727, 4850, 5749]}, "edge": {"target": [], "time": []}}, "mouseout": {"state": {"target": ["0", "23", "24", "25", "26", "28", "26", "29"], "time": [1291, 2057, 2605, 3595, 4679, 5572, 5636, 9907]}, "edge": {"target": [], "time": []}}}, "displayed_time": "16.13", "trialTime": 20027, "trial_type": "mouselab-mdp", "trial_index": 33, "time_elapsed": 1132100, "internal_node_id": "0.0-4.0-1.0-24.0"}}, {"uniqueid": "w32915339:a76851338", "current_trial": 34, "dateTime": 1691144561234, "trialdata": {"revealed_states": [], "clicked_states": ["23", "24", "25", "26", "28", "29"], "num_clicks_accrued": [0, 0, 0, 0, 0, 0, 0, 0, 0, 0, 0, 0, 0], "stateRewards": ["", 2, -1, 4, -9, -43, 7, 54, -13, 38, -40, -83, -1, 2, -8, -10, 34, -33, 11, -14, -79, 65, 26, 1, 2, 4, 10, 21, 1, 86, 4, -53, 28, -29], "withholdReward": false, "trial_id": "mdp_trial_26", "block": "test", "trialIndex": 27, "score": 96.1, "costs": -6.9, "simulationMode": [null, null, null, null, null], "rewards": [1, 2, 4, 10, 86], "path": ["0", "0", "23", "24", "25", "26", "29"], "rt": [11925, 53, 75, 97, 117], "actions": ["left", "left", "left", "up", "left"], "actionTimes": [13386, 14034, 14696, 15377, 16114], "queries": {"click": {"state": {"target": ["23", "24", "25", "26", "28", "29"], "time": [2479, 3263, 4219, 5327, 6470, 9975]}, "edge": {"target": [], "time": []}}, "mouseover": {"state": {"target": ["23", "24", "25", "26", "28", "29", "27"], "time": [2087, 2907, 3651, 5191, 5916, 6849, 10708]}, "edge": {"target": [], "time": []}}, "mouseout": {"state": {"target": ["0", "23", "24", "25", "26", "28", "26", "29", "27", "30"], "time": [1793, 2774, 3524, 4812, 5853, 6726, 6787, 10393, 13894, 17805]}, "edge": {"target": [], "time": []}}}, "displayed_time": "16.73", "trialTime": 20634, "trial_type": "mouselab-mdp", "trial_index": 34, "time_elapsed": 1153381, "internal_node_id": "0.0-4.0-1.0-25.0"}}, {"uniqueid": "w32915339:a76851338", "current_trial": 35, "dateTime": 1691144595546, "trialdata": {"revealed_states": [], "clicked_states": ["23", "24", "25", "26", "29", "28", "27", "30", "1", "2", "3", "4", "6", "5"], "num_clicks_accrued": [0, 0, 0, 0, 0, 0, 0, 0, 0, 0, 0, 0, 0], "stateRewards": ["", 2, -4, 4, 9, 69, 9, -75, 12, -86, 66, 25, -1, 3, 2, -13, -88, -3, 1, 4, -69, 49, -84, 2, -1, 4, 2, -18, -81, -52, -15, -69, -54, 25], "withholdReward": false, "trial_id": "mdp_trial_27", "block": "test", "trialIndex": 28, "score": 62.5, "costs": -17.5, "simulationMode": [null, null, null, null, null], "rewards": [2, -4, 4, 9, 69], "path": ["0", "0", "1", "2", "3", "4", "5"], "rt": [26170, 1, 25, 39, 170], "actions": ["up", "up", "up", "right", "up"], "actionTimes": [27487, 28110, 28760, 29405, 30167], "queries": {"click": {"state": {"target": ["23", "24", "25", "26", "29", "28", "27", "30", "1", "2", "3", "4", "6", "5"], "time": [1979, 2871, 3684, 4646, 5476, 8869, 12134, 15493, 16600, 17375, 18408, 19247, 20098, 24077]}, "edge": {"target": [], "time": []}}, "mouseover": {"state": {"target": ["23", "24", "25", "26", "29", "28", "27", "30", "30", "31", "1", "2", "3", "4", "6", "5"], "time": [1637, 2617, 3324, 4447, 5279, 6212, 9600, 12628, 12980, 16081, 16410, 17136, 18103, 18740, 19868, 23771]}, "edge": {"target": [], "time": []}}, "mouseout": {"state": {"target": ["0", "23", "24", "25", "26", "29", "28", "27", "30", "30", "31", "1", "2", "3", "4", "6", "5"], "time": [1421, 2332, 3027, 4274, 5259, 6095, 9148, 12511, 12791, 16062, 16128, 16914, 17718, 18520, 19849, 20378, 24289]}, "edge": {"target": [], "time": []}}}, "displayed_time": "30.79", "trialTime": 33663, "trial_type": "mouselab-mdp", "trial_index": 35, "time_elapsed": 1187693, "internal_node_id": "0.0-4.0-1.0-26.0"}}, {"uniqueid": "w32915339:a76851338", "current_trial": 36, "dateTime": 1691144623426, "trialdata": {"revealed_states": [], "clicked_states": ["23", "24", "25", "26", "28", "29", "27"], "num_clicks_accrued": [0, 0, 0, 0, 0, 0, 0, 0, 0, 0, 0, 0, 0], "stateRewards": ["", -2, 1, -5, 2, -68, 80, 33, 10, 67, -59, 20, -1, -3, 3, 14, 74, -2, 24, -16, 63, 80, 46, -1, 4, 6, 12, 83, -38, -43, -4, 43, 14, -79], "withholdReward": false, "trial_id": "mdp_trial_28", "block": "test", "trialIndex": 29, "score": 94.95, "costs": -9.05, "simulationMode": [null, null, null, null, null], "rewards": [-1, 4, 6, 12, 83], "path": ["0", "0", "23", "24", "25", "26", "27"], "rt": [14857, 30, 85, 104, 62], "actions": ["left", "left", "left", "up", "up"], "actionTimes": [16299, 16907, 17611, 18274, 18947], "queries": {"click": {"state": {"target": ["23", "24", "25", "26", "28", "29", "27"], "time": [2218, 2982, 3966, 5074, 6256, 9645, 12924]}, "edge": {"target": [], "time": []}}, "mouseover": {"state": {"target": ["23", "24", "25", "26", "28", "29", "27", "25", "30"], "time": [1964, 2532, 3385, 4529, 5835, 6545, 10350, 13427, 13551]}, "edge": {"target": [], "time": []}}, "mouseout": {"state": {"target": ["12", "0", "23", "24", "25", "26", "28", "26", "29", "27", "25", "30"], "time": [378, 1570, 2475, 3263, 4419, 5713, 6407, 6525, 10019, 13311, 13486, 16743]}, "edge": {"target": [], "time": []}}}, "displayed_time": "19.55", "trialTime": 27229, "trial_type": "mouselab-mdp", "trial_index": 36, "time_elapsed": 1215572, "internal_node_id": "0.0-4.0-1.0-27.0"}}, {"uniqueid": "w32915339:a76851338", "current_trial": 37, "dateTime": 1691144648530, "trialdata": {"revealed_states": [], "clicked_states": ["23", "24", "25", "26", "27", "29"], "num_clicks_accrued": [0, 0, 0, 0, 0, 0, 0, 0, 0, 0, 0, 0, 0], "stateRewards": ["", 1, 2, 2, -15, -84, 28, -26, 13, 31, 86, 30, -2, 1, -1, -8, 66, -40, -1, -10, -32, 57, -17, 1, 2, -2, 9, -23, 77, 85, 12, -32, -62, -35], "withholdReward": false, "trial_id": "mdp_trial_29", "block": "test", "trialIndex": 30, "score": 88.1, "costs": -6.9, "simulationMode": [null, null, null, null, null], "rewards": [1, 2, -2, 9, 85], "path": ["0", "0", "23", "24", "25", "26", "29"], "rt": [10883, 94, 1, 52, 130], "actions": ["left", "left", "left", "up", "left"], "actionTimes": [12170, 12872, 13493, 14160, 14847], "queries": {"click": {"state": {"target": ["23", "24", "25", "26", "27", "29"], "time": [2085, 2816, 3690, 4469, 5320, 8666]}, "edge": {"target": [], "time": []}}, "mouseover": {"state": {"target": ["23", "24", "25", "26", "27", "29", "28"], "time": [1789, 2556, 3326, 4218, 5137, 5998, 9059]}, "edge": {"target": [], "time": []}}, "mouseout": {"state": {"target": ["0", "23", "24", "25", "26", "27", "29", "28"], "time": [1364, 2504, 3262, 4151, 5016, 5929, 8940, 12478]}, "edge": {"target": [], "time": []}}}, "displayed_time": "16.57", "trialTime": 24418, "trial_type": "mouselab-mdp", "trial_index": 37, "time_elapsed": 1240677, "internal_node_id": "0.0-4.0-1.0-28.0"}}, {"uniqueid": "w32915339:a76851338", "current_trial": 38, "dateTime": 1691144669926, "trialdata": {"revealed_states": [], "clicked_states": ["23", "24", "25", "26", "29", "27", "28"], "num_clicks_accrued": [0, 0, 0, 0, 0, 0, 0, 0, 0, 0, 0, 0, 0], "stateRewards": ["", 1, -4, -6, -1, -21, 17, -72, 10, 77, 67, -46, -1, 4, -2, 14, -66, -49, -45, -15, -52, 23, -67, 2, -2, -2, 15, -3, 45, -64, 5, -44, 83, 61], "withholdReward": false, "trial_id": "mdp_trial_30", "block": "test", "trialIndex": 31, "score": 48.95, "costs": -9.05, "simulationMode": [null, null, null, null, null], "rewards": [2, -2, -2, 15, 45], "path": ["0", "0", "23", "24", "25", "26", "28"], "rt": [14657, 10, 23, 63, 62], "actions": ["left", "left", "left", "up", "right"], "actionTimes": [16417, 17050, 17672, 18311, 18952], "queries": {"click": {"state": {"target": ["23", "24", "25", "26", "29", "27", "28"], "time": [2531, 3316, 4044, 4918, 6124, 9367, 12856]}, "edge": {"target": [], "time": []}}, "mouseover": {"state": {"target": ["23", "24", "25", "26", "29", "27", "28", "30"], "time": [2275, 2848, 3664, 4620, 5940, 7946, 9865, 13510]}, "edge": {"target": [], "time": []}}, "mouseout": {"state": {"target": ["25", "24", "23", "0", "12", "0", "23", "24", "25", "26", "26", "29", "27", "28", "30", "31"], "time": [358, 422, 457, 489, 720, 2210, 2751, 3598, 4507, 5588, 5921, 7103, 9634, 13178, 16729, 16787]}, "edge": {"target": [], "time": []}}}, "displayed_time": "19.54", "trialTime": 20712, "trial_type": "mouselab-mdp", "trial_index": 38, "time_elapsed": 1262073, "internal_node_id": "0.0-4.0-1.0-29.0"}}, {"uniqueid": "w32915339:a76851338", "current_trial": 39, "dateTime": 1691144698161, "trialdata": {"revealed_states": [], "clicked_states": ["23", "24", "25", "26", "27", "29", "28", "30", "31"], "num_clicks_accrued": [0, 0, 0, 0, 0, 0, 0, 0, 0, 0, 0, 0, 0], "stateRewards": ["", 1, 1, -5, 8, -6, 45, 16, -6, -7, -22, -38, -1, -4, 8, -11, -16, 21, -45, -15, -59, -32, 42, -1, 3, 6, 11, -7, 34, -27, -8, 85, 43, -9], "withholdReward": false, "trial_id": "mdp_trial_31", "block": "test", "trialIndex": 32, "score": 72.25, "costs": -12.750000000000002, "simulationMode": [null, null, null, null, null], "rewards": [-1, 3, 6, -8, 85], "path": ["0", "0", "23", "24", "25", "30", "31"], "rt": [19399, 1, 53, 42, 26], "actions": ["left", "left", "left", "down", "right"], "actionTimes": [20676, 21291, 21930, 22595, 23284], "queries": {"click": {"state": {"target": ["23", "24", "25", "26", "27", "29", "28", "30", "31"], "time": [2130, 2759, 3480, 4199, 5375, 8688, 11964, 15399, 17145]}, "edge": {"target": [], "time": []}}, "mouseover": {"state": {"target": ["0", "23", "24", "25", "26", "27", "29", "26", "28", "28", "30", "31", "1"], "time": [1369, 1945, 2479, 3165, 3946, 5020, 5923, 9017, 9086, 9462, 12647, 17012, 17679]}, "edge": {"target": [], "time": []}}, "mouseout": {"state": {"target": ["0", "0", "23", "24", "25", "26", "27", "29", "26", "28", "28", "30", "31", "1"], "time": [443, 1416, 2361, 3099, 3887, 4901, 5864, 8998, 9066, 9134, 12300, 15757, 17314, 20807]}, "edge": {"target": [], "time": []}}}, "displayed_time": "23.89", "trialTime": 27452, "trial_type": "mouselab-mdp", "trial_index": 39, "time_elapsed": 1290308, "internal_node_id": "0.0-4.0-1.0-30.0"}}, {"uniqueid": "w32915339:a76851338", "current_trial": 40, "dateTime": 1691144735008, "trialdata": {"revealed_states": [], "clicked_states": ["23", "24", "25", "26", "27", "29", "30", "31", "32", "1", "2", "3", "8", "11", "9"], "num_clicks_accrued": [0, 0, 0, 0, 0, 0, 0, 0, 0, 0, 0, 0, 0], "stateRewards": ["", -1, 1, -5, -6, -78, 47, -13, 12, 48, -88, 20, 2, -3, -2, 13, -20, 37, -57, 14, -38, 30, 31, -2, -2, 8, 2, -23, 78, 28, 12, -74, -88, 8], "withholdReward": false, "trial_id": "mdp_trial_32", "block": "test", "trialIndex": 33, "score": 35.35, "costs": -19.65, "simulationMode": [null, null, null, null, null], "rewards": [-1, 1, -5, 12, 48], "path": ["0", "0", "1", "2", "3", "8", "9"], "rt": [30124, 1, 72, 54, 22], "actions": ["up", "up", "up", "left", "up"], "actionTimes": [31475, 32079, 32748, 33412, 34043], "queries": {"click": {"state": {"target": ["23", "24", "25", "26", "27", "29", "30", "31", "32", "1", "2", "3", "8", "11", "9"], "time": [2295, 3035, 3687, 4576, 5498, 8999, 12615, 13545, 17119, 20708, 21396, 22172, 22969, 23926, 27907]}, "edge": {"target": [], "time": []}}, "mouseover": {"state": {"target": ["23", "24", "25", "26", "27", "29", "30", "31", "32", "1", "2", "3", "8", "11", "9", "10", "3", "4"], "time": [1677, 2737, 3385, 4332, 5313, 5939, 9810, 13306, 15915, 17835, 21136, 21878, 22652, 23681, 27645, 29820, 30049, 30273]}, "edge": {"target": [], "time": []}}, "mouseout": {"state": {"target": ["0", "23", "24", "25", "26", "27", "29", "30", "31", "32", "1", "2", "3", "8", "11", "9", "10", "3", "4"], "time": [1455, 2563, 3253, 4263, 5192, 5770, 9592, 13135, 13818, 17445, 21069, 21858, 22632, 23656, 24359, 28166, 29886, 30109, 31605]}, "edge": {"target": [], "time": []}}}, "displayed_time": "34.66", "trialTime": 35883, "trial_type": "mouselab-mdp", "trial_index": 40, "time_elapsed": 1327154, "internal_node_id": "0.0-4.0-1.0-31.0"}}, {"uniqueid": "w32915339:a76851338", "current_trial": 41, "dateTime": 1691144757886, "trialdata": {"revealed_states": [], "clicked_states": ["23", "24", "25", "26", "27", "29", "30", "31"], "num_clicks_accrued": [0, 0, 0, 0, 0, 0, 0, 0, 0, 0, 0, 0, 0], "stateRewards": ["", -1, 3, 8, 10, -86, 61, -36, 10, 17, -60, 24, -1, -3, 3, 11, 50, 60, 33, -3, -20, 58, -6, 1, -4, -4, 13, -70, -71, 43, 14, 52, 82, -11], "withholdReward": false, "trial_id": "mdp_trial_33", "block": "test", "trialIndex": 34, "score": 48.4, "costs": -10.600000000000001, "simulationMode": [null, null, null, null, null], "rewards": [1, -4, -4, 14, 52], "path": ["0", "0", "23", "24", "25", "30", "31"], "rt": [15359, 1, 2, 25, 93], "actions": ["left", "left", "left", "down", "right"], "actionTimes": [17925, 18549, 19174, 19788, 20482], "queries": {"click": {"state": {"target": ["23", "24", "25", "26", "27", "29", "30", "31"], "time": [3305, 3928, 4663, 5399, 6505, 9866, 13682, 14527]}, "edge": {"target": [], "time": []}}, "mouseover": {"state": {"target": ["0", "23", "24", "25", "26", "27", "29", "30", "31"], "time": [2726, 3090, 3577, 4219, 5205, 6136, 7493, 10349, 14167]}, "edge": {"target": [], "time": []}}, "mouseout": {"state": {"target": ["16", "18", "1", "0", "0", "23", "24", "25", "26", "27", "29", "30", "31"], "time": [989, 1039, 1307, 1804, 2970, 3511, 4150, 5140, 6074, 7091, 10176, 14105, 15252]}, "edge": {"target": [], "time": []}}}, "displayed_time": "21.08", "trialTime": 22177, "trial_type": "mouselab-mdp", "trial_index": 41, "time_elapsed": 1350033, "internal_node_id": "0.0-4.0-1.0-32.0"}}, {"uniqueid": "w32915339:a76851338", "current_trial": 42, "dateTime": 1691144795499, "trialdata": {"revealed_states": [], "clicked_states": ["23", "24", "25", "26", "27", "29", "30", "31", "32", "12", "13", "14", "15", "16"], "num_clicks_accrued": [0, 0, 0, 0, 0, 0, 0, 0, 0, 0, 0, 0, 0], "stateRewards": ["", -2, 4, -7, -3, -76, 39, -28, 10, 14, 12, 60, 2, -3, 6, -10, 88, -34, -41, -3, 72, -13, -56, 1, 3, 2, 8, -51, 23, -57, 1, 14, -46, -16], "withholdReward": false, "trial_id": "mdp_trial_34", "block": "test", "trialIndex": 35, "score": 65.5, "costs": -17.5, "simulationMode": [null, null, null, null, null], "rewards": [2, -3, 6, -10, 88], "path": ["0", "0", "12", "13", "14", "15", "16"], "rt": [25149, 27, 34, 17, 44], "actions": ["right", "right", "right", "up", "up"], "actionTimes": [26634, 27288, 27920, 28535, 29145], "queries": {"click": {"state": {"target": ["23", "24", "25", "26", "27", "29", "30", "31", "32", "12", "13", "14", "15", "16"], "time": [2144, 2834, 3495, 4439, 5311, 8620, 12055, 13050, 16524, 19874, 20560, 21212, 21931, 22960]}, "edge": {"target": [], "time": []}}, "mouseover": {"state": {"target": ["23", "24", "25", "26", "27", "29", "26", "28", "30", "31", "32", "1", "12", "13", "14", "15", "16", "19", "19", "19"], "time": [1976, 2536, 3112, 4086, 5071, 5668, 8987, 9155, 9807, 12494, 13552, 17321, 18265, 20304, 20848, 21683, 22771, 23347, 24202, 24718]}, "edge": {"target": [], "time": []}}, "mouseout": {"state": {"target": ["0", "23", "24", "25", "26", "27", "29", "26", "28", "30", "31", "32", "1", "12", "13", "14", "15", "15", "16", "15", "19", "19", "19"], "time": [1839, 2479, 3046, 3843, 5005, 5533, 8927, 9045, 9695, 12430, 13491, 16835, 17930, 20193, 20780, 21616, 22385, 22709, 23226, 23286, 23878, 24314, 26657]}, "edge": {"target": [], "time": []}}}, "displayed_time": "29.76", "trialTime": 36835, "trial_type": "mouselab-mdp", "trial_index": 42, "time_elapsed": 1387646, "internal_node_id": "0.0-4.0-1.0-33.0"}}, {"uniqueid": "w32915339:a76851338", "current_trial": 43, "dateTime": 1691144826738, "trialdata": {"revealed_states": [], "clicked_states": ["23", "24", "25", "26", "30", "1", "2", "3", "4", "5", "8", "9", "12", "13", "14", "15", "17"], "num_clicks_accrued": [0, 0, 0, 0, 0, 0, 0, 0, 0, 0, 0, 0, 0], "stateRewards": ["", -1, 1, -1, 2, 19, 85, -18, 2, -3, -26, 36, 2, 4, 7, -9, -18, 70, 72, -5, 35, -20, -28, 1, -2, -4, -3, -59, -11, -63, -2, -72, 59, -69], "withholdReward": false, "trial_id": "mdp_trial_35", "block": "test", "trialIndex": 36, "score": 56.650000000000006, "costs": -17.349999999999998, "simulationMode": [null, null, null, null, null], "rewards": [2, 4, 7, -9, 70], "path": ["0", "0", "12", "13", "14", "15", "17"], "rt": [23553, 11, 83, 129, 102], "actions": ["right", "right", "right", "up", "right"], "actionTimes": [24931, 25556, 26205, 26902, 27558], "queries": {"click": {"state": {"target": ["23", "24", "25", "26", "30", "1", "2", "3", "4", "5", "8", "9", "12", "13", "14", "15", "17"], "time": [1998, 2623, 3350, 4089, 5857, 6931, 7510, 8401, 9392, 10543, 14132, 15118, 18444, 19056, 19612, 20577, 21413]}, "edge": {"target": [], "time": []}}, "mouseover": {"state": {"target": ["23", "24", "25", "26", "27", "30", "30", "1", "2", "3", "4", "5", "8", "9", "12", "13", "14", "15", "17", "19"], "time": [1623, 2409, 3001, 3841, 4968, 5405, 5732, 6737, 7163, 7797, 9020, 10243, 10973, 14865, 16202, 18817, 19404, 20442, 21231, 21814]}, "edge": {"target": [], "time": []}}, "mouseout": {"state": {"target": ["14", "13", "12", "0", "23", "24", "25", "26", "27", "30", "30", "1", "2", "3", "4", "5", "8", "9", "8", "12", "13", "14", "15", "17", "19"], "time": [417, 466, 578, 1547, 2315, 2928, 3712, 4909, 5349, 5457, 6464, 7144, 7729, 8962, 10181, 10856, 14739, 15687, 15747, 18756, 19336, 20221, 21212, 21680, 24655]}, "edge": {"target": [], "time": []}}}, "displayed_time": "28.16", "trialTime": 30550, "trial_type": "mouselab-mdp", "trial_index": 43, "time_elapsed": 1418885, "internal_node_id": "0.0-4.0-1.0-34.0"}}, {"uniqueid": "w32915339:a76851338", "current_trial": 44, "dateTime": 1691144848142, "trialdata": {"revealed_states": [], "clicked_states": ["23", "24", "25", "26", "27", "30", "32"], "num_clicks_accrued": [0, 0, 0, 0, 0, 0, 0, 0, 0, 0, 0, 0, 0], "stateRewards": ["", -1, 4, -5, 9, 29, -75, -42, -16, 24, -28, -41, 2, -3, 1, 10, 60, 47, 55, -1, -53, 22, -40, 2, -3, -6, 4, -26, 44, 54, 15, -76, 42, 14], "withholdReward": false, "trial_id": "mdp_trial_36", "block": "test", "trialIndex": 37, "score": 41.55, "costs": -8.45, "simulationMode": [null, null, null, null, null], "rewards": [2, -3, -6, 15, 42], "path": ["0", "0", "23", "24", "25", "30", "32"], "rt": [12423, 0, 11, 1534, 75], "actions": ["left", "left", "left", "down", "down"], "actionTimes": [13666, 14277, 14882, 17026, 17691], "queries": {"click": {"state": {"target": ["23", "24", "25", "26", "27", "30", "32"], "time": [2069, 2866, 3601, 4452, 5522, 8977, 10081]}, "edge": {"target": [], "time": []}}, "mouseover": {"state": {"target": ["23", "24", "25", "26", "27", "30", "32"], "time": [1677, 2375, 3242, 4194, 5322, 6010, 9878]}, "edge": {"target": [], "time": []}}, "mouseout": {"state": {"target": ["14", "13", "12", "0", "23", "24", "25", "26", "27", "30", "32"], "time": [361, 404, 445, 1621, 2281, 3131, 4126, 5263, 5787, 9306, 10249]}, "edge": {"target": [], "time": []}}}, "displayed_time": "18.30", "trialTime": 20719, "trial_type": "mouselab-mdp", "trial_index": 44, "time_elapsed": 1440289, "internal_node_id": "0.0-4.0-1.0-35.0"}}, {"uniqueid": "w32915339:a76851338", "current_trial": 45, "dateTime": 1691144866704, "trialdata": {"revealed_states": [], "clicked_states": ["23", "24", "25", "26", "27", "30", "32"], "num_clicks_accrued": [0, 0, 0, 0, 0, 0, 0, 0, 0, 0, 0, 0, 0], "stateRewards": ["", -1, 4, -8, 12, 14, 69, -8, 5, -72, -14, 56, -1, -1, -1, 9, 67, 19, 11, -9, -88, -58, 3, 2, -4, -8, 4, 62, 77, -74, 5, -31, 65, 88], "withholdReward": false, "trial_id": "mdp_trial_37", "block": "test", "trialIndex": 38, "score": 51.55, "costs": -8.45, "simulationMode": [null, null, null, null, null], "rewards": [2, -4, -8, 5, 65], "path": ["0", "0", "23", "24", "25", "30", "32"], "rt": [11979, 25, 33, 37, 66], "actions": ["left", "left", "left", "down", "down"], "actionTimes": [13672, 14281, 14912, 15544, 16184], "queries": {"click": {"state": {"target": ["23", "24", "25", "26", "27", "30", "32"], "time": [2297, 3052, 3783, 4554, 5554, 9276, 10194]}, "edge": {"target": [], "time": []}}, "mouseover": {"state": {"target": ["23", "24", "25", "26", "27", "30", "32"], "time": [2009, 2695, 3537, 4303, 5310, 5988, 9833]}, "edge": {"target": [], "time": []}}, "mouseout": {"state": {"target": ["0", "23", "24", "25", "26", "27", "26", "25", "30", "32"], "time": [1836, 2594, 3427, 4244, 5236, 5835, 5895, 5968, 9764, 10479]}, "edge": {"target": [], "time": []}}}, "displayed_time": "16.97", "trialTime": 17889, "trial_type": "mouselab-mdp", "trial_index": 45, "time_elapsed": 1458851, "internal_node_id": "0.0-4.0-1.0-36.0"}}, {"uniqueid": "w32915339:a76851338", "current_trial": 46, "dateTime": 1691144892827, "trialdata": {"revealed_states": [], "clicked_states": ["23", "24", "25", "1", "2", "3", "4", "5", "6", "8", "11"], "num_clicks_accrued": [0, 0, 0, 0, 0, 0, 0, 0, 0, 0, 0, 0, 0], "stateRewards": ["", 2, 3, 6, -12, -29, 12, 87, 4, 35, -30, 67, 2, 3, -5, -9, 44, 69, -8, 1, 45, -8, 28, -2, -1, -8, 11, -12, -5, 81, 9, 87, 82, 88], "withholdReward": false, "trial_id": "mdp_trial_38", "block": "test", "trialIndex": 39, "score": 70.35, "costs": -11.65, "simulationMode": [null, null, null, null, null], "rewards": [2, 3, 6, 4, 67], "path": ["0", "0", "1", "2", "3", "8", "11"], "rt": [17562, 51, 40, 36, 119], "actions": ["up", "up", "up", "left", "left"], "actionTimes": [18948, 19615, 20271, 20887, 21591], "queries": {"click": {"state": {"target": ["23", "24", "25", "1", "2", "3", "4", "5", "6", "8", "11"], "time": [2028, 2680, 3307, 4490, 5267, 6077, 6735, 7723, 11039, 14411, 15161]}, "edge": {"target": [], "time": []}}, "mouseover": {"state": {"target": ["0", "23", "24", "25", "1", "2", "3", "4", "5", "8", "3", "6", "7", "8", "11", "10", "10", "2"], "time": [1486, 1850, 2419, 3042, 4298, 5029, 5792, 6538, 7525, 8456, 9777, 10098, 11522, 11910, 14866, 15415, 17477, 18720]}, "edge": {"target": [], "time": []}}, "mouseout": {"state": {"target": ["23", "0", "23", "24", "25", "1", "2", "3", "4", "5", "3", "8", "3", "6", "7", "8", "11", "10", "10", "2", "7", "16"], "time": [511, 1547, 2291, 2969, 3963, 4913, 5771, 6473, 7456, 8007, 8123, 9756, 9825, 11403, 11636, 14847, 15391, 15472, 18668, 18774, 19045, 19157]}, "edge": {"target": [], "time": []}}}, "displayed_time": "22.16", "trialTime": 25321, "trial_type": "mouselab-mdp", "trial_index": 46, "time_elapsed": 1484973, "internal_node_id": "0.0-4.0-1.0-37.0"}}, {"uniqueid": "w32915339:a76851338", "current_trial": 47, "dateTime": 1691144921530, "trialdata": {"revealed_states": [], "clicked_states": ["23", "24", "25", "26", "27", "28", "30", "31", "1", "2", "3", "8", "11"], "num_clicks_accrued": [0, 0, 0, 0, 0, 0, 0, 0, 0, 0, 0, 0, 0], "stateRewards": ["", 1, 1, 1, 15, -76, 52, -32, 14, -57, 37, 49, 1, -4, -3, 6, 83, -76, 25, 9, 36, -1, -17, -1, 4, 4, -2, -22, -21, 58, -15, -57, 49, -24], "withholdReward": false, "trial_id": "mdp_trial_39", "block": "test", "trialIndex": 40, "score": 50.65, "costs": -15.350000000000001, "simulationMode": [null, null, null, null, null], "rewards": [1, 1, 1, 14, 49], "path": ["0", "0", "1", "2", "3", "8", "11"], "rt": [21672, 77, 77, 1, 94], "actions": ["up", "up", "up", "left", "left"], "actionTimes": [23209, 23888, 24575, 25198, 25886], "queries": {"click": {"state": {"target": ["23", "24", "25", "26", "27", "28", "30", "31", "1", "2", "3", "8", "11"], "time": [2881, 3864, 4566, 5468, 6209, 9533, 12795, 13658, 17013, 17702, 18354, 19019, 19834]}, "edge": {"target": [], "time": []}}, "mouseover": {"state": {"target": ["23", "23", "24", "25", "26", "27", "28", "30", "31", "1", "2", "3", "8", "11", "10"], "time": [1937, 2648, 3261, 4257, 5216, 5953, 7218, 10031, 13234, 14122, 17355, 17992, 18776, 19648, 22147]}, "edge": {"target": [], "time": []}}, "mouseout": {"state": {"target": ["17", "0", "23", "23", "24", "25", "26", "27", "27", "28", "30", "31", "1", "2", "3", "8", "11", "10", "16"], "time": [173, 693, 2068, 3241, 4187, 5035, 5894, 6314, 7194, 9857, 13174, 13943, 17283, 17921, 18756, 19588, 20281, 23402, 23574]}, "edge": {"target": [], "time": []}}}, "displayed_time": "26.50", "trialTime": 27976, "trial_type": "mouselab-mdp", "trial_index": 47, "time_elapsed": 1513677, "internal_node_id": "0.0-4.0-1.0-38.0"}}, {"uniqueid": "w32915339:a76851338", "current_trial": 48, "dateTime": 1691144939968, "trialdata": {"revealed_states": [], "clicked_states": ["23", "24", "25", "26", "29", "30", "31"], "num_clicks_accrued": [0, 0, 0, 0, 0, 0, 0, 0, 0, 0, 0, 0, 0], "stateRewards": ["", -1, -3, 4, -10, -5, 79, -87, -2, 53, 29, -20, -2, -1, -5, 10, 27, 86, 46, -16, -29, 40, 3, 2, 4, -1, -6, 37, 79, -29, 7, 86, -62, 29], "withholdReward": false, "trial_id": "mdp_trial_40", "block": "test", "trialIndex": 41, "score": 89.55, "costs": -8.45, "simulationMode": [null, null, null, null, null], "rewards": [2, 4, -1, 7, 86], "path": ["0", "0", "23", "24", "25", "30", "31"], "rt": [11740, 9, 27, 13, 1], "actions": ["left", "left", "left", "down", "right"], "actionTimes": [13358, 13991, 14635, 15259, 15922], "queries": {"click": {"state": {"target": ["23", "24", "25", "26", "29", "30", "31"], "time": [2556, 3281, 4049, 5004, 5714, 9072, 9861]}, "edge": {"target": [], "time": []}}, "mouseover": {"state": {"target": ["23", "24", "25", "26", "29", "30", "31", "32"], "time": [2302, 2919, 3901, 4575, 5398, 6060, 9611, 11261]}, "edge": {"target": [], "time": []}}, "mouseout": {"state": {"target": ["18", "12", "0", "23", "24", "25", "26", "29", "30", "31", "32"], "time": [596, 845, 1697, 2821, 3555, 4515, 5120, 5934, 9387, 11196, 13331]}, "edge": {"target": [], "time": []}}}, "displayed_time": "16.71", "trialTime": 17764, "trial_type": "mouselab-mdp", "trial_index": 48, "time_elapsed": 1532115, "internal_node_id": "0.0-4.0-1.0-39.0"}}, {"uniqueid": "w32915339:a76851338", "current_trial": 49, "dateTime": 1691145017666, "trialdata": {"rt": 77677, "response": {"Q0": "$-2 to $2", "Q1": "$-16 to $16", "Q2": "$-88 to $88", "Q3": "The cost for clicking on nodes varied between nodes.", "Q4": "Very motivated"}, "question_order": [0, 1, 2, 3, 4], "trial_id": "final_quiz_control", "trial_type": "survey-multi-choice", "trial_index": 49, "time_elapsed": 1609812, "internal_node_id": "0.0-4.0-2.0"}}, {"uniqueid": "w32915339:a76851338", "current_trial": 50, "dateTime": 1691145126105, "trialdata": {"rt": 108414, "response": {"Q0": "Just trying to figure out a route that would lead to a big (positive) number at the end. Ideally, figuring it out with as few 'inspection clicks' as possible.", "Q1": "I can't say it changed all that much.", "Q2": "The random nature of the number positioning made it more difficult. Sometimes, I'd find a decent route very quickly; at others, it would take a while."}, "trial_id": "self_report_control", "trial_type": "survey-text", "trial_index": 50, "time_elapsed": 1718252, "internal_node_id": "0.0-4.0-3.0"}}, {"uniqueid": "w32915339:a76851338", "current_trial": 51, "dateTime": 1691145195165, "trialdata": {"rt": 69051, "response": {"Q0": "Agree", "Q1": "Disagree", "Q2": "Neither disagree nor agree", "Q3": "Agree", "Q4": "Strongly disagree", "Q5": "Neither disagree nor agree", "Q6": "Neither disagree nor agree"}, "question_order": [0, 1, 2, 3, 4, 5, 6], "trial_id": "self_report_2", "trial_type": "survey-multi-choice", "trial_index": 51, "time_elapsed": 1787312, "internal_node_id": "0.0-4.0-4.0"}}, {"uniqueid": "w32915339:a76851338", "current_trial": 52, "dateTime": 1691145221977, "trialdata": {"rt": 26804, "response": {"gender": "female", "age": "36", "colorblind": "0", "effort": "0"}, "trial_type": "survey-html-form", "trial_index": 52, "time_elapsed": 1814124, "internal_node_id": "0.0-4.0-5.0"}}, {"uniqueid": "w32915339:a76851338", "current_trial": 53, "dateTime": 1691145255755, "trialdata": {"rt": 33769, "response": {"Q0": "No.", "Q1": "N/A", "Q2": "No further comments."}, "trial_type": "survey-text", "trial_index": 53, "time_elapsed": 1847902, "internal_node_id": "0.0-4.0-6.0"}}, {"uniqueid": "w32915339:a76851338", "current_trial": 54, "dateTime": 1691145261647, "trialdata": {"rt": 5887, "stimulus": "Press 'Finish HIT' in order to reach the completion code. Once the data has been saved, you will receive the code either in this window or in the original browser window where you started the experiment.\n", "response": 0, "trial_type": "html-button-response", "trial_index": 54, "time_elapsed": 1853794, "internal_node_id": "0.0-5.0"}}, {"uniqueid": "w32915339:a76851338", "current_trial": 55, "dateTime": 1691145262654, "trialdata": {"success": true, "trial_type": "fullscreen", "trial_index": 55, "time_elapsed": 1854800, "internal_node_id": "0.0-6.0"}}], "questiondata": {"params": {"CODE": "C6DMOQA6", "MIN_TIME": 14, "inspectCost": 1, "startTime": "Fri Aug 04 2023 11:03:25 GMT+0100 (British Summer Time)", "bonusRate": 0.002, "variance": "1_2_4_8_44", "branching": "31123"}, "final_score": 2103.4}, "eventdata": [{"eventtype": "initialized", "value": null, "timestamp": 1691143404735, "interval": 0}, {"eventtype": "window_resize", "value": [1024, 768], "timestamp": 1691143404735, "interval": 0}, {"eventtype": "focus", "value": "on", "timestamp": 1691143404873, "interval": 138}, {"eventtype": "window_resize", "value": [1024, 768], "timestamp": 1691143405081, "interval": 208}, {"eventtype": "window_resize", "value": [1920, 976], "timestamp": 1691143407910, "interval": 2829}, {"eventtype": "window_resize", "value": [1024, 768], "timestamp": 1691143410532, "interval": 2622}, {"eventtype": "window_resize", "value": [1920, 1080], "timestamp": 1691143413836, "interval": 3304}, {"eventtype": "window_resize", "value": [1024, 768], "timestamp": 1691145262123, "interval": 1848287}], "useragent": "Mozilla/5.0 (Windows NT 10.0; Win64; x64; rv:109.0) Gecko/20100101 Firefox/115.0 AtContent/100.5.1964.65", "mode": "live", "id": "w32915339:a76851338", "status": "user data saved", "Beginhit": "2023-08-04 10:03:23.269862", "Beginexp": "2023-08-04 10:03:34.820687", "Endhit": "2023-08-04 10:34:23.673354", "psiturkStatus": 3, "browser": "<redacted>", "platform": "windows", "language": "en-GB"}