{"condition": 0, "counterbalance": 0, "assignmentId": "a59911509", "workerId": "w76680519", "hitId": "h91806422", "currenttrial": 55, "bonus": 0, "data": [{"uniqueid": "w76680519:a59911509", "current_trial": 0, "dateTime": 1693564672195, "trialdata": {"success": true, "trial_type": "fullscreen", "trial_index": 0, "time_elapsed": 5338, "internal_node_id": "0.0-0.0"}}, {"uniqueid": "w76680519:a59911509", "current_trial": 1, "dateTime": 1693564696394, "trialdata": {"view_history": [{"page_index": 0, "viewing_time": 24189}], "rt": 24189, "trial_id": "exp_instructions_control", "trial_type": "instructions", "trial_index": 1, "time_elapsed": 29537, "internal_node_id": "0.0-1.0"}}, {"uniqueid": "w76680519:a59911509", "current_trial": 2, "dateTime": 1693564851073, "trialdata": {"view_history": [{"page_index": 0, "viewing_time": 36462}, {"page_index": 1, "viewing_time": 62176}, {"page_index": 2, "viewing_time": 18640}, {"page_index": 3, "viewing_time": 37400}], "rt": 154677, "trial_id": "mouselab_instructions_1_control", "trial_type": "instructions", "trial_index": 2, "time_elapsed": 184216, "internal_node_id": "0.0-2.0-1.0"}}, {"uniqueid": "w76680519:a59911509", "current_trial": 3, "dateTime": 1693564875864, "trialdata": {"revealed_states": [], "clicked_states": ["2", "3"], "num_clicks_accrued": [0, 0, 0, 0, 0, 0, 0, 0, 0, 0, 0, 0, 0], "stateRewards": ["", -10, -10, 10, 10, 10, 10, 10, 10, -10, -10, 10, -10, -10, 10, 10, 10, 10, 10, -10, -10, 10, -10, 10, -10, -10, 10, 10, 10, -10, -10, 10, -10, -10], "withholdReward": false, "trial_id": "practice_1", "block": "test", "trialIndex": 0, "score": 12.5, "costs": -1, "simulationMode": [null, null, null, null, null], "rewards": [-10, -10, 10, 10, 10], "path": ["0", "0", "1", "2", "3", "4", "6"], "rt": [6212, 54, 23, 4347, 487], "actions": ["up", "up", "up", "right", "right"], "actionTimes": [8898, 9472, 10040, 14929, 15921], "queries": {"click": {"state": {"target": ["2", "3"], "time": [4478, 6052]}, "edge": {"target": [], "time": []}}, "mouseover": {"state": {"target": ["12", "1", "2", "3", "1", "10"], "time": [3671, 3785, 4153, 5552, 6637, 7180]}, "edge": {"target": [], "time": []}}, "mouseout": {"state": {"target": ["0", "12", "1", "2", "3", "2", "1", "10", "2", "4", "6", "7", "0"], "time": [2758, 3720, 4103, 5525, 6368, 6518, 7130, 7832, 7966, 13602, 21115, 21348, 21413]}, "edge": {"target": [], "time": []}}}, "displayed_time": "16.43", "trialTime": 23577, "trial_type": "mouselab-mdp", "trial_index": 3, "time_elapsed": 209006, "internal_node_id": "0.0-2.0-2.0-0.0"}}, {"uniqueid": "w76680519:a59911509", "current_trial": 4, "dateTime": 1693564897368, "trialdata": {"revealed_states": [], "clicked_states": ["14", "13", "15"], "num_clicks_accrued": [0, 0, 0, 0, 0, 0, 0, 0, 0, 0, 0, 0, 0], "stateRewards": ["", 10, 10, 10, -10, 10, -10, -10, -10, 10, -10, -10, -10, 10, 10, 10, -10, 10, -10, -10, -10, 10, -10, -10, -10, 10, 10, -10, 10, 10, -10, -10, -10, 10], "withholdReward": false, "trial_id": "practice_2", "block": "test", "trialIndex": 1, "score": 12, "costs": -1.5, "simulationMode": [null, null, null, null, null], "rewards": [-10, 10, 10, -10, 10], "path": ["0", "0", "12", "13", "14", "19", "21"], "rt": [5713, 54, 301, 793, 196], "actions": ["right", "right", "right", "down", "down"], "actionTimes": [9631, 10206, 11030, 12342, 13062], "queries": {"click": {"state": {"target": ["14", "13", "15"], "time": [5278, 7181, 8244]}, "edge": {"target": [], "time": []}}, "mouseover": {"state": {"target": ["12", "13", "14", "13", "15"], "time": [4790, 4836, 4983, 6005, 8008]}, "edge": {"target": [], "time": []}}, "mouseout": {"state": {"target": ["0", "0", "12", "13", "14", "13", "15", "14", "13"], "time": [2924, 4785, 4833, 4916, 5398, 7860, 8941, 16025, 16072]}, "edge": {"target": [], "time": []}}}, "displayed_time": "13.57", "trialTime": 20639, "trial_type": "mouselab-mdp", "trial_index": 4, "time_elapsed": 230510, "internal_node_id": "0.0-2.0-2.0-1.0"}}, {"uniqueid": "w76680519:a59911509", "current_trial": 5, "dateTime": 1693564916897, "trialdata": {"view_history": [{"page_index": 0, "viewing_time": 7043}, {"page_index": 1, "viewing_time": 12480}], "rt": 19523, "trial_id": "mouselab_instructions_2_control", "trial_type": "instructions", "trial_index": 5, "time_elapsed": 250040, "internal_node_id": "0.0-2.0-3.0"}}, {"uniqueid": "w76680519:a59911509", "current_trial": 6, "dateTime": 1693564960874, "trialdata": {"rt": 43973, "response": {"Q0": "The cost for clicking on nodes may vary between nodes.", "Q1": "The better I perform the higher my bonus will be.", "Q2": "No, the amount of cash at each node of the web may be different each time.", "Q3": "To get the highest total score.", "Q4": "Only before moving the spider.", "Q5": "3 seconds"}, "question_order": [0, 1, 2, 3, 4, 5], "correct": {"Q0": "The cost for clicking on nodes may vary between nodes.", "Q1": "The better I perform the higher my bonus will be.", "Q2": "No, the amount of cash at each node of the web may be different each time.", "Q3": "To get the highest total score.", "Q4": "Only before moving the spider.", "Q5": "3 seconds"}, "trial_id": "mouselab_quiz_control", "trial_type": "survey-multi-choice", "trial_index": 6, "time_elapsed": 294017, "internal_node_id": "0.0-2.0-4.0"}}, {"uniqueid": "w76680519:a59911509", "current_trial": 7, "dateTime": 1693564968873, "trialdata": {"rt": 7993, "response": {"Q0": "No"}, "question_order": [0], "trial_id": "repeat_check", "trial_type": "survey-multi-choice", "trial_index": 7, "time_elapsed": 302015, "internal_node_id": "0.0-4.0-0.0"}}, {"uniqueid": "w76680519:a59911509", "current_trial": 8, "dateTime": 1693564986526, "trialdata": {"rt": 17648, "stimulus": "\n<h1> Get ready to start the game! </h1>\n\nThank you for reading the instructions. Get ready start with the 40 rounds of this game.\n<br><br>\nIf you need to take a break, feel free to take one after the end of a round, before continuing to the next one.\n<br><br>\nRemember, the more money the spider gets, the bigger your bonus will be!\n<br><br>\n<div style='text-align: center;'>Press <code>space</code> to begin.</div>\n\n<br><br>\n(If, at any point, the <code>space</code> key does not take you to the next page, click once on the text and try again.)", "response": " ", "trial_id": "mdp_ready", "trial_type": "html-keyboard-response", "trial_index": 8, "time_elapsed": 319669, "internal_node_id": "0.0-6.0-0.0"}}, {"uniqueid": "w76680519:a59911509", "current_trial": 9, "dateTime": 1693565008119, "trialdata": {"revealed_states": [], "clicked_states": ["3"], "num_clicks_accrued": [0, 0, 0, 0, 0, 0, 0, 0, 0, 0, 0, 0, 0], "stateRewards": ["", -2, -1, -6, -14, -55, 78, -13, 11, 14, -71, 59, 2, 2, 6, -6, 9, 38, 14, 7, 85, 11, 68, 1, -4, -1, -3, -63, -85, 9, -2, 63, -86, -10], "withholdReward": false, "trial_id": "mdp_trial_1", "block": "test", "trialIndex": 2, "score": -79.4, "costs": -1.4, "simulationMode": [null, null, null, null, null], "rewards": [-2, -1, -6, -14, -55], "path": ["0", "0", "1", "2", "3", "4", "5"], "rt": [2932, 445, 860, 63, 159], "actions": ["up", "up", "up", "right", "up"], "actionTimes": [6389, 7333, 8724, 9324, 10012], "queries": {"click": {"state": {"target": ["3"], "time": [4646]}, "edge": {"target": [], "time": []}}, "mouseover": {"state": {"target": ["1", "2", "3"], "time": [4052, 4172, 4438]}, "edge": {"target": [], "time": []}}, "mouseout": {"state": {"target": ["0", "1", "2", "3", "23", "31"], "time": [3974, 4104, 4354, 14748, 14807, 15931]}, "edge": {"target": [], "time": []}}}, "displayed_time": "17.46", "trialTime": 20693, "trial_type": "mouselab-mdp", "trial_index": 9, "time_elapsed": 341261, "internal_node_id": "0.0-6.0-1.0-0.0"}}, {"uniqueid": "w76680519:a59911509", "current_trial": 10, "dateTime": 1693565028126, "trialdata": {"revealed_states": [], "clicked_states": ["8", "3", "4", "2", "1"], "num_clicks_accrued": [0, 0, 0, 0, 0, 0, 0, 0, 0, 0, 0, 0, 0], "stateRewards": ["", -2, 4, -7, -3, -76, 39, -28, 10, 14, 12, 60, 2, -3, 6, -10, 88, -34, -41, -3, 72, -13, -56, 1, 3, 2, 8, -51, 23, -57, 1, 14, -46, -16], "withholdReward": false, "trial_id": "mdp_trial_2", "block": "test", "trialIndex": 3, "score": -91, "costs": -7, "simulationMode": [null, null, null, null, null], "rewards": [-2, 4, -7, -3, -76], "path": ["0", "0", "1", "2", "3", "4", "5"], "rt": [10576, 531, 231, 286, 372], "actions": ["up", "up", "up", "right", "up"], "actionTimes": [12720, 13776, 14520, 15336, 16240], "queries": {"click": {"state": {"target": ["8", "3", "4", "2", "1"], "time": [3432, 5589, 7446, 9018, 11148]}, "edge": {"target": [], "time": []}}, "mouseover": {"state": {"target": ["10", "8", "3", "4", "3", "4", "2", "1"], "time": [2781, 3207, 3609, 4224, 5155, 5993, 8349, 9587]}, "edge": {"target": [], "time": []}}, "mouseout": {"state": {"target": ["0", "0", "10", "8", "3", "4", "3", "3", "4", "2"], "time": [904, 2611, 3167, 3576, 4221, 5104, 5740, 5963, 7923, 9522]}, "edge": {"target": [], "time": []}}}, "displayed_time": "16.75", "trialTime": 19104, "trial_type": "mouselab-mdp", "trial_index": 10, "time_elapsed": 361268, "internal_node_id": "0.0-6.0-1.0-1.0"}}, {"uniqueid": "w76680519:a59911509", "current_trial": 11, "dateTime": 1693565047382, "trialdata": {"revealed_states": [], "clicked_states": ["14", "16", "21"], "num_clicks_accrued": [0, 0, 0, 0, 0, 0, 0, 0, 0, 0, 0, 0, 0], "stateRewards": ["", -1, -3, -3, 1, -38, 2, -53, -2, -1, -81, 70, -1, 1, -5, -9, 46, 15, 35, -1, -22, 38, 59, -2, 4, -8, 13, 1, -83, -43, 4, 76, 13, 48], "withholdReward": false, "trial_id": "mdp_trial_3", "block": "test", "trialIndex": 4, "score": 27.8, "costs": -4.199999999999999, "simulationMode": [null, null, null, null, null], "rewards": [-1, 1, -5, -9, 46], "path": ["0", "0", "12", "13", "14", "15", "16"], "rt": [6962, 88, 198, 303, 125], "actions": ["right", "right", "right", "up", "up"], "actionTimes": [9215, 9815, 10519, 11335, 11983], "queries": {"click": {"state": {"target": ["14", "16", "21"], "time": [3272, 5485, 7564]}, "edge": {"target": [], "time": []}}, "mouseover": {"state": {"target": ["12", "13", "14", "15", "16", "15", "19", "21"], "time": [2770, 2807, 3107, 3887, 4085, 6056, 6211, 6329]}, "edge": {"target": [], "time": []}}, "mouseout": {"state": {"target": ["1", "0", "12", "13", "14", "15", "16", "16", "15", "14", "19", "21", "21"], "time": [1182, 2739, 2804, 2840, 3829, 3989, 5626, 6024, 6089, 6175, 6241, 14976, 16390]}, "edge": {"target": [], "time": []}}}, "displayed_time": "16.26", "trialTime": 18366, "trial_type": "mouselab-mdp", "trial_index": 11, "time_elapsed": 380524, "internal_node_id": "0.0-6.0-1.0-2.0"}}, {"uniqueid": "w76680519:a59911509", "current_trial": 12, "dateTime": 1693565070396, "trialdata": {"revealed_states": [], "clicked_states": ["12", "13", "14", "15", "16"], "num_clicks_accrued": [0, 0, 0, 0, 0, 0, 0, 0, 0, 0, 0, 0, 0], "stateRewards": ["", -2, 1, -3, -16, -39, -52, 30, -7, -41, -59, 11, 2, 1, 8, 2, -11, -26, -42, -13, 87, -59, -48, -1, -1, -1, 16, -79, 31, 50, -1, -84, 34, -82], "withholdReward": false, "trial_id": "mdp_trial_4", "block": "test", "trialIndex": 5, "score": -5, "costs": -7, "simulationMode": [null, null, null, null, null, null], "rewards": [2, 1, 8, 2, -11], "path": ["0", "0", "12", "13", "14", "15", "16"], "rt": [9247, 452, 411, 350, 308, 2723], "actions": ["right", "right", "right", "right", "up", "up"], "actionTimes": [12384, 12841, 13766, 14638, 15470, 18718], "queries": {"click": {"state": {"target": ["12", "13", "14", "15", "16"], "time": [4036, 5780, 7884, 9914, 11531]}, "edge": {"target": [], "time": []}}, "mouseover": {"state": {"target": ["12", "12", "13", "14", "13", "13", "14", "15", "16"], "time": [3681, 3946, 4206, 4660, 5296, 5599, 6098, 8169, 10262]}, "edge": {"target": [], "time": []}}, "mouseout": {"state": {"target": ["0", "0", "12", "12", "13", "14", "13", "13", "14", "15", "16", "17", "14"], "time": [2211, 3631, 3747, 4174, 4627, 5264, 5329, 5926, 8103, 10014, 16242, 19841, 20242]}, "edge": {"target": [], "time": []}}}, "displayed_time": "19.25", "trialTime": 22054, "trial_type": "mouselab-mdp", "trial_index": 12, "time_elapsed": 403538, "internal_node_id": "0.0-6.0-1.0-3.0"}}, {"uniqueid": "w76680519:a59911509", "current_trial": 13, "dateTime": 1693565092739, "trialdata": {"revealed_states": [], "clicked_states": ["24", "26", "27"], "num_clicks_accrued": [0, 0, 0, 0, 0, 0, 0, 0, 0, 0, 0, 0, 0], "stateRewards": ["", -1, 1, 8, -3, -24, 11, -65, -6, -77, 48, 44, -2, 1, -2, -7, -55, -35, 33, 8, -28, 19, -53, -1, -1, -5, -5, -70, 10, 44, 8, -58, -70, 51], "withholdReward": false, "trial_id": "mdp_trial_5", "block": "test", "trialIndex": 6, "score": -86.2, "costs": -4.199999999999999, "simulationMode": [null, null, null, null, null], "rewards": [-1, -1, -5, -5, -70], "path": ["0", "0", "23", "24", "25", "26", "27"], "rt": [11325, 22, 157, 66, 96], "actions": ["left", "left", "left", "up", "up"], "actionTimes": [14931, 15478, 16163, 16763, 17379], "queries": {"click": {"state": {"target": ["24", "26", "27"], "time": [4772, 6848, 8600]}, "edge": {"target": [], "time": []}}, "mouseover": {"state": {"target": ["0", "23", "33", "25", "24", "26", "27", "28", "28"], "time": [4011, 4085, 4174, 4292, 4525, 5168, 7770, 9690, 13393]}, "edge": {"target": [], "time": []}}, "mouseout": {"state": {"target": ["0", "0", "23", "0", "0", "23", "33", "25", "24", "26", "27", "28", "28", "23"], "time": [269, 1816, 2654, 2938, 4057, 4116, 4210, 4459, 5042, 7704, 9630, 9720, 20817, 21000]}, "edge": {"target": [], "time": []}}}, "displayed_time": "17.91", "trialTime": 21459, "trial_type": "mouselab-mdp", "trial_index": 13, "time_elapsed": 425882, "internal_node_id": "0.0-6.0-1.0-4.0"}}, {"uniqueid": "w76680519:a59911509", "current_trial": 14, "dateTime": 1693565111458, "trialdata": {"revealed_states": [], "clicked_states": ["16", "27", "14"], "num_clicks_accrued": [0, 0, 0, 0, 0, 0, 0, 0, 0, 0, 0, 0, 0], "stateRewards": ["", -2, -3, 1, -7, 39, -67, 16, 5, -20, 73, 66, -1, 4, 5, -3, 23, -68, -87, -8, 3, -3, 17, 1, -4, -2, -13, -32, 34, 61, -5, -11, -18, 12], "withholdReward": false, "trial_id": "mdp_trial_6", "block": "test", "trialIndex": 7, "score": 23.8, "costs": -4.199999999999999, "simulationMode": [null, null, null, null, null, null], "rewards": [-1, 4, 5, -3, 23], "path": ["0", "0", "12", "13", "14", "15", "16"], "rt": [6717, 204, 260, 1087, 196, 122], "actions": ["right", "right", "right", "right", "up", "up"], "actionTimes": [8885, 9093, 9853, 11469, 12173, 12797], "queries": {"click": {"state": {"target": ["16", "27", "14"], "time": [3136, 5388, 7730]}, "edge": {"target": [], "time": []}}, "mouseover": {"state": {"target": ["18", "16", "10", "27", "14"], "time": [2715, 2931, 3690, 4185, 6087]}, "edge": {"target": [], "time": []}}, "mouseout": {"state": {"target": ["0", "18", "16", "10", "27", "14"], "time": [2613, 2747, 3587, 3725, 5823, 17794]}, "edge": {"target": [], "time": []}}}, "displayed_time": "16.18", "trialTime": 17827, "trial_type": "mouselab-mdp", "trial_index": 14, "time_elapsed": 444600, "internal_node_id": "0.0-6.0-1.0-5.0"}}, {"uniqueid": "w76680519:a59911509", "current_trial": 15, "dateTime": 1693565131285, "trialdata": {"revealed_states": [], "clicked_states": ["16", "6", "11"], "num_clicks_accrued": [0, 0, 0, 0, 0, 0, 0, 0, 0, 0, 0, 0, 0], "stateRewards": ["", -2, -3, 7, -13, 60, 9, 37, -6, 37, 20, 1, 2, -2, -8, 6, -80, -31, -10, -7, 70, -65, -44, -1, 1, 7, 6, -11, 73, -85, 16, -21, 47, 34], "withholdReward": false, "trial_id": "mdp_trial_7", "block": "test", "trialIndex": 8, "score": -6.199999999999999, "costs": -4.199999999999999, "simulationMode": [null, null, null, null, null], "rewards": [-2, -3, 7, -13, 9], "path": ["0", "0", "1", "2", "3", "4", "6"], "rt": [8010, 524, 104, 22, 183], "actions": ["up", "up", "up", "right", "right"], "actionTimes": [11652, 12708, 13332, 13917, 14628], "queries": {"click": {"state": {"target": ["16", "6", "11"], "time": [4548, 7232, 9280]}, "edge": {"target": [], "time": []}}, "mouseover": {"state": {"target": ["16", "6", "4", "3", "8", "8", "6", "4", "3", "11"], "time": [4335, 4817, 6165, 6236, 6304, 6641, 6739, 7489, 7523, 7584]}, "edge": {"target": [], "time": []}}, "mouseout": {"state": {"target": ["1", "16", "6", "4", "3", "8", "8", "6", "4", "3"], "time": [918, 4720, 6136, 6205, 6271, 6590, 6676, 7484, 7519, 7553]}, "edge": {"target": [], "time": []}}}, "displayed_time": "17.64", "trialTime": 18948, "trial_type": "mouselab-mdp", "trial_index": 15, "time_elapsed": 464428, "internal_node_id": "0.0-6.0-1.0-6.0"}}, {"uniqueid": "w76680519:a59911509", "current_trial": 16, "dateTime": 1693565149750, "trialdata": {"revealed_states": [], "clicked_states": ["21", "32", "25"], "num_clicks_accrued": [0, 0, 0, 0, 0, 0, 0, 0, 0, 0, 0, 0, 0], "stateRewards": ["", 1, -2, -8, -13, 4, 34, -84, -4, -49, 88, -70, -1, 3, -4, 10, -77, 13, -34, 15, -21, -16, 27, 1, -2, 8, -8, -6, 38, -26, 6, -15, 66, -3], "withholdReward": false, "trial_id": "mdp_trial_8", "block": "test", "trialIndex": 9, "score": 74.8, "costs": -4.199999999999999, "simulationMode": [null, null, null, null, null], "rewards": [1, -2, 8, 6, 66], "path": ["0", "0", "23", "24", "25", "30", "32"], "rt": [8738, 321, 534, 164, 161], "actions": ["left", "left", "left", "down", "down"], "actionTimes": [10922, 11754, 12786, 13497, 14185], "queries": {"click": {"state": {"target": ["21", "32", "25"], "time": [2960, 5546, 8711]}, "edge": {"target": [], "time": []}}, "mouseover": {"state": {"target": ["21", "19", "13", "12", "0", "32", "30", "25", "26", "27", "26", "25"], "time": [2667, 3444, 3601, 3973, 4008, 4954, 7622, 7684, 7753, 7965, 8300, 8362]}, "edge": {"target": [], "time": []}}, "mouseout": {"state": {"target": ["11", "10", "13", "12", "0", "21", "19", "13", "12", "0", "32", "30", "25", "26", "27", "26", "25", "24"], "time": [304, 338, 1193, 1408, 2231, 3316, 3516, 3942, 4004, 4641, 7590, 7651, 7716, 7832, 8250, 8328, 16700, 17034]}, "edge": {"target": [], "time": []}}}, "displayed_time": "16.19", "trialTime": 17498, "trial_type": "mouselab-mdp", "trial_index": 16, "time_elapsed": 482892, "internal_node_id": "0.0-6.0-1.0-7.0"}}, {"uniqueid": "w76680519:a59911509", "current_trial": 17, "dateTime": 1693565168068, "trialdata": {"revealed_states": [], "clicked_states": ["20", "31", "27"], "num_clicks_accrued": [0, 0, 0, 0, 0, 0, 0, 0, 0, 0, 0, 0, 0], "stateRewards": ["", 1, -2, -3, 14, -42, -87, -37, -11, -50, 33, -44, -2, 4, -7, 13, 48, -75, -66, 12, 23, -2, 82, 1, -4, 3, 12, 51, -15, -26, -11, -52, -29, 82], "withholdReward": false, "trial_id": "mdp_trial_9", "block": "test", "trialIndex": 10, "score": 58.8, "costs": -4.199999999999999, "simulationMode": [null, null, null, null, null], "rewards": [1, -4, 3, 12, 51], "path": ["0", "0", "23", "24", "25", "26", "27"], "rt": [8891, 27, 288, 67, 22], "actions": ["left", "left", "left", "up", "up"], "actionTimes": [11037, 11588, 12388, 13004, 13559], "queries": {"click": {"state": {"target": ["20", "31", "27"], "time": [3933, 6003, 8315]}, "edge": {"target": [], "time": []}}, "mouseover": {"state": {"target": ["19", "21", "20", "19", "31", "26", "27"], "time": [2613, 3033, 3549, 5117, 5343, 7848, 8132]}, "edge": {"target": [], "time": []}}, "mouseout": {"state": {"target": ["23", "0", "19", "21", "20", "19", "31", "26", "27"], "time": [1159, 2519, 2783, 3485, 5113, 5149, 7764, 7877, 8541]}, "edge": {"target": [], "time": []}}}, "displayed_time": "16.15", "trialTime": 17451, "trial_type": "mouselab-mdp", "trial_index": 17, "time_elapsed": 501211, "internal_node_id": "0.0-6.0-1.0-8.0"}}, {"uniqueid": "w76680519:a59911509", "current_trial": 18, "dateTime": 1693565186052, "trialdata": {"revealed_states": [], "clicked_states": ["16", "9", "21"], "num_clicks_accrued": [0, 0, 0, 0, 0, 0, 0, 0, 0, 0, 0, 0, 0], "stateRewards": ["", -2, 1, -5, 2, -68, 80, 33, 10, 67, -59, 20, -1, -3, 3, 14, 74, -2, 24, -16, 63, 80, 46, -1, 4, 6, 12, 83, -38, -43, -4, 43, 14, -79], "withholdReward": false, "trial_id": "mdp_trial_10", "block": "test", "trialIndex": 11, "score": 58.8, "costs": -4.199999999999999, "simulationMode": [null, null, null, null, null], "rewards": [-1, -3, 3, -16, 80], "path": ["0", "0", "12", "13", "14", "19", "21"], "rt": [9203, 29, 145, 24, 146], "actions": ["right", "right", "right", "down", "down"], "actionTimes": [11115, 11674, 12338, 12865, 13546], "queries": {"click": {"state": {"target": ["16", "9", "21"], "time": [2918, 5712, 8625]}, "edge": {"target": [], "time": []}}, "mouseover": {"state": {"target": ["0", "18", "16", "6", "9", "9", "2", "13", "19", "20", "20", "19", "21", "22"], "time": [1952, 2464, 2615, 3509, 3605, 3825, 6112, 6333, 6484, 6648, 6873, 7021, 8219, 9182]}, "edge": {"target": [], "time": []}}, "mouseout": {"state": {"target": ["0", "0", "18", "16", "6", "9", "9", "2", "13", "19", "20", "20", "19", "21", "22", "12"], "time": [1108, 2314, 2496, 3477, 3541, 3639, 6019, 6143, 6366, 6582, 6683, 6990, 8186, 9091, 9216, 15996]}, "edge": {"target": [], "time": []}}}, "displayed_time": "15.91", "trialTime": 17058, "trial_type": "mouselab-mdp", "trial_index": 18, "time_elapsed": 519194, "internal_node_id": "0.0-6.0-1.0-9.0"}}, {"uniqueid": "w76680519:a59911509", "current_trial": 19, "dateTime": 1693565208060, "trialdata": {"revealed_states": [], "clicked_states": ["21", "16", "27"], "num_clicks_accrued": [0, 0, 0, 0, 0, 0, 0, 0, 0, 0, 0, 0, 0], "stateRewards": ["", 2, 4, -3, 16, -58, 30, -35, 11, -60, 47, 27, -2, -1, -7, -16, 23, -70, 68, -10, -65, -43, -34, -2, 1, 7, 9, -63, 34, -31, -8, -12, -86, 59], "withholdReward": false, "trial_id": "mdp_trial_11", "block": "test", "trialIndex": 12, "score": -7.199999999999999, "costs": -4.199999999999999, "simulationMode": [null, null, null, null, null], "rewards": [-2, -1, -7, -16, 23], "path": ["0", "0", "12", "13", "14", "15", "16"], "rt": [11130, 34, 94, 214, 308], "actions": ["right", "right", "right", "up", "up"], "actionTimes": [13646, 14197, 14813, 15533, 16365], "queries": {"click": {"state": {"target": ["21", "16", "27"], "time": [3455, 6081, 10531]}, "edge": {"target": [], "time": []}}, "mouseover": {"state": {"target": ["0", "22", "21", "19", "14", "15", "16", "28", "24", "25", "26", "27"], "time": [2725, 3007, 3077, 5569, 5601, 5667, 5953, 8446, 9031, 9183, 10085, 10301]}, "edge": {"target": [], "time": []}}, "mouseout": {"state": {"target": ["0", "0", "22", "21", "19", "14", "15", "16", "28", "24", "25", "26"], "time": [1631, 2976, 3041, 5522, 5597, 5636, 5870, 8330, 8934, 9099, 10053, 10116]}, "edge": {"target": [], "time": []}}}, "displayed_time": "16.88", "trialTime": 21029, "trial_type": "mouselab-mdp", "trial_index": 19, "time_elapsed": 541203, "internal_node_id": "0.0-6.0-1.0-10.0"}}, {"uniqueid": "w76680519:a59911509", "current_trial": 20, "dateTime": 1693565226684, "trialdata": {"revealed_states": [], "clicked_states": [], "num_clicks_accrued": [0, 0, 0, 0, 0, 0, 0, 0, 0, 0, 0, 0, 0], "stateRewards": ["", -2, 2, 3, -7, 76, 63, 21, 15, 35, -8, -44, 1, 1, -2, -12, 23, 24, 76, -9, 46, 66, -49, -2, -1, 7, 12, 40, -71, -45, -6, 38, -49, 46], "withholdReward": false, "trial_id": "mdp_trial_12", "block": "test", "trialIndex": 13, "score": 72, "costs": 0, "simulationMode": [null, null, null, null, null], "rewards": [-2, 2, 3, -7, 76], "path": ["0", "0", "1", "2", "3", "4", "5"], "rt": [8326, 140, 248, 555, 57], "actions": ["up", "up", "up", "right", "up"], "actionTimes": [10843, 11490, 12242, 13314, 13898], "queries": {"click": {"state": {"target": [], "time": []}, "edge": {"target": [], "time": []}}, "mouseover": {"state": {"target": ["12", "13", "13", "23", "24", "25", "24"], "time": [3050, 3121, 3882, 3994, 4194, 4469, 9313]}, "edge": {"target": [], "time": []}}, "mouseout": {"state": {"target": ["27", "0", "0", "12", "13", "13", "23", "24", "25", "24", "25", "29"], "time": [1388, 1552, 3013, 3084, 3174, 3911, 4128, 4312, 9245, 15269, 15333, 15952]}, "edge": {"target": [], "time": []}}}, "displayed_time": "16.52", "trialTime": 17690, "trial_type": "mouselab-mdp", "trial_index": 20, "time_elapsed": 559826, "internal_node_id": "0.0-6.0-1.0-11.0"}}, {"uniqueid": "w76680519:a59911509", "current_trial": 21, "dateTime": 1693565245476, "trialdata": {"revealed_states": [], "clicked_states": ["21", "13", "19"], "num_clicks_accrued": [0, 0, 0, 0, 0, 0, 0, 0, 0, 0, 0, 0, 0], "stateRewards": ["", 1, 1, -7, -9, -44, 24, -83, -15, 44, -24, 72, -2, -3, 4, -5, 57, 55, 29, -11, 22, 12, -25, -1, 2, 7, 12, 33, -8, 47, -4, 8, 50, -4], "withholdReward": false, "trial_id": "mdp_trial_13", "block": "test", "trialIndex": 14, "score": 46.8, "costs": -4.199999999999999, "simulationMode": [null, null, null, null, null], "rewards": [-2, -3, 4, -5, 57], "path": ["0", "0", "12", "13", "14", "15", "16"], "rt": [8011, 444, 194, 122, 104], "actions": ["right", "right", "right", "up", "up"], "actionTimes": [10677, 11653, 12365, 13005, 13629], "queries": {"click": {"state": {"target": ["21", "13", "19"], "time": [3653, 5802, 8690]}, "edge": {"target": [], "time": []}}, "mouseover": {"state": {"target": ["22", "21", "13", "14", "15", "14", "19", "20", "19"], "time": [3216, 3448, 4629, 6426, 7148, 7247, 7596, 8068, 8416]}, "edge": {"target": [], "time": []}}, "mouseout": {"state": {"target": ["29", "0", "22", "21", "13", "14", "15", "14", "19", "20", "19"], "time": [1543, 3135, 3248, 4280, 6302, 6486, 7214, 7479, 7951, 8333, 15010]}, "edge": {"target": [], "time": []}}}, "displayed_time": "16.67", "trialTime": 17773, "trial_type": "mouselab-mdp", "trial_index": 21, "time_elapsed": 578618, "internal_node_id": "0.0-6.0-1.0-12.0"}}, {"uniqueid": "w76680519:a59911509", "current_trial": 22, "dateTime": 1693565263916, "trialdata": {"revealed_states": [], "clicked_states": ["26", "30", "27"], "num_clicks_accrued": [0, 0, 0, 0, 0, 0, 0, 0, 0, 0, 0, 0, 0], "stateRewards": ["", -2, 4, -3, -13, 63, -36, 62, 11, 78, 34, -51, 2, -2, 8, -6, -40, -18, 31, 9, 64, 39, 79, 1, 4, -4, 15, -12, 76, 73, -10, -77, 86, -4], "withholdReward": false, "trial_id": "mdp_trial_14", "block": "test", "trialIndex": 15, "score": 87.8, "costs": -4.199999999999999, "simulationMode": [null, null, null, null, null], "rewards": [1, 4, -4, 15, 76], "path": ["0", "0", "23", "24", "25", "26", "28"], "rt": [9466, 85, 120, 91, 98], "actions": ["left", "left", "left", "up", "right"], "actionTimes": [11284, 11899, 12548, 13148, 13751], "queries": {"click": {"state": {"target": ["26", "30", "27"], "time": [3338, 5456, 8179]}, "edge": {"target": [], "time": []}}, "mouseover": {"state": {"target": ["23", "24", "28", "26", "26", "25", "30", "25", "27"], "time": [2350, 2389, 2554, 2671, 3090, 4149, 4329, 7772, 8040]}, "edge": {"target": [], "time": []}}, "mouseout": {"state": {"target": ["0", "23", "24", "28", "26", "26", "25", "30", "25", "27", "28", "24"], "time": [2319, 2386, 2419, 2620, 2820, 4117, 4182, 7717, 7802, 16452, 16486, 16517]}, "edge": {"target": [], "time": []}}}, "displayed_time": "15.82", "trialTime": 17388, "trial_type": "mouselab-mdp", "trial_index": 22, "time_elapsed": 597058, "internal_node_id": "0.0-6.0-1.0-13.0"}}, {"uniqueid": "w76680519:a59911509", "current_trial": 23, "dateTime": 1693565281379, "trialdata": {"revealed_states": [], "clicked_states": ["15", "19", "21"], "num_clicks_accrued": [0, 0, 0, 0, 0, 0, 0, 0, 0, 0, 0, 0, 0], "stateRewards": ["", -1, 3, 1, -7, 56, 76, 57, 3, 11, -9, 14, 1, -2, 2, 8, -77, -3, 79, -5, 88, 24, -66, -2, -1, 7, -7, -30, 14, -76, 11, -36, 28, -6], "withholdReward": false, "trial_id": "mdp_trial_15", "block": "test", "trialIndex": 16, "score": 15.8, "costs": -4.199999999999999, "simulationMode": [null, null, null, null, null], "rewards": [1, -2, 2, -5, 24], "path": ["0", "0", "12", "13", "14", "19", "21"], "rt": [8297, 25, 333, 430, 673], "actions": ["right", "right", "right", "down", "down"], "actionTimes": [9905, 10460, 11321, 12257, 13449], "queries": {"click": {"state": {"target": ["15", "19", "21"], "time": [2608, 4404, 7517]}, "edge": {"target": [], "time": []}}, "mouseover": {"state": {"target": ["12", "13", "14", "15", "14", "19", "21"], "time": [2074, 2112, 2148, 2471, 3257, 3322, 7305]}, "edge": {"target": [], "time": []}}, "mouseout": {"state": {"target": ["0", "12", "13", "14", "15", "14", "19", "21", "22"], "time": [2071, 2108, 2145, 2187, 3225, 3290, 7177, 15067, 15417]}, "edge": {"target": [], "time": []}}}, "displayed_time": "15.61", "trialTime": 16473, "trial_type": "mouselab-mdp", "trial_index": 23, "time_elapsed": 614522, "internal_node_id": "0.0-6.0-1.0-14.0"}}, {"uniqueid": "w76680519:a59911509", "current_trial": 24, "dateTime": 1693565299732, "trialdata": {"revealed_states": [], "clicked_states": ["4", "8", "6"], "num_clicks_accrued": [0, 0, 0, 0, 0, 0, 0, 0, 0, 0, 0, 0, 0], "stateRewards": ["", 2, -1, 1, 10, -52, 86, -22, -2, -14, -63, 38, 1, 3, 7, -8, 11, -32, -27, 9, -71, 40, -87, -2, -1, 5, -7, 12, 31, -57, 13, 86, -58, 29], "withholdReward": false, "trial_id": "mdp_trial_16", "block": "test", "trialIndex": 17, "score": 93.8, "costs": -4.199999999999999, "simulationMode": [null, null, null, null, null], "rewards": [2, -1, 1, 10, 86], "path": ["0", "0", "1", "2", "3", "4", "6"], "rt": [9394, 33, 179, 27, 79], "actions": ["up", "up", "up", "right", "right"], "actionTimes": [11477, 12021, 12733, 13274, 13877], "queries": {"click": {"state": {"target": ["4", "8", "6"], "time": [4314, 6402, 9430]}, "edge": {"target": [], "time": []}}, "mouseover": {"state": {"target": ["12", "18", "4", "3", "8", "7", "6"], "time": [2866, 3200, 4036, 6021, 6086, 8102, 8620]}, "edge": {"target": [], "time": []}}, "mouseout": {"state": {"target": ["0", "12", "18", "4", "3", "8", "7", "6", "7", "0"], "time": [2818, 3117, 3250, 5993, 6054, 8068, 8151, 16535, 16598, 16632]}, "edge": {"target": [], "time": []}}}, "displayed_time": "16.09", "trialTime": 17374, "trial_type": "mouselab-mdp", "trial_index": 24, "time_elapsed": 632874, "internal_node_id": "0.0-6.0-1.0-15.0"}}, {"uniqueid": "w76680519:a59911509", "current_trial": 25, "dateTime": 1693565317924, "trialdata": {"revealed_states": [], "clicked_states": ["8", "10", "11"], "num_clicks_accrued": [0, 0, 0, 0, 0, 0, 0, 0, 0, 0, 0, 0, 0], "stateRewards": ["", -1, -2, 4, 9, 10, -75, 39, 16, -43, 88, -19, -1, 1, 2, 4, -31, 10, 73, 12, 41, -64, -81, -2, 2, -6, 1, -81, -1, -26, 3, -59, -3, -20], "withholdReward": false, "trial_id": "mdp_trial_17", "block": "test", "trialIndex": 18, "score": 100.8, "costs": -4.199999999999999, "simulationMode": [null, null, null, null, null], "rewards": [-1, -2, 4, 16, 88], "path": ["0", "0", "1", "2", "3", "8", "10"], "rt": [6730, 26, 394, 37, 26], "actions": ["up", "up", "up", "left", "down"], "actionTimes": [8337, 8887, 9817, 10377, 10924], "queries": {"click": {"state": {"target": ["8", "10", "11"], "time": [2707, 4640, 6622]}, "edge": {"target": [], "time": []}}, "mouseover": {"state": {"target": ["8", "10", "11"], "time": [2425, 3356, 5437]}, "edge": {"target": [], "time": []}}, "mouseout": {"state": {"target": ["0", "8", "10", "11", "2", "0"], "time": [2270, 3291, 5179, 14271, 14370, 14919]}, "edge": {"target": [], "time": []}}}, "displayed_time": "15.61", "trialTime": 17161, "trial_type": "mouselab-mdp", "trial_index": 25, "time_elapsed": 651066, "internal_node_id": "0.0-6.0-1.0-16.0"}}, {"uniqueid": "w76680519:a59911509", "current_trial": 26, "dateTime": 1693565335812, "trialdata": {"revealed_states": [], "clicked_states": ["14", "15", "19"], "num_clicks_accrued": [0, 0, 0, 0, 0, 0, 0, 0, 0, 0, 0, 0, 0], "stateRewards": ["", -2, -1, -3, -1, -78, -6, 2, -1, 22, -88, 32, 2, 2, -7, -8, -51, -17, 54, 2, -44, 54, 75, 2, -2, -8, -15, -29, 12, -67, 15, -1, -47, -47], "withholdReward": false, "trial_id": "mdp_trial_18", "block": "test", "trialIndex": 19, "score": -44.2, "costs": -4.199999999999999, "simulationMode": [null, null, null, null, null], "rewards": [2, -2, -8, 15, -47], "path": ["0", "0", "23", "24", "25", "30", "32"], "rt": [7743, 24, 118, 74, 86], "actions": ["left", "left", "left", "down", "down"], "actionTimes": [9466, 10009, 10642, 11234, 11858], "queries": {"click": {"state": {"target": ["14", "15", "19"], "time": [2869, 4845, 6743]}, "edge": {"target": [], "time": []}}, "mouseover": {"state": {"target": ["12", "13", "14", "14", "15", "19", "15", "19"], "time": [2174, 2258, 2392, 2726, 3304, 4100, 4516, 5307]}, "edge": {"target": [], "time": []}}, "mouseout": {"state": {"target": ["0", "12", "13", "14", "14", "15", "14", "19", "14", "15", "15", "14", "19", "12"], "time": [2141, 2206, 2342, 2441, 3237, 3971, 4033, 4298, 4463, 4911, 5005, 5112, 7065, 13782]}, "edge": {"target": [], "time": []}}}, "displayed_time": "15.72", "trialTime": 16802, "trial_type": "mouselab-mdp", "trial_index": 26, "time_elapsed": 668954, "internal_node_id": "0.0-6.0-1.0-17.0"}}, {"uniqueid": "w76680519:a59911509", "current_trial": 27, "dateTime": 1693565353794, "trialdata": {"revealed_states": [], "clicked_states": ["25", "4", "29"], "num_clicks_accrued": [0, 0, 0, 0, 0, 0, 0, 0, 0, 0, 0, 0, 0], "stateRewards": ["", -2, -2, -3, -6, -15, -11, 41, -12, -63, -76, 2, -2, -3, 8, 9, -36, -2, -18, -16, -32, -85, -17, -2, 1, 5, -16, 82, 35, -88, -1, 80, -82, -20], "withholdReward": false, "trial_id": "mdp_trial_19", "block": "test", "trialIndex": 20, "score": 18.8, "costs": -4.199999999999999, "simulationMode": [null, null, null, null, null], "rewards": [-2, 1, 5, -16, 35], "path": ["0", "0", "23", "24", "25", "26", "28"], "rt": [9454, 322, 27, 228, 88], "actions": ["left", "left", "left", "up", "right"], "actionTimes": [11134, 11989, 12529, 13293, 13909], "queries": {"click": {"state": {"target": ["25", "4", "29"], "time": [2729, 4728, 9028]}, "edge": {"target": [], "time": []}}, "mouseover": {"state": {"target": ["25", "28", "2", "4", "3", "8", "26", "26", "27", "29"], "time": [2669, 3450, 3519, 3916, 4979, 5441, 6690, 7178, 7894, 8732]}, "edge": {"target": [], "time": []}}, "mouseout": {"state": {"target": ["12", "25", "28", "2", "4", "3", "8", "26", "26", "27", "29", "26"], "time": [842, 3444, 3488, 3551, 4946, 5274, 6642, 6720, 7847, 8533, 16680, 16741]}, "edge": {"target": [], "time": []}}}, "displayed_time": "15.68", "trialTime": 16989, "trial_type": "mouselab-mdp", "trial_index": 27, "time_elapsed": 686936, "internal_node_id": "0.0-6.0-1.0-18.0"}}, {"uniqueid": "w76680519:a59911509", "current_trial": 28, "dateTime": 1693565371850, "trialdata": {"revealed_states": [], "clicked_states": ["15", "19", "20"], "num_clicks_accrued": [0, 0, 0, 0, 0, 0, 0, 0, 0, 0, 0, 0, 0], "stateRewards": ["", -1, 1, 6, -6, 70, 66, 67, -16, -75, -35, 37, -1, 4, 4, -6, 47, -9, 63, 15, 21, -63, 13, 1, 3, -6, 10, 79, -29, 18, -15, 9, -67, -19], "withholdReward": false, "trial_id": "mdp_trial_20", "block": "test", "trialIndex": 21, "score": 38.8, "costs": -4.199999999999999, "simulationMode": [null, null, null, null, null], "rewards": [-1, 4, 4, 15, 21], "path": ["0", "0", "12", "13", "14", "19", "20"], "rt": [7702, 227, 159, 31, 123], "actions": ["right", "right", "right", "down", "right"], "actionTimes": [9745, 10440, 11120, 11680, 12384], "queries": {"click": {"state": {"target": ["15", "19", "20"], "time": [2972, 5149, 7590]}, "edge": {"target": [], "time": []}}, "mouseover": {"state": {"target": ["13", "15", "14", "19", "20"], "time": [2474, 2607, 3588, 3715, 7307]}, "edge": {"target": [], "time": []}}, "mouseout": {"state": {"target": ["23", "0", "0", "13", "15", "14", "19", "20"], "time": [936, 1071, 2425, 2524, 3585, 3620, 7257, 15195]}, "edge": {"target": [], "time": []}}}, "displayed_time": "16.05", "trialTime": 17064, "trial_type": "mouselab-mdp", "trial_index": 28, "time_elapsed": 704992, "internal_node_id": "0.0-6.0-1.0-19.0"}}, {"uniqueid": "w76680519:a59911509", "current_trial": 29, "dateTime": 1693565389858, "trialdata": {"revealed_states": [], "clicked_states": ["3", "4", "8"], "num_clicks_accrued": [0, 0, 0, 0, 0, 0, 0, 0, 0, 0, 0, 0, 0], "stateRewards": ["", 2, -1, 3, -12, -83, 6, -33, 9, 28, 24, -50, -2, -1, -2, -5, -87, 37, 82, 12, 80, -5, 10, -2, -3, -6, 9, 22, -1, 16, 9, 77, -62, 58], "withholdReward": false, "trial_id": "mdp_trial_21", "block": "test", "trialIndex": 22, "score": -41.2, "costs": -4.199999999999999, "simulationMode": [null, null, null, null, null], "rewards": [2, -1, 3, 9, -50], "path": ["0", "0", "1", "2", "3", "8", "11"], "rt": [7800, 135, 53, 276, 129], "actions": ["up", "up", "up", "left", "left"], "actionTimes": [9668, 10332, 10900, 11676, 12332], "queries": {"click": {"state": {"target": ["3", "4", "8"], "time": [3054, 5691, 7720]}, "edge": {"target": [], "time": []}}, "mouseover": {"state": {"target": ["1", "2", "3", "4", "8", "8"], "time": [2328, 2412, 2831, 5220, 6218, 6550]}, "edge": {"target": [], "time": []}}, "mouseout": {"state": {"target": ["1", "2", "3", "4", "8"], "time": [2377, 2460, 5188, 6155, 6449]}, "edge": {"target": [], "time": []}}}, "displayed_time": "15.87", "trialTime": 16996, "trial_type": "mouselab-mdp", "trial_index": 29, "time_elapsed": 723000, "internal_node_id": "0.0-6.0-1.0-20.0"}}, {"uniqueid": "w76680519:a59911509", "current_trial": 30, "dateTime": 1693565407465, "trialdata": {"revealed_states": [], "clicked_states": ["3", "25", "14"], "num_clicks_accrued": [0, 0, 0, 0, 0, 0, 0, 0, 0, 0, 0, 0, 0], "stateRewards": ["", 1, -4, 6, -3, 40, 76, -51, 5, -24, -63, 44, -2, -2, 8, 1, 76, -85, -58, 10, 59, 20, 11, -2, 3, -3, 3, -82, -10, 54, -7, -57, -6, -32], "withholdReward": false, "trial_id": "mdp_trial_22", "block": "test", "trialIndex": 23, "score": -57.2, "costs": -4.199999999999999, "simulationMode": [null, null, null, null, null], "rewards": [-2, -2, 8, 1, -58], "path": ["0", "0", "12", "13", "14", "15", "18"], "rt": [7907, 126, 522, 54, 51], "actions": ["right", "right", "right", "up", "left"], "actionTimes": [9599, 10231, 11287, 11847, 12391], "queries": {"click": {"state": {"target": ["3", "25", "14"], "time": [2825, 4820, 6771]}, "edge": {"target": [], "time": []}}, "mouseover": {"state": {"target": ["1", "2", "3", "2", "24", "25", "24", "23", "0", "12", "14"], "time": [2370, 2422, 2652, 3261, 3457, 4087, 5029, 5075, 5113, 5179, 5512]}, "edge": {"target": [], "time": []}}, "mouseout": {"state": {"target": ["8", "10", "0", "1", "2", "3", "3", "2", "24", "25", "24", "23", "0", "12", "14", "18"], "time": [462, 511, 2322, 2419, 2487, 2935, 3226, 3295, 4020, 5025, 5071, 5111, 5146, 5247, 9176, 13959]}, "edge": {"target": [], "time": []}}}, "displayed_time": "15.69", "trialTime": 16599, "trial_type": "mouselab-mdp", "trial_index": 30, "time_elapsed": 740608, "internal_node_id": "0.0-6.0-1.0-21.0"}}, {"uniqueid": "w76680519:a59911509", "current_trial": 31, "dateTime": 1693565425179, "trialdata": {"revealed_states": [], "clicked_states": ["16", "32", "30"], "num_clicks_accrued": [0, 0, 0, 0, 0, 0, 0, 0, 0, 0, 0, 0, 0], "stateRewards": ["", -1, -1, 4, -16, -75, 81, -51, -7, -84, 73, -30, -2, 1, -3, -16, -77, 33, 14, 1, 45, 87, -66, 2, 2, -5, -7, -19, -17, 79, -3, 8, 49, 47], "withholdReward": false, "trial_id": "mdp_trial_23", "block": "test", "trialIndex": 24, "score": 40.8, "costs": -4.199999999999999, "simulationMode": [null, null, null, null, null], "rewards": [2, 2, -5, -3, 49], "path": ["0", "0", "23", "24", "25", "30", "32"], "rt": [9117, 151, 231, 94, 177], "actions": ["left", "left", "left", "down", "down"], "actionTimes": [10879, 11535, 12295, 12911, 13615], "queries": {"click": {"state": {"target": ["16", "32", "30"], "time": [2734, 5136, 8516]}, "edge": {"target": [], "time": []}}, "mouseover": {"state": {"target": ["18", "16", "32", "30", "30"], "time": [2340, 2557, 3363, 7315, 7709]}, "edge": {"target": [], "time": []}}, "mouseout": {"state": {"target": ["2", "1", "18", "16", "32", "30", "30", "31"], "time": [552, 782, 2374, 2964, 5204, 7356, 8645, 14934]}, "edge": {"target": [], "time": []}}}, "displayed_time": "15.76", "trialTime": 16703, "trial_type": "mouselab-mdp", "trial_index": 31, "time_elapsed": 758321, "internal_node_id": "0.0-6.0-1.0-22.0"}}, {"uniqueid": "w76680519:a59911509", "current_trial": 32, "dateTime": 1693565443291, "trialdata": {"revealed_states": [], "clicked_states": ["6", "7", "9"], "num_clicks_accrued": [0, 0, 0, 0, 0, 0, 0, 0, 0, 0, 0, 0, 0], "stateRewards": ["", 2, -3, 5, -14, -63, -9, -24, -11, -54, -43, 68, 2, -2, -4, 7, -64, 30, 47, 12, -74, 11, 86, 1, -3, 3, 10, -71, -42, -52, -1, -29, -16, 69], "withholdReward": false, "trial_id": "mdp_trial_24", "block": "test", "trialIndex": 25, "score": 89.8, "costs": -4.199999999999999, "simulationMode": [null, null, null, null, null], "rewards": [2, -2, -4, 12, 86], "path": ["0", "0", "12", "13", "14", "19", "22"], "rt": [9834, 125, 78, 156, 121], "actions": ["right", "right", "right", "down", "left"], "actionTimes": [11940, 12572, 13187, 13860, 14492], "queries": {"click": {"state": {"target": ["6", "7", "9"], "time": [3410, 5430, 8479]}, "edge": {"target": [], "time": []}}, "mouseover": {"state": {"target": ["22", "13", "7", "4", "6", "7", "2", "8", "9", "9"], "time": [2570, 2719, 2791, 2888, 3155, 4292, 5750, 7360, 7537, 8143]}, "edge": {"target": [], "time": []}}, "mouseout": {"state": {"target": ["0", "22", "13", "7", "4", "6", "7", "2", "8", "9", "9"], "time": [2492, 2606, 2755, 2827, 2954, 4197, 5687, 7322, 7436, 7603, 8609]}, "edge": {"target": [], "time": []}}}, "displayed_time": "16.11", "trialTime": 17117, "trial_type": "mouselab-mdp", "trial_index": 32, "time_elapsed": 776433, "internal_node_id": "0.0-6.0-1.0-23.0"}}, {"uniqueid": "w76680519:a59911509", "current_trial": 33, "dateTime": 1693565460777, "trialdata": {"revealed_states": [], "clicked_states": ["6", "11", "22"], "num_clicks_accrued": [0, 0, 0, 0, 0, 0, 0, 0, 0, 0, 0, 0, 0], "stateRewards": ["", -2, -1, -1, 5, -54, -87, 35, 2, -8, 20, -22, 1, 3, 6, 13, -75, -32, -55, -3, 56, 62, -22, -1, -4, -1, -7, -51, 84, 70, 7, -15, 5, 55], "withholdReward": false, "trial_id": "mdp_trial_25", "block": "test", "trialIndex": 26, "score": -18.2, "costs": -4.199999999999999, "simulationMode": [null, null, null, null, null], "rewards": [-1, -4, -1, 7, -15], "path": ["0", "0", "23", "24", "25", "30", "31"], "rt": [8717, 26, 52, 260, 72], "actions": ["left", "left", "left", "down", "right"], "actionTimes": [10297, 10837, 11424, 12217, 12816], "queries": {"click": {"state": {"target": ["6", "11", "22"], "time": [2327, 4283, 7494]}, "edge": {"target": [], "time": []}}, "mouseover": {"state": {"target": ["6", "8", "11", "2", "18", "14", "20", "19", "22", "22", "22"], "time": [2143, 3202, 3307, 4628, 6328, 6408, 6660, 6843, 6878, 6979, 7331]}, "edge": {"target": [], "time": []}}, "mouseout": {"state": {"target": ["11", "10", "1", "0", "6", "8", "11", "2", "18", "14", "20", "19", "22", "22", "22", "12"], "time": [469, 520, 570, 1942, 2639, 3239, 4529, 4696, 6375, 6446, 6696, 6874, 6949, 7211, 13656, 15960]}, "edge": {"target": [], "time": []}}}, "displayed_time": "15.58", "trialTime": 16448, "trial_type": "mouselab-mdp", "trial_index": 33, "time_elapsed": 793919, "internal_node_id": "0.0-6.0-1.0-24.0"}}, {"uniqueid": "w76680519:a59911509", "current_trial": 34, "dateTime": 1693565478953, "trialdata": {"revealed_states": [], "clicked_states": ["5", "10", "22"], "num_clicks_accrued": [0, 0, 0, 0, 0, 0, 0, 0, 0, 0, 0, 0, 0], "stateRewards": ["", 2, -1, 4, -9, -43, 7, 54, -13, 38, -40, -83, -1, 2, -8, -10, 34, -33, 11, -14, -79, 65, 26, 1, 2, 4, 10, 21, 1, 86, 4, -53, 28, -29], "withholdReward": false, "trial_id": "mdp_trial_26", "block": "test", "trialIndex": 27, "score": -104.2, "costs": -4.199999999999999, "simulationMode": [null, null, null, null, null], "rewards": [-1, 2, -8, -14, -79], "path": ["0", "0", "12", "13", "14", "19", "20"], "rt": [7327, 331, 110, 86, 211], "actions": ["right", "right", "right", "down", "right"], "actionTimes": [8864, 9704, 10311, 10927, 11672], "queries": {"click": {"state": {"target": ["5", "10", "22"], "time": [2405, 4392, 6445]}, "edge": {"target": [], "time": []}}, "mouseover": {"state": {"target": ["4", "5", "3", "10", "1", "22"], "time": [2065, 2166, 2739, 3004, 4719, 5328]}, "edge": {"target": [], "time": []}}, "mouseout": {"state": {"target": ["0", "4", "5", "3", "10", "10", "1", "22", "0"], "time": [1951, 2115, 2673, 2872, 4482, 4682, 4763, 16234, 16883]}, "edge": {"target": [], "time": []}}}, "displayed_time": "15.54", "trialTime": 17135, "trial_type": "mouselab-mdp", "trial_index": 34, "time_elapsed": 812095, "internal_node_id": "0.0-6.0-1.0-25.0"}}, {"uniqueid": "w76680519:a59911509", "current_trial": 35, "dateTime": 1693565496458, "trialdata": {"revealed_states": [], "clicked_states": ["22", "16", "21"], "num_clicks_accrued": [0, 0, 0, 0, 0, 0, 0, 0, 0, 0, 0, 0, 0], "stateRewards": ["", -1, 2, -2, 13, -56, -28, 10, 14, 53, -80, -29, 1, -3, -3, -14, 14, 9, -40, -9, 18, 18, 48, 1, 1, 1, -9, 64, -39, -9, 7, -52, -78, 7], "withholdReward": false, "trial_id": "mdp_trial_27", "block": "test", "trialIndex": 28, "score": 29.8, "costs": -4.199999999999999, "simulationMode": [null, null, null, null, null], "rewards": [1, -3, -3, -9, 48], "path": ["0", "0", "12", "13", "14", "19", "22"], "rt": [9548, 80, 180, 26, 48], "actions": ["right", "right", "right", "down", "left"], "actionTimes": [10900, 11500, 12212, 12739, 13340], "queries": {"click": {"state": {"target": ["22", "16", "21"], "time": [2491, 6914, 8969]}, "edge": {"target": [], "time": []}}, "mouseover": {"state": {"target": ["12", "13", "22", "13", "14", "15", "16", "14", "19", "21"], "time": [1871, 1918, 2289, 4882, 5232, 5433, 6721, 7675, 7724, 7955]}, "edge": {"target": [], "time": []}}, "mouseout": {"state": {"target": ["0", "12", "13", "22", "13", "14", "15", "16", "14", "19", "21", "22"], "time": [1838, 1915, 2021, 4748, 5082, 5317, 6670, 7597, 7718, 7828, 14348, 14466]}, "edge": {"target": [], "time": []}}}, "displayed_time": "15.35", "trialTime": 16348, "trial_type": "mouselab-mdp", "trial_index": 35, "time_elapsed": 829601, "internal_node_id": "0.0-6.0-1.0-26.0"}}, {"uniqueid": "w76680519:a59911509", "current_trial": 36, "dateTime": 1693565515226, "trialdata": {"revealed_states": [], "clicked_states": ["31", "32", "33"], "num_clicks_accrued": [0, 0, 0, 0, 0, 0, 0, 0, 0, 0, 0, 0, 0], "stateRewards": ["", -2, -4, -8, 8, 63, -50, -19, -7, -17, -31, 31, 1, 3, -5, 12, -35, -63, -29, -4, -17, -75, -79, -2, -3, -2, 8, -3, -85, 10, -2, -82, -82, 56], "withholdReward": false, "trial_id": "mdp_trial_28", "block": "test", "trialIndex": 29, "score": 42.8, "costs": -4.199999999999999, "simulationMode": [null, null, null, null, null], "rewards": [-2, -3, -2, -2, 56], "path": ["0", "0", "23", "24", "25", "30", "33"], "rt": [7144, 93, 564, 1025, 264], "actions": ["left", "left", "left", "down", "left"], "actionTimes": [8749, 9373, 10461, 11997, 12757], "queries": {"click": {"state": {"target": ["31", "32", "33"], "time": [2475, 4138, 6036]}, "edge": {"target": [], "time": []}}, "mouseover": {"state": {"target": ["23", "31", "32", "33"], "time": [1651, 2287, 2713, 4605]}, "edge": {"target": [], "time": []}}, "mouseout": {"state": {"target": ["0", "23", "31", "32", "33"], "time": [1648, 2105, 2645, 4423, 17280]}, "edge": {"target": [], "time": []}}}, "displayed_time": "15.61", "trialTime": 17669, "trial_type": "mouselab-mdp", "trial_index": 36, "time_elapsed": 848368, "internal_node_id": "0.0-6.0-1.0-27.0"}}, {"uniqueid": "w76680519:a59911509", "current_trial": 37, "dateTime": 1693565533578, "trialdata": {"revealed_states": [], "clicked_states": ["5", "10", "11"], "num_clicks_accrued": [0, 0, 0, 0, 0, 0, 0, 0, 0, 0, 0, 0, 0], "stateRewards": ["", 2, 4, 4, 9, -88, -10, 44, 16, -54, 64, 78, 1, 2, 5, 16, 80, 36, 7, -4, 9, -47, -70, -1, -3, 6, -16, 11, 80, 28, 8, -1, 34, -17], "withholdReward": false, "trial_id": "mdp_trial_29", "block": "test", "trialIndex": 30, "score": 99.8, "costs": -4.199999999999999, "simulationMode": [null, null, null, null, null], "rewards": [2, 4, 4, 16, 78], "path": ["0", "0", "1", "2", "3", "8", "11"], "rt": [9027, 26, 26, 142, 344], "actions": ["up", "up", "up", "left", "left"], "actionTimes": [11106, 11649, 12217, 12906, 13761], "queries": {"click": {"state": {"target": ["5", "10", "11"], "time": [3400, 5360, 9163]}, "edge": {"target": [], "time": []}}, "mouseover": {"state": {"target": ["1", "3", "4", "5", "10", "10", "8", "8", "8", "9", "11"], "time": [2767, 2883, 3034, 3251, 3832, 4133, 7771, 7986, 8353, 8571, 8922]}, "edge": {"target": [], "time": []}}, "mouseout": {"state": {"target": ["0", "1", "3", "4", "5", "10", "10", "8", "8", "8", "9", "11", "10", "12"], "time": [2717, 2802, 2917, 3135, 3702, 4064, 5493, 7835, 8154, 8520, 8872, 14932, 14992, 16632]}, "edge": {"target": [], "time": []}}}, "displayed_time": "16.08", "trialTime": 17234, "trial_type": "mouselab-mdp", "trial_index": 37, "time_elapsed": 866720, "internal_node_id": "0.0-6.0-1.0-28.0"}}, {"uniqueid": "w76680519:a59911509", "current_trial": 38, "dateTime": 1693565551282, "trialdata": {"revealed_states": [], "clicked_states": ["20", "17", "22"], "num_clicks_accrued": [0, 0, 0, 0, 0, 0, 0, 0, 0, 0, 0, 0, 0], "stateRewards": ["", 2, -2, -3, 10, -4, -1, -11, -8, -9, -36, -78, 2, 1, 7, -7, 44, -1, -31, -1, 26, 47, 83, 2, -4, -4, -6, -52, -76, -81, -1, -59, 45, 67], "withholdReward": false, "trial_id": "mdp_trial_30", "block": "test", "trialIndex": 31, "score": 87.8, "costs": -4.199999999999999, "simulationMode": [null, null, null, null, null], "rewards": [2, 1, 7, -1, 83], "path": ["0", "0", "12", "13", "14", "19", "22"], "rt": [8684, 111, 177, 115, 286], "actions": ["right", "right", "right", "down", "left"], "actionTimes": [10369, 11008, 11696, 12337, 13152], "queries": {"click": {"state": {"target": ["20", "17", "22"], "time": [2424, 4791, 7847]}, "edge": {"target": [], "time": []}}, "mouseover": {"state": {"target": ["14", "20", "17", "19", "14", "18", "13", "22", "22"], "time": [1952, 2170, 4628, 5676, 6919, 7037, 7234, 7321, 7675]}, "edge": {"target": [], "time": []}}, "mouseout": {"state": {"target": ["0", "14", "20", "17", "19", "14", "18", "13", "22", "22"], "time": [1729, 2002, 4419, 5245, 6887, 6951, 7204, 7272, 7371, 14587]}, "edge": {"target": [], "time": []}}}, "displayed_time": "15.69", "trialTime": 16529, "trial_type": "mouselab-mdp", "trial_index": 38, "time_elapsed": 884424, "internal_node_id": "0.0-6.0-1.0-29.0"}}, {"uniqueid": "w76680519:a59911509", "current_trial": 39, "dateTime": 1693565568762, "trialdata": {"revealed_states": [], "clicked_states": ["31", "28", "11"], "num_clicks_accrued": [0, 0, 0, 0, 0, 0, 0, 0, 0, 0, 0, 0, 0], "stateRewards": ["", -1, -3, -7, -7, -76, 30, -49, 11, -70, 56, 2, 1, 4, -3, -14, -59, -83, -25, -9, -21, -67, -73, -2, 4, 4, -9, -11, -32, 60, 9, -87, 22, -64], "withholdReward": false, "trial_id": "mdp_trial_31", "block": "test", "trialIndex": 32, "score": -41.2, "costs": -4.199999999999999, "simulationMode": [null, null, null, null, null], "rewards": [1, 4, -3, -14, -25], "path": ["0", "0", "12", "13", "14", "15", "18"], "rt": [8024, 80, 83, 54, 27], "actions": ["right", "right", "right", "up", "left"], "actionTimes": [9583, 10182, 10774, 11342, 11928], "queries": {"click": {"state": {"target": ["31", "28", "11"], "time": [2442, 4435, 6388]}, "edge": {"target": [], "time": []}}, "mouseover": {"state": {"target": ["31", "24", "28", "11", "10"], "time": [2247, 2842, 2942, 4814, 8485]}, "edge": {"target": [], "time": []}}, "mouseout": {"state": {"target": ["0", "31", "24", "28", "11", "10"], "time": [640, 2551, 2877, 4533, 8419, 8516]}, "edge": {"target": [], "time": []}}}, "displayed_time": "15.56", "trialTime": 16391, "trial_type": "mouselab-mdp", "trial_index": 39, "time_elapsed": 901904, "internal_node_id": "0.0-6.0-1.0-30.0"}}, {"uniqueid": "w76680519:a59911509", "current_trial": 40, "dateTime": 1693565586201, "trialdata": {"revealed_states": [], "clicked_states": ["17"], "num_clicks_accrued": [0, 0, 0, 0, 0, 0, 0, 0, 0, 0, 0, 0, 0], "stateRewards": ["", 1, 4, 5, 8, -55, -11, 8, 16, -37, 77, -22, -2, 3, -8, -10, 45, 87, -67, 4, 17, -33, -22, -1, -3, 7, 6, -39, -85, 75, -1, 7, -48, 45], "withholdReward": false, "trial_id": "mdp_trial_32", "block": "test", "trialIndex": 33, "score": 68.6, "costs": -1.4, "simulationMode": [null, null, null, null, null], "rewards": [-2, 3, -8, -10, 87], "path": ["0", "0", "12", "13", "14", "15", "17"], "rt": [5141, 111, 81, 108, 144], "actions": ["right", "right", "right", "up", "right"], "actionTimes": [6627, 7267, 7851, 8475, 9123], "queries": {"click": {"state": {"target": ["17"], "time": [3188]}, "edge": {"target": [], "time": []}}, "mouseover": {"state": {"target": ["13", "14", "17", "15", "1", "18", "14"], "time": [2630, 2703, 2865, 4338, 4408, 4701, 5792]}, "edge": {"target": [], "time": []}}, "mouseout": {"state": {"target": ["12", "0", "13", "14", "17", "15", "1", "18", "14"], "time": [504, 2581, 2666, 2736, 3287, 4372, 4569, 5744, 6062]}, "edge": {"target": [], "time": []}}}, "displayed_time": "15.49", "trialTime": 16283, "trial_type": "mouselab-mdp", "trial_index": 40, "time_elapsed": 919343, "internal_node_id": "0.0-6.0-1.0-31.0"}}, {"uniqueid": "w76680519:a59911509", "current_trial": 41, "dateTime": 1693565603962, "trialdata": {"revealed_states": [], "clicked_states": ["29", "31", "18"], "num_clicks_accrued": [0, 0, 0, 0, 0, 0, 0, 0, 0, 0, 0, 0, 0], "stateRewards": ["", 1, -1, 8, 4, 76, -33, -17, -3, -1, -54, -74, -2, 2, -5, 13, -51, 63, 83, 1, 84, 29, -36, 2, -1, 7, -12, -10, -44, -43, -14, 8, -69, 19], "withholdReward": false, "trial_id": "mdp_trial_33", "block": "test", "trialIndex": 34, "score": 86.8, "costs": -4.199999999999999, "simulationMode": [null, null, null, null, null], "rewards": [-2, 2, -5, 13, 83], "path": ["0", "0", "12", "13", "14", "15", "18"], "rt": [8106, 27, 482, 116, 27], "actions": ["right", "right", "right", "up", "left"], "actionTimes": [9615, 10144, 11175, 11807, 12339], "queries": {"click": {"state": {"target": ["29", "31", "18"], "time": [2838, 4931, 7180]}, "edge": {"target": [], "time": []}}, "mouseover": {"state": {"target": ["12", "13", "14", "13", "23", "24", "29", "25", "31", "0", "12", "18"], "time": [2001, 2073, 2109, 2269, 2332, 2368, 2615, 4487, 4590, 6814, 6847, 6964]}, "edge": {"target": [], "time": []}}, "mouseout": {"state": {"target": ["0", "12", "13", "14", "13", "23", "24", "29", "29", "25", "31", "0", "12", "18"], "time": [1963, 2038, 2106, 2266, 2300, 2364, 2499, 2961, 4456, 4522, 6733, 6844, 6897, 13740]}, "edge": {"target": [], "time": []}}}, "displayed_time": "15.51", "trialTime": 16552, "trial_type": "mouselab-mdp", "trial_index": 41, "time_elapsed": 937104, "internal_node_id": "0.0-6.0-1.0-32.0"}}, {"uniqueid": "w76680519:a59911509", "current_trial": 42, "dateTime": 1693565622449, "trialdata": {"revealed_states": [], "clicked_states": ["10"], "num_clicks_accrued": [0, 0, 0, 0, 0, 0, 0, 0, 0, 0, 0, 0, 0], "stateRewards": ["", 1, 2, 3, 16, 63, -25, 16, -4, -14, 82, -66, -1, -3, -3, -11, -14, 19, 46, 3, -34, -82, 66, -2, -3, 4, -5, -63, 77, -37, -1, -45, -41, 84], "withholdReward": false, "trial_id": "mdp_trial_34", "block": "test", "trialIndex": 35, "score": 82.6, "costs": -1.4, "simulationMode": [null, null, null, null, null], "rewards": [1, 2, 3, -4, 82], "path": ["0", "0", "1", "2", "3", "8", "10"], "rt": [3818, 427, 219, 2767, 26], "actions": ["up", "up", "up", "left", "down"], "actionTimes": [5804, 6740, 7460, 10732, 11279], "queries": {"click": {"state": {"target": ["10"], "time": [2731]}, "edge": {"target": [], "time": []}}, "mouseover": {"state": {"target": ["10", "28"], "time": [2355, 3583]}, "edge": {"target": [], "time": []}}, "mouseout": {"state": {"target": ["10", "0", "10", "28", "11", "10"], "time": [843, 2031, 3378, 8639, 12472, 12552]}, "edge": {"target": [], "time": []}}}, "displayed_time": "15.99", "trialTime": 17228, "trial_type": "mouselab-mdp", "trial_index": 42, "time_elapsed": 955591, "internal_node_id": "0.0-6.0-1.0-33.0"}}, {"uniqueid": "w76680519:a59911509", "current_trial": 43, "dateTime": 1693565821159, "trialdata": {"revealed_states": [], "clicked_states": ["7", "10"], "num_clicks_accrued": [0, 0, 0, 0, 0, 0, 0, 0, 0, 0, 0, 0, 0], "stateRewards": ["", 2, 4, -6, -13, -75, -81, 30, 7, 5, 59, -65, -1, -1, 7, 14, -38, 36, -41, 1, -54, -5, 64, 2, -1, 5, 6, -19, 79, 11, 16, -33, -50, 58], "withholdReward": false, "trial_id": "mdp_trial_35", "block": "test", "trialIndex": 36, "score": 63.2, "costs": -2.8, "simulationMode": [null, null, null, null, null], "rewards": [2, 4, -6, 7, 59], "path": ["0", "0", "1", "2", "3", "8", "10"], "rt": [5532, 88, 123, 61, 197], "actions": ["up", "up", "up", "left", "down"], "actionTimes": [7117, 7741, 8373, 8941, 9701], "queries": {"click": {"state": {"target": ["7", "10"], "time": [2660, 4658]}, "edge": {"target": [], "time": []}}, "mouseover": {"state": {"target": ["7", "7", "2", "10"], "time": [2168, 2435, 3329, 3532]}, "edge": {"target": [], "time": []}}, "mouseout": {"state": {"target": ["7", "7", "2", "10", "13", "22"], "time": [2219, 3326, 3462, 195569, 195664, 195864]}, "edge": {"target": [], "time": []}}}, "displayed_time": "15.59", "trialTime": 197476, "trial_type": "mouselab-mdp", "trial_index": 43, "time_elapsed": 1154301, "internal_node_id": "0.0-6.0-1.0-34.0"}}, {"uniqueid": "w76680519:a59911509", "current_trial": 44, "dateTime": 1693565841960, "trialdata": {"revealed_states": [], "clicked_states": ["11", "6", "10"], "num_clicks_accrued": [0, 0, 0, 0, 0, 0, 0, 0, 0, 0, 0, 0, 0], "stateRewards": ["", 1, 1, 7, -11, 80, -20, -53, -14, 3, 31, 27, 2, -1, -8, -10, 33, 41, 86, 9, 78, -37, -13, -1, -2, -6, -8, -80, 75, 4, -16, -49, -74, 24], "withholdReward": false, "trial_id": "mdp_trial_36", "block": "test", "trialIndex": 37, "score": -6.199999999999999, "costs": -4.199999999999999, "simulationMode": [null, null, null, null, null], "rewards": [1, 1, 7, -14, 3], "path": ["0", "0", "1", "2", "3", "8", "9"], "rt": [8639, 74, 183, 174, 183], "actions": ["up", "up", "up", "left", "up"], "actionTimes": [10478, 11061, 11781, 12469, 13157], "queries": {"click": {"state": {"target": ["11", "6", "10"], "time": [3007, 5218, 7400]}, "edge": {"target": [], "time": []}}, "mouseover": {"state": {"target": ["1", "10", "8", "11", "8", "6", "2", "10"], "time": [2555, 2595, 2672, 2800, 3594, 4024, 6582, 6981]}, "edge": {"target": [], "time": []}}, "mouseout": {"state": {"target": ["0", "1", "10", "8", "11", "8", "6", "6", "2", "10"], "time": [2515, 2592, 2630, 2707, 3591, 3630, 5324, 6513, 6618, 9576]}, "edge": {"target": [], "time": []}}}, "displayed_time": "15.84", "trialTime": 19510, "trial_type": "mouselab-mdp", "trial_index": 44, "time_elapsed": 1175102, "internal_node_id": "0.0-6.0-1.0-35.0"}}, {"uniqueid": "w76680519:a59911509", "current_trial": 45, "dateTime": 1693565861469, "trialdata": {"revealed_states": [], "clicked_states": ["10", "7", "18"], "num_clicks_accrued": [0, 0, 0, 0, 0, 0, 0, 0, 0, 0, 0, 0, 0], "stateRewards": ["", -1, 1, -6, -1, 80, 23, 2, -11, 73, -81, 59, 1, 3, 5, -1, -26, 28, -3, 16, -59, -13, -50, -2, -2, 2, 15, -50, 86, 17, -4, 37, 35, 44], "withholdReward": false, "trial_id": "mdp_trial_37", "block": "test", "trialIndex": 38, "score": -22.2, "costs": -4.199999999999999, "simulationMode": [null, null, null, null, null], "rewards": [1, 3, 5, -1, -26], "path": ["0", "0", "12", "13", "14", "15", "16"], "rt": [8859, 169, 180, 121, 249], "actions": ["right", "right", "right", "up", "up"], "actionTimes": [11548, 12227, 12907, 13555, 14331], "queries": {"click": {"state": {"target": ["10", "7", "18"], "time": [5082, 7056, 9072]}, "edge": {"target": [], "time": []}}, "mouseover": {"state": {"target": ["1", "10", "10", "2", "7", "13", "13", "18"], "time": [4460, 4591, 4895, 6010, 6082, 7648, 8046, 8150]}, "edge": {"target": [], "time": []}}, "mouseout": {"state": {"target": ["10", "0", "1", "10", "10", "2", "7", "13", "13"], "time": [1398, 1831, 4509, 4691, 5942, 6046, 7320, 7847, 8082]}, "edge": {"target": [], "time": []}}}, "displayed_time": "16.69", "trialTime": 18267, "trial_type": "mouselab-mdp", "trial_index": 45, "time_elapsed": 1194612, "internal_node_id": "0.0-6.0-1.0-36.0"}}, {"uniqueid": "w76680519:a59911509", "current_trial": 46, "dateTime": 1693565882519, "trialdata": {"revealed_states": [], "clicked_states": ["18", "22", "20"], "num_clicks_accrued": [0, 0, 0, 0, 0, 0, 0, 0, 0, 0, 0, 0, 0], "stateRewards": ["", 1, 4, -8, -5, -15, -7, 21, 13, -30, 40, -65, 1, 1, 5, -14, 35, 27, -38, -11, 36, -58, -47, -2, 4, -3, 13, -16, -49, 22, 15, -56, -44, -10], "withholdReward": false, "trial_id": "mdp_trial_38", "block": "test", "trialIndex": 39, "score": -66.2, "costs": -4.199999999999999, "simulationMode": [null, null, null, null, null], "rewards": [1, 1, 5, -11, -58], "path": ["0", "0", "12", "13", "14", "19", "21"], "rt": [7760, 57, 163, 44, 121], "actions": ["right", "right", "right", "down", "down"], "actionTimes": [10674, 11283, 11986, 12534, 13186], "queries": {"click": {"state": {"target": ["18", "22", "20"], "time": [3584, 5568, 8071]}, "edge": {"target": [], "time": []}}, "mouseover": {"state": {"target": ["15", "18", "13", "22", "19", "20", "20"], "time": [2967, 3431, 3854, 3926, 7604, 7649, 8001]}, "edge": {"target": [], "time": []}}, "mouseout": {"state": {"target": ["18", "0", "15", "18", "13", "22", "19", "20"], "time": [1726, 2965, 3384, 3818, 3890, 7599, 7645, 7681]}, "edge": {"target": [], "time": []}}}, "displayed_time": "16.91", "trialTime": 19874, "trial_type": "mouselab-mdp", "trial_index": 46, "time_elapsed": 1215661, "internal_node_id": "0.0-6.0-1.0-37.0"}}, {"uniqueid": "w76680519:a59911509", "current_trial": 47, "dateTime": 1693565901543, "trialdata": {"revealed_states": [], "clicked_states": ["16", "18", "17"], "num_clicks_accrued": [0, 0, 0, 0, 0, 0, 0, 0, 0, 0, 0, 0, 0], "stateRewards": ["", -1, -4, -3, 1, -45, -67, -24, 14, 32, 22, 22, -1, 1, -5, -7, 72, 84, -79, -5, 19, -40, -2, -1, -2, 8, -3, 84, -25, -28, 11, 64, -66, 77], "withholdReward": false, "trial_id": "mdp_trial_39", "block": "test", "trialIndex": 40, "score": 67.8, "costs": -4.199999999999999, "simulationMode": [null, null, null, null, null], "rewards": [-1, 1, -5, -7, 84], "path": ["0", "0", "12", "13", "14", "15", "17"], "rt": [9530, 112, 111, 42, 61], "actions": ["right", "right", "right", "up", "right"], "actionTimes": [11154, 11802, 12410, 12986, 13554], "queries": {"click": {"state": {"target": ["16", "18", "17"], "time": [2728, 6488, 8829]}, "edge": {"target": [], "time": []}}, "mouseover": {"state": {"target": ["18", "16", "18", "15", "17", "17"], "time": [2226, 2478, 6274, 8027, 8122, 8616]}, "edge": {"target": [], "time": []}}, "mouseout": {"state": {"target": ["20", "19", "22", "0", "18", "16", "18", "15", "17"], "time": [40, 134, 185, 2142, 2309, 6126, 6556, 8119, 8157]}, "edge": {"target": [], "time": []}}}, "displayed_time": "15.63", "trialTime": 17706, "trial_type": "mouselab-mdp", "trial_index": 47, "time_elapsed": 1234685, "internal_node_id": "0.0-6.0-1.0-38.0"}}, {"uniqueid": "w76680519:a59911509", "current_trial": 48, "dateTime": 1693565924168, "trialdata": {"revealed_states": [], "clicked_states": ["22", "20", "21"], "num_clicks_accrued": [0, 0, 0, 0, 0, 0, 0, 0, 0, 0, 0, 0, 0], "stateRewards": ["", -2, -3, -7, 7, -54, -69, -4, -14, -77, 22, 40, -2, -1, 5, 6, -35, 50, -60, 10, -28, 75, 57, 1, -4, -2, 2, 68, 34, -18, 12, 3, -21, -43], "withholdReward": false, "trial_id": "mdp_trial_40", "block": "test", "trialIndex": 41, "score": 82.8, "costs": -4.199999999999999, "simulationMode": [null, null, null, null, null], "rewards": [-2, -1, 5, 10, 75], "path": ["0", "0", "12", "13", "14", "19", "21"], "rt": [7947, 140, 79, 63, 99], "actions": ["right", "right", "right", "down", "down"], "actionTimes": [11561, 12240, 12824, 13387, 13992], "queries": {"click": {"state": {"target": ["22", "20", "21"], "time": [4830, 6886, 8794]}, "edge": {"target": [], "time": []}}, "mouseover": {"state": {"target": ["12", "22", "22", "20", "21"], "time": [4035, 4420, 4737, 6019, 7389]}, "edge": {"target": [], "time": []}}, "mouseout": {"state": {"target": ["17", "0", "12", "22", "22", "20", "20", "21"], "time": [2280, 2714, 4072, 4469, 5516, 6994, 7115, 11062]}, "edge": {"target": [], "time": []}}}, "displayed_time": "17.61", "trialTime": 21417, "trial_type": "mouselab-mdp", "trial_index": 48, "time_elapsed": 1257310, "internal_node_id": "0.0-6.0-1.0-39.0"}}, {"uniqueid": "w76680519:a59911509", "current_trial": 49, "dateTime": 1693565986433, "trialdata": {"rt": 62254, "response": {"Q0": "$-88 to $88", "Q1": "$-16 to $16", "Q2": "$-32 to $32", "Q3": "The cost was always $1.4.", "Q4": "Very motivated"}, "question_order": [0, 1, 2, 3, 4], "trial_id": "final_quiz_control", "trial_type": "survey-multi-choice", "trial_index": 49, "time_elapsed": 1319576, "internal_node_id": "0.0-6.0-2.0"}}, {"uniqueid": "w76680519:a59911509", "current_trial": 50, "dateTime": 1693566057896, "trialdata": {"rt": 71396, "response": {"Q0": "Nodes werent always in one end red, so tried to go opposite side of nodes when it was red", "Q1": "I just tried to follow the pattern, sometimes the pattern I thought it was, was wrong", "Q2": "The game of chance always plays a factor"}, "trial_id": "self_report_control", "trial_type": "survey-text", "trial_index": 50, "time_elapsed": 1391039, "internal_node_id": "0.0-6.0-3.0"}}, {"uniqueid": "w76680519:a59911509", "current_trial": 51, "dateTime": 1693566095119, "trialdata": {"rt": 37203, "response": {"gender": "female", "age": "35", "colorblind": "0", "effort": "1"}, "trial_type": "survey-html-form", "trial_index": 51, "time_elapsed": 1428262, "internal_node_id": "0.0-6.0-4.0"}}, {"uniqueid": "w76680519:a59911509", "current_trial": 52, "dateTime": 1693566178790, "trialdata": {"rt": 83665, "response": {"Q0": "In the beginning when I read instructions It was harder to understand. But the practice rounds help alot", "Q1": "I have never participated", "Q2": "No thank y ou"}, "trial_type": "survey-text", "trial_index": 52, "time_elapsed": 1511933, "internal_node_id": "0.0-6.0-5.0"}}, {"uniqueid": "w76680519:a59911509", "current_trial": 53, "dateTime": 1693566219887, "trialdata": {"rt": 41091, "stimulus": "<h1>Completion Code Instructions (1/2)</h1>\n<br><br><br><br>\nYou have reached the end of the experiment! The completion code consists of two parts: (1) a code with 2 characters (2) a code with 6 characters. On this page, you will receive the second part of the code. The first part of the completion code will be on the next page.\n<br><br>\nThe second part of your completion code is: <b>EWEK22</b>\n<br><br>\nPlease note this down. Then, press 'Finish HIT' in order to find the first part of your completion code. Once the data has been saved, you will receive this code either in this window or in the original browser window where you started the experiment.\n", "response": 0, "trial_type": "html-button-response", "trial_index": 53, "time_elapsed": 1553030, "internal_node_id": "0.0-6.0-6.0"}}, {"uniqueid": "w76680519:a59911509", "current_trial": 54, "dateTime": 1693566220914, "trialdata": {"success": true, "trial_type": "fullscreen", "trial_index": 54, "time_elapsed": 1554057, "internal_node_id": "0.0-7.0"}}], "questiondata": {"params": {"CODE": "C6DMOQA6", "MIN_TIME": 14, "inspectCost": 1, "startTime": "Fri Sep 01 2023 12:37:44 GMT+0200 (South Africa Standard Time)", "bonusRate": 0.002, "variance": "1_2_4_8_44", "branching": "31123"}, "final_score": 885.4}, "eventdata": [{"eventtype": "initialized", "value": null, "timestamp": 1693564664351, "interval": 0}, {"eventtype": "window_resize", "value": [1024, 654], "timestamp": 1693564664351, "interval": 0}, {"eventtype": "window_resize", "value": [1024, 654], "timestamp": 1693564664863, "interval": 512}, {"eventtype": "window_resize", "value": [1366, 768], "timestamp": 1693564671416, "interval": 6553}, {"eventtype": "window_resize", "value": [1024, 654], "timestamp": 1693566220314, "interval": 1548898}], "useragent": "Mozilla/5.0 (Windows NT 10.0; Win64; x64) AppleWebKit/537.36 (KHTML, like Gecko) Chrome/116.0.0.0 Safari/537.36", "mode": "live", "id": "w76680519:a59911509", "status": "user data saved", "Beginhit": "2023-09-01 10:37:41.826787", "Beginexp": "2023-09-01 10:37:52.775201", "Endhit": "2023-09-01 11:03:43.510109", "psiturkStatus": 3, "browser": "<redacted>", "platform": "windows", "language": "en-US"}