{"condition": 0, "counterbalance": 0, "assignmentId": "a27747850", "workerId": "w53946858", "hitId": "h47421263", "currenttrial": 8, "bonus": 0, "data": [{"uniqueid": "w53946858:a27747850", "current_trial": 0, "dateTime": 1691159485277, "trialdata": {"success": true, "trial_type": "fullscreen", "trial_index": 0, "time_elapsed": 9208, "internal_node_id": "0.0-0.0"}}, {"uniqueid": "w53946858:a27747850", "current_trial": 1, "dateTime": 1691159504988, "trialdata": {"view_history": [{"page_index": 0, "viewing_time": 19702}], "rt": 19703, "trial_id": "exp_instructions_control", "trial_type": "instructions", "trial_index": 1, "time_elapsed": 28919, "internal_node_id": "0.0-1.0"}}, {"uniqueid": "w53946858:a27747850", "current_trial": 2, "dateTime": 1691159508821, "trialdata": {"success": true, "trial_type": "fullscreen", "trial_index": 2, "time_elapsed": 32752, "internal_node_id": "0.0-2.0-0.0"}}, {"uniqueid": "w53946858:a27747850", "current_trial": 3, "dateTime": 1691160143042, "trialdata": {"view_history": [{"page_index": 0, "viewing_time": 84538}, {"page_index": 1, "viewing_time": 109911}, {"page_index": 2, "viewing_time": 36327}, {"page_index": 3, "viewing_time": 403443}], "rt": 634219, "trial_id": "mouselab_instructions_1_control", "trial_type": "instructions", "trial_index": 3, "time_elapsed": 666973, "internal_node_id": "0.0-2.0-1.0"}}, {"uniqueid": "w53946858:a27747850", "current_trial": 4, "dateTime": 1691160202553, "trialdata": {"revealed_states": [], "clicked_states": ["24", "14"], "num_clicks_accrued": [0, 0, 0, 0, 0, 0, 0, 0, 0, 0, 0, 0, 0], "stateRewards": ["", -10, -10, -10, 10, -10, -10, 10, -10, 10, -10, 10, 10, -10, -10, 10, -10, 10, -10, 10, -10, 10, 10, 10, 10, -10, -10, 10, 10, 10, 10, 10, 10, -10], "withholdReward": false, "trial_id": "practice_1", "block": "test", "trialIndex": 0, "score": -27.5, "costs": -1, "simulationMode": [null, null, null, null, null], "rewards": [-10, -10, -10, 10, -10], "path": ["0", "0", "1", "2", "3", "4", "5"], "rt": [15105, 1563, 24791, 844, 1245], "actions": ["up", "up", "up", "right", "up"], "actionTimes": [20633, 22732, 48028, 49388, 51132], "queries": {"click": {"state": {"target": ["24", "14"], "time": [12084, 15593]}, "edge": {"target": [], "time": []}}, "mouseover": {"state": {"target": ["23", "24", "29", "26", "0", "23", "24", "25", "24", "23", "24", "23", "12", "13", "13", "13", "14", "13", "12", "2"], "time": [6602, 6642, 6699, 6967, 7368, 9650, 9687, 9716, 10221, 10568, 11034, 13438, 13548, 13582, 13884, 14529, 15168, 16666, 16706, 16913]}, "edge": {"target": [], "time": []}}, "mouseout": {"state": {"target": ["0", "0", "23", "24", "29", "26", "0", "23", "24", "25", "24", "23", "24", "23", "12", "13", "13", "13", "14", "13", "12", "2", "10", "11", "2", "7", "16", "0", "1", "8", "8", "10", "10", "3", "5", "3", "2"], "time": [3915, 6451, 6634, 6656, 6901, 7001, 9601, 9682, 9700, 10201, 10264, 10984, 13418, 13465, 13566, 13600, 13917, 14641, 16634, 16702, 16716, 24168, 24185, 25301, 27466, 27485, 27531, 41032, 41166, 41667, 43066, 43117, 43866, 43917, 44049, 45168, 45417]}, "edge": {"target": [], "time": []}}}, "displayed_time": "51.65", "trialTime": 58684, "trial_type": "mouselab-mdp", "trial_index": 4, "time_elapsed": 726483, "internal_node_id": "0.0-2.0-2.0-0.0"}}, {"uniqueid": "w53946858:a27747850", "current_trial": 5, "dateTime": 1691160238319, "trialdata": {"revealed_states": [], "clicked_states": ["13"], "num_clicks_accrued": [0, 0, 0, 0, 0, 0, 0, 0, 0, 0, 0, 0, 0], "stateRewards": ["", -10, -10, -10, 10, 10, -10, 10, -10, -10, -10, 10, 10, 10, 10, -10, 10, -10, -10, 10, 10, -10, 10, -10, 10, 10, 10, -10, -10, -10, -10, -10, -10, -10], "withholdReward": false, "trial_id": "practice_2", "block": "test", "trialIndex": 1, "score": -7, "costs": -0.5, "simulationMode": [null, null, null, null, null], "rewards": [-10, 10, 10, -10, -10], "path": ["0", "0", "23", "24", "25", "30", "32"], "rt": [11110, 470, 2807, 302, 4777], "actions": ["left", "left", "left", "down", "down"], "actionTimes": [15934, 16917, 20253, 21084, 26388], "queries": {"click": {"state": {"target": ["13"], "time": [11565]}, "edge": {"target": [], "time": []}}, "mouseover": {"state": {"target": ["12", "13", "13"], "time": [9943, 10014, 10825]}, "edge": {"target": [], "time": []}}, "mouseout": {"state": {"target": ["10", "28", "0", "12", "13", "13", "12", "0", "23", "25", "30", "30", "31", "0"], "time": [3157, 3389, 9925, 9993, 10106, 22060, 22110, 22141, 22174, 22205, 22891, 24659, 24691, 24724]}, "edge": {"target": [], "time": []}}}, "displayed_time": "26.89", "trialTime": 35260, "trial_type": "mouselab-mdp", "trial_index": 5, "time_elapsed": 762250, "internal_node_id": "0.0-2.0-2.0-1.0"}}, {"uniqueid": "w53946858:a27747850", "current_trial": 6, "dateTime": 1691160259921, "trialdata": {"view_history": [{"page_index": 0, "viewing_time": 19158}, {"page_index": 1, "viewing_time": 2440}], "rt": 21598, "trial_id": "mouselab_instructions_2_control", "trial_type": "instructions", "trial_index": 6, "time_elapsed": 783852, "internal_node_id": "0.0-2.0-3.0"}}, {"uniqueid": "w53946858:a27747850", "current_trial": 7, "dateTime": 1691160317810, "trialdata": {"rt": 57883, "response": {"Q0": "The cost for clicking on nodes may vary between nodes.", "Q1": "The better I perform the higher my bonus will be.", "Q2": "No, the amount of cash at each node of the web may be different each time.", "Q3": "To get the highest total score.", "Q4": "Only after moving the spider.", "Q5": "3 seconds"}, "question_order": [0, 1, 2, 3, 4, 5], "correct": {"Q0": "The cost for clicking on nodes may vary between nodes.", "Q1": "The better I perform the higher my bonus will be.", "Q2": "No, the amount of cash at each node of the web may be different each time.", "Q3": "To get the highest total score.", "Q4": "Only before moving the spider.", "Q5": "3 seconds"}, "trial_id": "mouselab_quiz_control", "trial_type": "survey-multi-choice", "trial_index": 7, "time_elapsed": 841741, "internal_node_id": "0.0-2.0-4.0"}}], "questiondata": {"params": {"CODE": "C6DMOQA6", "MIN_TIME": 14, "inspectCost": 1, "startTime": "Fri Aug 04 2023 15:31:15 GMT+0100 (British Summer Time)", "bonusRate": 0.002, "variance": "1_2_4_8_44", "branching": "31123"}}, "eventdata": [{"eventtype": "initialized", "value": null, "timestamp": 1691159474746, "interval": 0}, {"eventtype": "window_resize", "value": [1024, 767], "timestamp": 1691159474746, "interval": 0}, {"eventtype": "window_resize", "value": [1024, 767], "timestamp": 1691159475181, "interval": 435}, {"eventtype": "window_resize", "value": [1920, 1080], "timestamp": 1691159484547, "interval": 9366}, {"eventtype": "focus", "value": "off", "timestamp": 1691160322564, "interval": 838017}, {"eventtype": "focus", "value": "on", "timestamp": 1691160322564, "interval": 0}, {"eventtype": "window_resize", "value": [1024, 767], "timestamp": 1691160322780, "interval": 216}], "useragent": "Mozilla/5.0 (Windows NT 10.0; Win64; x64) AppleWebKit/537.36 (KHTML, like Gecko) Chrome/115.0.0.0 Safari/537.36", "mode": "live", "id": "w53946858:a27747850", "status": "user data saved", "Beginhit": "2023-08-04 14:31:16.621964", "Beginexp": "2023-08-04 14:31:28.587952", "Endhit": null, "psiturkStatus": 6, "browser": "<redacted>", "platform": "windows", "language": "en-GB", "excludeReason": "quizfail"}