{"condition": 0, "counterbalance": 0, "assignmentId": "a66935321", "workerId": "w23716629", "hitId": "h10119959", "currenttrial": 66, "bonus": 0, "data": [{"uniqueid": "w23716629:a66935321", "current_trial": 0, "dateTime": 1693480993724, "trialdata": {"success": true, "trial_type": "fullscreen", "trial_index": 0, "time_elapsed": 14476, "internal_node_id": "0.0-0.0"}}, {"uniqueid": "w23716629:a66935321", "current_trial": 1, "dateTime": 1693481040552, "trialdata": {"view_history": [{"page_index": 0, "viewing_time": 46819}], "rt": 46820, "trial_id": "exp_instructions_control", "trial_type": "instructions", "trial_index": 1, "time_elapsed": 61304, "internal_node_id": "0.0-1.0"}}, {"uniqueid": "w23716629:a66935321", "current_trial": 2, "dateTime": 1693481393551, "trialdata": {"view_history": [{"page_index": 0, "viewing_time": 157291}, {"page_index": 1, "viewing_time": 112397}, {"page_index": 2, "viewing_time": 30704}, {"page_index": 3, "viewing_time": 52604}], "rt": 352996, "trial_id": "mouselab_instructions_1_control", "trial_type": "instructions", "trial_index": 2, "time_elapsed": 414303, "internal_node_id": "0.0-2.0-1.0"}}, {"uniqueid": "w23716629:a66935321", "current_trial": 3, "dateTime": 1693481415729, "trialdata": {"revealed_states": [], "clicked_states": ["27"], "num_clicks_accrued": [0, 0, 0, 0, 0, 0, 0, 0, 0, 0, 0, 0, 0], "stateRewards": ["", 10, -10, 10, 10, 10, -10, 10, 10, 10, -10, 10, -10, 10, 10, 10, -10, -10, -10, -10, -10, 10, -10, 10, 10, 10, -10, 10, -10, -10, 10, 10, 10, -10], "withholdReward": false, "trial_id": "practice_1", "block": "test", "trialIndex": 0, "score": 33, "costs": -0.5, "simulationMode": [null, null, null, null, null], "rewards": [10, 10, 10, -10, 10], "path": ["0", "0", "23", "24", "25", "26", "27"], "rt": [7480, 609, 359, 912, 72], "actions": ["left", "left", "left", "up", "up"], "actionTimes": [10401, 11506, 12372, 13791, 14384], "queries": {"click": {"state": {"target": ["27"], "time": [6030]}, "edge": {"target": [], "time": []}}, "mouseover": {"state": {"target": ["1", "28", "26", "27", "12", "13", "14"], "time": [4143, 5027, 5177, 5526, 7310, 7360, 7543]}, "edge": {"target": [], "time": []}}, "mouseout": {"state": {"target": ["0", "1", "28", "26", "27", "12", "13", "14"], "time": [3827, 4910, 5110, 5376, 6845, 7343, 7410, 16626]}, "edge": {"target": [], "time": []}}}, "displayed_time": "14.88", "trialTime": 20953, "trial_type": "mouselab-mdp", "trial_index": 3, "time_elapsed": 436480, "internal_node_id": "0.0-2.0-2.0-0.0"}}, {"uniqueid": "w23716629:a66935321", "current_trial": 4, "dateTime": 1693481431367, "trialdata": {"revealed_states": [], "clicked_states": ["17"], "num_clicks_accrued": [0, 0, 0, 0, 0, 0, 0, 0, 0, 0, 0, 0, 0], "stateRewards": ["", 10, 10, -10, 10, 10, -10, 10, -10, 10, 10, 10, 10, 10, 10, -10, -10, -10, -10, -10, -10, -10, -10, -10, -10, -10, -10, 10, 10, 10, 10, 10, 10, -10], "withholdReward": false, "trial_id": "practice_2", "block": "test", "trialIndex": 1, "score": 13, "costs": -0.5, "simulationMode": [null, null, null, null, null], "rewards": [10, 10, 10, -10, -10], "path": ["0", "0", "12", "13", "14", "15", "18"], "rt": [6370, 100, 135, 213, 181], "actions": ["right", "right", "right", "up", "left"], "actionTimes": [8421, 9030, 9663, 10393, 11075], "queries": {"click": {"state": {"target": ["17"], "time": [4002]}, "edge": {"target": [], "time": []}}, "mouseover": {"state": {"target": ["12", "13", "14", "17"], "time": [2560, 2578, 2692, 3409]}, "edge": {"target": [], "time": []}}, "mouseout": {"state": {"target": ["21", "0", "0", "12", "13", "14", "17"], "time": [892, 1225, 2543, 2576, 2626, 3342, 4527]}, "edge": {"target": [], "time": []}}}, "displayed_time": "11.59", "trialTime": 15376, "trial_type": "mouselab-mdp", "trial_index": 4, "time_elapsed": 452119, "internal_node_id": "0.0-2.0-2.0-1.0"}}, {"uniqueid": "w23716629:a66935321", "current_trial": 5, "dateTime": 1693481503365, "trialdata": {"view_history": [{"page_index": 0, "viewing_time": 48601}, {"page_index": 1, "viewing_time": 23393}], "rt": 71995, "trial_id": "mouselab_instructions_2_control", "trial_type": "instructions", "trial_index": 5, "time_elapsed": 524117, "internal_node_id": "0.0-2.0-3.0"}}, {"uniqueid": "w23716629:a66935321", "current_trial": 6, "dateTime": 1693481567571, "trialdata": {"rt": 64202, "response": {"Q0": "The cost for clicking on nodes may vary between nodes.", "Q1": "The better I perform the higher my bonus will be.", "Q2": "No, the amount of cash at each node of the web may be different each time.", "Q3": "To get the highest total score.", "Q4": "Any time during the round.", "Q5": "3 seconds"}, "question_order": [0, 1, 2, 3, 4, 5], "correct": {"Q0": "The cost for clicking on nodes may vary between nodes.", "Q1": "The better I perform the higher my bonus will be.", "Q2": "No, the amount of cash at each node of the web may be different each time.", "Q3": "To get the highest total score.", "Q4": "Only before moving the spider.", "Q5": "3 seconds"}, "trial_id": "mouselab_quiz_control", "trial_type": "survey-multi-choice", "trial_index": 6, "time_elapsed": 588323, "internal_node_id": "0.0-2.0-4.0"}}, {"uniqueid": "w23716629:a66935321", "current_trial": 7, "dateTime": 1693481582177, "trialdata": {"success": true, "trial_type": "fullscreen", "trial_index": 7, "time_elapsed": 602929, "internal_node_id": "0.0-2.1-0.1-0.1"}}, {"uniqueid": "w23716629:a66935321", "current_trial": 8, "dateTime": 1693481657972, "trialdata": {"view_history": [{"page_index": 0, "viewing_time": 23997}, {"page_index": 1, "viewing_time": 5787}, {"page_index": 2, "viewing_time": 17472}, {"page_index": 3, "viewing_time": 28537}], "rt": 75793, "trial_id": "mouselab_instructions_1_control", "trial_type": "instructions", "trial_index": 8, "time_elapsed": 678724, "internal_node_id": "0.0-2.1-1.1"}}, {"uniqueid": "w23716629:a66935321", "current_trial": 9, "dateTime": 1693481675139, "trialdata": {"revealed_states": [], "clicked_states": ["29"], "num_clicks_accrued": [0, 0, 0, 0, 0, 0, 0, 0, 0, 0, 0, 0, 0], "stateRewards": ["", 10, -10, 10, 10, 10, -10, 10, 10, 10, -10, 10, -10, 10, 10, 10, -10, -10, -10, -10, -10, 10, -10, 10, 10, 10, -10, 10, -10, -10, 10, 10, 10, -10], "withholdReward": false, "trial_id": "practice_1", "block": "test", "trialIndex": 2, "score": 33, "costs": -0.5, "simulationMode": [null, null, null, null, null], "rewards": [10, 10, 10, -10, 10], "path": ["0", "0", "23", "24", "25", "26", "27"], "rt": [7533, 771, 438, 368, 178], "actions": ["left", "left", "left", "up", "up"], "actionTimes": [9900, 11191, 12122, 13002, 13677], "queries": {"click": {"state": {"target": ["29"], "time": [5265]}, "edge": {"target": [], "time": []}}, "mouseover": {"state": {"target": ["23", "24", "25", "26", "29", "26", "26", "28"], "time": [2965, 3081, 3781, 4131, 4814, 5882, 7031, 7064]}, "edge": {"target": [], "time": []}}, "mouseout": {"state": {"target": ["0", "23", "24", "25", "26", "29", "26", "26", "28"], "time": [2931, 3015, 3715, 3831, 4781, 5849, 5917, 7048, 7097]}, "edge": {"target": [], "time": []}}}, "displayed_time": "14.19", "trialTime": 16870, "trial_type": "mouselab-mdp", "trial_index": 9, "time_elapsed": 695890, "internal_node_id": "0.0-2.1-2.1-0.1"}}, {"uniqueid": "w23716629:a66935321", "current_trial": 10, "dateTime": 1693481687219, "trialdata": {"revealed_states": [], "clicked_states": ["20"], "num_clicks_accrued": [0, 0, 0, 0, 0, 0, 0, 0, 0, 0, 0, 0, 0], "stateRewards": ["", 10, 10, -10, 10, 10, -10, 10, -10, 10, 10, 10, 10, 10, 10, -10, -10, -10, -10, -10, -10, -10, -10, -10, -10, -10, -10, 10, 10, 10, 10, 10, 10, -10], "withholdReward": false, "trial_id": "practice_2", "block": "test", "trialIndex": 3, "score": 13, "costs": -0.5, "simulationMode": [null, null, null, null, null], "rewards": [10, 10, 10, -10, -10], "path": ["0", "0", "12", "13", "14", "19", "21"], "rt": [4339, 216, 172, 12, 588], "actions": ["right", "right", "right", "down", "down"], "actionTimes": [6103, 6838, 7511, 8034, 9143], "queries": {"click": {"state": {"target": ["20"], "time": [3868]}, "edge": {"target": [], "time": []}}, "mouseover": {"state": {"target": ["12", "13", "14", "14", "19", "20"], "time": [2221, 2240, 2256, 2771, 2987, 3322]}, "edge": {"target": [], "time": []}}, "mouseout": {"state": {"target": ["22", "12", "12", "13", "14", "14", "19", "20"], "time": [505, 720, 2238, 2254, 2304, 2954, 3320, 4070]}, "edge": {"target": [], "time": []}}}, "displayed_time": "9.64", "trialTime": 11775, "trial_type": "mouselab-mdp", "trial_index": 10, "time_elapsed": 707971, "internal_node_id": "0.0-2.1-2.1-1.1"}}, {"uniqueid": "w23716629:a66935321", "current_trial": 11, "dateTime": 1693481725825, "trialdata": {"view_history": [{"page_index": 0, "viewing_time": 36435}, {"page_index": 1, "viewing_time": 2169}], "rt": 38604, "trial_id": "mouselab_instructions_2_control", "trial_type": "instructions", "trial_index": 11, "time_elapsed": 746577, "internal_node_id": "0.0-2.1-3.1"}}, {"uniqueid": "w23716629:a66935321", "current_trial": 12, "dateTime": 1693481818483, "trialdata": {"rt": 92654, "response": {"Q0": "The cost for clicking on nodes may vary between nodes.", "Q1": "The better I perform the higher my bonus will be.", "Q2": "Yes.", "Q3": "To get the highest total score.", "Q4": "Any time during the round.", "Q5": "3 seconds"}, "question_order": [0, 1, 2, 3, 4, 5], "correct": {"Q0": "The cost for clicking on nodes may vary between nodes.", "Q1": "The better I perform the higher my bonus will be.", "Q2": "No, the amount of cash at each node of the web may be different each time.", "Q3": "To get the highest total score.", "Q4": "Only before moving the spider.", "Q5": "3 seconds"}, "trial_id": "mouselab_quiz_control", "trial_type": "survey-multi-choice", "trial_index": 12, "time_elapsed": 839235, "internal_node_id": "0.0-2.1-4.1"}}, {"uniqueid": "w23716629:a66935321", "current_trial": 13, "dateTime": 1693481837912, "trialdata": {"success": true, "trial_type": "fullscreen", "trial_index": 13, "time_elapsed": 858664, "internal_node_id": "0.0-2.2-0.2-0.2"}}, {"uniqueid": "w23716629:a66935321", "current_trial": 14, "dateTime": 1693481926092, "trialdata": {"view_history": [{"page_index": 0, "viewing_time": 59309}, {"page_index": 1, "viewing_time": 9879}, {"page_index": 2, "viewing_time": 12003}, {"page_index": 3, "viewing_time": 6988}], "rt": 88179, "trial_id": "mouselab_instructions_1_control", "trial_type": "instructions", "trial_index": 14, "time_elapsed": 946844, "internal_node_id": "0.0-2.2-1.2"}}, {"uniqueid": "w23716629:a66935321", "current_trial": 15, "dateTime": 1693481940849, "trialdata": {"revealed_states": [], "clicked_states": ["27"], "num_clicks_accrued": [0, 0, 0, 0, 0, 0, 0, 0, 0, 0, 0, 0, 0], "stateRewards": ["", 10, -10, 10, 10, 10, -10, 10, 10, 10, -10, 10, -10, 10, 10, 10, -10, -10, -10, -10, -10, 10, -10, 10, 10, 10, -10, 10, -10, -10, 10, 10, 10, -10], "withholdReward": false, "trial_id": "practice_1", "block": "test", "trialIndex": 4, "score": 33, "costs": -0.5, "simulationMode": [null, null, null, null, null], "rewards": [10, 10, 10, -10, 10], "path": ["0", "0", "23", "24", "25", "26", "27"], "rt": [4863, 145, 6, 354, 83], "actions": ["left", "left", "left", "up", "up"], "actionTimes": [6623, 7277, 7803, 8684, 9279], "queries": {"click": {"state": {"target": ["27"], "time": [4365]}, "edge": {"target": [], "time": []}}, "mouseover": {"state": {"target": ["27", "27"], "time": [3461, 3762]}, "edge": {"target": [], "time": []}}, "mouseout": {"state": {"target": ["0", "27", "27", "2", "21", "21"], "time": [3413, 3478, 11151, 11194, 13094, 14161]}, "edge": {"target": [], "time": []}}}, "displayed_time": "9.80", "trialTime": 14465, "trial_type": "mouselab-mdp", "trial_index": 15, "time_elapsed": 961601, "internal_node_id": "0.0-2.2-2.2-0.2"}}, {"uniqueid": "w23716629:a66935321", "current_trial": 16, "dateTime": 1693481952855, "trialdata": {"revealed_states": [], "clicked_states": [], "num_clicks_accrued": [0, 0, 0, 0, 0, 0, 0, 0, 0, 0, 0, 0, 0], "stateRewards": ["", 10, 10, -10, 10, 10, -10, 10, -10, 10, 10, 10, 10, 10, 10, -10, -10, -10, -10, -10, -10, -10, -10, -10, -10, -10, -10, 10, 10, 10, 10, 10, 10, -10], "withholdReward": false, "trial_id": "practice_2", "block": "test", "trialIndex": 5, "score": 13.5, "costs": 0, "simulationMode": [null, null, null, null, null], "rewards": [10, 10, -10, 10, -10], "path": ["0", "0", "1", "2", "3", "4", "6"], "rt": [1069, 234, 327, 605, 172], "actions": ["up", "up", "up", "right", "right"], "actionTimes": [3851, 4596, 5440, 6548, 7236], "queries": {"click": {"state": {"target": [], "time": []}, "edge": {"target": [], "time": []}}, "mouseover": {"state": {"target": [], "time": []}, "edge": {"target": [], "time": []}}, "mouseout": {"state": {"target": ["12", "1", "0", "0"], "time": [1026, 1774, 2057, 9341]}, "edge": {"target": [], "time": []}}}, "displayed_time": "7.73", "trialTime": 11701, "trial_type": "mouselab-mdp", "trial_index": 16, "time_elapsed": 973606, "internal_node_id": "0.0-2.2-2.2-1.2"}}, {"uniqueid": "w23716629:a66935321", "current_trial": 17, "dateTime": 1693481967195, "trialdata": {"view_history": [{"page_index": 0, "viewing_time": 11807}, {"page_index": 1, "viewing_time": 2529}], "rt": 14336, "trial_id": "mouselab_instructions_2_control", "trial_type": "instructions", "trial_index": 17, "time_elapsed": 987947, "internal_node_id": "0.0-2.2-3.2"}}, {"uniqueid": "w23716629:a66935321", "current_trial": 18, "dateTime": 1693482118459, "trialdata": {"rt": 151262, "response": {"Q0": "The cost for clicking on nodes may vary between nodes.", "Q1": "The better I perform the higher my bonus will be.", "Q2": "No, the amount of cash at each node of the web may be different each time.", "Q3": "To get the highest total score.", "Q4": "Only before moving the spider.", "Q5": "3 seconds"}, "question_order": [0, 1, 2, 3, 4, 5], "correct": {"Q0": "The cost for clicking on nodes may vary between nodes.", "Q1": "The better I perform the higher my bonus will be.", "Q2": "No, the amount of cash at each node of the web may be different each time.", "Q3": "To get the highest total score.", "Q4": "Only before moving the spider.", "Q5": "3 seconds"}, "trial_id": "mouselab_quiz_control", "trial_type": "survey-multi-choice", "trial_index": 18, "time_elapsed": 1139211, "internal_node_id": "0.0-2.2-4.2"}}, {"uniqueid": "w23716629:a66935321", "current_trial": 19, "dateTime": 1693482133109, "trialdata": {"rt": 14643, "response": {"Q0": "No"}, "question_order": [0], "trial_id": "repeat_check", "trial_type": "survey-multi-choice", "trial_index": 19, "time_elapsed": 1153861, "internal_node_id": "0.0-4.0-0.0"}}, {"uniqueid": "w23716629:a66935321", "current_trial": 20, "dateTime": 1693482163555, "trialdata": {"rt": 30439, "stimulus": "\n<h1> Get ready to start the game! </h1>\n\nThank you for reading the instructions. Get ready start with the 40 rounds of this game.\n<br><br>\nIf you need to take a break, feel free to take one after the end of a round, before continuing to the next one.\n<br><br>\nRemember, the more money the spider gets, the bigger your bonus will be!\n<br><br>\n<div style='text-align: center;'>Press <code>space</code> to begin.</div>\n\n<br><br>\n(If, at any point, the <code>space</code> key does not take you to the next page, click once on the text and try again.)", "response": " ", "trial_id": "mdp_ready", "trial_type": "html-keyboard-response", "trial_index": 20, "time_elapsed": 1184307, "internal_node_id": "0.0-6.0-0.0"}}, {"uniqueid": "w23716629:a66935321", "current_trial": 21, "dateTime": 1693482184181, "trialdata": {"revealed_states": [], "clicked_states": ["27"], "num_clicks_accrued": [0, 0, 0, 0, 0, 0, 0, 0, 0, 0, 0, 0, 0], "stateRewards": ["", 2, 4, 4, -8, -36, -33, 38, 16, -51, 57, 57, 1, 3, 4, -6, 45, 68, 87, 1, 63, 24, -55, -2, 2, -6, -13, -63, -50, 8, 2, 80, 6, 60], "withholdReward": false, "trial_id": "mdp_trial_1", "block": "test", "trialIndex": 6, "score": -47.4, "costs": -1.4, "simulationMode": [null, null, null, null, null], "rewards": [1, 3, 4, 1, -55], "path": ["0", "0", "12", "13", "14", "19", "22"], "rt": [7584, 171, 175, 728, 401], "actions": ["right", "right", "right", "down", "left"], "actionTimes": [10520, 11207, 11900, 13145, 14054], "queries": {"click": {"state": {"target": ["27"], "time": [5383]}, "edge": {"target": [], "time": []}}, "mouseover": {"state": {"target": ["12", "13", "14", "1", "28", "27", "26", "1", "18", "15", "17"], "time": [3599, 3618, 3682, 4118, 4282, 4565, 6183, 7882, 8032, 8468, 8516]}, "edge": {"target": [], "time": []}}, "mouseout": {"state": {"target": ["1", "12", "13", "14", "1", "28", "27", "26", "1", "18", "15", "17"], "time": [2182, 3616, 3649, 3982, 4133, 4416, 6000, 6932, 7899, 8450, 8499, 8532]}, "edge": {"target": [], "time": []}}}, "displayed_time": "16.94", "trialTime": 20152, "trial_type": "mouselab-mdp", "trial_index": 21, "time_elapsed": 1204933, "internal_node_id": "0.0-6.0-1.0-0.0"}}, {"uniqueid": "w23716629:a66935321", "current_trial": 22, "dateTime": 1693482210724, "trialdata": {"revealed_states": [], "clicked_states": ["5", "11", "9", "6"], "num_clicks_accrued": [0, 0, 0, 0, 0, 0, 0, 0, 0, 0, 0, 0, 0], "stateRewards": ["", 1, 1, -2, 7, -31, -6, 76, 1, -36, -16, -53, 2, 1, 7, 13, -47, -10, 47, -7, 72, 46, -56, -2, -2, -2, 11, -80, 44, 38, 16, 67, 85, -78], "withholdReward": false, "trial_id": "mdp_trial_2", "block": "test", "trialIndex": 7, "score": -4.6, "costs": -5.6, "simulationMode": [null, null, null, null, null], "rewards": [1, 1, -2, 7, -6], "path": ["0", "0", "1", "2", "3", "4", "6"], "rt": [12004, 1534, 1889, 582, 184], "actions": ["up", "up", "up", "right", "right"], "actionTimes": [13748, 15800, 18186, 19280, 19964], "queries": {"click": {"state": {"target": ["5", "11", "9", "6"], "time": [3112, 6386, 8298, 10487]}, "edge": {"target": [], "time": []}}, "mouseover": {"state": {"target": ["1", "4", "5", "6", "3", "8", "11", "9", "9", "6", "7", "1", "12"], "time": [2162, 2279, 2612, 3781, 5563, 5582, 5613, 7031, 7563, 9179, 10997, 11063, 11313]}, "edge": {"target": [], "time": []}}, "mouseout": {"state": {"target": ["12", "1", "4", "5", "6", "3", "8", "11", "9", "9", "9", "6", "7", "1", "12", "13", "17"], "time": [1062, 2196, 2362, 3631, 5545, 5580, 5596, 6964, 7063, 8504, 8762, 10980, 11013, 11263, 11447, 23394, 23412]}, "edge": {"target": [], "time": []}}}, "displayed_time": "20.48", "trialTime": 26160, "trial_type": "mouselab-mdp", "trial_index": 22, "time_elapsed": 1231476, "internal_node_id": "0.0-6.0-1.0-1.0"}}, {"uniqueid": "w23716629:a66935321", "current_trial": 23, "dateTime": 1693482235184, "trialdata": {"revealed_states": [], "clicked_states": ["23", "33", "32", "20"], "num_clicks_accrued": [0, 0, 0, 0, 0, 0, 0, 0, 0, 0, 0, 0, 0], "stateRewards": ["", -2, 4, -7, -3, -76, 39, -28, 10, 14, 12, 60, 2, -3, 6, -10, 88, -34, -41, -3, 72, -13, -56, 1, 3, 2, 8, -51, 23, -57, 1, 14, -46, -16], "withholdReward": false, "trial_id": "mdp_trial_3", "block": "test", "trialIndex": 8, "score": 68.4, "costs": -5.6, "simulationMode": [null, null, null, null, null], "rewards": [2, -3, 6, -3, 72], "path": ["0", "0", "12", "13", "14", "19", "20"], "rt": [12945, 323, 293, 455, 877], "actions": ["right", "right", "right", "down", "right"], "actionTimes": [14848, 15689, 16492, 17453, 18826], "queries": {"click": {"state": {"target": ["23", "33", "32", "20"], "time": [3757, 5996, 8507, 11912]}, "edge": {"target": [], "time": []}}, "mouseover": {"state": {"target": ["0", "23", "24", "23", "24", "25", "33", "32", "20"], "time": [2429, 2512, 3048, 3146, 4514, 4782, 5475, 6763, 11379]}, "edge": {"target": [], "time": []}}, "mouseout": {"state": {"target": ["14", "13", "12", "0", "0", "23", "24", "23", "24", "25", "33", "32", "20", "20"], "time": [646, 712, 879, 1212, 2479, 2530, 3112, 4463, 4714, 5148, 6498, 8717, 12117, 12663]}, "edge": {"target": [], "time": []}}}, "displayed_time": "19.35", "trialTime": 24021, "trial_type": "mouselab-mdp", "trial_index": 23, "time_elapsed": 1255935, "internal_node_id": "0.0-6.0-1.0-2.0"}}, {"uniqueid": "w23716629:a66935321", "current_trial": 24, "dateTime": 1693482264931, "trialdata": {"revealed_states": [], "clicked_states": ["27", "21", "22", "16", "17", "5", "9"], "num_clicks_accrued": [0, 0, 0, 0, 0, 0, 0, 0, 0, 0, 0, 0, 0], "stateRewards": ["", 2, 4, -3, 16, -58, 30, -35, 11, -60, 47, 27, -2, -1, -7, -16, 23, -70, 68, -10, -65, -43, -34, -2, 1, 7, 9, -63, 34, -31, -8, -12, -86, 59], "withholdReward": false, "trial_id": "mdp_trial_4", "block": "test", "trialIndex": 9, "score": -12.799999999999997, "costs": -9.8, "simulationMode": [null, null, null, null, null], "rewards": [-2, -1, -7, -16, 23], "path": ["0", "0", "12", "13", "14", "15", "16"], "rt": [21765, 39, 114, 218, 68], "actions": ["right", "right", "right", "up", "up"], "actionTimes": [23530, 24062, 24669, 25405, 25989], "queries": {"click": {"state": {"target": ["27", "21", "22", "16", "17", "5", "9"], "time": [3410, 6762, 9563, 12041, 14672, 17397, 19775]}, "edge": {"target": [], "time": []}}, "mouseover": {"state": {"target": ["23", "24", "25", "26", "27", "29", "21", "20", "19", "22", "15", "16", "17", "6", "5", "9", "11", "8", "16"], "time": [2290, 2309, 2371, 2687, 2837, 4321, 5803, 7355, 8921, 9253, 10274, 10355, 12687, 15320, 16836, 18004, 20754, 22604, 22669]}, "edge": {"target": [], "time": []}}, "mouseout": {"state": {"target": ["16", "18", "23", "24", "25", "26", "27", "29", "21", "20", "19", "22", "15", "16", "17", "16", "6", "5", "9", "9", "11", "8", "16"], "time": [670, 720, 2305, 2354, 2654, 2704, 3922, 5687, 7305, 8904, 8953, 10222, 10304, 12620, 14874, 15236, 16736, 17938, 19978, 20221, 22602, 22620, 22686]}, "edge": {"target": [], "time": []}}}, "displayed_time": "26.49", "trialTime": 29411, "trial_type": "mouselab-mdp", "trial_index": 24, "time_elapsed": 1285682, "internal_node_id": "0.0-6.0-1.0-3.0"}}, {"uniqueid": "w23716629:a66935321", "current_trial": 25, "dateTime": 1693482283551, "trialdata": {"revealed_states": [], "clicked_states": ["32"], "num_clicks_accrued": [0, 0, 0, 0, 0, 0, 0, 0, 0, 0, 0, 0, 0], "stateRewards": ["", -2, -3, 4, 1, 33, -53, 15, 9, -12, 61, -6, -2, 4, 6, -11, 47, -43, -7, -11, 46, 23, -28, -1, -1, 3, -10, 11, 76, -76, 10, 18, -38, 87], "withholdReward": false, "trial_id": "mdp_trial_5", "block": "test", "trialIndex": 10, "score": -32.4, "costs": -1.4, "simulationMode": [null, null, null, null, null], "rewards": [-2, 4, 6, -11, -28], "path": ["0", "0", "12", "13", "14", "19", "22"], "rt": [9757, 213, 275, 594, 225], "actions": ["right", "right", "right", "down", "left"], "actionTimes": [11121, 11830, 12624, 13711, 14456], "queries": {"click": {"state": {"target": ["32"], "time": [2546]}, "edge": {"target": [], "time": []}}, "mouseover": {"state": {"target": ["31", "32", "21", "22", "19", "20", "19", "22"], "time": [1813, 2096, 7081, 7379, 8282, 8300, 8579, 8746]}, "edge": {"target": [], "time": []}}, "mouseout": {"state": {"target": ["13", "12", "23", "0", "31", "32", "21", "22", "19", "20", "19", "22"], "time": [429, 447, 747, 1663, 1830, 2965, 7329, 8265, 8297, 8330, 8646, 10479]}, "edge": {"target": [], "time": []}}}, "displayed_time": "15.37", "trialTime": 18275, "trial_type": "mouselab-mdp", "trial_index": 25, "time_elapsed": 1304302, "internal_node_id": "0.0-6.0-1.0-4.0"}}, {"uniqueid": "w23716629:a66935321", "current_trial": 26, "dateTime": 1693482301345, "trialdata": {"revealed_states": [], "clicked_states": ["11"], "num_clicks_accrued": [0, 0, 0, 0, 0, 0, 0, 0, 0, 0, 0, 0, 0], "stateRewards": ["", 1, -2, -2, 10, -31, -77, 35, 9, -47, 8, 48, -2, 1, -4, -3, -26, -50, 43, -11, 76, -38, 17, 1, -1, 6, 10, 15, -9, 12, -8, 85, 11, -55], "withholdReward": false, "trial_id": "mdp_trial_6", "block": "test", "trialIndex": 11, "score": 52.6, "costs": -1.4, "simulationMode": [null, null, null, null, null], "rewards": [1, -2, -2, 9, 48], "path": ["0", "0", "1", "2", "3", "8", "11"], "rt": [4301, 194, 129, 357, 160], "actions": ["up", "up", "up", "left", "left"], "actionTimes": [5835, 6541, 7190, 8070, 8740], "queries": {"click": {"state": {"target": ["11"], "time": [2745]}, "edge": {"target": [], "time": []}}, "mouseover": {"state": {"target": ["1", "10", "8", "11", "9"], "time": [1944, 2010, 2044, 2376, 3327]}, "edge": {"target": [], "time": []}}, "mouseout": {"state": {"target": ["17", "18", "0", "1", "10", "8", "11", "9"], "time": [492, 609, 1926, 1960, 2027, 2109, 3278, 4927]}, "edge": {"target": [], "time": []}}}, "displayed_time": "15.54", "trialTime": 17401, "trial_type": "mouselab-mdp", "trial_index": 26, "time_elapsed": 1322096, "internal_node_id": "0.0-6.0-1.0-5.0"}}, {"uniqueid": "w23716629:a66935321", "current_trial": 27, "dateTime": 1693482318332, "trialdata": {"revealed_states": [], "clicked_states": ["31", "22"], "num_clicks_accrued": [0, 0, 0, 0, 0, 0, 0, 0, 0, 0, 0, 0, 0], "stateRewards": ["", 1, -4, -4, 8, 1, -79, 68, -10, -79, 8, -74, -1, -3, -6, 14, 43, 23, 9, 5, -51, 63, 61, -2, 4, 6, -10, 69, -32, 57, 15, -80, -80, -77], "withholdReward": false, "trial_id": "mdp_trial_7", "block": "test", "trialIndex": 12, "score": 53.2, "costs": -2.8, "simulationMode": [null, null, null, null, null], "rewards": [-1, -3, -6, 5, 61], "path": ["0", "0", "12", "13", "14", "19", "22"], "rt": [7559, 284, 161, 248, 418], "actions": ["right", "right", "right", "down", "left"], "actionTimes": [9031, 9825, 10501, 11256, 12190], "queries": {"click": {"state": {"target": ["31", "22"], "time": [3204, 6230]}, "edge": {"target": [], "time": []}}, "mouseover": {"state": {"target": ["30", "32", "31", "22", "19"], "time": [2055, 2405, 2721, 5739, 6725]}, "edge": {"target": [], "time": []}}, "mouseout": {"state": {"target": ["17", "15", "12", "0", "30", "32", "31", "22", "19"], "time": [521, 539, 755, 1955, 2122, 2671, 3723, 6723, 6740]}, "edge": {"target": [], "time": []}}}, "displayed_time": "15.47", "trialTime": 16619, "trial_type": "mouselab-mdp", "trial_index": 27, "time_elapsed": 1339084, "internal_node_id": "0.0-6.0-1.0-6.0"}}, {"uniqueid": "w23716629:a66935321", "current_trial": 28, "dateTime": 1693482337223, "trialdata": {"revealed_states": [], "clicked_states": ["17", "29"], "num_clicks_accrued": [0, 0, 0, 0, 0, 0, 0, 0, 0, 0, 0, 0, 0], "stateRewards": ["", 2, 2, 3, -15, 23, -14, 73, -7, -32, -20, -6, 1, 1, -5, -12, 73, 6, -84, 11, -81, -57, 13, -2, -1, -4, -8, -52, -58, 49, 13, 5, -41, -41], "withholdReward": false, "trial_id": "mdp_trial_8", "block": "test", "trialIndex": 13, "score": 31.2, "costs": -2.8, "simulationMode": [null, null, null, null, null], "rewards": [-2, -1, -4, -8, 49], "path": ["0", "0", "23", "24", "25", "26", "29"], "rt": [8253, 198, 651, 236, 256], "actions": ["left", "left", "left", "up", "left"], "actionTimes": [11139, 11859, 13032, 13767, 14518], "queries": {"click": {"state": {"target": ["17", "29"], "time": [4074, 8039]}, "edge": {"target": [], "time": []}}, "mouseover": {"state": {"target": ["12", "13", "17", "15", "16", "4", "3", "11", "27", "29", "10", "1"], "time": [3261, 3294, 3576, 4661, 4814, 6509, 6559, 7026, 7309, 7559, 10277, 10359]}, "edge": {"target": [], "time": []}}, "mouseout": {"state": {"target": ["14", "13", "12", "0", "0", "12", "13", "17", "15", "16", "4", "3", "11", "27", "29", "10", "1"], "time": [726, 1029, 1092, 1392, 3243, 3277, 3360, 4627, 4728, 6442, 6527, 6610, 7259, 7376, 8477, 10293, 10426]}, "edge": {"target": [], "time": []}}}, "displayed_time": "16.89", "trialTime": 18516, "trial_type": "mouselab-mdp", "trial_index": 28, "time_elapsed": 1357975, "internal_node_id": "0.0-6.0-1.0-7.0"}}, {"uniqueid": "w23716629:a66935321", "current_trial": 29, "dateTime": 1693482355293, "trialdata": {"revealed_states": [], "clicked_states": ["11", "20"], "num_clicks_accrued": [0, 0, 0, 0, 0, 0, 0, 0, 0, 0, 0, 0, 0], "stateRewards": ["", -1, -1, 4, -16, -75, 81, -51, -7, -84, 73, -30, -2, 1, -3, -16, -77, 33, 14, 1, 45, 87, -66, 2, 2, -5, -7, -19, -17, 79, -3, 8, 49, 47], "withholdReward": false, "trial_id": "mdp_trial_9", "block": "test", "trialIndex": 14, "score": 39.2, "costs": -2.8, "simulationMode": [null, null, null, null, null], "rewards": [-2, 1, -3, 1, 45], "path": ["0", "0", "12", "13", "14", "19", "20"], "rt": [8480, 204, 163, 244, 494], "actions": ["right", "right", "right", "down", "right"], "actionTimes": [9831, 10554, 11230, 11994, 12995], "queries": {"click": {"state": {"target": ["11", "20"], "time": [4352, 7194]}, "edge": {"target": [], "time": []}}, "mouseover": {"state": {"target": ["19", "19", "20", "14", "18", "3", "11", "2", "20", "20"], "time": [2198, 2531, 2598, 2816, 3201, 3316, 3781, 4802, 4882, 6834]}, "edge": {"target": [], "time": []}}, "mouseout": {"state": {"target": ["21", "0", "19", "19", "20", "14", "18", "3", "11", "11", "2", "20", "20"], "time": [347, 1681, 2265, 2565, 2815, 2832, 3215, 3349, 4557, 4799, 4816, 4899, 7394]}, "edge": {"target": [], "time": []}}}, "displayed_time": "15.35", "trialTime": 17676, "trial_type": "mouselab-mdp", "trial_index": 29, "time_elapsed": 1376045, "internal_node_id": "0.0-6.0-1.0-8.0"}}, {"uniqueid": "w23716629:a66935321", "current_trial": 30, "dateTime": 1693482372954, "trialdata": {"revealed_states": [], "clicked_states": ["31"], "num_clicks_accrued": [0, 0, 0, 0, 0, 0, 0, 0, 0, 0, 0, 0, 0], "stateRewards": ["", 1, -1, 8, -3, 38, 85, -20, -4, 8, 23, 73, 2, -4, 6, -13, 44, 7, -28, -11, -77, 45, -69, 1, -1, -7, -11, 75, -51, -87, 7, 36, -53, -26], "withholdReward": false, "trial_id": "mdp_trial_10", "block": "test", "trialIndex": 15, "score": 34.6, "costs": -1.4, "simulationMode": [null, null, null, null, null], "rewards": [1, -1, -7, 7, 36], "path": ["0", "0", "23", "24", "25", "30", "31"], "rt": [5380, 156, 589, 406, 473], "actions": ["left", "left", "left", "down", "right"], "actionTimes": [7745, 8399, 9500, 10417, 11401], "queries": {"click": {"state": {"target": ["31"], "time": [4149]}, "edge": {"target": [], "time": []}}, "mouseover": {"state": {"target": ["0", "31", "30", "30", "31", "30"], "time": [2792, 2841, 2861, 3141, 3408, 5109]}, "edge": {"target": [], "time": []}}, "mouseout": {"state": {"target": ["14", "13", "12", "0", "0", "31", "30", "30", "31", "30", "22", "19"], "time": [1374, 1476, 1707, 1774, 2809, 2859, 2891, 3225, 5092, 6307, 13224, 13241]}, "edge": {"target": [], "time": []}}}, "displayed_time": "16.37", "trialTime": 17330, "trial_type": "mouselab-mdp", "trial_index": 30, "time_elapsed": 1393705, "internal_node_id": "0.0-6.0-1.0-9.0"}}, {"uniqueid": "w23716629:a66935321", "current_trial": 31, "dateTime": 1693482391519, "trialdata": {"revealed_states": [], "clicked_states": ["5"], "num_clicks_accrued": [0, 0, 0, 0, 0, 0, 0, 0, 0, 0, 0, 0, 0], "stateRewards": ["", 2, 4, -6, -13, -75, -81, 30, 7, 5, 59, -65, -1, -1, 7, 14, -38, 36, -41, 1, -54, -5, 64, 2, -1, 5, 6, -19, 79, 11, 16, -33, -50, 58], "withholdReward": false, "trial_id": "mdp_trial_11", "block": "test", "trialIndex": 16, "score": -12.399999999999999, "costs": -1.4, "simulationMode": [null, null, null, null, null], "rewards": [2, -1, 5, 16, -33], "path": ["0", "0", "23", "24", "25", "30", "31"], "rt": [10495, 118, 68, 366, 206], "actions": ["left", "left", "left", "down", "right"], "actionTimes": [12102, 12740, 13304, 14168, 14891], "queries": {"click": {"state": {"target": ["5"], "time": [3188]}, "edge": {"target": [], "time": []}}, "mouseover": {"state": {"target": ["6", "5", "6", "4", "3", "10", "28", "24", "10", "28", "24", "31"], "time": [2287, 2601, 5518, 6168, 6251, 6867, 7134, 7501, 8001, 8934, 8984, 9634]}, "edge": {"target": [], "time": []}}, "mouseout": {"state": {"target": ["14", "12", "0", "6", "5", "6", "4", "3", "10", "28", "24", "10", "28", "24", "31"], "time": [468, 717, 1919, 2501, 3637, 6151, 6202, 6618, 7084, 7417, 7567, 8868, 8951, 9335, 11401]}, "edge": {"target": [], "time": []}}}, "displayed_time": "15.61", "trialTime": 18224, "trial_type": "mouselab-mdp", "trial_index": 31, "time_elapsed": 1412271, "internal_node_id": "0.0-6.0-1.0-10.0"}}, {"uniqueid": "w23716629:a66935321", "current_trial": 32, "dateTime": 1693482415365, "trialdata": {"revealed_states": [], "clicked_states": ["20", "17", "31", "33", "32"], "num_clicks_accrued": [0, 0, 0, 0, 0, 0, 0, 0, 0, 0, 0, 0, 0], "stateRewards": ["", 1, 1, -6, -2, 7, 77, 3, 16, -16, 66, 31, -1, 3, -8, -6, 33, -50, -48, 7, -60, -66, 36, 2, -3, 3, -7, -12, -61, -79, -4, 8, 74, -70], "withholdReward": false, "trial_id": "mdp_trial_12", "block": "test", "trialIndex": 17, "score": 65, "costs": -7, "simulationMode": [null, null, null, null, null], "rewards": [2, -3, 3, -4, 74], "path": ["0", "0", "23", "24", "25", "30", "32"], "rt": [16344, 161, 145, 260, 276], "actions": ["left", "left", "left", "down", "down"], "actionTimes": [17701, 18375, 19041, 19810, 20605], "queries": {"click": {"state": {"target": ["20", "17", "31", "33", "32"], "time": [2659, 5072, 8928, 11715, 14176]}, "edge": {"target": [], "time": []}}, "mouseover": {"state": {"target": ["13", "14", "20", "17", "16", "18", "12", "31", "31", "33", "32", "31"], "time": [1780, 1847, 2328, 4469, 5948, 7395, 7527, 8011, 8428, 11078, 12231, 14846]}, "edge": {"target": [], "time": []}}, "mouseout": {"state": {"target": ["0", "13", "14", "20", "17", "16", "18", "12", "31", "31", "33", "32", "31", "0", "20"], "time": [645, 1812, 1978, 2870, 5813, 7361, 7411, 7595, 8028, 9562, 12213, 14829, 14862, 21727, 21777]}, "edge": {"target": [], "time": []}}}, "displayed_time": "21.11", "trialTime": 23415, "trial_type": "mouselab-mdp", "trial_index": 32, "time_elapsed": 1436117, "internal_node_id": "0.0-6.0-1.0-11.0"}}, {"uniqueid": "w23716629:a66935321", "current_trial": 33, "dateTime": 1693482433278, "trialdata": {"revealed_states": [], "clicked_states": ["21"], "num_clicks_accrued": [0, 0, 0, 0, 0, 0, 0, 0, 0, 0, 0, 0, 0], "stateRewards": ["", -2, -3, 8, -4, -30, 31, 69, 9, 66, 87, 64, -2, 2, 8, 5, 47, 16, -39, -8, -54, 51, -19, 1, -2, -2, -11, -25, -26, 43, -9, 19, -84, 86], "withholdReward": false, "trial_id": "mdp_trial_13", "block": "test", "trialIndex": 18, "score": 49.6, "costs": -1.4, "simulationMode": [null, null, null, null, null], "rewards": [-2, 2, 8, -8, 51], "path": ["0", "0", "12", "13", "14", "19", "21"], "rt": [4567, 461, 256, 333, 415], "actions": ["right", "right", "right", "down", "down"], "actionTimes": [7218, 8211, 8976, 9803, 10737], "queries": {"click": {"state": {"target": ["21"], "time": [4320]}, "edge": {"target": [], "time": []}}, "mouseover": {"state": {"target": ["22", "21", "20"], "time": [3250, 3850, 4884]}, "edge": {"target": [], "time": []}}, "mouseout": {"state": {"target": ["12", "0", "22", "21", "20"], "time": [702, 3187, 3300, 4531, 6483]}, "edge": {"target": [], "time": []}}}, "displayed_time": "16.65", "trialTime": 17567, "trial_type": "mouselab-mdp", "trial_index": 33, "time_elapsed": 1454029, "internal_node_id": "0.0-6.0-1.0-12.0"}}, {"uniqueid": "w23716629:a66935321", "current_trial": 34, "dateTime": 1693482456425, "trialdata": {"revealed_states": [], "clicked_states": ["9", "29", "28"], "num_clicks_accrued": [0, 0, 0, 0, 0, 0, 0, 0, 0, 0, 0, 0, 0], "stateRewards": ["", 1, 1, -5, 10, -31, 73, 14, -8, -23, 63, -70, -1, 2, 8, 7, 25, -59, 27, -10, -40, -71, -15, -2, 3, -8, -5, -19, 77, -34, 7, 67, 63, 19], "withholdReward": false, "trial_id": "mdp_trial_14", "block": "test", "trialIndex": 19, "score": 60.8, "costs": -4.199999999999999, "simulationMode": [null, null, null, null, null], "rewards": [-2, 3, -8, -5, 77], "path": ["0", "0", "23", "24", "25", "26", "28"], "rt": [9920, 168, 196, 234, 258], "actions": ["left", "left", "left", "up", "right"], "actionTimes": [13289, 13955, 14668, 15405, 16179], "queries": {"click": {"state": {"target": ["9", "29", "28"], "time": [4686, 7796, 10206]}, "edge": {"target": [], "time": []}}, "mouseover": {"state": {"target": ["2", "9", "2", "28", "26", "26", "29", "26", "28", "31", "24", "23"], "time": [3820, 4153, 5289, 6989, 7087, 7203, 7403, 8325, 9787, 12036, 12370, 12503]}, "edge": {"target": [], "time": []}}, "mouseout": {"state": {"target": ["12", "2", "9", "2", "28", "26", "26", "29", "26", "28", "31", "24", "23"], "time": [2420, 3837, 5221, 5454, 7022, 7104, 7353, 8307, 8339, 10670, 12336, 12470, 20919]}, "edge": {"target": [], "time": []}}}, "displayed_time": "17.37", "trialTime": 22770, "trial_type": "mouselab-mdp", "trial_index": 34, "time_elapsed": 1477177, "internal_node_id": "0.0-6.0-1.0-13.0"}}, {"uniqueid": "w23716629:a66935321", "current_trial": 35, "dateTime": 1693482496707, "trialdata": {"revealed_states": [], "clicked_states": ["22", "21", "20", "17"], "num_clicks_accrued": [0, 0, 0, 0, 0, 0, 0, 0, 0, 0, 0, 0, 0], "stateRewards": ["", -1, -3, -6, 14, 41, 18, 63, -14, 80, 21, 17, -2, -4, -2, -5, 13, 70, 8, -4, -64, -10, -20, 2, -1, 4, -1, -17, -55, 42, -7, 47, 54, 15], "withholdReward": false, "trial_id": "mdp_trial_15", "block": "test", "trialIndex": 20, "score": 51.4, "costs": -5.6, "simulationMode": [null, null, null, null, null], "rewards": [-2, -4, -2, -5, 70], "path": ["0", "0", "12", "13", "14", "15", "17"], "rt": [13103, 141, 100, 10597, 3863], "actions": ["right", "right", "right", "up", "right"], "actionTimes": [16423, 17068, 17680, 28791, 35177], "queries": {"click": {"state": {"target": ["22", "21", "20", "17"], "time": [4964, 8389, 10928, 13666]}, "edge": {"target": [], "time": []}}, "mouseover": {"state": {"target": ["12", "19", "22", "21", "20", "17", "16", "16"], "time": [4027, 4077, 4410, 5577, 9244, 13316, 14294, 15626]}, "edge": {"target": [], "time": []}}, "mouseout": {"state": {"target": ["13", "0", "0", "12", "19", "22", "21", "20", "17", "16", "16"], "time": [1160, 2579, 2709, 4044, 4093, 5510, 9144, 12994, 14277, 14311, 28830]}, "edge": {"target": [], "time": []}}}, "displayed_time": "35.71", "trialTime": 39927, "trial_type": "mouselab-mdp", "trial_index": 35, "time_elapsed": 1517459, "internal_node_id": "0.0-6.0-1.0-14.0"}}, {"uniqueid": "w23716629:a66935321", "current_trial": 36, "dateTime": 1693482515823, "trialdata": {"revealed_states": [], "clicked_states": ["32"], "num_clicks_accrued": [0, 0, 0, 0, 0, 0, 0, 0, 0, 0, 0, 0, 0], "stateRewards": ["", -1, 3, -5, -2, -13, -9, -34, -7, -81, 32, 35, -2, -2, 1, -14, -32, 81, 7, 4, 82, 56, -8, -1, 3, -8, 6, -24, -24, -53, 2, 38, 61, 54], "withholdReward": false, "trial_id": "mdp_trial_16", "block": "test", "trialIndex": 21, "score": 55.6, "costs": -1.4, "simulationMode": [null, null, null, null, null], "rewards": [-1, 3, -8, 2, 61], "path": ["0", "0", "23", "24", "25", "30", "32"], "rt": [4179, 303, 219, 303, 172], "actions": ["left", "left", "left", "down", "down"], "actionTimes": [5644, 6447, 7180, 7997, 8683], "queries": {"click": {"state": {"target": ["32"], "time": [2854]}, "edge": {"target": [], "time": []}}, "mouseover": {"state": {"target": ["23", "31", "32", "33", "30", "31"], "time": [2042, 2210, 2425, 3478, 4876, 4925]}, "edge": {"target": [], "time": []}}, "mouseout": {"state": {"target": ["0", "23", "31", "32", "33", "30", "31"], "time": [2010, 2092, 2242, 3072, 4859, 4892, 9409]}, "edge": {"target": [], "time": []}}}, "displayed_time": "15.47", "trialTime": 18660, "trial_type": "mouselab-mdp", "trial_index": 36, "time_elapsed": 1536574, "internal_node_id": "0.0-6.0-1.0-15.0"}}, {"uniqueid": "w23716629:a66935321", "current_trial": 37, "dateTime": 1693482533288, "trialdata": {"revealed_states": [], "clicked_states": ["20"], "num_clicks_accrued": [0, 0, 0, 0, 0, 0, 0, 0, 0, 0, 0, 0, 0], "stateRewards": ["", 2, 1, -3, 7, 46, 11, -36, 16, 71, 5, 1, 2, -2, -8, -3, -4, 6, 55, 7, 68, -54, 2, 1, 1, 6, -6, 42, -4, -84, -11, -65, 63, 25], "withholdReward": false, "trial_id": "mdp_trial_17", "block": "test", "trialIndex": 22, "score": 65.6, "costs": -1.4, "simulationMode": [null, null, null, null, null], "rewards": [2, -2, -8, 7, 68], "path": ["0", "0", "12", "13", "14", "19", "20"], "rt": [5417, 149, 130, 138, 288], "actions": ["right", "right", "right", "down", "right"], "actionTimes": [7347, 8008, 8651, 9290, 10076], "queries": {"click": {"state": {"target": ["20"], "time": [4592]}, "edge": {"target": [], "time": []}}, "mouseover": {"state": {"target": ["14", "20"], "time": [3238, 4134]}, "edge": {"target": [], "time": []}}, "mouseout": {"state": {"target": ["15", "0", "14", "20"], "time": [1633, 3102, 3818, 5269]}, "edge": {"target": [], "time": []}}}, "displayed_time": "15.93", "trialTime": 17070, "trial_type": "mouselab-mdp", "trial_index": 37, "time_elapsed": 1554040, "internal_node_id": "0.0-6.0-1.0-16.0"}}, {"uniqueid": "w23716629:a66935321", "current_trial": 38, "dateTime": 1693482551064, "trialdata": {"revealed_states": [], "clicked_states": [], "num_clicks_accrued": [0, 0, 0, 0, 0, 0, 0, 0, 0, 0, 0, 0, 0], "stateRewards": ["", 2, 4, 4, 9, -88, -10, 44, 16, -54, 64, 78, 1, 2, 5, 16, 80, 36, 7, -4, 9, -47, -70, -1, -3, 6, -16, 11, 80, 28, 8, -1, 34, -17], "withholdReward": false, "trial_id": "mdp_trial_18", "block": "test", "trialIndex": 23, "score": 66, "costs": 0, "simulationMode": [null, null, null, null, null], "rewards": [-1, -3, 6, -16, 80], "path": ["0", "0", "23", "24", "25", "26", "28"], "rt": [9697, 157, 171, 205, 349], "actions": ["left", "left", "left", "up", "right"], "actionTimes": [11728, 12388, 13074, 13770, 14631], "queries": {"click": {"state": {"target": [], "time": []}, "edge": {"target": [], "time": []}}, "mouseover": {"state": {"target": ["0", "23", "24", "30", "28"], "time": [2546, 2913, 2962, 3362, 6787]}, "edge": {"target": [], "time": []}}, "mouseout": {"state": {"target": ["0", "0", "23", "24", "30", "28"], "time": [1445, 2895, 2945, 2980, 3396, 7534]}, "edge": {"target": [], "time": []}}}, "displayed_time": "16.03", "trialTime": 17375, "trial_type": "mouselab-mdp", "trial_index": 38, "time_elapsed": 1571816, "internal_node_id": "0.0-6.0-1.0-17.0"}}, {"uniqueid": "w23716629:a66935321", "current_trial": 39, "dateTime": 1693482568516, "trialdata": {"revealed_states": [], "clicked_states": ["17"], "num_clicks_accrued": [0, 0, 0, 0, 0, 0, 0, 0, 0, 0, 0, 0, 0], "stateRewards": ["", -2, -3, -7, 7, -54, -69, -4, -14, -77, 22, 40, -2, -1, 5, 6, -35, 50, -60, 10, -28, 75, 57, 1, -4, -2, 2, 68, 34, -18, 12, 3, -21, -43], "withholdReward": false, "trial_id": "mdp_trial_19", "block": "test", "trialIndex": 24, "score": 56.6, "costs": -1.4, "simulationMode": [null, null, null, null, null], "rewards": [-2, -1, 5, 6, 50], "path": ["0", "0", "12", "13", "14", "15", "17"], "rt": [4294, 72, 111, 251, 332], "actions": ["right", "right", "right", "up", "right"], "actionTimes": [5938, 6531, 7196, 7943, 8795], "queries": {"click": {"state": {"target": ["17"], "time": [3254]}, "edge": {"target": [], "time": []}}, "mouseover": {"state": {"target": ["12", "13", "15", "17", "16"], "time": [2041, 2061, 2275, 2942, 3912]}, "edge": {"target": [], "time": []}}, "mouseout": {"state": {"target": ["20", "19", "22", "0", "12", "13", "15", "17", "16", "20", "19"], "time": [212, 291, 542, 974, 2058, 2175, 2308, 3743, 5341, 16491, 16541]}, "edge": {"target": [], "time": []}}}, "displayed_time": "15.65", "trialTime": 17041, "trial_type": "mouselab-mdp", "trial_index": 39, "time_elapsed": 1589268, "internal_node_id": "0.0-6.0-1.0-18.0"}}, {"uniqueid": "w23716629:a66935321", "current_trial": 40, "dateTime": 1693482586098, "trialdata": {"revealed_states": [], "clicked_states": ["5"], "num_clicks_accrued": [0, 0, 0, 0, 0, 0, 0, 0, 0, 0, 0, 0, 0], "stateRewards": ["", 1, -2, 7, -14, 88, -56, -44, -14, 64, -51, -57, -2, 3, -4, -9, -11, 19, -77, -1, 68, 75, -67, -1, 1, -2, 5, -37, 70, -34, -10, -72, 63, -41], "withholdReward": false, "trial_id": "mdp_trial_20", "block": "test", "trialIndex": 25, "score": 78.6, "costs": -1.4, "simulationMode": [null, null, null, null, null], "rewards": [1, -2, 7, -14, 88], "path": ["0", "0", "1", "2", "3", "4", "5"], "rt": [4239, 164, 243, 469, 102], "actions": ["up", "up", "up", "right", "up"], "actionTimes": [5873, 6559, 7304, 8265, 8865], "queries": {"click": {"state": {"target": ["5"], "time": [3130]}, "edge": {"target": [], "time": []}}, "mouseover": {"state": {"target": ["1", "2", "4", "5", "6"], "time": [2259, 2376, 2442, 2576, 3898]}, "edge": {"target": [], "time": []}}, "mouseout": {"state": {"target": ["13", "22", "0", "1", "2", "4", "5", "6", "21"], "time": [425, 475, 2217, 2292, 2409, 2476, 3644, 9659, 10875]}, "edge": {"target": [], "time": []}}}, "displayed_time": "15.63", "trialTime": 17175, "trial_type": "mouselab-mdp", "trial_index": 40, "time_elapsed": 1606850, "internal_node_id": "0.0-6.0-1.0-19.0"}}, {"uniqueid": "w23716629:a66935321", "current_trial": 41, "dateTime": 1693482604577, "trialdata": {"revealed_states": [], "clicked_states": ["17"], "num_clicks_accrued": [0, 0, 0, 0, 0, 0, 0, 0, 0, 0, 0, 0, 0], "stateRewards": ["", -1, 4, -5, 9, 29, -75, -42, -16, 24, -28, -41, 2, -3, 1, 10, 60, 47, 55, -1, -53, 22, -40, 2, -3, -6, 4, -26, 44, 54, 15, -76, 42, 14], "withholdReward": false, "trial_id": "mdp_trial_21", "block": "test", "trialIndex": 26, "score": 55.6, "costs": -1.4, "simulationMode": [null, null, null, null, null], "rewards": [2, -3, 1, 10, 47], "path": ["0", "0", "12", "13", "14", "15", "17"], "rt": [4656, 125, 189, 296, 1153], "actions": ["right", "right", "right", "up", "right"], "actionTimes": [6213, 6866, 7569, 8355, 10012], "queries": {"click": {"state": {"target": ["17"], "time": [2696]}, "edge": {"target": [], "time": []}}, "mouseover": {"state": {"target": ["17", "18"], "time": [2106, 5523]}, "edge": {"target": [], "time": []}}, "mouseout": {"state": {"target": ["0", "17", "18", "15"], "time": [1990, 3358, 5540, 12858]}, "edge": {"target": [], "time": []}}}, "displayed_time": "15.56", "trialTime": 18003, "trial_type": "mouselab-mdp", "trial_index": 41, "time_elapsed": 1625329, "internal_node_id": "0.0-6.0-1.0-20.0"}}, {"uniqueid": "w23716629:a66935321", "current_trial": 42, "dateTime": 1693482623295, "trialdata": {"revealed_states": [], "clicked_states": ["32"], "num_clicks_accrued": [0, 0, 0, 0, 0, 0, 0, 0, 0, 0, 0, 0, 0], "stateRewards": ["", 1, -4, -6, -1, -21, 17, -72, 10, 77, 67, -46, -1, 4, -2, 14, -66, -49, -45, -15, -52, 23, -67, 2, -2, -2, 15, -3, 45, -64, 5, -44, 83, 61], "withholdReward": false, "trial_id": "mdp_trial_22", "block": "test", "trialIndex": 27, "score": 84.6, "costs": -1.4, "simulationMode": [null, null, null, null, null], "rewards": [2, -2, -2, 5, 83], "path": ["0", "0", "23", "24", "25", "30", "32"], "rt": [4197, 119, 142, 387, 122], "actions": ["left", "left", "left", "down", "down"], "actionTimes": [5691, 6321, 6957, 7852, 8507], "queries": {"click": {"state": {"target": ["32"], "time": [3315]}, "edge": {"target": [], "time": []}}, "mouseover": {"state": {"target": ["31", "32"], "time": [2195, 2629]}, "edge": {"target": [], "time": []}}, "mouseout": {"state": {"target": ["0", "31", "32"], "time": [1962, 2229, 3912]}, "edge": {"target": [], "time": []}}}, "displayed_time": "15.50", "trialTime": 18244, "trial_type": "mouselab-mdp", "trial_index": 42, "time_elapsed": 1644046, "internal_node_id": "0.0-6.0-1.0-21.0"}}, {"uniqueid": "w23716629:a66935321", "current_trial": 43, "dateTime": 1693482650258, "trialdata": {"revealed_states": [], "clicked_states": ["5", "6", "29", "27", "28", "17", "16"], "num_clicks_accrued": [0, 0, 0, 0, 0, 0, 0, 0, 0, 0, 0, 0, 0], "stateRewards": ["", 1, -1, 4, 5, -32, 18, 20, 6, -88, -74, 9, -2, 1, -2, -14, 34, -77, -38, -1, 80, -36, 73, 2, 3, -8, 10, -48, -73, -71, -11, -22, 20, 54], "withholdReward": false, "trial_id": "mdp_trial_23", "block": "test", "trialIndex": 28, "score": 7.199999999999999, "costs": -9.8, "simulationMode": [null, null, null, null, null], "rewards": [-2, 1, -2, -14, 34], "path": ["0", "0", "12", "13", "14", "15", "16"], "rt": [19496, 63, 74, 120, 166], "actions": ["right", "right", "right", "up", "up"], "actionTimes": [21409, 21989, 22584, 23217, 23877], "queries": {"click": {"state": {"target": ["5", "6", "29", "27", "28", "17", "16"], "time": [3217, 6372, 9799, 11959, 14171, 16404, 18754]}, "edge": {"target": [], "time": []}}, "mouseover": {"state": {"target": ["1", "7", "4", "5", "6", "6", "16", "27", "29", "27", "28", "13", "15", "17", "16", "18", "15"], "time": [2460, 2499, 2530, 2658, 3810, 5492, 7195, 8675, 9359, 10459, 12447, 14709, 15177, 15582, 17059, 19542, 20791]}, "edge": {"target": [], "time": []}}, "mouseout": {"state": {"target": ["0", "1", "7", "4", "5", "5", "6", "6", "16", "27", "29", "27", "28", "13", "15", "17", "16", "18", "15"], "time": [1392, 2479, 2527, 2608, 3432, 3760, 3877, 7161, 7376, 8692, 10017, 12409, 14649, 14742, 15209, 16613, 19244, 20774, 20808]}, "edge": {"target": [], "time": []}}}, "displayed_time": "24.39", "trialTime": 26489, "trial_type": "mouselab-mdp", "trial_index": 43, "time_elapsed": 1671009, "internal_node_id": "0.0-6.0-1.0-22.0"}}, {"uniqueid": "w23716629:a66935321", "current_trial": 44, "dateTime": 1693482668572, "trialdata": {"revealed_states": [], "clicked_states": ["21"], "num_clicks_accrued": [0, 0, 0, 0, 0, 0, 0, 0, 0, 0, 0, 0, 0], "stateRewards": ["", 2, -2, -3, 10, -4, -1, -11, -8, -9, -36, -78, 2, 1, 7, -7, 44, -1, -31, -1, 26, 47, 83, 2, -4, -4, -6, -52, -76, -81, -1, -59, 45, 67], "withholdReward": false, "trial_id": "mdp_trial_24", "block": "test", "trialIndex": 29, "score": 54.6, "costs": -1.4, "simulationMode": [null, null, null, null, null], "rewards": [2, 1, 7, -1, 47], "path": ["0", "0", "12", "13", "14", "19", "21"], "rt": [3909, 13, 41, 55, 110], "actions": ["right", "right", "right", "down", "down"], "actionTimes": [5744, 6277, 6831, 7395, 8019], "queries": {"click": {"state": {"target": ["21"], "time": [3150]}, "edge": {"target": [], "time": []}}, "mouseover": {"state": {"target": ["22", "21", "21"], "time": [2356, 2389, 2773]}, "edge": {"target": [], "time": []}}, "mouseout": {"state": {"target": ["31", "0", "22", "21", "21"], "time": [458, 2324, 2373, 2422, 3659]}, "edge": {"target": [], "time": []}}}, "displayed_time": "15.84", "trialTime": 17902, "trial_type": "mouselab-mdp", "trial_index": 44, "time_elapsed": 1689324, "internal_node_id": "0.0-6.0-1.0-23.0"}}, {"uniqueid": "w23716629:a66935321", "current_trial": 45, "dateTime": 1693482688259, "trialdata": {"revealed_states": [], "clicked_states": ["29", "28"], "num_clicks_accrued": [0, 0, 0, 0, 0, 0, 0, 0, 0, 0, 0, 0, 0], "stateRewards": ["", 2, 3, 8, 11, 25, -80, 6, -4, -56, 84, -23, -2, -4, -3, 4, -51, -9, -61, -15, -64, 67, -35, 1, -1, -7, -6, 83, 59, -15, 12, -79, 56, 41], "withholdReward": false, "trial_id": "mdp_trial_25", "block": "test", "trialIndex": 30, "score": 43.2, "costs": -2.8, "simulationMode": [null, null, null, null, null], "rewards": [1, -1, -7, -6, 59], "path": ["0", "0", "23", "24", "25", "26", "28"], "rt": [7586, 101, 93, 264, 323], "actions": ["left", "left", "left", "up", "right"], "actionTimes": [11139, 11737, 12343, 13116, 13958], "queries": {"click": {"state": {"target": ["29", "28"], "time": [5632, 8292]}, "edge": {"target": [], "time": []}}, "mouseover": {"state": {"target": ["23", "24", "25", "29", "26", "24", "28", "1"], "time": [4265, 4349, 4720, 5115, 6267, 6316, 7848, 8934]}, "edge": {"target": [], "time": []}}, "mouseout": {"state": {"target": ["13", "12", "23", "24", "25", "29", "26", "24", "28", "1", "18"], "time": [2532, 2699, 4315, 4399, 4749, 5843, 6283, 7715, 8866, 16965, 16982]}, "edge": {"target": [], "time": []}}}, "displayed_time": "17.55", "trialTime": 19267, "trial_type": "mouselab-mdp", "trial_index": 45, "time_elapsed": 1709011, "internal_node_id": "0.0-6.0-1.0-24.0"}}, {"uniqueid": "w23716629:a66935321", "current_trial": 46, "dateTime": 1693482710068, "trialdata": {"revealed_states": [], "clicked_states": ["17", "16", "18"], "num_clicks_accrued": [0, 0, 0, 0, 0, 0, 0, 0, 0, 0, 0, 0, 0], "stateRewards": ["", -1, 1, -2, 5, 73, 15, 61, 8, 7, 38, 76, 2, 2, -4, -6, -6, -26, 43, -5, -45, -85, -35, -2, 1, -4, 15, -10, 69, 72, -11, 84, -49, -38], "withholdReward": false, "trial_id": "mdp_trial_26", "block": "test", "trialIndex": 31, "score": 32.8, "costs": -4.199999999999999, "simulationMode": [null, null, null, null, null], "rewards": [2, 2, -4, -6, 43], "path": ["0", "0", "12", "13", "14", "15", "18"], "rt": [9863, 49, 115, 113, 323], "actions": ["right", "right", "right", "up", "left"], "actionTimes": [14600, 15152, 15786, 16417, 17265], "queries": {"click": {"state": {"target": ["17", "16", "18"], "time": [6621, 9606, 11797]}, "edge": {"target": [], "time": []}}, "mouseover": {"state": {"target": ["12", "13", "14", "14", "17", "14", "15", "16", "15", "18", "13", "22", "19"], "time": [5619, 5638, 5662, 6085, 6151, 8568, 8618, 9244, 10055, 10452, 12209, 12486, 13984]}, "edge": {"target": [], "time": []}}, "mouseout": {"state": {"target": ["0", "20", "13", "1", "12", "13", "14", "14", "17", "14", "15", "16", "15", "18", "13", "22", "19", "20"], "time": [2002, 2051, 3651, 3917, 5635, 5657, 5682, 6118, 7269, 8601, 8668, 10036, 10073, 12188, 12248, 13968, 14001, 20134]}, "edge": {"target": [], "time": []}}}, "displayed_time": "18.74", "trialTime": 21397, "trial_type": "mouselab-mdp", "trial_index": 46, "time_elapsed": 1730820, "internal_node_id": "0.0-6.0-1.0-25.0"}}, {"uniqueid": "w23716629:a66935321", "current_trial": 47, "dateTime": 1693482727568, "trialdata": {"revealed_states": [], "clicked_states": ["9", "6"], "num_clicks_accrued": [0, 0, 0, 0, 0, 0, 0, 0, 0, 0, 0, 0, 0], "stateRewards": ["", 1, -3, -6, -5, 47, 80, -29, 11, -71, 10, -29, -2, 3, -6, 12, 2, -78, -6, 8, 34, -16, -5, -1, 3, 3, -13, 84, -36, -62, -3, -27, 66, 15], "withholdReward": false, "trial_id": "mdp_trial_27", "block": "test", "trialIndex": 32, "score": 64.2, "costs": -2.8, "simulationMode": [null, null, null, null, null], "rewards": [1, -3, -6, -5, 80], "path": ["0", "0", "1", "2", "3", "4", "6"], "rt": [8303, 117, 77, 360, 98], "actions": ["up", "up", "up", "right", "right"], "actionTimes": [10362, 10994, 11568, 12449, 13038], "queries": {"click": {"state": {"target": ["9", "6"], "time": [4075, 7447]}, "edge": {"target": [], "time": []}}, "mouseover": {"state": {"target": ["1", "8", "9", "11", "6"], "time": [2988, 3022, 3571, 6338, 7021]}, "edge": {"target": [], "time": []}}, "mouseout": {"state": {"target": ["21", "22", "0", "1", "8", "9", "11", "6"], "time": [320, 671, 2971, 3006, 3054, 5530, 6637, 8072]}, "edge": {"target": [], "time": []}}}, "displayed_time": "16.06", "trialTime": 17084, "trial_type": "mouselab-mdp", "trial_index": 47, "time_elapsed": 1748320, "internal_node_id": "0.0-6.0-1.0-26.0"}}, {"uniqueid": "w23716629:a66935321", "current_trial": 48, "dateTime": 1693482755806, "trialdata": {"revealed_states": [], "clicked_states": ["17", "18", "20", "21", "22"], "num_clicks_accrued": [0, 0, 0, 0, 0, 0, 0, 0, 0, 0, 0, 0, 0], "stateRewards": ["", 2, 3, -1, 16, -78, -11, 46, 2, -20, 79, -67, 2, 3, 2, 11, -83, -42, -58, -11, -67, -22, 55, 2, -1, -1, -16, -83, -82, 23, -11, -29, 13, 13], "withholdReward": false, "trial_id": "mdp_trial_28", "block": "test", "trialIndex": 33, "score": 44, "costs": -7, "simulationMode": [null, null, null, null, null], "rewards": [2, 3, 2, -11, 55], "path": ["0", "0", "12", "13", "14", "19", "22"], "rt": [15211, 146, 402, 324, 181], "actions": ["right", "right", "right", "down", "left"], "actionTimes": [19394, 20050, 20953, 21774, 22465], "queries": {"click": {"state": {"target": ["17", "18", "20", "21", "22"], "time": [5785, 8694, 11411, 14104, 16544]}, "edge": {"target": [], "time": []}}, "mouseover": {"state": {"target": ["13", "17", "20", "15", "18", "19", "20", "20", "21", "21", "22", "24", "25"], "time": [4733, 5315, 6350, 7765, 8232, 9934, 10017, 10565, 11967, 13232, 14683, 17240, 17287]}, "edge": {"target": [], "time": []}}, "mouseout": {"state": {"target": ["22", "0", "19", "20", "19", "12", "13", "17", "20", "15", "18", "19", "20", "20", "20", "21", "21", "22", "24", "25", "21"], "time": [748, 1448, 1482, 3114, 3182, 3381, 4749, 6288, 7732, 7832, 9517, 9967, 10207, 11614, 11950, 12016, 14599, 17083, 17266, 17317, 24864]}, "edge": {"target": [], "time": []}}}, "displayed_time": "22.98", "trialTime": 27799, "trial_type": "mouselab-mdp", "trial_index": 48, "time_elapsed": 1776557, "internal_node_id": "0.0-6.0-1.0-27.0"}}, {"uniqueid": "w23716629:a66935321", "current_trial": 49, "dateTime": 1693482777540, "trialdata": {"revealed_states": [], "clicked_states": ["29"], "num_clicks_accrued": [0, 0, 0, 0, 0, 0, 0, 0, 0, 0, 0, 0, 0], "stateRewards": ["", -2, -3, -3, 9, 79, 67, 22, -15, -56, 27, -85, -2, 4, -4, -15, -20, -32, 60, 15, 71, 57, 17, 1, 2, -8, 15, -37, -81, 82, 15, 21, -3, 2], "withholdReward": false, "trial_id": "mdp_trial_29", "block": "test", "trialIndex": 34, "score": 90.6, "costs": -1.4, "simulationMode": [null, null, null, null, null], "rewards": [1, 2, -8, 15, 82], "path": ["0", "0", "23", "24", "25", "26", "29"], "rt": [7454, 26, 633, 256, 292], "actions": ["left", "left", "left", "up", "left"], "actionTimes": [10724, 11361, 12784, 13780, 14596], "queries": {"click": {"state": {"target": ["29"], "time": [6139]}, "edge": {"target": [], "time": []}}, "mouseover": {"state": {"target": ["23", "24", "25", "29", "28"], "time": [4832, 4997, 5048, 5465, 7840]}, "edge": {"target": [], "time": []}}, "mouseout": {"state": {"target": ["0", "23", "24", "25", "29", "28", "23"], "time": [4799, 4898, 5031, 5349, 7836, 17136, 17459]}, "edge": {"target": [], "time": []}}}, "displayed_time": "17.27", "trialTime": 21253, "trial_type": "mouselab-mdp", "trial_index": 49, "time_elapsed": 1798292, "internal_node_id": "0.0-6.0-1.0-28.0"}}, {"uniqueid": "w23716629:a66935321", "current_trial": 50, "dateTime": 1693482796509, "trialdata": {"revealed_states": [], "clicked_states": ["32"], "num_clicks_accrued": [0, 0, 0, 0, 0, 0, 0, 0, 0, 0, 0, 0, 0], "stateRewards": ["", 2, -1, 5, 6, 10, 86, 55, 10, -45, 63, -71, 1, -2, 5, -8, -50, -72, 36, 15, 61, 12, 33, -1, -4, 6, 5, 79, -56, -21, -16, -87, 60, -81], "withholdReward": false, "trial_id": "mdp_trial_30", "block": "test", "trialIndex": 35, "score": 43.6, "costs": -1.4, "simulationMode": [null, null, null, null, null], "rewards": [-1, -4, 6, -16, 60], "path": ["0", "0", "23", "24", "25", "30", "32"], "rt": [5617, 322, 594, 351, 276], "actions": ["left", "left", "left", "down", "down"], "actionTimes": [8164, 8996, 10246, 11110, 11898], "queries": {"click": {"state": {"target": ["32"], "time": [4983]}, "edge": {"target": [], "time": []}}, "mouseover": {"state": {"target": ["0", "31", "30", "32"], "time": [3516, 4170, 4219, 4553]}, "edge": {"target": [], "time": []}}, "mouseout": {"state": {"target": ["18", "0", "31", "30", "32", "22"], "time": [1452, 4152, 4202, 4319, 5620, 14636]}, "edge": {"target": [], "time": []}}}, "displayed_time": "16.55", "trialTime": 18578, "trial_type": "mouselab-mdp", "trial_index": 50, "time_elapsed": 1817261, "internal_node_id": "0.0-6.0-1.0-29.0"}}, {"uniqueid": "w23716629:a66935321", "current_trial": 51, "dateTime": 1693482826142, "trialdata": {"revealed_states": [], "clicked_states": ["21", "20", "17", "16", "18", "5", "6", "33"], "num_clicks_accrued": [0, 0, 0, 0, 0, 0, 0, 0, 0, 0, 0, 0, 0], "stateRewards": ["", -1, 2, -6, 6, -82, -19, -39, -16, -83, 11, -33, -2, -2, 4, -6, -82, -1, -19, -6, -10, -67, -41, -2, 1, -7, 16, -23, -78, -52, 14, 31, -71, 74], "withholdReward": false, "trial_id": "mdp_trial_31", "block": "test", "trialIndex": 36, "score": 68.8, "costs": -11.200000000000001, "simulationMode": [null, null, null, null, null], "rewards": [-2, 1, -7, 14, 74], "path": ["0", "0", "23", "24", "25", "30", "33"], "rt": [21430, 74, 238, 142, 70], "actions": ["left", "left", "left", "down", "left"], "actionTimes": [23621, 24215, 24947, 25600, 26186], "queries": {"click": {"state": {"target": ["21", "20", "17", "16", "18", "5", "6", "33"], "time": [3910, 6475, 8944, 11231, 13907, 16515, 18646, 20817]}, "edge": {"target": [], "time": []}}, "mouseover": {"state": {"target": ["0", "21", "20", "17", "16", "18", "4", "5", "5", "6", "25", "33", "32"], "time": [2996, 3424, 4775, 7125, 9990, 11824, 14489, 14524, 16155, 17341, 19189, 19440, 21373]}, "edge": {"target": [], "time": []}}, "mouseout": {"state": {"target": ["1", "12", "0", "0", "21", "20", "17", "16", "18", "4", "5", "5", "5", "6", "6", "25", "33", "32", "32"], "time": [1174, 1259, 1572, 3008, 4118, 6957, 9408, 11741, 14422, 14507, 14973, 16718, 16924, 18846, 19089, 19207, 21290, 22939, 26771]}, "edge": {"target": [], "time": []}}}, "displayed_time": "26.69", "trialTime": 29198, "trial_type": "mouselab-mdp", "trial_index": 51, "time_elapsed": 1846893, "internal_node_id": "0.0-6.0-1.0-30.0"}}, {"uniqueid": "w23716629:a66935321", "current_trial": 52, "dateTime": 1693482844160, "trialdata": {"revealed_states": [], "clicked_states": ["21"], "num_clicks_accrued": [0, 0, 0, 0, 0, 0, 0, 0, 0, 0, 0, 0, 0], "stateRewards": ["", 1, 1, -3, 7, 49, 78, 26, -5, 26, 48, -43, -1, -3, 2, -5, 4, -1, -60, 10, -35, 51, 81, -2, 1, -7, -5, -39, -86, -54, 4, -3, 74, 77], "withholdReward": false, "trial_id": "mdp_trial_32", "block": "test", "trialIndex": 37, "score": 57.6, "costs": -1.4, "simulationMode": [null, null, null, null, null], "rewards": [-1, -3, 2, 10, 51], "path": ["0", "0", "12", "13", "14", "19", "21"], "rt": [3863, 75, 301, 160, 293], "actions": ["right", "right", "right", "down", "down"], "actionTimes": [5548, 6148, 6969, 7645, 8429], "queries": {"click": {"state": {"target": ["21"], "time": [2932]}, "edge": {"target": [], "time": []}}, "mouseover": {"state": {"target": ["21"], "time": [2398]}, "edge": {"target": [], "time": []}}, "mouseout": {"state": {"target": ["0", "0", "21", "21"], "time": [882, 2316, 3336, 16765]}, "edge": {"target": [], "time": []}}}, "displayed_time": "15.69", "trialTime": 17579, "trial_type": "mouselab-mdp", "trial_index": 52, "time_elapsed": 1864912, "internal_node_id": "0.0-6.0-1.0-31.0"}}, {"uniqueid": "w23716629:a66935321", "current_trial": 53, "dateTime": 1693482866793, "trialdata": {"revealed_states": [], "clicked_states": ["31", "32", "33", "29", "6"], "num_clicks_accrued": [0, 0, 0, 0, 0, 0, 0, 0, 0, 0, 0, 0, 0], "stateRewards": ["", -2, 1, -7, 9, 8, 25, 61, -7, -17, 69, -81, 1, 4, -4, -11, 16, 67, 44, 3, 6, -45, -54, -2, 3, 6, -11, -15, 32, -47, 3, -39, -6, -88], "withholdReward": false, "trial_id": "mdp_trial_33", "block": "test", "trialIndex": 38, "score": 19, "costs": -7, "simulationMode": [null, null, null, null, null], "rewards": [-2, 1, -7, 9, 25], "path": ["0", "0", "1", "2", "3", "4", "6"], "rt": [15437, 68, 97, 366, 53], "actions": ["up", "up", "up", "right", "right"], "actionTimes": [17046, 17613, 18225, 19094, 19664], "queries": {"click": {"state": {"target": ["31", "32", "33", "29", "6"], "time": [3385, 6495, 8967, 11613, 14392]}, "edge": {"target": [], "time": []}}, "mouseover": {"state": {"target": ["24", "25", "30", "31", "23", "23", "32", "32", "33", "29", "28", "23", "7", "6", "6"], "time": [2278, 2313, 2852, 2916, 4133, 5528, 5595, 5844, 7331, 11110, 12079, 12146, 13577, 13611, 14010]}, "edge": {"target": [], "time": []}}, "mouseout": {"state": {"target": ["0", "24", "25", "30", "31", "23", "23", "31", "32", "32", "33", "29", "28", "23", "7", "6", "6", "21"], "time": [627, 2296, 2629, 2913, 4082, 4180, 5545, 5577, 5627, 7167, 9612, 12062, 12097, 12179, 13594, 13629, 14928, 21577]}, "edge": {"target": [], "time": []}}}, "displayed_time": "20.18", "trialTime": 21942, "trial_type": "mouselab-mdp", "trial_index": 53, "time_elapsed": 1887545, "internal_node_id": "0.0-6.0-1.0-32.0"}}, {"uniqueid": "w23716629:a66935321", "current_trial": 54, "dateTime": 1693482883875, "trialdata": {"revealed_states": [], "clicked_states": ["20"], "num_clicks_accrued": [0, 0, 0, 0, 0, 0, 0, 0, 0, 0, 0, 0, 0], "stateRewards": ["", 2, -1, 3, -12, -83, 6, -33, 9, 28, 24, -50, -2, -1, -2, -5, -87, 37, 82, 12, 80, -5, 10, -2, -3, -6, 9, 22, -1, 16, 9, 77, -62, 58], "withholdReward": false, "trial_id": "mdp_trial_34", "block": "test", "trialIndex": 39, "score": 85.6, "costs": -1.4, "simulationMode": [null, null, null, null, null], "rewards": [-2, -1, -2, 12, 80], "path": ["0", "0", "12", "13", "14", "19", "20"], "rt": [3911, 97, 60, 172, 88], "actions": ["right", "right", "right", "down", "right"], "actionTimes": [5369, 5976, 6556, 7250, 7854], "queries": {"click": {"state": {"target": ["20"], "time": [2732]}, "edge": {"target": [], "time": []}}, "mouseover": {"state": {"target": ["20", "20", "17"], "time": [1892, 2209, 3544]}, "edge": {"target": [], "time": []}}, "mouseout": {"state": {"target": ["0", "20", "20", "17", "21"], "time": [1844, 1910, 3210, 8725, 11359]}, "edge": {"target": [], "time": []}}}, "displayed_time": "15.46", "trialTime": 16506, "trial_type": "mouselab-mdp", "trial_index": 54, "time_elapsed": 1904626, "internal_node_id": "0.0-6.0-1.0-33.0"}}, {"uniqueid": "w23716629:a66935321", "current_trial": 55, "dateTime": 1693482900810, "trialdata": {"revealed_states": [], "clicked_states": ["11", "21"], "num_clicks_accrued": [0, 0, 0, 0, 0, 0, 0, 0, 0, 0, 0, 0, 0], "stateRewards": ["", -2, -1, -1, 5, -54, -87, 35, 2, -8, 20, -22, 1, 3, 6, 13, -75, -32, -55, -3, 56, 62, -22, -1, -4, -1, -7, -51, 84, 70, 7, -15, 5, 55], "withholdReward": false, "trial_id": "mdp_trial_35", "block": "test", "trialIndex": 40, "score": 66.2, "costs": -2.8, "simulationMode": [null, null, null, null, null], "rewards": [1, 3, 6, -3, 62], "path": ["0", "0", "12", "13", "14", "19", "21"], "rt": [6977, 8, 21, 214, 100], "actions": ["right", "right", "right", "down", "down"], "actionTimes": [8881, 9408, 9940, 10682, 11268], "queries": {"click": {"state": {"target": ["11", "21"], "time": [3148, 6155]}, "edge": {"target": [], "time": []}}, "mouseover": {"state": {"target": ["10", "11", "10", "21", "22"], "time": [2415, 2748, 3602, 5748, 6868]}, "edge": {"target": [], "time": []}}, "mouseout": {"state": {"target": ["0", "10", "11", "10", "21", "22"], "time": [2365, 2431, 3583, 3618, 6604, 8298]}, "edge": {"target": [], "time": []}}}, "displayed_time": "15.91", "trialTime": 16498, "trial_type": "mouselab-mdp", "trial_index": 55, "time_elapsed": 1921562, "internal_node_id": "0.0-6.0-1.0-34.0"}}, {"uniqueid": "w23716629:a66935321", "current_trial": 56, "dateTime": 1693482917679, "trialdata": {"revealed_states": [], "clicked_states": ["31", "32"], "num_clicks_accrued": [0, 0, 0, 0, 0, 0, 0, 0, 0, 0, 0, 0, 0], "stateRewards": ["", -1, 4, -8, 12, 14, 69, -8, 5, -72, -14, 56, -1, -1, -1, 9, 67, 19, 11, -9, -88, -58, 3, 2, -4, -8, 4, 62, 77, -74, 5, -31, 65, 88], "withholdReward": false, "trial_id": "mdp_trial_36", "block": "test", "trialIndex": 41, "score": 57.2, "costs": -2.8, "simulationMode": [null, null, null, null, null], "rewards": [2, -4, -8, 5, 65], "path": ["0", "0", "23", "24", "25", "30", "32"], "rt": [6406, 34, 59, 304, 191], "actions": ["left", "left", "left", "down", "down"], "actionTimes": [8198, 8729, 9288, 10116, 10803], "queries": {"click": {"state": {"target": ["31", "32"], "time": [2814, 5450]}, "edge": {"target": [], "time": []}}, "mouseover": {"state": {"target": ["31", "32", "33"], "time": [2430, 5009, 6011]}, "edge": {"target": [], "time": []}}, "mouseout": {"state": {"target": ["0", "31", "31", "32", "33"], "time": [2142, 3017, 4793, 5910, 11425]}, "edge": {"target": [], "time": []}}}, "displayed_time": "15.79", "trialTime": 16329, "trial_type": "mouselab-mdp", "trial_index": 56, "time_elapsed": 1938430, "internal_node_id": "0.0-6.0-1.0-35.0"}}, {"uniqueid": "w23716629:a66935321", "current_trial": 57, "dateTime": 1693482934212, "trialdata": {"revealed_states": [], "clicked_states": ["16"], "num_clicks_accrued": [0, 0, 0, 0, 0, 0, 0, 0, 0, 0, 0, 0, 0], "stateRewards": ["", 1, 1, 4, 11, 83, -66, 18, -16, -23, 5, 25, 1, -3, 1, -12, 18, 24, -86, -11, -64, 36, 40, 2, 1, -6, 13, 55, 29, 72, -2, 81, -72, -41], "withholdReward": false, "trial_id": "mdp_trial_37", "block": "test", "trialIndex": 42, "score": 3.5999999999999996, "costs": -1.4, "simulationMode": [null, null, null, null, null], "rewards": [1, -3, 1, -12, 18], "path": ["0", "0", "12", "13", "14", "15", "16"], "rt": [3815, 7, 18, 142, 54], "actions": ["right", "right", "right", "up", "up"], "actionTimes": [5299, 5833, 6372, 7028, 7592], "queries": {"click": {"state": {"target": ["16"], "time": [2759]}, "edge": {"target": [], "time": []}}, "mouseover": {"state": {"target": ["18", "16", "17"], "time": [2018, 2317, 3328]}, "edge": {"target": [], "time": []}}, "mouseout": {"state": {"target": ["12", "0", "18", "16", "17", "21"], "time": [683, 1970, 2034, 3269, 8368, 10067]}, "edge": {"target": [], "time": []}}}, "displayed_time": "15.49", "trialTime": 15972, "trial_type": "mouselab-mdp", "trial_index": 57, "time_elapsed": 1954963, "internal_node_id": "0.0-6.0-1.0-36.0"}}, {"uniqueid": "w23716629:a66935321", "current_trial": 58, "dateTime": 1693482954556, "trialdata": {"revealed_states": [], "clicked_states": ["27", "28", "11", "9", "6"], "num_clicks_accrued": [0, 0, 0, 0, 0, 0, 0, 0, 0, 0, 0, 0, 0], "stateRewards": ["", -1, 3, 1, -7, 56, 76, 57, 3, 11, -9, 14, 1, -2, 2, 8, -77, -3, 79, -5, 88, 24, -66, -2, -1, 7, -7, -30, 14, -76, 11, -36, 28, -6], "withholdReward": false, "trial_id": "mdp_trial_38", "block": "test", "trialIndex": 43, "score": 65, "costs": -7, "simulationMode": [null, null, null, null, null], "rewards": [-1, 3, 1, -7, 76], "path": ["0", "0", "1", "2", "3", "4", "6"], "rt": [12963, 38, 51, 315, 93], "actions": ["up", "up", "up", "right", "right"], "actionTimes": [14784, 15321, 15887, 16713, 17309], "queries": {"click": {"state": {"target": ["27", "28", "11", "9", "6"], "time": [2995, 5407, 7615, 9778, 11970]}, "edge": {"target": [], "time": []}}, "mouseover": {"state": {"target": ["28", "27", "28", "11", "9", "4", "6", "5"], "time": [2330, 2496, 3538, 6131, 8130, 10614, 10998, 12533]}, "edge": {"target": [], "time": []}}, "mouseout": {"state": {"target": ["0", "28", "27", "28", "11", "9", "4", "6", "5", "20"], "time": [1112, 2364, 3452, 5614, 8080, 9988, 10652, 12448, 18179, 19529]}, "edge": {"target": [], "time": []}}}, "displayed_time": "17.82", "trialTime": 19897, "trial_type": "mouselab-mdp", "trial_index": 58, "time_elapsed": 1975308, "internal_node_id": "0.0-6.0-1.0-37.0"}}, {"uniqueid": "w23716629:a66935321", "current_trial": 59, "dateTime": 1693482982406, "trialdata": {"revealed_states": [], "clicked_states": ["20", "21", "17", "16", "6", "5", "7", "10"], "num_clicks_accrued": [0, 0, 0, 0, 0, 0, 0, 0, 0, 0, 0, 0, 0], "stateRewards": ["", 1, -2, -8, -13, 4, 34, -84, -4, -49, 88, -70, -1, 3, -4, 10, -77, 13, -34, 15, -21, -16, 27, 1, -2, 8, -8, -6, 38, -26, 6, -15, 66, -3], "withholdReward": false, "trial_id": "mdp_trial_39", "block": "test", "trialIndex": 44, "score": 63.8, "costs": -11.200000000000001, "simulationMode": [null, null, null, null, null], "rewards": [1, -2, -8, -4, 88], "path": ["0", "0", "1", "2", "3", "8", "10"], "rt": [19335, 89, 72, 428, 138], "actions": ["up", "up", "up", "left", "down"], "actionTimes": [20855, 21460, 22064, 22982, 23623], "queries": {"click": {"state": {"target": ["20", "21", "17", "16", "6", "5", "7", "10"], "time": [2858, 5038, 7079, 9172, 11194, 13460, 15975, 18108]}, "edge": {"target": [], "time": []}}, "mouseover": {"state": {"target": ["12", "13", "19", "20", "20", "21", "17", "16", "18", "6", "5", "4", "7", "2", "10", "11"], "time": [2037, 2059, 2102, 2152, 2435, 3321, 5924, 7870, 9555, 9809, 11869, 13953, 14369, 16402, 16853, 18979]}, "edge": {"target": [], "time": []}}, "mouseout": {"state": {"target": ["22", "12", "0", "12", "13", "19", "20", "20", "21", "17", "16", "18", "6", "5", "5", "4", "7", "2", "10", "11", "8", "16"], "time": [335, 535, 1919, 2057, 2086, 2119, 2304, 3287, 5436, 7427, 9537, 9752, 11609, 13662, 13903, 14219, 16179, 16423, 18573, 25317, 25451, 25617]}, "edge": {"target": [], "time": []}}}, "displayed_time": "24.14", "trialTime": 27354, "trial_type": "mouselab-mdp", "trial_index": 59, "time_elapsed": 2003158, "internal_node_id": "0.0-6.0-1.0-38.0"}}, {"uniqueid": "w23716629:a66935321", "current_trial": 60, "dateTime": 1693482999221, "trialdata": {"revealed_states": [], "clicked_states": ["20", "17"], "num_clicks_accrued": [0, 0, 0, 0, 0, 0, 0, 0, 0, 0, 0, 0, 0], "stateRewards": ["", -2, -4, -2, -13, -15, 87, -19, -6, -80, 30, 12, 1, 1, -8, 2, 55, 56, 15, 11, -68, -7, 55, -2, 3, -3, -3, 48, 62, 4, 1, -3, 69, -33], "withholdReward": false, "trial_id": "mdp_trial_40", "block": "test", "trialIndex": 45, "score": 49.2, "costs": -2.8, "simulationMode": [null, null, null, null, null], "rewards": [1, 1, -8, 2, 56], "path": ["0", "0", "12", "13", "14", "15", "17"], "rt": [6797, 148, 242, 118, 166], "actions": ["right", "right", "right", "up", "right"], "actionTimes": [8275, 8930, 9674, 10300, 10983], "queries": {"click": {"state": {"target": ["20", "17"], "time": [3004, 5385]}, "edge": {"target": [], "time": []}}, "mouseover": {"state": {"target": ["13", "20", "17", "16"], "time": [2046, 2362, 4314, 7412]}, "edge": {"target": [], "time": []}}, "mouseout": {"state": {"target": ["20", "19", "12", "0", "13", "20", "17", "16"], "time": [112, 145, 578, 1996, 2063, 3948, 6119, 7749]}, "edge": {"target": [], "time": []}}}, "displayed_time": "15.48", "trialTime": 16247, "trial_type": "mouselab-mdp", "trial_index": 60, "time_elapsed": 2019972, "internal_node_id": "0.0-6.0-1.0-39.0"}}, {"uniqueid": "w23716629:a66935321", "current_trial": 61, "dateTime": 1693483097594, "trialdata": {"rt": 98370, "response": {"Q0": "$-2 to $2", "Q1": "$-16 to $16", "Q2": "$-88 to $88", "Q3": "The cost for clicking on nodes varied between nodes.", "Q4": "Very motivated"}, "question_order": [0, 1, 2, 3, 4], "trial_id": "final_quiz_control", "trial_type": "survey-multi-choice", "trial_index": 61, "time_elapsed": 2118346, "internal_node_id": "0.0-6.0-2.0"}}, {"uniqueid": "w23716629:a66935321", "current_trial": 62, "dateTime": 1693483216023, "trialdata": {"rt": 118362, "response": {"Q0": "i went to the highest node from the the ones i clicked.", "Q1": "no i didnt", "Q2": "not that difficult"}, "trial_id": "self_report_control", "trial_type": "survey-text", "trial_index": 62, "time_elapsed": 2236775, "internal_node_id": "0.0-6.0-3.0"}}, {"uniqueid": "w23716629:a66935321", "current_trial": 63, "dateTime": 1693483247600, "trialdata": {"rt": 31461, "response": {"gender": "female", "age": "21", "colorblind": "0", "effort": "0"}, "trial_type": "survey-html-form", "trial_index": 63, "time_elapsed": 2268351, "internal_node_id": "0.0-6.0-4.0"}}, {"uniqueid": "w23716629:a66935321", "current_trial": 64, "dateTime": 1693483264876, "trialdata": {"rt": 17271, "response": {"Q0": "no", "Q1": "no", "Q2": ""}, "trial_type": "survey-text", "trial_index": 64, "time_elapsed": 2285628, "internal_node_id": "0.0-6.0-5.0"}}, {"uniqueid": "w23716629:a66935321", "current_trial": 65, "dateTime": 1693483276693, "trialdata": {"rt": 11812, "stimulus": "<h1>Completion Code Instructions (1/2)</h1>\n<br><br><br><br>\nYou have reached the end of the experiment! The completion code consists of two parts: (1) a code with 2 characters (2) a code with 6 characters. On this page, you will receive the second part of the code. The first part of the completion code will be on the next page.\n<br><br>\nThe second part of your completion code is: <b>EWEK22</b>\n<br><br>\nPlease note this down. Then, press 'Finish HIT' in order to find the first part of your completion code. Once the data has been saved, you will receive this code either in this window or in the original browser window where you started the experiment.\n", "response": 0, "trial_type": "html-button-response", "trial_index": 65, "time_elapsed": 2297445, "internal_node_id": "0.0-6.0-6.0"}}], "questiondata": {"params": {"CODE": "C6DMOQA6", "MIN_TIME": 14, "inspectCost": 1, "startTime": "Thu Aug 31 2023 13:22:57 GMT+0200 (South Africa Standard Time)", "bonusRate": 0.002, "variance": "1_2_4_8_44", "branching": "31123"}}, "eventdata": [{"eventtype": "initialized", "value": null, "timestamp": 1693480976700, "interval": 0}, {"eventtype": "window_resize", "value": [1280, 660], "timestamp": 1693480976700, "interval": 0}, {"eventtype": "window_resize", "value": [1280, 660], "timestamp": 1693480977162, "interval": 462}, {"eventtype": "window_resize", "value": [1280, 720], "timestamp": 1693480992950, "interval": 15788}, {"eventtype": "focus", "value": "off", "timestamp": 1693481578893, "interval": 585943}, {"eventtype": "focus", "value": "on", "timestamp": 1693481578894, "interval": 1}, {"eventtype": "window_resize", "value": [1280, 660], "timestamp": 1693481579099, "interval": 205}, {"eventtype": "window_resize", "value": [1280, 720], "timestamp": 1693481581398, "interval": 2299}, {"eventtype": "focus", "value": "off", "timestamp": 1693481831422, "interval": 250024}, {"eventtype": "focus", "value": "on", "timestamp": 1693481831422, "interval": 0}, {"eventtype": "window_resize", "value": [1280, 660], "timestamp": 1693481831629, "interval": 207}, {"eventtype": "window_resize", "value": [1280, 720], "timestamp": 1693481837147, "interval": 5518}], "useragent": "Mozilla/5.0 (Windows NT 10.0; Win64; x64) AppleWebKit/537.36 (KHTML, like Gecko) Chrome/116.0.0.0 Safari/537.36", "mode": "live", "id": "w23716629:a66935321", "status": "user data saved", "Beginhit": "2023-08-31 11:22:53.080733", "Beginexp": "2023-08-31 11:23:13.530645", "Endhit": "2023-08-31 12:01:19.254286", "psiturkStatus": 3, "browser": "<redacted>", "platform": "windows", "language": "en-US"}