{"condition": 0, "counterbalance": 0, "assignmentId": "a56956183", "workerId": "w89439073", "hitId": "h13330794", "currenttrial": 67, "bonus": 0, "data": [{"uniqueid": "w89439073:a56956183", "current_trial": 0, "dateTime": 1693564835700, "trialdata": {"success": true, "trial_type": "fullscreen", "trial_index": 0, "time_elapsed": 6781, "internal_node_id": "0.0-0.0"}}, {"uniqueid": "w89439073:a56956183", "current_trial": 1, "dateTime": 1693564838058, "trialdata": {"view_history": [{"page_index": 0, "viewing_time": 2355}], "rt": 2355, "trial_id": "exp_instructions_control", "trial_type": "instructions", "trial_index": 1, "time_elapsed": 9140, "internal_node_id": "0.0-1.0"}}, {"uniqueid": "w89439073:a56956183", "current_trial": 2, "dateTime": 1693565068066, "trialdata": {"view_history": [{"page_index": 0, "viewing_time": 149950}, {"page_index": 1, "viewing_time": 45264}, {"page_index": 2, "viewing_time": 11712}, {"page_index": 3, "viewing_time": 23080}], "rt": 230007, "trial_id": "mouselab_instructions_1_control", "trial_type": "instructions", "trial_index": 2, "time_elapsed": 239147, "internal_node_id": "0.0-2.0-1.0"}}, {"uniqueid": "w89439073:a56956183", "current_trial": 3, "dateTime": 1693565094071, "trialdata": {"revealed_states": [], "clicked_states": [], "num_clicks_accrued": [0, 0, 0, 0, 0, 0, 0, 0, 0, 0, 0, 0, 0], "stateRewards": ["", -10, -10, -10, 10, -10, -10, 10, -10, -10, -10, 10, -10, 10, 10, -10, 10, -10, 10, -10, 10, -10, 10, -10, 10, 10, 10, -10, -10, 10, -10, -10, -10, 10], "withholdReward": false, "trial_id": "practice_1", "block": "test", "trialIndex": 0, "score": -6.5, "costs": 0, "simulationMode": [null, null, null, null, null], "rewards": [-10, 10, 10, -10, -10], "path": ["0", "0", "12", "13", "14", "19", "21"], "rt": [2444, 2724, 4772, 923, 85], "actions": ["right", "right", "right", "down", "down"], "actionTimes": [6955, 10183, 15463, 16911, 17495], "queries": {"click": {"state": {"target": [], "time": []}, "edge": {"target": [], "time": []}}, "mouseover": {"state": {"target": ["28"], "time": [4611]}, "edge": {"target": [], "time": []}}, "mouseout": {"state": {"target": ["23", "28", "23", "0", "28", "27", "1", "12", "14", "14", "13", "0", "16", "18", "12"], "time": [452, 2709, 3011, 3662, 4628, 12161, 12208, 12224, 12240, 13175, 13191, 13262, 23500, 23600, 23700]}, "edge": {"target": [], "time": []}}}, "displayed_time": "17.99", "trialTime": 24840, "trial_type": "mouselab-mdp", "trial_index": 3, "time_elapsed": 265152, "internal_node_id": "0.0-2.0-2.0-0.0"}}, {"uniqueid": "w89439073:a56956183", "current_trial": 4, "dateTime": 1693565116839, "trialdata": {"revealed_states": [], "clicked_states": [], "num_clicks_accrued": [0, 0, 0, 0, 0, 0, 0, 0, 0, 0, 0, 0, 0], "stateRewards": ["", 10, -10, 10, -10, 10, -10, -10, 10, 10, 10, 10, -10, -10, 10, 10, -10, 10, -10, 10, -10, 10, 10, 10, -10, 10, -10, 10, -10, 10, -10, 10, 10, 10], "withholdReward": false, "trial_id": "practice_2", "block": "test", "trialIndex": 1, "score": 33.5, "costs": 0, "simulationMode": [null, null, null, null, null], "rewards": [10, -10, 10, 10, 10], "path": ["0", "0", "1", "2", "3", "8", "9"], "rt": [3296, 2602, 5137, 976, 394], "actions": ["up", "up", "up", "left", "up"], "actionTimes": [5108, 8217, 13864, 15337, 16225], "queries": {"click": {"state": {"target": [], "time": []}, "edge": {"target": [], "time": []}}, "mouseover": {"state": {"target": [], "time": []}, "edge": {"target": [], "time": []}}, "mouseout": {"state": {"target": ["0", "0", "0"], "time": [277, 1364, 21337]}, "edge": {"target": [], "time": []}}}, "displayed_time": "16.72", "trialTime": 22497, "trial_type": "mouselab-mdp", "trial_index": 4, "time_elapsed": 287920, "internal_node_id": "0.0-2.0-2.0-1.0"}}, {"uniqueid": "w89439073:a56956183", "current_trial": 5, "dateTime": 1693565168914, "trialdata": {"view_history": [{"page_index": 0, "viewing_time": 42738}, {"page_index": 1, "viewing_time": 9328}], "rt": 52067, "trial_id": "mouselab_instructions_2_control", "trial_type": "instructions", "trial_index": 5, "time_elapsed": 339996, "internal_node_id": "0.0-2.0-3.0"}}, {"uniqueid": "w89439073:a56956183", "current_trial": 6, "dateTime": 1693565245667, "trialdata": {"rt": 76749, "response": {"Q0": "The cost for clicking on nodes may vary between nodes.", "Q1": "The better I perform the higher my bonus will be.", "Q2": "No, the amount of cash at each node of the web may be different each time.", "Q3": "To get the highest total score.", "Q4": "Only before moving the spider.", "Q5": "Unlimited time"}, "question_order": [0, 1, 2, 3, 4, 5], "correct": {"Q0": "The cost for clicking on nodes may vary between nodes.", "Q1": "The better I perform the higher my bonus will be.", "Q2": "No, the amount of cash at each node of the web may be different each time.", "Q3": "To get the highest total score.", "Q4": "Only before moving the spider.", "Q5": "3 seconds"}, "trial_id": "mouselab_quiz_control", "trial_type": "survey-multi-choice", "trial_index": 6, "time_elapsed": 416749, "internal_node_id": "0.0-2.0-4.0"}}, {"uniqueid": "w89439073:a56956183", "current_trial": 7, "dateTime": 1693565259563, "trialdata": {"success": true, "trial_type": "fullscreen", "trial_index": 7, "time_elapsed": 430645, "internal_node_id": "0.0-2.1-0.1-0.1"}}, {"uniqueid": "w89439073:a56956183", "current_trial": 8, "dateTime": 1693565279058, "trialdata": {"view_history": [{"page_index": 0, "viewing_time": 9674}, {"page_index": 1, "viewing_time": 6304}, {"page_index": 2, "viewing_time": 2344}, {"page_index": 3, "viewing_time": 1168}], "rt": 19490, "trial_id": "mouselab_instructions_1_control", "trial_type": "instructions", "trial_index": 8, "time_elapsed": 450140, "internal_node_id": "0.0-2.1-1.1"}}, {"uniqueid": "w89439073:a56956183", "current_trial": 9, "dateTime": 1693565291015, "trialdata": {"revealed_states": [], "clicked_states": [], "num_clicks_accrued": [0, 0, 0, 0, 0, 0, 0, 0, 0, 0, 0, 0, 0], "stateRewards": ["", -10, -10, -10, 10, -10, -10, 10, -10, -10, -10, 10, -10, 10, 10, -10, 10, -10, 10, -10, 10, -10, 10, -10, 10, 10, 10, -10, -10, 10, -10, -10, -10, 10], "withholdReward": false, "trial_id": "practice_1", "block": "test", "trialIndex": 2, "score": -46.5, "costs": 0, "simulationMode": [null, null, null, null, null], "rewards": [-10, -10, -10, -10, -10], "path": ["0", "0", "1", "2", "3", "8", "9"], "rt": [2041, 38, 910, 548, 254], "actions": ["up", "up", "up", "left", "up"], "actionTimes": [4489, 5031, 6439, 7480, 8240], "queries": {"click": {"state": {"target": [], "time": []}, "edge": {"target": [], "time": []}}, "mouseover": {"state": {"target": [], "time": []}, "edge": {"target": [], "time": []}}, "mouseout": {"state": {"target": ["0"], "time": [2049]}, "edge": {"target": [], "time": []}}}, "displayed_time": "8.74", "trialTime": 11728, "trial_type": "mouselab-mdp", "trial_index": 9, "time_elapsed": 462096, "internal_node_id": "0.0-2.1-2.1-0.1"}}, {"uniqueid": "w89439073:a56956183", "current_trial": 10, "dateTime": 1693565300615, "trialdata": {"revealed_states": [], "clicked_states": [], "num_clicks_accrued": [0, 0, 0, 0, 0, 0, 0, 0, 0, 0, 0, 0, 0], "stateRewards": ["", 10, -10, 10, -10, 10, -10, -10, 10, 10, 10, 10, -10, -10, 10, 10, -10, 10, -10, 10, -10, 10, 10, 10, -10, 10, -10, 10, -10, 10, -10, 10, 10, 10], "withholdReward": false, "trial_id": "practice_2", "block": "test", "trialIndex": 3, "score": 13.5, "costs": 0, "simulationMode": [null, null, null, null, null], "rewards": [-10, -10, 10, 10, 10], "path": ["0", "0", "12", "13", "14", "15", "17"], "rt": [1549, 379, 172, 140, 371], "actions": ["right", "right", "right", "up", "right"], "actionTimes": [2941, 3828, 4509, 5148, 6012], "queries": {"click": {"state": {"target": [], "time": []}, "edge": {"target": [], "time": []}}, "mouseover": {"state": {"target": [], "time": []}, "edge": {"target": [], "time": []}}, "mouseout": {"state": {"target": ["0", "1", "0"], "time": [606, 790, 8319]}, "edge": {"target": [], "time": []}}}, "displayed_time": "6.51", "trialTime": 9348, "trial_type": "mouselab-mdp", "trial_index": 10, "time_elapsed": 471696, "internal_node_id": "0.0-2.1-2.1-1.1"}}, {"uniqueid": "w89439073:a56956183", "current_trial": 11, "dateTime": 1693565309522, "trialdata": {"view_history": [{"page_index": 0, "viewing_time": 5596}, {"page_index": 1, "viewing_time": 3304}], "rt": 8900, "trial_id": "mouselab_instructions_2_control", "trial_type": "instructions", "trial_index": 11, "time_elapsed": 480604, "internal_node_id": "0.0-2.1-3.1"}}, {"uniqueid": "w89439073:a56956183", "current_trial": 12, "dateTime": 1693565350987, "trialdata": {"rt": 41464, "response": {"Q0": "There is no cost for clicking on nodes.", "Q1": "The better I perform the higher my bonus will be.", "Q2": "No, the amount of cash at each node of the web may be different each time.", "Q3": "To get the highest total score.", "Q4": "Only before moving the spider.", "Q5": "3 seconds"}, "question_order": [0, 1, 2, 3, 4, 5], "correct": {"Q0": "The cost for clicking on nodes may vary between nodes.", "Q1": "The better I perform the higher my bonus will be.", "Q2": "No, the amount of cash at each node of the web may be different each time.", "Q3": "To get the highest total score.", "Q4": "Only before moving the spider.", "Q5": "3 seconds"}, "trial_id": "mouselab_quiz_control", "trial_type": "survey-multi-choice", "trial_index": 12, "time_elapsed": 522069, "internal_node_id": "0.0-2.1-4.1"}}, {"uniqueid": "w89439073:a56956183", "current_trial": 13, "dateTime": 1693565356058, "trialdata": {"success": true, "trial_type": "fullscreen", "trial_index": 13, "time_elapsed": 527140, "internal_node_id": "0.0-2.2-0.2-0.2"}}, {"uniqueid": "w89439073:a56956183", "current_trial": 14, "dateTime": 1693565373097, "trialdata": {"view_history": [{"page_index": 0, "viewing_time": 3907}, {"page_index": 1, "viewing_time": 9256}, {"page_index": 2, "viewing_time": 1040}, {"page_index": 3, "viewing_time": 2832}], "rt": 17035, "trial_id": "mouselab_instructions_1_control", "trial_type": "instructions", "trial_index": 14, "time_elapsed": 544179, "internal_node_id": "0.0-2.2-1.2"}}, {"uniqueid": "w89439073:a56956183", "current_trial": 15, "dateTime": 1693565382446, "trialdata": {"revealed_states": [], "clicked_states": [], "num_clicks_accrued": [0, 0, 0, 0, 0, 0, 0, 0, 0, 0, 0, 0, 0], "stateRewards": ["", -10, -10, -10, 10, -10, -10, 10, -10, -10, -10, 10, -10, 10, 10, -10, 10, -10, 10, -10, 10, -10, 10, -10, 10, 10, 10, -10, -10, 10, -10, -10, -10, 10], "withholdReward": false, "trial_id": "practice_1", "block": "test", "trialIndex": 4, "score": -6.5, "costs": 0, "simulationMode": [null, null, null, null, null], "rewards": [-10, 10, 10, -10, -10], "path": ["0", "0", "12", "13", "14", "19", "21"], "rt": [1840, 95, 650, 2, 379], "actions": ["right", "right", "right", "down", "down"], "actionTimes": [3678, 4269, 5429, 5937, 6829], "queries": {"click": {"state": {"target": [], "time": []}, "edge": {"target": [], "time": []}}, "mouseover": {"state": {"target": [], "time": []}, "edge": {"target": [], "time": []}}, "mouseout": {"state": {"target": ["0", "0", "0"], "time": [1465, 7588, 8491]}, "edge": {"target": [], "time": []}}}, "displayed_time": "7.34", "trialTime": 9101, "trial_type": "mouselab-mdp", "trial_index": 15, "time_elapsed": 553527, "internal_node_id": "0.0-2.2-2.2-0.2"}}, {"uniqueid": "w89439073:a56956183", "current_trial": 16, "dateTime": 1693565392694, "trialdata": {"revealed_states": [], "clicked_states": [], "num_clicks_accrued": [0, 0, 0, 0, 0, 0, 0, 0, 0, 0, 0, 0, 0], "stateRewards": ["", 10, -10, 10, -10, 10, -10, -10, 10, 10, 10, 10, -10, -10, 10, 10, -10, 10, -10, 10, -10, 10, 10, 10, -10, 10, -10, 10, -10, 10, -10, 10, 10, 10], "withholdReward": false, "trial_id": "practice_2", "block": "test", "trialIndex": 5, "score": 13.5, "costs": 0, "simulationMode": [null, null, null, null, null], "rewards": [10, -10, 10, -10, 10], "path": ["0", "0", "1", "2", "3", "4", "5"], "rt": [980, 273, 512, 400, 174], "actions": ["up", "up", "up", "right", "up"], "actionTimes": [3077, 3845, 4853, 5765, 6437], "queries": {"click": {"state": {"target": [], "time": []}, "edge": {"target": [], "time": []}}, "mouseover": {"state": {"target": [], "time": []}, "edge": {"target": [], "time": []}}, "mouseout": {"state": {"target": ["0", "12", "12", "0"], "time": [1196, 1213, 1578, 7771]}, "edge": {"target": [], "time": []}}}, "displayed_time": "6.94", "trialTime": 9965, "trial_type": "mouselab-mdp", "trial_index": 16, "time_elapsed": 563775, "internal_node_id": "0.0-2.2-2.2-1.2"}}, {"uniqueid": "w89439073:a56956183", "current_trial": 17, "dateTime": 1693565398985, "trialdata": {"view_history": [{"page_index": 0, "viewing_time": 5003}, {"page_index": 1, "viewing_time": 1280}], "rt": 6283, "trial_id": "mouselab_instructions_2_control", "trial_type": "instructions", "trial_index": 17, "time_elapsed": 570067, "internal_node_id": "0.0-2.2-3.2"}}, {"uniqueid": "w89439073:a56956183", "current_trial": 18, "dateTime": 1693565417858, "trialdata": {"rt": 18870, "response": {"Q0": "The cost for clicking on nodes may vary between nodes.", "Q1": "The better I perform the higher my bonus will be.", "Q2": "No, the amount of cash at each node of the web may be different each time.", "Q3": "To get the highest total score.", "Q4": "Only before moving the spider.", "Q5": "3 seconds"}, "question_order": [0, 1, 2, 3, 4, 5], "correct": {"Q0": "The cost for clicking on nodes may vary between nodes.", "Q1": "The better I perform the higher my bonus will be.", "Q2": "No, the amount of cash at each node of the web may be different each time.", "Q3": "To get the highest total score.", "Q4": "Only before moving the spider.", "Q5": "3 seconds"}, "trial_id": "mouselab_quiz_control", "trial_type": "survey-multi-choice", "trial_index": 18, "time_elapsed": 588940, "internal_node_id": "0.0-2.2-4.2"}}, {"uniqueid": "w89439073:a56956183", "current_trial": 19, "dateTime": 1693565428010, "trialdata": {"rt": 10146, "response": {"Q0": "No"}, "question_order": [0], "trial_id": "repeat_check", "trial_type": "survey-multi-choice", "trial_index": 19, "time_elapsed": 599092, "internal_node_id": "0.0-4.0-0.0"}}, {"uniqueid": "w89439073:a56956183", "current_trial": 20, "dateTime": 1693565431612, "trialdata": {"rt": 3596, "stimulus": "\n<h1> Get ready to start the game! </h1>\n\nThank you for reading the instructions. Get ready start with the 40 rounds of this game.\n<br><br>\nIf you need to take a break, feel free to take one after the end of a round, before continuing to the next one.\n<br><br>\nRemember, the more money the spider gets, the bigger your bonus will be!\n<br><br>\n<div style='text-align: center;'>Press <code>space</code> to begin.</div>\n\n<br><br>\n(If, at any point, the <code>space</code> key does not take you to the next page, click once on the text and try again.)", "response": " ", "trial_id": "mdp_ready", "trial_type": "html-keyboard-response", "trial_index": 20, "time_elapsed": 602693, "internal_node_id": "0.0-6.0-0.0"}}, {"uniqueid": "w89439073:a56956183", "current_trial": 21, "dateTime": 1693565450520, "trialdata": {"revealed_states": [], "clicked_states": [], "num_clicks_accrued": [0, 0, 0, 0, 0, 0, 0, 0, 0, 0, 0, 0, 0], "stateRewards": ["", 2, -4, 7, 3, 23, -42, 4, 7, -81, -33, 7, -2, -4, 5, -1, 50, -57, -14, -13, -14, 44, 55, -2, -2, 5, -2, 33, 1, 57, -13, -7, 58, 87], "withholdReward": false, "trial_id": "mdp_trial_1", "block": "test", "trialIndex": 6, "score": 12, "costs": 0, "simulationMode": [null, null, null, null, null], "rewards": [2, -4, 7, 3, 4], "path": ["0", "0", "1", "2", "3", "4", "7"], "rt": [2504, 662, 340, 295, 485], "actions": ["up", "up", "up", "right", "down"], "actionTimes": [5329, 6488, 7320, 8112, 9104], "queries": {"click": {"state": {"target": [], "time": []}, "edge": {"target": [], "time": []}}, "mouseover": {"state": {"target": ["0", "23", "24", "25"], "time": [2970, 3145, 3267, 3317]}, "edge": {"target": [], "time": []}}, "mouseout": {"state": {"target": ["0", "0", "23", "24", "25", "25"], "time": [943, 3103, 3234, 3301, 3401, 18000]}, "edge": {"target": [], "time": []}}}, "displayed_time": "16.83", "trialTime": 18633, "trial_type": "mouselab-mdp", "trial_index": 21, "time_elapsed": 621600, "internal_node_id": "0.0-6.0-1.0-0.0"}}, {"uniqueid": "w89439073:a56956183", "current_trial": 22, "dateTime": 1693565470598, "trialdata": {"revealed_states": [], "clicked_states": [], "num_clicks_accrued": [0, 0, 0, 0, 0, 0, 0, 0, 0, 0, 0, 0, 0], "stateRewards": ["", -2, 3, -5, -7, 66, 43, -60, -4, -70, -75, 4, -1, 2, 2, -13, 54, 11, -40, -1, 77, 32, 15, -2, 3, -8, -9, -35, 83, -27, 6, -74, -34, 44], "withholdReward": false, "trial_id": "mdp_trial_2", "block": "test", "trialIndex": 7, "score": 1, "costs": 0, "simulationMode": [null, null, null, null, null], "rewards": [-1, 2, 2, -13, 11], "path": ["0", "0", "12", "13", "14", "15", "17"], "rt": [812, 112, 757, 240, 328], "actions": ["right", "right", "right", "up", "right"], "actionTimes": [2738, 3345, 4609, 5345, 6169], "queries": {"click": {"state": {"target": [], "time": []}, "edge": {"target": [], "time": []}}, "mouseover": {"state": {"target": [], "time": []}, "edge": {"target": [], "time": []}}, "mouseout": {"state": {"target": ["0"], "time": [1440]}, "edge": {"target": [], "time": []}}}, "displayed_time": "15.93", "trialTime": 19777, "trial_type": "mouselab-mdp", "trial_index": 22, "time_elapsed": 641679, "internal_node_id": "0.0-6.0-1.0-1.0"}}, {"uniqueid": "w89439073:a56956183", "current_trial": 23, "dateTime": 1693565490055, "trialdata": {"revealed_states": [], "clicked_states": [], "num_clicks_accrued": [0, 0, 0, 0, 0, 0, 0, 0, 0, 0, 0, 0, 0], "stateRewards": ["", -2, 2, -2, -7, -50, -62, -45, 7, 36, -24, -72, -1, -1, 8, -1, -67, 20, -52, 2, 35, -50, 80, -1, 1, 6, -6, -70, 6, 88, 8, -47, 74, -19], "withholdReward": false, "trial_id": "mdp_trial_3", "block": "test", "trialIndex": 8, "score": -33, "costs": 0, "simulationMode": [null, null, null, null, null], "rewards": [-1, 1, 6, 8, -47], "path": ["0", "0", "23", "24", "25", "30", "31"], "rt": [1025, 88, 623, 615, 310], "actions": ["left", "left", "left", "down", "right"], "actionTimes": [2224, 2830, 3951, 5063, 5879], "queries": {"click": {"state": {"target": [], "time": []}, "edge": {"target": [], "time": []}}, "mouseover": {"state": {"target": [], "time": []}, "edge": {"target": [], "time": []}}, "mouseout": {"state": {"target": ["0", "28", "0", "1", "1", "2", "1"], "time": [117, 401, 7184, 14485, 16091, 16979, 17195]}, "edge": {"target": [], "time": []}}}, "displayed_time": "15.20", "trialTime": 19159, "trial_type": "mouselab-mdp", "trial_index": 23, "time_elapsed": 661135, "internal_node_id": "0.0-6.0-1.0-2.0"}}, {"uniqueid": "w89439073:a56956183", "current_trial": 24, "dateTime": 1693565508255, "trialdata": {"revealed_states": [], "clicked_states": [], "num_clicks_accrued": [0, 0, 0, 0, 0, 0, 0, 0, 0, 0, 0, 0, 0], "stateRewards": ["", 1, 3, 3, -10, 52, 68, 59, 12, 7, 49, 21, -2, -3, -4, -2, -2, 63, 63, -4, 44, 43, -76, -2, -3, -6, 13, 48, 36, 12, -5, -36, -33, -11], "withholdReward": false, "trial_id": "mdp_trial_4", "block": "test", "trialIndex": 9, "score": 26, "costs": 0, "simulationMode": [null, null, null, null, null], "rewards": [1, 3, 3, 12, 7], "path": ["0", "0", "1", "2", "3", "8", "9"], "rt": [1300, 121, 213, 96, 149], "actions": ["up", "up", "up", "left", "up"], "actionTimes": [2522, 3145, 3858, 4466, 5114], "queries": {"click": {"state": {"target": [], "time": []}, "edge": {"target": [], "time": []}}, "mouseover": {"state": {"target": [], "time": []}, "edge": {"target": [], "time": []}}, "mouseout": {"state": {"target": ["0", "27", "29"], "time": [921, 10347, 16306]}, "edge": {"target": [], "time": []}}}, "displayed_time": "15.22", "trialTime": 17906, "trial_type": "mouselab-mdp", "trial_index": 24, "time_elapsed": 679335, "internal_node_id": "0.0-6.0-1.0-3.0"}}, {"uniqueid": "w89439073:a56956183", "current_trial": 25, "dateTime": 1693565525407, "trialdata": {"revealed_states": [], "clicked_states": [], "num_clicks_accrued": [0, 0, 0, 0, 0, 0, 0, 0, 0, 0, 0, 0, 0], "stateRewards": ["", -2, 3, 3, -14, 62, 36, 49, 16, 11, 17, -84, 2, -1, 6, 2, -82, -73, 49, -6, -87, 48, 50, -1, -2, -1, -16, -11, 37, -44, 4, 55, 73, -10], "withholdReward": false, "trial_id": "mdp_trial_5", "block": "test", "trialIndex": 10, "score": 52, "costs": 0, "simulationMode": [null, null, null, null, null], "rewards": [-2, 3, 3, -14, 62], "path": ["0", "0", "1", "2", "3", "4", "5"], "rt": [1121, 26, 82, 497, 1349], "actions": ["up", "up", "up", "right", "up"], "actionTimes": [2586, 3115, 3706, 4706, 6562], "queries": {"click": {"state": {"target": [], "time": []}, "edge": {"target": [], "time": []}}, "mouseover": {"state": {"target": [], "time": []}, "edge": {"target": [], "time": []}}, "mouseout": {"state": {"target": ["29", "28", "23", "0", "32"], "time": [631, 749, 913, 8259, 8309]}, "edge": {"target": [], "time": []}}}, "displayed_time": "15.47", "trialTime": 16842, "trial_type": "mouselab-mdp", "trial_index": 25, "time_elapsed": 696487, "internal_node_id": "0.0-6.0-1.0-4.0"}}, {"uniqueid": "w89439073:a56956183", "current_trial": 26, "dateTime": 1693565546407, "trialdata": {"revealed_states": [], "clicked_states": [], "num_clicks_accrued": [0, 0, 0, 0, 0, 0, 0, 0, 0, 0, 0, 0, 0], "stateRewards": ["", 2, 4, -5, 7, 81, 35, 6, 11, 14, -72, 42, -1, 2, 3, -7, -77, -44, -40, -15, -85, 51, -32, -2, -1, -5, 7, -74, 47, 52, 16, -49, 48, -46], "withholdReward": false, "trial_id": "mdp_trial_6", "block": "test", "trialIndex": 11, "score": -60, "costs": 0, "simulationMode": [null, null, null, null, null], "rewards": [2, 4, -5, 11, -72], "path": ["0", "0", "1", "2", "3", "8", "10"], "rt": [1700, 259, 17, 11, 749], "actions": ["up", "up", "up", "left", "down"], "actionTimes": [4974, 5725, 6236, 6764, 8021], "queries": {"click": {"state": {"target": [], "time": []}, "edge": {"target": [], "time": []}}, "mouseover": {"state": {"target": ["0", "23", "24"], "time": [3461, 3508, 3627]}, "edge": {"target": [], "time": []}}, "mouseout": {"state": {"target": ["25", "24", "1", "0", "23", "24", "24", "27", "10"], "time": [2406, 2427, 2623, 3478, 3577, 3644, 9633, 19280, 19401]}, "edge": {"target": [], "time": []}}}, "displayed_time": "17.27", "trialTime": 20702, "trial_type": "mouselab-mdp", "trial_index": 26, "time_elapsed": 717488, "internal_node_id": "0.0-6.0-1.0-5.0"}}, {"uniqueid": "w89439073:a56956183", "current_trial": 27, "dateTime": 1693565566032, "trialdata": {"revealed_states": [], "clicked_states": [], "num_clicks_accrued": [0, 0, 0, 0, 0, 0, 0, 0, 0, 0, 0, 0, 0], "stateRewards": ["", -1, -1, 4, -16, -75, 81, -51, -7, -84, 73, -30, -2, 1, -3, -16, -77, 33, 14, 1, 45, 87, -66, 2, 2, -5, -7, -19, -17, 79, -3, 8, 49, 47], "withholdReward": false, "trial_id": "mdp_trial_7", "block": "test", "trialIndex": 12, "score": 45, "costs": 0, "simulationMode": [null, null, null, null, null], "rewards": [2, 2, -5, -3, 49], "path": ["0", "0", "23", "24", "25", "30", "32"], "rt": [2573, 94, 780, 559, 61], "actions": ["left", "left", "left", "down", "down"], "actionTimes": [4366, 4956, 6244, 7316, 7883], "queries": {"click": {"state": {"target": [], "time": []}, "edge": {"target": [], "time": []}}, "mouseover": {"state": {"target": ["0"], "time": [1800]}, "edge": {"target": [], "time": []}}, "mouseout": {"state": {"target": ["1", "12", "0", "0", "0", "23", "10", "9", "10", "1", "0", "0"], "time": [610, 882, 1098, 1466, 10566, 10664, 10784, 16388, 17258, 17358, 17492, 18309]}, "edge": {"target": [], "time": []}}}, "displayed_time": "15.79", "trialTime": 19317, "trial_type": "mouselab-mdp", "trial_index": 27, "time_elapsed": 737112, "internal_node_id": "0.0-6.0-1.0-6.0"}}, {"uniqueid": "w89439073:a56956183", "current_trial": 28, "dateTime": 1693565585239, "trialdata": {"revealed_states": [], "clicked_states": [], "num_clicks_accrued": [0, 0, 0, 0, 0, 0, 0, 0, 0, 0, 0, 0, 0], "stateRewards": ["", -2, -3, 1, -7, 39, -67, 16, 5, -20, 73, 66, -1, 4, 5, -3, 23, -68, -87, -8, 3, -3, 17, 1, -4, -2, -13, -32, 34, 61, -5, -11, -18, 12], "withholdReward": false, "trial_id": "mdp_trial_8", "block": "test", "trialIndex": 13, "score": 16, "costs": 0, "simulationMode": [null, null, null, null, null], "rewards": [1, -4, -2, -13, 34], "path": ["0", "0", "23", "24", "25", "26", "28"], "rt": [2089, 8, 611, 3, 1996], "actions": ["left", "left", "left", "up", "right"], "actionTimes": [4414, 4925, 6046, 6543, 9054], "queries": {"click": {"state": {"target": [], "time": []}, "edge": {"target": [], "time": []}}, "mouseover": {"state": {"target": [], "time": []}, "edge": {"target": [], "time": []}}, "mouseout": {"state": {"target": ["0", "0"], "time": [1502, 4797]}, "edge": {"target": [], "time": []}}}, "displayed_time": "16.33", "trialTime": 18894, "trial_type": "mouselab-mdp", "trial_index": 28, "time_elapsed": 756319, "internal_node_id": "0.0-6.0-1.0-7.0"}}, {"uniqueid": "w89439073:a56956183", "current_trial": 29, "dateTime": 1693565603814, "trialdata": {"revealed_states": [], "clicked_states": [], "num_clicks_accrued": [0, 0, 0, 0, 0, 0, 0, 0, 0, 0, 0, 0, 0], "stateRewards": ["", 2, 1, -3, 7, 46, 11, -36, 16, 71, 5, 1, 2, -2, -8, -3, -4, 6, 55, 7, 68, -54, 2, 1, 1, 6, -6, 42, -4, -84, -11, -65, 63, 25], "withholdReward": false, "trial_id": "mdp_trial_9", "block": "test", "trialIndex": 14, "score": 21, "costs": 0, "simulationMode": [null, null, null, null, null], "rewards": [2, 1, -3, 16, 5], "path": ["0", "0", "1", "2", "3", "8", "10"], "rt": [362, 423, 79, 525, 89], "actions": ["up", "up", "up", "left", "down"], "actionTimes": [2610, 3530, 4106, 5138, 5721], "queries": {"click": {"state": {"target": [], "time": []}, "edge": {"target": [], "time": []}}, "mouseover": {"state": {"target": ["0"], "time": [2268]}, "edge": {"target": [], "time": []}}, "mouseout": {"state": {"target": ["0", "0", "0", "0", "1"], "time": [1903, 4326, 15436, 17092, 17594]}, "edge": {"target": [], "time": []}}}, "displayed_time": "16.25", "trialTime": 18250, "trial_type": "mouselab-mdp", "trial_index": 29, "time_elapsed": 774895, "internal_node_id": "0.0-6.0-1.0-8.0"}}, {"uniqueid": "w89439073:a56956183", "current_trial": 30, "dateTime": 1693565621175, "trialdata": {"revealed_states": [], "clicked_states": [], "num_clicks_accrued": [0, 0, 0, 0, 0, 0, 0, 0, 0, 0, 0, 0, 0], "stateRewards": ["", 2, 4, 4, -8, -36, -33, 38, 16, -51, 57, 57, 1, 3, 4, -6, 45, 68, 87, 1, 63, 24, -55, -2, 2, -6, -13, -63, -50, 8, 2, 80, 6, 60], "withholdReward": false, "trial_id": "mdp_trial_10", "block": "test", "trialIndex": 15, "score": -34, "costs": 0, "simulationMode": [null, null, null, null, null], "rewards": [2, 4, 4, -8, -36], "path": ["0", "0", "1", "2", "3", "4", "5"], "rt": [554, 474, 496, 60, 12], "actions": ["up", "up", "up", "right", "up"], "actionTimes": [1642, 2618, 3610, 4177, 4698], "queries": {"click": {"state": {"target": [], "time": []}, "edge": {"target": [], "time": []}}, "mouseover": {"state": {"target": [], "time": []}, "edge": {"target": [], "time": []}}, "mouseout": {"state": {"target": ["1", "0", "0", "18", "33", "30", "2", "3", "3", "2"], "time": [487, 6572, 7031, 7094, 9121, 9154, 9371, 9389, 13536, 15747]}, "edge": {"target": [], "time": []}}}, "displayed_time": "15.09", "trialTime": 17018, "trial_type": "mouselab-mdp", "trial_index": 30, "time_elapsed": 792256, "internal_node_id": "0.0-6.0-1.0-9.0"}}, {"uniqueid": "w89439073:a56956183", "current_trial": 31, "dateTime": 1693565638447, "trialdata": {"revealed_states": [], "clicked_states": [], "num_clicks_accrued": [0, 0, 0, 0, 0, 0, 0, 0, 0, 0, 0, 0, 0], "stateRewards": ["", 2, -4, 4, 9, 69, 9, -75, 12, -86, 66, 25, -1, 3, 2, -13, -88, -3, 1, 4, -69, 49, -84, 2, -1, 4, 2, -18, -81, -52, -15, -69, -54, 25], "withholdReward": false, "trial_id": "mdp_trial_11", "block": "test", "trialIndex": 16, "score": -8, "costs": 0, "simulationMode": [null, null, null, null, null], "rewards": [-1, 3, 2, -13, 1], "path": ["0", "0", "12", "13", "14", "15", "18"], "rt": [443, 362, 341, 144, 460], "actions": ["right", "right", "right", "up", "left"], "actionTimes": [1704, 2568, 3400, 4040, 4992], "queries": {"click": {"state": {"target": [], "time": []}, "edge": {"target": [], "time": []}}, "mouseover": {"state": {"target": [], "time": []}, "edge": {"target": [], "time": []}}, "mouseout": {"state": {"target": ["1", "0"], "time": [582, 7442]}, "edge": {"target": [], "time": []}}}, "displayed_time": "15.26", "trialTime": 16976, "trial_type": "mouselab-mdp", "trial_index": 31, "time_elapsed": 809527, "internal_node_id": "0.0-6.0-1.0-10.0"}}, {"uniqueid": "w89439073:a56956183", "current_trial": 32, "dateTime": 1693565655927, "trialdata": {"revealed_states": [], "clicked_states": [], "num_clicks_accrued": [0, 0, 0, 0, 0, 0, 0, 0, 0, 0, 0, 0, 0], "stateRewards": ["", 1, -1, 1, -14, -10, 67, -28, -11, 72, 40, -65, -1, 1, 1, -2, 8, -55, 34, -10, 61, 33, -15, 2, -4, 7, 4, -75, 63, -21, -16, 61, 19, 21], "withholdReward": false, "trial_id": "mdp_trial_12", "block": "test", "trialIndex": 17, "score": -56, "costs": 0, "simulationMode": [null, null, null, null, null], "rewards": [-1, 1, 1, -2, -55], "path": ["0", "0", "12", "13", "14", "15", "17"], "rt": [698, 368, 458, 351, 20], "actions": ["right", "right", "right", "up", "right"], "actionTimes": [2502, 3374, 4334, 5179, 5701], "queries": {"click": {"state": {"target": [], "time": []}, "edge": {"target": [], "time": []}}, "mouseover": {"state": {"target": ["0"], "time": [2168]}, "edge": {"target": [], "time": []}}, "mouseout": {"state": {"target": ["0", "0", "31"], "time": [1450, 8408, 16734]}, "edge": {"target": [], "time": []}}}, "displayed_time": "15.81", "trialTime": 17143, "trial_type": "mouselab-mdp", "trial_index": 32, "time_elapsed": 827008, "internal_node_id": "0.0-6.0-1.0-11.0"}}, {"uniqueid": "w89439073:a56956183", "current_trial": 33, "dateTime": 1693565672807, "trialdata": {"revealed_states": [], "clicked_states": [], "num_clicks_accrued": [0, 0, 0, 0, 0, 0, 0, 0, 0, 0, 0, 0, 0], "stateRewards": ["", -1, -2, 8, -6, -79, -6, 87, 9, -5, -66, -38, 2, 2, 5, -6, -82, 74, 85, -8, 67, -30, -15, 1, -2, -2, -2, 87, 64, 49, 7, 2, -38, -9], "withholdReward": false, "trial_id": "mdp_trial_13", "block": "test", "trialIndex": 18, "score": 44, "costs": 0, "simulationMode": [null, null, null, null, null], "rewards": [1, -2, -2, -2, 49], "path": ["0", "0", "23", "24", "25", "26", "29"], "rt": [656, 566, 503, 27, 468], "actions": ["left", "left", "left", "up", "left"], "actionTimes": [1883, 2954, 3962, 4489, 5466], "queries": {"click": {"state": {"target": [], "time": []}, "edge": {"target": [], "time": []}}, "mouseover": {"state": {"target": ["0"], "time": [1621]}, "edge": {"target": [], "time": []}}, "mouseout": {"state": {"target": ["23", "0", "0"], "time": [566, 1001, 3571]}, "edge": {"target": [], "time": []}}}, "displayed_time": "15.23", "trialTime": 16546, "trial_type": "mouselab-mdp", "trial_index": 33, "time_elapsed": 843887, "internal_node_id": "0.0-6.0-1.0-12.0"}}, {"uniqueid": "w89439073:a56956183", "current_trial": 34, "dateTime": 1693565690111, "trialdata": {"revealed_states": [], "clicked_states": [], "num_clicks_accrued": [0, 0, 0, 0, 0, 0, 0, 0, 0, 0, 0, 0, 0], "stateRewards": ["", 2, 2, 3, -15, 23, -14, 73, -7, -32, -20, -6, 1, 1, -5, -12, 73, 6, -84, 11, -81, -57, 13, -2, -1, -4, -8, -52, -58, 49, 13, 5, -41, -41], "withholdReward": false, "trial_id": "mdp_trial_14", "block": "test", "trialIndex": 19, "score": -20, "costs": 0, "simulationMode": [null, null, null, null, null], "rewards": [2, 2, 3, -7, -20], "path": ["0", "0", "1", "2", "3", "8", "10"], "rt": [1360, 580, 331, 430, 71], "actions": ["up", "up", "up", "left", "down"], "actionTimes": [2795, 3867, 4723, 5658, 6235], "queries": {"click": {"state": {"target": [], "time": []}, "edge": {"target": [], "time": []}}, "mouseover": {"state": {"target": ["0"], "time": [2003]}, "edge": {"target": [], "time": []}}, "mouseout": {"state": {"target": ["0", "0"], "time": [1648, 7668]}, "edge": {"target": [], "time": []}}}, "displayed_time": "15.44", "trialTime": 16971, "trial_type": "mouselab-mdp", "trial_index": 34, "time_elapsed": 861192, "internal_node_id": "0.0-6.0-1.0-13.0"}}, {"uniqueid": "w89439073:a56956183", "current_trial": 35, "dateTime": 1693565821088, "trialdata": {"revealed_states": [], "clicked_states": [], "num_clicks_accrued": [0, 0, 0, 0, 0, 0, 0, 0, 0, 0, 0, 0, 0], "stateRewards": ["", 2, -1, 8, -2, -16, 69, -39, -7, -13, -27, -86, 2, -2, 2, 13, -34, -16, -20, -5, 19, 81, 32, -2, -1, 2, -14, 20, 80, 58, 4, 70, 12, 73], "withholdReward": false, "trial_id": "mdp_trial_15", "block": "test", "trialIndex": 20, "score": 78, "costs": 0, "simulationMode": [null, null, null, null, null], "rewards": [2, -2, 2, -5, 81], "path": ["0", "0", "12", "13", "14", "19", "21"], "rt": [915, 170, 375, 3, 9], "actions": ["right", "right", "right", "down", "down"], "actionTimes": [74629, 75317, 76189, 76690, 77212], "queries": {"click": {"state": {"target": [], "time": []}, "edge": {"target": [], "time": []}}, "mouseover": {"state": {"target": [], "time": []}, "edge": {"target": [], "time": []}}, "mouseout": {"state": {"target": ["0", "0", "23", "0", "0"], "time": [524, 72020, 72455, 75528, 92055]}, "edge": {"target": [], "time": []}}}, "displayed_time": "87.72", "trialTime": 130646, "trial_type": "mouselab-mdp", "trial_index": 35, "time_elapsed": 992168, "internal_node_id": "0.0-6.0-1.0-14.0"}}, {"uniqueid": "w89439073:a56956183", "current_trial": 36, "dateTime": 1693565838175, "trialdata": {"revealed_states": [], "clicked_states": [], "num_clicks_accrued": [0, 0, 0, 0, 0, 0, 0, 0, 0, 0, 0, 0, 0], "stateRewards": ["", 1, -2, -8, -3, 31, -84, -55, -14, 15, -58, 17, -2, -3, 7, 7, -12, 48, 67, 4, -44, -68, 46, 2, 3, -5, -7, 76, 27, 5, 11, 57, 52, 59], "withholdReward": false, "trial_id": "mdp_trial_16", "block": "test", "trialIndex": 21, "score": -96, "costs": 0, "simulationMode": [null, null, null, null, null], "rewards": [1, -2, -8, -3, -84], "path": ["0", "0", "1", "2", "3", "4", "6"], "rt": [727, 155, 593, 294, 4], "actions": ["up", "up", "up", "right", "right"], "actionTimes": [1511, 2183, 3271, 4063, 4572], "queries": {"click": {"state": {"target": [], "time": []}, "edge": {"target": [], "time": []}}, "mouseover": {"state": {"target": [], "time": []}, "edge": {"target": [], "time": []}}, "mouseout": {"state": {"target": ["0", "0"], "time": [82, 5657]}, "edge": {"target": [], "time": []}}}, "displayed_time": "14.79", "trialTime": 16711, "trial_type": "mouselab-mdp", "trial_index": 36, "time_elapsed": 1009255, "internal_node_id": "0.0-6.0-1.0-15.0"}}, {"uniqueid": "w89439073:a56956183", "current_trial": 37, "dateTime": 1693565876480, "trialdata": {"revealed_states": [], "clicked_states": [], "num_clicks_accrued": [0, 0, 0, 0, 0, 0, 0, 0, 0, 0, 0, 0, 0], "stateRewards": ["", -2, 1, -7, -8, -37, -76, -87, 11, 30, -63, 80, -1, 4, 2, -1, 42, 17, 52, -3, -75, -80, -68, 2, -3, -5, -15, -48, 82, 24, -7, 5, -22, -71], "withholdReward": false, "trial_id": "mdp_trial_17", "block": "test", "trialIndex": 22, "score": -69, "costs": 0, "simulationMode": [null, null, null, null, null], "rewards": [2, -3, -5, -15, -48], "path": ["0", "0", "23", "24", "25", "26", "27"], "rt": [636, 4, 464, 272, 519], "actions": ["left", "left", "left", "up", "up"], "actionTimes": [1554, 2065, 3043, 3819, 4835], "queries": {"click": {"state": {"target": [], "time": []}, "edge": {"target": [], "time": []}}, "mouseover": {"state": {"target": [], "time": []}, "edge": {"target": [], "time": []}}, "mouseout": {"state": {"target": ["0", "0"], "time": [586, 6733]}, "edge": {"target": [], "time": []}}}, "displayed_time": "14.92", "trialTime": 37956, "trial_type": "mouselab-mdp", "trial_index": 37, "time_elapsed": 1047560, "internal_node_id": "0.0-6.0-1.0-16.0"}}, {"uniqueid": "w89439073:a56956183", "current_trial": 38, "dateTime": 1693565893448, "trialdata": {"revealed_states": [], "clicked_states": [], "num_clicks_accrued": [0, 0, 0, 0, 0, 0, 0, 0, 0, 0, 0, 0, 0], "stateRewards": ["", 1, -1, 4, 5, -32, 18, 20, 6, -88, -74, 9, -2, 1, -2, -14, 34, -77, -38, -1, 80, -36, 73, 2, 3, -8, 10, -48, -73, -71, -11, -22, 20, 54], "withholdReward": false, "trial_id": "mdp_trial_18", "block": "test", "trialIndex": 23, "score": -78, "costs": 0, "simulationMode": [null, null, null, null, null], "rewards": [1, -1, 4, 6, -88], "path": ["0", "0", "1", "2", "3", "8", "9"], "rt": [828, 672, 381, 423, 343], "actions": ["up", "up", "up", "left", "up"], "actionTimes": [1824, 2991, 3871, 4799, 5639], "queries": {"click": {"state": {"target": [], "time": []}, "edge": {"target": [], "time": []}}, "mouseover": {"state": {"target": [], "time": []}, "edge": {"target": [], "time": []}}, "mouseout": {"state": {"target": [], "time": []}, "edge": {"target": [], "time": []}}}, "displayed_time": "15.00", "trialTime": 16600, "trial_type": "mouselab-mdp", "trial_index": 38, "time_elapsed": 1064528, "internal_node_id": "0.0-6.0-1.0-17.0"}}, {"uniqueid": "w89439073:a56956183", "current_trial": 39, "dateTime": 1693565910016, "trialdata": {"revealed_states": [], "clicked_states": [], "num_clicks_accrued": [0, 0, 0, 0, 0, 0, 0, 0, 0, 0, 0, 0, 0], "stateRewards": ["", 2, 3, 8, 14, 69, -27, 17, 2, -71, -65, -10, 2, -3, 7, 8, 65, -10, 65, -12, 73, -12, 13, -2, -2, 6, 10, -79, -69, -18, 10, -85, 67, 74], "withholdReward": false, "trial_id": "mdp_trial_19", "block": "test", "trialIndex": 24, "score": 79, "costs": 0, "simulationMode": [null, null, null, null, null], "rewards": [2, -3, 7, 8, 65], "path": ["0", "0", "12", "13", "14", "15", "18"], "rt": [590, 42, 268, 184, 445], "actions": ["right", "right", "right", "up", "left"], "actionTimes": [1578, 2120, 2881, 3569, 4513], "queries": {"click": {"state": {"target": [], "time": []}, "edge": {"target": [], "time": []}}, "mouseover": {"state": {"target": [], "time": []}, "edge": {"target": [], "time": []}}, "mouseout": {"state": {"target": ["0", "1", "0", "0"], "time": [189, 474, 6115, 10294]}, "edge": {"target": [], "time": []}}}, "displayed_time": "14.99", "trialTime": 16186, "trial_type": "mouselab-mdp", "trial_index": 39, "time_elapsed": 1081096, "internal_node_id": "0.0-6.0-1.0-18.0"}}, {"uniqueid": "w89439073:a56956183", "current_trial": 40, "dateTime": 1693565927463, "trialdata": {"revealed_states": [], "clicked_states": [], "num_clicks_accrued": [0, 0, 0, 0, 0, 0, 0, 0, 0, 0, 0, 0, 0], "stateRewards": ["", -1, -2, 4, 9, 10, -75, 39, 16, -43, 88, -19, -1, 1, 2, 4, -31, 10, 73, 12, 41, -64, -81, -2, 2, -6, 1, -81, -1, -26, 3, -59, -3, -20], "withholdReward": false, "trial_id": "mdp_trial_20", "block": "test", "trialIndex": 25, "score": 20, "costs": 0, "simulationMode": [null, null, null, null, null], "rewards": [-1, -2, 4, 9, 10], "path": ["0", "0", "1", "2", "3", "4", "5"], "rt": [239, 612, 332, 46, 88], "actions": ["up", "up", "up", "right", "up"], "actionTimes": [2291, 3395, 4219, 4770, 5380], "queries": {"click": {"state": {"target": [], "time": []}, "edge": {"target": [], "time": []}}, "mouseover": {"state": {"target": [], "time": []}, "edge": {"target": [], "time": []}}, "mouseout": {"state": {"target": ["1", "0"], "time": [1195, 8310]}, "edge": {"target": [], "time": []}}}, "displayed_time": "16.05", "trialTime": 17028, "trial_type": "mouselab-mdp", "trial_index": 40, "time_elapsed": 1098544, "internal_node_id": "0.0-6.0-1.0-19.0"}}, {"uniqueid": "w89439073:a56956183", "current_trial": 41, "dateTime": 1693565943992, "trialdata": {"revealed_states": [], "clicked_states": [], "num_clicks_accrued": [0, 0, 0, 0, 0, 0, 0, 0, 0, 0, 0, 0, 0], "stateRewards": ["", -2, 2, -4, -4, -59, 88, 62, -3, 69, -15, -34, 1, -2, -5, 7, -54, -20, 78, -16, -74, -53, -21, 2, -4, 2, 13, -8, -44, 26, 9, 72, 4, 17], "withholdReward": false, "trial_id": "mdp_trial_21", "block": "test", "trialIndex": 26, "score": -31, "costs": 0, "simulationMode": [null, null, null, null, null], "rewards": [2, -4, 2, 13, -44], "path": ["0", "0", "23", "24", "25", "26", "28"], "rt": [334, 42, 579, 189, 480], "actions": ["left", "left", "left", "up", "right"], "actionTimes": [1350, 1894, 2967, 3662, 4639], "queries": {"click": {"state": {"target": [], "time": []}, "edge": {"target": [], "time": []}}, "mouseover": {"state": {"target": [], "time": []}, "edge": {"target": [], "time": []}}, "mouseout": {"state": {"target": ["0"], "time": [6185]}, "edge": {"target": [], "time": []}}}, "displayed_time": "15.02", "trialTime": 16184, "trial_type": "mouselab-mdp", "trial_index": 41, "time_elapsed": 1115072, "internal_node_id": "0.0-6.0-1.0-20.0"}}, {"uniqueid": "w89439073:a56956183", "current_trial": 42, "dateTime": 1693565968088, "trialdata": {"revealed_states": [], "clicked_states": [], "num_clicks_accrued": [0, 0, 0, 0, 0, 0, 0, 0, 0, 0, 0, 0, 0], "stateRewards": ["", -1, 1, -6, -1, 80, 23, 2, -11, 73, -81, 59, 1, 3, 5, -1, -26, 28, -3, 16, -59, -13, -50, -2, -2, 2, 15, -50, 86, 17, -4, 37, 35, 44], "withholdReward": false, "trial_id": "mdp_trial_22", "block": "test", "trialIndex": 27, "score": -25, "costs": 0, "simulationMode": [null, null, null, null, null], "rewards": [1, 3, 5, 16, -50], "path": ["0", "0", "12", "13", "14", "19", "22"], "rt": [765, 112, 30, 204, 195], "actions": ["right", "right", "right", "down", "left"], "actionTimes": [1872, 2479, 3017, 3727, 4439], "queries": {"click": {"state": {"target": [], "time": []}, "edge": {"target": [], "time": []}}, "mouseover": {"state": {"target": [], "time": []}, "edge": {"target": [], "time": []}}, "mouseout": {"state": {"target": ["0"], "time": [4122]}, "edge": {"target": [], "time": []}}}, "displayed_time": "15.11", "trialTime": 23721, "trial_type": "mouselab-mdp", "trial_index": 42, "time_elapsed": 1139169, "internal_node_id": "0.0-6.0-1.0-21.0"}}, {"uniqueid": "w89439073:a56956183", "current_trial": 43, "dateTime": 1693565986479, "trialdata": {"revealed_states": [], "clicked_states": [], "num_clicks_accrued": [0, 0, 0, 0, 0, 0, 0, 0, 0, 0, 0, 0, 0], "stateRewards": ["", 2, -3, -5, 5, 11, -9, -33, 6, 67, 6, -30, -1, -2, -6, 13, 55, 13, 72, -14, 75, 21, -66, -2, -4, 6, 15, -1, -35, 60, 2, 51, -73, 12], "withholdReward": false, "trial_id": "mdp_trial_23", "block": "test", "trialIndex": 28, "score": -71, "costs": 0, "simulationMode": [null, null, null, null, null], "rewards": [-2, -4, 6, 2, -73], "path": ["0", "0", "23", "24", "25", "30", "32"], "rt": [794, 506, 275, 145, 37], "actions": ["left", "left", "left", "down", "down"], "actionTimes": [3280, 4295, 5063, 5703, 6246], "queries": {"click": {"state": {"target": [], "time": []}, "edge": {"target": [], "time": []}}, "mouseover": {"state": {"target": ["0"], "time": [2591]}, "edge": {"target": [], "time": []}}, "mouseout": {"state": {"target": ["0", "0", "0", "0"], "time": [2045, 7032, 8771, 17201]}, "edge": {"target": [], "time": []}}}, "displayed_time": "16.49", "trialTime": 18040, "trial_type": "mouselab-mdp", "trial_index": 43, "time_elapsed": 1157560, "internal_node_id": "0.0-6.0-1.0-22.0"}}, {"uniqueid": "w89439073:a56956183", "current_trial": 44, "dateTime": 1693566004127, "trialdata": {"revealed_states": [], "clicked_states": [], "num_clicks_accrued": [0, 0, 0, 0, 0, 0, 0, 0, 0, 0, 0, 0, 0], "stateRewards": ["", -1, -3, -5, -14, -13, -47, 79, 8, -60, -64, 41, -1, 2, 3, 13, -46, 61, -79, -11, -64, -65, 23, 1, -2, 6, -14, 46, 32, 21, 7, 75, -66, 15], "withholdReward": false, "trial_id": "mdp_trial_24", "block": "test", "trialIndex": 29, "score": 40, "costs": 0, "simulationMode": [null, null, null, null, null], "rewards": [-1, -3, -5, 8, 41], "path": ["0", "0", "1", "2", "3", "8", "11"], "rt": [1926, 112, 446, 213, 64], "actions": ["up", "up", "up", "left", "left"], "actionTimes": [3686, 4293, 5246, 5965, 6538], "queries": {"click": {"state": {"target": [], "time": []}, "edge": {"target": [], "time": []}}, "mouseover": {"state": {"target": ["0"], "time": [2662]}, "edge": {"target": [], "time": []}}, "mouseout": {"state": {"target": ["24", "23", "0", "12", "0", "0", "23", "23"], "time": [485, 569, 650, 833, 1438, 7613, 14183, 16560]}, "edge": {"target": [], "time": []}}}, "displayed_time": "15.76", "trialTime": 17302, "trial_type": "mouselab-mdp", "trial_index": 44, "time_elapsed": 1175208, "internal_node_id": "0.0-6.0-1.0-23.0"}}, {"uniqueid": "w89439073:a56956183", "current_trial": 45, "dateTime": 1693566021199, "trialdata": {"revealed_states": [], "clicked_states": [], "num_clicks_accrued": [0, 0, 0, 0, 0, 0, 0, 0, 0, 0, 0, 0, 0], "stateRewards": ["", 1, 4, 5, 8, -55, -11, 8, 16, -37, 77, -22, -2, 3, -8, -10, 45, 87, -67, 4, 17, -33, -22, -1, -3, 7, 6, -39, -85, 75, -1, 7, -48, 45], "withholdReward": false, "trial_id": "mdp_trial_25", "block": "test", "trialIndex": 30, "score": 103, "costs": 0, "simulationMode": [null, null, null, null, null], "rewards": [1, 4, 5, 16, 77], "path": ["0", "0", "1", "2", "3", "8", "10"], "rt": [780, 180, 29, 575, 16], "actions": ["up", "up", "up", "left", "down"], "actionTimes": [2387, 3059, 3594, 4675, 5186], "queries": {"click": {"state": {"target": [], "time": []}, "edge": {"target": [], "time": []}}, "mouseover": {"state": {"target": ["0"], "time": [1917]}, "edge": {"target": [], "time": []}}, "mouseout": {"state": {"target": ["23", "0", "23", "2", "3", "8", "8"], "time": [935, 6692, 13787, 14115, 14232, 15390, 15837]}, "edge": {"target": [], "time": []}}}, "displayed_time": "15.61", "trialTime": 16715, "trial_type": "mouselab-mdp", "trial_index": 45, "time_elapsed": 1192280, "internal_node_id": "0.0-6.0-1.0-24.0"}}, {"uniqueid": "w89439073:a56956183", "current_trial": 46, "dateTime": 1693566038929, "trialdata": {"revealed_states": [], "clicked_states": [], "num_clicks_accrued": [0, 0, 0, 0, 0, 0, 0, 0, 0, 0, 0, 0, 0], "stateRewards": ["", 1, -3, 4, 13, -72, 52, 5, 5, -58, 5, 14, 2, 1, 3, -14, -86, -4, 73, 6, -58, -50, 49, 2, -3, -4, 2, 33, -41, 42, -11, 81, 45, 53], "withholdReward": false, "trial_id": "mdp_trial_26", "block": "test", "trialIndex": 31, "score": 67, "costs": 0, "simulationMode": [null, null, null, null, null], "rewards": [1, -3, 4, 13, 52], "path": ["0", "0", "1", "2", "3", "4", "6"], "rt": [247, 95, 622, 413, 165], "actions": ["up", "up", "up", "right", "right"], "actionTimes": [2364, 2963, 4092, 5004, 5675], "queries": {"click": {"state": {"target": [], "time": []}, "edge": {"target": [], "time": []}}, "mouseover": {"state": {"target": [], "time": []}, "edge": {"target": [], "time": []}}, "mouseout": {"state": {"target": ["8", "10", "1", "0", "24"], "time": [355, 1263, 1330, 8285, 12517]}, "edge": {"target": [], "time": []}}}, "displayed_time": "16.12", "trialTime": 17356, "trial_type": "mouselab-mdp", "trial_index": 46, "time_elapsed": 1210009, "internal_node_id": "0.0-6.0-1.0-25.0"}}, {"uniqueid": "w89439073:a56956183", "current_trial": 47, "dateTime": 1693566056095, "trialdata": {"revealed_states": [], "clicked_states": [], "num_clicks_accrued": [0, 0, 0, 0, 0, 0, 0, 0, 0, 0, 0, 0, 0], "stateRewards": ["", 1, -1, 8, 4, 76, -33, -17, -3, -1, -54, -74, -2, 2, -5, 13, -51, 63, 83, 1, 84, 29, -36, 2, -1, 7, -12, -10, -44, -43, -14, 8, -69, 19], "withholdReward": false, "trial_id": "mdp_trial_27", "block": "test", "trialIndex": 32, "score": -48, "costs": 0, "simulationMode": [null, null, null, null, null], "rewards": [2, -1, 7, -12, -44], "path": ["0", "0", "23", "24", "25", "26", "28"], "rt": [874, 15, 602, 9, 354], "actions": ["left", "left", "left", "up", "right"], "actionTimes": [2501, 3012, 4133, 4644, 5508], "queries": {"click": {"state": {"target": [], "time": []}, "edge": {"target": [], "time": []}}, "mouseover": {"state": {"target": ["0"], "time": [1812]}, "edge": {"target": [], "time": []}}, "mouseout": {"state": {"target": ["30", "31", "22", "0", "0"], "time": [17, 588, 684, 1257, 3395]}, "edge": {"target": [], "time": []}}}, "displayed_time": "15.63", "trialTime": 16773, "trial_type": "mouselab-mdp", "trial_index": 47, "time_elapsed": 1227176, "internal_node_id": "0.0-6.0-1.0-26.0"}}, {"uniqueid": "w89439073:a56956183", "current_trial": 48, "dateTime": 1693566073688, "trialdata": {"revealed_states": [], "clicked_states": [], "num_clicks_accrued": [0, 0, 0, 0, 0, 0, 0, 0, 0, 0, 0, 0, 0], "stateRewards": ["", 2, -1, 4, -9, -43, 7, 54, -13, 38, -40, -83, -1, 2, -8, -10, 34, -33, 11, -14, -79, 65, 26, 1, 2, 4, 10, 21, 1, 86, 4, -53, 28, -29], "withholdReward": false, "trial_id": "mdp_trial_28", "block": "test", "trialIndex": 33, "score": -6, "costs": 0, "simulationMode": [null, null, null, null, null], "rewards": [-1, 2, -8, -10, 11], "path": ["0", "0", "12", "13", "14", "15", "18"], "rt": [386, 374, 124, 285, 260], "actions": ["right", "right", "right", "up", "left"], "actionTimes": [1986, 2882, 3506, 4298, 5058], "queries": {"click": {"state": {"target": [], "time": []}, "edge": {"target": [], "time": []}}, "mouseover": {"state": {"target": [], "time": []}, "edge": {"target": [], "time": []}}, "mouseout": {"state": {"target": ["0"], "time": [5549]}, "edge": {"target": [], "time": []}}}, "displayed_time": "15.60", "trialTime": 17218, "trial_type": "mouselab-mdp", "trial_index": 48, "time_elapsed": 1244768, "internal_node_id": "0.0-6.0-1.0-27.0"}}, {"uniqueid": "w89439073:a56956183", "current_trial": 49, "dateTime": 1693566091384, "trialdata": {"revealed_states": [], "clicked_states": [], "num_clicks_accrued": [0, 0, 0, 0, 0, 0, 0, 0, 0, 0, 0, 0, 0], "stateRewards": ["", 1, -2, 4, 7, -43, -83, -60, -5, -86, -80, 83, -1, -2, 6, 11, -15, 21, 13, 9, 29, -49, 11, -1, 4, -6, -11, 87, 40, 63, -8, -39, -11, 62], "withholdReward": false, "trial_id": "mdp_trial_29", "block": "test", "trialIndex": 34, "score": -88, "costs": 0, "simulationMode": [null, null, null, null, null], "rewards": [1, -2, 4, -5, -86], "path": ["0", "0", "1", "2", "3", "8", "9"], "rt": [67, 160, 407, 188, 86], "actions": ["up", "up", "up", "left", "up"], "actionTimes": [2241, 2915, 3819, 4531, 5114], "queries": {"click": {"state": {"target": [], "time": []}, "edge": {"target": [], "time": []}}, "mouseover": {"state": {"target": [], "time": []}, "edge": {"target": [], "time": []}}, "mouseout": {"state": {"target": ["0", "0", "31", "31", "24", "31", "30"], "time": [1834, 6035, 14779, 14967, 15117, 15702, 15766]}, "edge": {"target": [], "time": []}}}, "displayed_time": "16.18", "trialTime": 17299, "trial_type": "mouselab-mdp", "trial_index": 49, "time_elapsed": 1262464, "internal_node_id": "0.0-6.0-1.0-28.0"}}, {"uniqueid": "w89439073:a56956183", "current_trial": 50, "dateTime": 1693566110208, "trialdata": {"revealed_states": [], "clicked_states": [], "num_clicks_accrued": [0, 0, 0, 0, 0, 0, 0, 0, 0, 0, 0, 0, 0], "stateRewards": ["", -2, -1, -1, 5, -54, -87, 35, 2, -8, 20, -22, 1, 3, 6, 13, -75, -32, -55, -3, 56, 62, -22, -1, -4, -1, -7, -51, 84, 70, 7, -15, 5, 55], "withholdReward": false, "trial_id": "mdp_trial_30", "block": "test", "trialIndex": 35, "score": 36, "costs": 0, "simulationMode": [null, null, null, null, null], "rewards": [-2, -1, -1, 5, 35], "path": ["0", "0", "1", "2", "3", "4", "7"], "rt": [536, 101, 6, 111, 67], "actions": ["up", "up", "up", "right", "down"], "actionTimes": [3967, 4565, 5071, 5695, 6286], "queries": {"click": {"state": {"target": [], "time": []}, "edge": {"target": [], "time": []}}, "mouseover": {"state": {"target": [], "time": []}, "edge": {"target": [], "time": []}}, "mouseout": {"state": {"target": ["30", "23", "0"], "time": [2105, 2692, 4478]}, "edge": {"target": [], "time": []}}}, "displayed_time": "17.43", "trialTime": 18431, "trial_type": "mouselab-mdp", "trial_index": 50, "time_elapsed": 1281288, "internal_node_id": "0.0-6.0-1.0-29.0"}}, {"uniqueid": "w89439073:a56956183", "current_trial": 51, "dateTime": 1693566126607, "trialdata": {"revealed_states": [], "clicked_states": [], "num_clicks_accrued": [0, 0, 0, 0, 0, 0, 0, 0, 0, 0, 0, 0, 0], "stateRewards": ["", -2, -1, -3, -1, -78, -6, 2, -1, 22, -88, 32, 2, 2, -7, -8, -51, -17, 54, 2, -44, 54, 75, 2, -2, -8, -15, -29, 12, -67, 15, -1, -47, -47], "withholdReward": false, "trial_id": "mdp_trial_31", "block": "test", "trialIndex": 36, "score": -28, "costs": 0, "simulationMode": [null, null, null, null, null], "rewards": [2, 2, -7, -8, -17], "path": ["0", "0", "12", "13", "14", "15", "17"], "rt": [760, 92, 418, 442, 586], "actions": ["right", "right", "right", "up", "right"], "actionTimes": [1804, 2403, 3332, 4276, 5356], "queries": {"click": {"state": {"target": [], "time": []}, "edge": {"target": [], "time": []}}, "mouseover": {"state": {"target": [], "time": []}, "edge": {"target": [], "time": []}}, "mouseout": {"state": {"target": ["0"], "time": [5989]}, "edge": {"target": [], "time": []}}}, "displayed_time": "15.04", "trialTime": 15987, "trial_type": "mouselab-mdp", "trial_index": 51, "time_elapsed": 1297687, "internal_node_id": "0.0-6.0-1.0-30.0"}}, {"uniqueid": "w89439073:a56956183", "current_trial": 52, "dateTime": 1693566143100, "trialdata": {"revealed_states": [], "clicked_states": [], "num_clicks_accrued": [0, 0, 0, 0, 0, 0, 0, 0, 0, 0, 0, 0, 0], "stateRewards": ["", -1, 3, 1, -11, -22, -36, 19, -5, -70, -52, 50, -2, -4, 4, -2, -41, -83, 29, -2, 22, 10, -6, -2, 3, -2, 14, 54, 44, 77, -9, -65, -37, -40], "withholdReward": false, "trial_id": "mdp_trial_32", "block": "test", "trialIndex": 37, "score": -87, "costs": 0, "simulationMode": [null, null, null, null, null], "rewards": [-2, -4, 4, -2, -83], "path": ["0", "0", "12", "13", "14", "15", "17"], "rt": [1242, 44, 382, 327, 282], "actions": ["right", "right", "right", "up", "right"], "actionTimes": [2538, 3089, 3962, 4794, 5570], "queries": {"click": {"state": {"target": [], "time": []}, "edge": {"target": [], "time": []}}, "mouseover": {"state": {"target": ["0"], "time": [1490]}, "edge": {"target": [], "time": []}}, "mouseout": {"state": {"target": ["0", "0", "0", "0"], "time": [839, 6054, 10593, 11744]}, "edge": {"target": [], "time": []}}}, "displayed_time": "15.30", "trialTime": 16058, "trial_type": "mouselab-mdp", "trial_index": 52, "time_elapsed": 1314181, "internal_node_id": "0.0-6.0-1.0-31.0"}}, {"uniqueid": "w89439073:a56956183", "current_trial": 53, "dateTime": 1693566159191, "trialdata": {"revealed_states": [], "clicked_states": [], "num_clicks_accrued": [0, 0, 0, 0, 0, 0, 0, 0, 0, 0, 0, 0, 0], "stateRewards": ["", -1, 1, -2, 5, 73, 15, 61, 8, 7, 38, 76, 2, 2, -4, -6, -6, -26, 43, -5, -45, -85, -35, -2, 1, -4, 15, -10, 69, 72, -11, 84, -49, -38], "withholdReward": false, "trial_id": "mdp_trial_33", "block": "test", "trialIndex": 38, "score": -32, "costs": 0, "simulationMode": [null, null, null, null, null], "rewards": [2, 2, -4, -6, -26], "path": ["0", "0", "12", "13", "14", "15", "17"], "rt": [866, 390, 663, 76, 147], "actions": ["right", "right", "right", "up", "right"], "actionTimes": [1562, 2474, 3650, 4217, 4874], "queries": {"click": {"state": {"target": [], "time": []}, "edge": {"target": [], "time": []}}, "mouseover": {"state": {"target": ["0"], "time": [1236]}, "edge": {"target": [], "time": []}}, "mouseout": {"state": {"target": ["0", "0"], "time": [459, 5666]}, "edge": {"target": [], "time": []}}}, "displayed_time": "14.70", "trialTime": 15714, "trial_type": "mouselab-mdp", "trial_index": 53, "time_elapsed": 1330271, "internal_node_id": "0.0-6.0-1.0-32.0"}}, {"uniqueid": "w89439073:a56956183", "current_trial": 54, "dateTime": 1693566176503, "trialdata": {"revealed_states": [], "clicked_states": [], "num_clicks_accrued": [0, 0, 0, 0, 0, 0, 0, 0, 0, 0, 0, 0, 0], "stateRewards": ["", 2, -3, -2, 14, -4, 85, 46, 15, -28, 41, 31, -1, -1, -1, 5, 62, 79, 57, 12, -73, -64, 86, -1, 1, -3, -5, 68, 11, -32, 8, -80, -21, -56], "withholdReward": false, "trial_id": "mdp_trial_34", "block": "test", "trialIndex": 39, "score": 81, "costs": 0, "simulationMode": [null, null, null, null, null], "rewards": [-1, -1, -1, 5, 79], "path": ["0", "0", "12", "13", "14", "15", "17"], "rt": [154, 110, 340, 39, 72], "actions": ["right", "right", "right", "up", "right"], "actionTimes": [1519, 2127, 2991, 3526, 4095], "queries": {"click": {"state": {"target": [], "time": []}, "edge": {"target": [], "time": []}}, "mouseover": {"state": {"target": [], "time": []}, "edge": {"target": [], "time": []}}, "mouseout": {"state": {"target": ["0"], "time": [4795]}, "edge": {"target": [], "time": []}}}, "displayed_time": "15.37", "trialTime": 16935, "trial_type": "mouselab-mdp", "trial_index": 54, "time_elapsed": 1347584, "internal_node_id": "0.0-6.0-1.0-33.0"}}, {"uniqueid": "w89439073:a56956183", "current_trial": 55, "dateTime": 1693566192935, "trialdata": {"revealed_states": [], "clicked_states": [], "num_clicks_accrued": [0, 0, 0, 0, 0, 0, 0, 0, 0, 0, 0, 0, 0], "stateRewards": ["", -2, 4, -5, -12, 85, -24, -18, -15, -78, -22, 26, -1, -1, 2, 14, -45, 52, -23, 7, -33, 24, -6, -2, -4, 5, -7, -16, 36, -39, 5, 71, -87, -23], "withholdReward": false, "trial_id": "mdp_trial_35", "block": "test", "trialIndex": 40, "score": 66, "costs": 0, "simulationMode": [null, null, null, null, null], "rewards": [-1, -1, 2, 14, 52], "path": ["0", "0", "12", "13", "14", "15", "17"], "rt": [394, 23, 238, 35, 1009], "actions": ["right", "right", "right", "up", "right"], "actionTimes": [1342, 1861, 2614, 3149, 4670], "queries": {"click": {"state": {"target": [], "time": []}, "edge": {"target": [], "time": []}}, "mouseover": {"state": {"target": [], "time": []}, "edge": {"target": [], "time": []}}, "mouseout": {"state": {"target": ["0", "0"], "time": [5688, 12663]}, "edge": {"target": [], "time": []}}}, "displayed_time": "14.95", "trialTime": 16030, "trial_type": "mouselab-mdp", "trial_index": 55, "time_elapsed": 1364015, "internal_node_id": "0.0-6.0-1.0-34.0"}}, {"uniqueid": "w89439073:a56956183", "current_trial": 56, "dateTime": 1693566209727, "trialdata": {"revealed_states": [], "clicked_states": [], "num_clicks_accrued": [0, 0, 0, 0, 0, 0, 0, 0, 0, 0, 0, 0, 0], "stateRewards": ["", -2, 1, -7, 9, 8, 25, 61, -7, -17, 69, -81, 1, 4, -4, -11, 16, 67, 44, 3, 6, -45, -54, -2, 3, 6, -11, -15, 32, -47, 3, -39, -6, -88], "withholdReward": false, "trial_id": "mdp_trial_36", "block": "test", "trialIndex": 41, "score": 10, "costs": 0, "simulationMode": [null, null, null, null, null], "rewards": [1, 4, -4, 3, 6], "path": ["0", "0", "12", "13", "14", "19", "20"], "rt": [181, 240, 47, 478, 6], "actions": ["right", "right", "right", "down", "right"], "actionTimes": [1696, 2440, 2984, 3984, 4482], "queries": {"click": {"state": {"target": [], "time": []}, "edge": {"target": [], "time": []}}, "mouseover": {"state": {"target": [], "time": []}, "edge": {"target": [], "time": []}}, "mouseout": {"state": {"target": ["7", "1", "0", "0", "0", "0", "0"], "time": [212, 309, 780, 1087, 5498, 6000, 12857]}, "edge": {"target": [], "time": []}}}, "displayed_time": "15.52", "trialTime": 16377, "trial_type": "mouselab-mdp", "trial_index": 56, "time_elapsed": 1380808, "internal_node_id": "0.0-6.0-1.0-35.0"}}, {"uniqueid": "w89439073:a56956183", "current_trial": 57, "dateTime": 1693566226127, "trialdata": {"revealed_states": [], "clicked_states": [], "num_clicks_accrued": [0, 0, 0, 0, 0, 0, 0, 0, 0, 0, 0, 0, 0], "stateRewards": ["", 1, 2, -8, 9, 18, -83, -11, 6, -64, -48, 17, -2, -2, -5, -3, -24, -3, -86, -2, 48, -41, -22, -2, 4, 7, 8, 81, 13, -48, 10, 61, 19, 57], "withholdReward": false, "trial_id": "mdp_trial_37", "block": "test", "trialIndex": 42, "score": -63, "costs": 0, "simulationMode": [null, null, null, null, null], "rewards": [1, 2, -8, 6, -64], "path": ["0", "0", "1", "2", "3", "8", "9"], "rt": [385, 200, 202, 147, 311], "actions": ["up", "up", "up", "left", "up"], "actionTimes": [1480, 2185, 2889, 3537, 4353], "queries": {"click": {"state": {"target": [], "time": []}, "edge": {"target": [], "time": []}}, "mouseover": {"state": {"target": [], "time": []}, "edge": {"target": [], "time": []}}, "mouseout": {"state": {"target": ["1", "0"], "time": [414, 9063]}, "edge": {"target": [], "time": []}}}, "displayed_time": "15.10", "trialTime": 15970, "trial_type": "mouselab-mdp", "trial_index": 57, "time_elapsed": 1397208, "internal_node_id": "0.0-6.0-1.0-36.0"}}, {"uniqueid": "w89439073:a56956183", "current_trial": 58, "dateTime": 1693566242506, "trialdata": {"revealed_states": [], "clicked_states": [], "num_clicks_accrued": [0, 0, 0, 0, 0, 0, 0, 0, 0, 0, 0, 0, 0], "stateRewards": ["", 1, -3, -2, 14, 49, -40, -39, 2, 26, -61, 73, 1, -4, -8, 12, 79, 29, -65, -13, 55, -26, 27, -1, 3, 3, 9, -17, -60, -18, -8, 35, -88, 69], "withholdReward": false, "trial_id": "mdp_trial_38", "block": "test", "trialIndex": 43, "score": 3, "costs": 0, "simulationMode": [null, null, null, null, null], "rewards": [1, -4, -8, -13, 27], "path": ["0", "0", "12", "13", "14", "19", "22"], "rt": [16, 375, 25, 6, 468], "actions": ["right", "right", "right", "down", "left"], "actionTimes": [1156, 2606, 3125, 3642, 4622], "queries": {"click": {"state": {"target": [], "time": []}, "edge": {"target": [], "time": []}}, "mouseover": {"state": {"target": [], "time": []}, "edge": {"target": [], "time": []}}, "mouseout": {"state": {"target": ["0"], "time": [6352]}, "edge": {"target": [], "time": []}}}, "displayed_time": "15.14", "trialTime": 15973, "trial_type": "mouselab-mdp", "trial_index": 58, "time_elapsed": 1413588, "internal_node_id": "0.0-6.0-1.0-37.0"}}, {"uniqueid": "w89439073:a56956183", "current_trial": 59, "dateTime": 1693566259679, "trialdata": {"revealed_states": [], "clicked_states": [], "num_clicks_accrued": [0, 0, 0, 0, 0, 0, 0, 0, 0, 0, 0, 0, 0], "stateRewards": ["", 1, 3, 1, -13, 52, -28, 67, -14, 3, 63, -70, -1, -4, 7, -11, -10, 47, -18, 6, 69, -9, -61, 2, 3, -6, 10, 63, -34, 40, -6, -79, -35, -32], "withholdReward": false, "trial_id": "mdp_trial_39", "block": "test", "trialIndex": 44, "score": 38, "costs": 0, "simulationMode": [null, null, null, null, null], "rewards": [-1, -4, 7, -11, 47], "path": ["0", "0", "12", "13", "14", "15", "17"], "rt": [3476, 187, 181, 184, 41], "actions": ["right", "right", "right", "up", "right"], "actionTimes": [5269, 5956, 6636, 7324, 7867], "queries": {"click": {"state": {"target": [], "time": []}, "edge": {"target": [], "time": []}}, "mouseover": {"state": {"target": [], "time": []}, "edge": {"target": [], "time": []}}, "mouseout": {"state": {"target": ["0", "24", "29", "26", "10", "10"], "time": [8717, 14034, 14419, 14519, 14582, 15082]}, "edge": {"target": [], "time": []}}}, "displayed_time": "15.79", "trialTime": 16812, "trial_type": "mouselab-mdp", "trial_index": 59, "time_elapsed": 1430760, "internal_node_id": "0.0-6.0-1.0-38.0"}}, {"uniqueid": "w89439073:a56956183", "current_trial": 60, "dateTime": 1693566276959, "trialdata": {"revealed_states": [], "clicked_states": [], "num_clicks_accrued": [0, 0, 0, 0, 0, 0, 0, 0, 0, 0, 0, 0, 0], "stateRewards": ["", -1, 3, 1, -7, 56, 76, 57, 3, 11, -9, 14, 1, -2, 2, 8, -77, -3, 79, -5, 88, 24, -66, -2, -1, 7, -7, -30, 14, -76, 11, -36, 28, -6], "withholdReward": false, "trial_id": "mdp_trial_40", "block": "test", "trialIndex": 45, "score": 43, "costs": 0, "simulationMode": [null, null, null, null, null], "rewards": [-2, -1, 7, 11, 28], "path": ["0", "0", "23", "24", "25", "30", "32"], "rt": [1516, 112, 366, 553, 90], "actions": ["left", "left", "left", "down", "down"], "actionTimes": [2508, 3124, 3996, 5053, 5660], "queries": {"click": {"state": {"target": [], "time": []}, "edge": {"target": [], "time": []}}, "mouseover": {"state": {"target": [], "time": []}, "edge": {"target": [], "time": []}}, "mouseout": {"state": {"target": ["10", "1", "0", "23", "23"], "time": [236, 503, 3209, 7934, 11406]}, "edge": {"target": [], "time": []}}}, "displayed_time": "14.99", "trialTime": 16900, "trial_type": "mouselab-mdp", "trial_index": 60, "time_elapsed": 1448039, "internal_node_id": "0.0-6.0-1.0-39.0"}}, {"uniqueid": "w89439073:a56956183", "current_trial": 61, "dateTime": 1693566346747, "trialdata": {"rt": 69776, "response": {"Q0": "$-2 to $2", "Q1": "$-32 to $32", "Q2": "$-88 to $88", "Q3": "There was no cost for clicking on nodes.", "Q4": "Neither motivated nor unmotivated"}, "question_order": [0, 1, 2, 3, 4], "trial_id": "final_quiz_control", "trial_type": "survey-multi-choice", "trial_index": 61, "time_elapsed": 1517829, "internal_node_id": "0.0-6.0-2.0"}}, {"uniqueid": "w89439073:a56956183", "current_trial": 62, "dateTime": 1693566516698, "trialdata": {"rt": 169944, "response": {"Q0": "The strategy i used is to not go in the same direction everytime. To be unpredictable was a perfect way of winning. Its like when walking home. Nver used the same path", "Q1": "yes. being fast", "Q2": "unpredictable game"}, "trial_id": "self_report_control", "trial_type": "survey-text", "trial_index": 62, "time_elapsed": 1687780, "internal_node_id": "0.0-6.0-3.0"}}, {"uniqueid": "w89439073:a56956183", "current_trial": 63, "dateTime": 1693566536690, "trialdata": {"rt": 19968, "response": {"gender": "male", "age": "26", "colorblind": "0", "effort": "3"}, "trial_type": "survey-html-form", "trial_index": 63, "time_elapsed": 1707772, "internal_node_id": "0.0-6.0-4.0"}}, {"uniqueid": "w89439073:a56956183", "current_trial": 64, "dateTime": 1693566554347, "trialdata": {"rt": 17650, "response": {"Q0": "it was hard", "Q1": "no", "Q2": ""}, "trial_type": "survey-text", "trial_index": 64, "time_elapsed": 1725429, "internal_node_id": "0.0-6.0-5.0"}}, {"uniqueid": "w89439073:a56956183", "current_trial": 65, "dateTime": 1693566561043, "trialdata": {"rt": 6692, "stimulus": "<h1>Completion Code Instructions (1/2)</h1>\n<br><br><br><br>\nYou have reached the end of the experiment! The completion code consists of two parts: (1) a code with 2 characters (2) a code with 6 characters. On this page, you will receive the second part of the code. The first part of the completion code will be on the next page.\n<br><br>\nThe second part of your completion code is: <b>EWEK22</b>\n<br><br>\nPlease note this down. Then, press 'Finish HIT' in order to find the first part of your completion code. Once the data has been saved, you will receive this code either in this window or in the original browser window where you started the experiment.\n", "response": 0, "trial_type": "html-button-response", "trial_index": 65, "time_elapsed": 1732125, "internal_node_id": "0.0-6.0-6.0"}}, {"uniqueid": "w89439073:a56956183", "current_trial": 66, "dateTime": 1693566562063, "trialdata": {"success": true, "trial_type": "fullscreen", "trial_index": 66, "time_elapsed": 1733145, "internal_node_id": "0.0-7.0"}}], "questiondata": {"params": {"CODE": "C6DMOQA6", "MIN_TIME": 14, "inspectCost": 1, "startTime": "Fri Sep 01 2023 12:40:25 GMT+0200 (Central European Summer Time)", "bonusRate": 0.002, "variance": "1_2_4_8_44", "branching": "31123"}, "final_score": -52}, "eventdata": [{"eventtype": "initialized", "value": null, "timestamp": 1693564824454, "interval": 0}, {"eventtype": "window_resize", "value": [1024, 654], "timestamp": 1693564824454, "interval": 0}, {"eventtype": "window_resize", "value": [1024, 654], "timestamp": 1693564824953, "interval": 499}, {"eventtype": "focus", "value": "off", "timestamp": 1693564828613, "interval": 3660}, {"eventtype": "focus", "value": "on", "timestamp": 1693564833047, "interval": 4434}, {"eventtype": "window_resize", "value": [1366, 768], "timestamp": 1693564834925, "interval": 1878}, {"eventtype": "focus", "value": "off", "timestamp": 1693565256292, "interval": 421367}, {"eventtype": "focus", "value": "on", "timestamp": 1693565256292, "interval": 0}, {"eventtype": "window_resize", "value": [1024, 654], "timestamp": 1693565256500, "interval": 208}, {"eventtype": "window_resize", "value": [1366, 768], "timestamp": 1693565258782, "interval": 2282}, {"eventtype": "focus", "value": "off", "timestamp": 1693565353277, "interval": 94495}, {"eventtype": "focus", "value": "on", "timestamp": 1693565353277, "interval": 0}, {"eventtype": "window_resize", "value": [1024, 654], "timestamp": 1693565353486, "interval": 209}, {"eventtype": "window_resize", "value": [1366, 768], "timestamp": 1693565355290, "interval": 1804}, {"eventtype": "window_resize", "value": [1024, 654], "timestamp": 1693566561289, "interval": 1205999}], "useragent": "Mozilla/5.0 (Windows NT 10.0; Win64; x64) AppleWebKit/537.36 (KHTML, like Gecko) Chrome/116.0.0.0 Safari/537.36", "mode": "live", "id": "w89439073:a56956183", "status": "user data saved", "Beginhit": "2023-09-01 10:40:20.79673", "Beginexp": "2023-09-01 10:40:35.86744", "Endhit": "2023-09-01 11:09:23.446303", "psiturkStatus": 3, "browser": "<redacted>", "platform": "windows", "language": "en-AU", "excludeReason": "noeffort"}