{"condition": 0, "counterbalance": 0, "assignmentId": "a74683364", "workerId": "w33159277", "hitId": "h12906195", "currenttrial": 55, "bonus": 0, "data": [{"uniqueid": "w33159277:a74683364", "current_trial": 0, "dateTime": 1691142352534, "trialdata": {"success": true, "trial_type": "fullscreen", "trial_index": 0, "time_elapsed": 5775, "internal_node_id": "0.0-0.0"}}, {"uniqueid": "w33159277:a74683364", "current_trial": 1, "dateTime": 1691142370513, "trialdata": {"view_history": [{"page_index": 0, "viewing_time": 17953}], "rt": 17956, "trial_id": "exp_instructions_control", "trial_type": "instructions", "trial_index": 1, "time_elapsed": 23755, "internal_node_id": "0.0-1.0"}}, {"uniqueid": "w33159277:a74683364", "current_trial": 2, "dateTime": 1691142375399, "trialdata": {"success": true, "trial_type": "fullscreen", "trial_index": 2, "time_elapsed": 28641, "internal_node_id": "0.0-2.0-0.0"}}, {"uniqueid": "w33159277:a74683364", "current_trial": 3, "dateTime": 1691142666424, "trialdata": {"view_history": [{"page_index": 0, "viewing_time": 91705}, {"page_index": 1, "viewing_time": 73862}, {"page_index": 2, "viewing_time": 82853}, {"page_index": 3, "viewing_time": 42594}], "rt": 291015, "trial_id": "mouselab_instructions_1_control", "trial_type": "instructions", "trial_index": 3, "time_elapsed": 319666, "internal_node_id": "0.0-2.0-1.0"}}, {"uniqueid": "w33159277:a74683364", "current_trial": 4, "dateTime": 1691142753302, "trialdata": {"revealed_states": [], "clicked_states": ["24", "12", "15", "27", "26", "30", "31", "19", "4", "3", "9", "29", "33", "17"], "num_clicks_accrued": [0, 0, 0, 0, 0, 0, 0, 0, 0, 0, 0, 0, 0], "stateRewards": ["", -10, 10, -10, -10, -10, -10, 10, -10, -10, 10, 10, -10, 10, 10, -10, 10, 10, 10, -10, 10, 10, 10, -10, -10, 10, 10, 10, -10, 10, 10, -10, -10, -10], "withholdReward": false, "trial_id": "practice_1", "block": "test", "trialIndex": 0, "score": -13.5, "costs": -7, "simulationMode": [null, null, null, null, null], "rewards": [-10, -10, 10, 10, -10], "path": ["0", "0", "23", "24", "25", "30", "32"], "rt": [57780, 5476, 8539, 1737, 867], "actions": ["left", "left", "left", "down", "down"], "actionTimes": [61282, 67298, 76384, 78660, 80062], "queries": {"click": {"state": {"target": ["24", "12", "15", "27", "26", "30", "31", "19", "4", "3", "9", "29", "33", "17"], "time": [10661, 14483, 18499, 21094, 24729, 27708, 31899, 35332, 38968, 42080, 44854, 47906, 51235, 55132]}, "edge": {"target": [], "time": []}}, "mouseover": {"state": {"target": ["23", "24", "23", "24", "25", "24", "23", "12", "13", "18", "12", "13", "14", "15", "18", "28", "26", "26", "27", "24", "25", "26", "25", "30", "31", "24", "25", "31", "30", "32", "22", "19", "20", "17", "16", "6", "4", "4", "3", "2", "28", "25", "11", "9", "7", "18", "0", "12", "2", "8", "29", "33", "30", "31", "22", "17", "15", "13", "31", "25"], "time": [5069, 5337, 6418, 6937, 7302, 10166, 12549, 13040, 13352, 13684, 14116, 15899, 16216, 16734, 19546, 19681, 19755, 20282, 20481, 22183, 23345, 24201, 26146, 26480, 28745, 29519, 29815, 30445, 33248, 33597, 34246, 34510, 37411, 37728, 37810, 37912, 37964, 38531, 40172, 43135, 43292, 43382, 44024, 44290, 45957, 46063, 46459, 46756, 46857, 46885, 47291, 50506, 51891, 52093, 52475, 53989, 56522, 56607, 59305, 59487]}, "edge": {"target": [], "time": []}}, "mouseout": {"state": {"target": ["0", "23", "24", "23", "24", "25", "24", "23", "12", "13", "18", "12", "12", "13", "14", "15", "18", "28", "26", "26", "27", "24", "25", "26", "25", "30", "31", "24", "25", "31", "30", "32", "22", "19", "20", "17", "16", "6", "4", "4", "3", "2", "28", "25", "11", "9", "7", "18", "0", "12", "2", "8", "29", "29", "33", "30", "31", "22", "17", "15", "13", "31", "25", "25", "24", "0", "28", "0", "12", "0", "24", "23"], "time": [2020, 5219, 6152, 6818, 7117, 10034, 12483, 12601, 13116, 13568, 13849, 14570, 15700, 16083, 16315, 18517, 19583, 19715, 20103, 20399, 21899, 23297, 23530, 26014, 26296, 28300, 29029, 29542, 30078, 33150, 33297, 33996, 34294, 37178, 37593, 37750, 37839, 37932, 38027, 39074, 43011, 43176, 43326, 43418, 44076, 45548, 45985, 46128, 46595, 46792, 46877, 46907, 48035, 50290, 51829, 52039, 52127, 53274, 56474, 56549, 56631, 59325, 64440, 64521, 64601, 65287, 71967, 72066, 73077, 73134, 73483, 73683]}, "edge": {"target": [], "time": []}}}, "displayed_time": "80.59", "trialTime": 84366, "trial_type": "mouselab-mdp", "trial_index": 4, "time_elapsed": 406543, "internal_node_id": "0.0-2.0-2.0-0.0"}}, {"uniqueid": "w33159277:a74683364", "current_trial": 5, "dateTime": 1691142789408, "trialdata": {"revealed_states": [], "clicked_states": ["23"], "num_clicks_accrued": [0, 0, 0, 0, 0, 0, 0, 0, 0, 0, 0, 0, 0], "stateRewards": ["", 10, -10, -10, 10, 10, 10, -10, -10, -10, -10, 10, -10, -10, 10, 10, 10, -10, -10, 10, 10, -10, -10, 10, -10, -10, 10, -10, 10, 10, 10, 10, -10, 10], "withholdReward": false, "trial_id": "practice_2", "block": "test", "trialIndex": 1, "score": -7, "costs": -0.5, "simulationMode": [null, null, null, null, null], "rewards": [10, -10, -10, 10, -10], "path": ["0", "0", "23", "24", "25", "26", "27"], "rt": [8918, 4655, 2829, 1233, 785], "actions": ["left", "left", "left", "up", "up"], "actionTimes": [13642, 18838, 22188, 23963, 25281], "queries": {"click": {"state": {"target": ["23"], "time": [10749]}, "edge": {"target": [], "time": []}}, "mouseover": {"state": {"target": ["23", "24", "23", "0"], "time": [9682, 9817, 10433, 11685]}, "edge": {"target": [], "time": []}}, "mouseout": {"state": {"target": ["23", "15", "14", "0", "23", "24", "23", "0", "0"], "time": [2300, 2798, 2831, 8633, 9749, 10265, 11549, 11722, 31831]}, "edge": {"target": [], "time": []}}}, "displayed_time": "25.80", "trialTime": 34260, "trial_type": "mouselab-mdp", "trial_index": 5, "time_elapsed": 442649, "internal_node_id": "0.0-2.0-2.0-1.0"}}, {"uniqueid": "w33159277:a74683364", "current_trial": 6, "dateTime": 1691142852135, "trialdata": {"view_history": [{"page_index": 0, "viewing_time": 47833}, {"page_index": 1, "viewing_time": 14885}], "rt": 62719, "trial_id": "mouselab_instructions_2_control", "trial_type": "instructions", "trial_index": 6, "time_elapsed": 505377, "internal_node_id": "0.0-2.0-3.0"}}, {"uniqueid": "w33159277:a74683364", "current_trial": 7, "dateTime": 1691142934367, "trialdata": {"rt": 82219, "response": {"Q0": "The cost for clicking on nodes may vary between nodes.", "Q1": "The better I perform the higher my bonus will be.", "Q2": "No, the amount of cash at each node of the web may be different each time.", "Q3": "To get the highest total score.", "Q4": "Only before moving the spider.", "Q5": "3 seconds"}, "question_order": [0, 1, 2, 3, 4, 5], "correct": {"Q0": "The cost for clicking on nodes may vary between nodes.", "Q1": "The better I perform the higher my bonus will be.", "Q2": "No, the amount of cash at each node of the web may be different each time.", "Q3": "To get the highest total score.", "Q4": "Only before moving the spider.", "Q5": "3 seconds"}, "trial_id": "mouselab_quiz_control", "trial_type": "survey-multi-choice", "trial_index": 7, "time_elapsed": 587609, "internal_node_id": "0.0-2.0-4.0"}}, {"uniqueid": "w33159277:a74683364", "current_trial": 8, "dateTime": 1691142943492, "trialdata": {"rt": 9100, "stimulus": "\n<h1> Get ready to start the game! </h1>\n\nThank you for reading the instructions. Get ready start with the 40 rounds of this game.\n<br><br>\nIf you need to take a break, feel free to take one after the end of a round, before continuing to the next one.\n<br><br>\nRemember, the more money the spider gets, the bigger your bonus will be!\n<br><br>\n<div style='text-align: center;'>Press <code>space</code> to begin.</div>\n\n<br><br>\n(If, at any point, the <code>space</code> key does not take you to the next page, click once on the text and try again.)", "response": " ", "trial_id": "mdp_ready", "trial_type": "html-keyboard-response", "trial_index": 8, "time_elapsed": 596734, "internal_node_id": "0.0-4.0-0.0"}}, {"uniqueid": "w33159277:a74683364", "current_trial": 9, "dateTime": 1691142967787, "trialdata": {"revealed_states": [], "clicked_states": [], "num_clicks_accrued": [0, 0, 0, 0, 0, 0, 0, 0, 0, 0, 0, 0, 0], "stateRewards": ["", 2, -1, 5, 8, 75, -35, -77, 1, -9, -81, -58, 1, 2, -7, 5, 77, -16, 19, 16, -10, -18, 40, -2, 3, 7, -5, 64, 1, -62, 10, 27, 10, 65], "withholdReward": false, "trial_id": "mdp_trial_1", "block": "test", "trialIndex": 2, "score": 45, "costs": 0, "simulationMode": [null, null, null, null, null], "rewards": [-2, 3, 7, 10, 27], "path": ["0", "0", "23", "24", "25", "30", "31"], "rt": [3427, 658, 694, 348, 569], "actions": ["left", "left", "left", "down", "right"], "actionTimes": [7413, 8596, 9837, 10768, 11872], "queries": {"click": {"state": {"target": [], "time": []}, "edge": {"target": [], "time": []}}, "mouseover": {"state": {"target": [], "time": []}, "edge": {"target": [], "time": []}}, "mouseout": {"state": {"target": ["17", "12", "0", "0", "4", "5", "5", "4", "7"], "time": [2392, 2807, 4341, 15473, 15506, 15526, 15922, 15957, 15977]}, "edge": {"target": [], "time": []}}}, "displayed_time": "17.99", "trialTime": 22963, "trial_type": "mouselab-mdp", "trial_index": 9, "time_elapsed": 621027, "internal_node_id": "0.0-4.0-1.0-0.0"}}, {"uniqueid": "w33159277:a74683364", "current_trial": 10, "dateTime": 1691142990425, "trialdata": {"revealed_states": [], "clicked_states": [], "num_clicks_accrued": [0, 0, 0, 0, 0, 0, 0, 0, 0, 0, 0, 0, 0], "stateRewards": ["", 1, 1, -5, 8, -6, 45, 16, -6, -7, -22, -38, -1, -4, 8, -11, -16, 21, -45, -15, -59, -32, 42, -1, 3, 6, 11, -7, 34, -27, -8, 85, 43, -9], "withholdReward": false, "trial_id": "mdp_trial_2", "block": "test", "trialIndex": 3, "score": -1, "costs": 0, "simulationMode": [null, null, null, null, null], "rewards": [1, 1, -5, 8, -6], "path": ["0", "0", "1", "2", "3", "4", "5"], "rt": [1643, 548, 893, 690, 514], "actions": ["up", "up", "up", "right", "up"], "actionTimes": [4551, 5634, 7091, 8318, 9349], "queries": {"click": {"state": {"target": [], "time": []}, "edge": {"target": [], "time": []}}, "mouseover": {"state": {"target": [], "time": []}, "edge": {"target": [], "time": []}}, "mouseout": {"state": {"target": ["12", "0", "1", "12", "22", "19", "20", "20"], "time": [1768, 12283, 12551, 12666, 12700, 12722, 13051, 13833]}, "edge": {"target": [], "time": []}}}, "displayed_time": "16.91", "trialTime": 21200, "trial_type": "mouselab-mdp", "trial_index": 10, "time_elapsed": 643664, "internal_node_id": "0.0-4.0-1.0-1.0"}}, {"uniqueid": "w33159277:a74683364", "current_trial": 11, "dateTime": 1691143012141, "trialdata": {"revealed_states": [], "clicked_states": [], "num_clicks_accrued": [0, 0, 0, 0, 0, 0, 0, 0, 0, 0, 0, 0, 0], "stateRewards": ["", -1, 2, 7, 8, 75, 67, -11, 6, 52, -17, 38, -1, 4, -8, 14, 74, -37, -17, -12, 52, 55, 71, -2, -1, -5, 2, 21, 6, -88, -14, 64, -61, -47], "withholdReward": false, "trial_id": "mdp_trial_3", "block": "test", "trialIndex": 4, "score": 54, "costs": 0, "simulationMode": [null, null, null, null, null], "rewards": [-1, 4, -8, -12, 71], "path": ["0", "0", "12", "13", "14", "19", "22"], "rt": [2062, 2964, 1367, 1070, 2195], "actions": ["right", "right", "right", "down", "left"], "actionTimes": [4711, 8210, 10120, 11756, 14500], "queries": {"click": {"state": {"target": [], "time": []}, "edge": {"target": [], "time": []}}, "mouseover": {"state": {"target": [], "time": []}, "edge": {"target": [], "time": []}}, "mouseout": {"state": {"target": ["14", "13", "0"], "time": [1130, 1150, 16194]}, "edge": {"target": [], "time": []}}}, "displayed_time": "16.65", "trialTime": 20202, "trial_type": "mouselab-mdp", "trial_index": 11, "time_elapsed": 665382, "internal_node_id": "0.0-4.0-1.0-2.0"}}, {"uniqueid": "w33159277:a74683364", "current_trial": 12, "dateTime": 1691143036240, "trialdata": {"revealed_states": [], "clicked_states": [], "num_clicks_accrued": [0, 0, 0, 0, 0, 0, 0, 0, 0, 0, 0, 0, 0], "stateRewards": ["", -1, -4, -6, -15, 21, -67, -63, 9, 51, 69, -14, -1, 3, 8, -8, 39, 72, 63, 15, 19, 47, 15, 1, 4, 5, 16, -18, 34, 35, -14, -80, 40, 1], "withholdReward": false, "trial_id": "mdp_trial_4", "block": "test", "trialIndex": 5, "score": 65, "costs": 0, "simulationMode": [null, null, null, null, null], "rewards": [-1, 3, 8, -8, 63], "path": ["0", "0", "12", "13", "14", "15", "18"], "rt": [2065, 879, 761, 695, 1021], "actions": ["right", "right", "right", "up", "left"], "actionTimes": [6226, 7649, 8947, 10178, 11777], "queries": {"click": {"state": {"target": [], "time": []}, "edge": {"target": [], "time": []}}, "mouseover": {"state": {"target": [], "time": []}, "edge": {"target": [], "time": []}}, "mouseout": {"state": {"target": ["0", "0"], "time": [2584, 14550]}, "edge": {"target": [], "time": []}}}, "displayed_time": "18.16", "trialTime": 22461, "trial_type": "mouselab-mdp", "trial_index": 12, "time_elapsed": 689479, "internal_node_id": "0.0-4.0-1.0-3.0"}}, {"uniqueid": "w33159277:a74683364", "current_trial": 13, "dateTime": 1691143058669, "trialdata": {"revealed_states": [], "clicked_states": [], "num_clicks_accrued": [0, 0, 0, 0, 0, 0, 0, 0, 0, 0, 0, 0, 0], "stateRewards": ["", 1, -3, 4, 13, -72, 52, 5, 5, -58, 5, 14, 2, 1, 3, -14, -86, -4, 73, 6, -58, -50, 49, 2, -3, -4, 2, 33, -41, 42, -11, 81, 45, 53], "withholdReward": false, "trial_id": "mdp_trial_5", "block": "test", "trialIndex": 6, "score": -51, "costs": 0, "simulationMode": [null, null, null, null, null], "rewards": [1, -3, 4, 5, -58], "path": ["0", "0", "1", "2", "3", "8", "9"], "rt": [1443, 3940, 1059, 1415, 1785], "actions": ["up", "up", "up", "left", "up"], "actionTimes": [3896, 8368, 9958, 11909, 14233], "queries": {"click": {"state": {"target": [], "time": []}, "edge": {"target": [], "time": []}}, "mouseover": {"state": {"target": [], "time": []}, "edge": {"target": [], "time": []}}, "mouseout": {"state": {"target": ["1", "0", "24", "29"], "time": [1018, 6195, 16364, 16580]}, "edge": {"target": [], "time": []}}}, "displayed_time": "16.46", "trialTime": 20247, "trial_type": "mouselab-mdp", "trial_index": 13, "time_elapsed": 711910, "internal_node_id": "0.0-4.0-1.0-4.0"}}, {"uniqueid": "w33159277:a74683364", "current_trial": 14, "dateTime": 1691143081272, "trialdata": {"revealed_states": [], "clicked_states": [], "num_clicks_accrued": [0, 0, 0, 0, 0, 0, 0, 0, 0, 0, 0, 0, 0], "stateRewards": ["", 2, 4, -5, 7, 81, 35, 6, 11, 14, -72, 42, -1, 2, 3, -7, -77, -44, -40, -15, -85, 51, -32, -2, -1, -5, 7, -74, 47, 52, 16, -49, 48, -46], "withholdReward": false, "trial_id": "mdp_trial_6", "block": "test", "trialIndex": 7, "score": -38, "costs": 0, "simulationMode": [null, null, null, null, null], "rewards": [-2, -1, -5, 16, -46], "path": ["0", "0", "23", "24", "25", "30", "33"], "rt": [2361, 885, 845, 961, 1218], "actions": ["left", "left", "left", "down", "left"], "actionTimes": [7041, 8517, 9893, 11394, 13152], "queries": {"click": {"state": {"target": [], "time": []}, "edge": {"target": [], "time": []}}, "mouseover": {"state": {"target": [], "time": []}, "edge": {"target": [], "time": []}}, "mouseout": {"state": {"target": ["7", "0"], "time": [2885, 3617]}, "edge": {"target": [], "time": []}}}, "displayed_time": "18.68", "trialTime": 20924, "trial_type": "mouselab-mdp", "trial_index": 14, "time_elapsed": 734513, "internal_node_id": "0.0-4.0-1.0-5.0"}}, {"uniqueid": "w33159277:a74683364", "current_trial": 15, "dateTime": 1691143102104, "trialdata": {"revealed_states": [], "clicked_states": [], "num_clicks_accrued": [0, 0, 0, 0, 0, 0, 0, 0, 0, 0, 0, 0, 0], "stateRewards": ["", -2, 1, -8, 12, -65, -79, 16, 7, -80, -17, -45, -2, 2, -5, -2, -85, 23, -4, -7, 48, 27, -76, 2, 3, 5, 2, 43, 71, -13, 7, -49, 59, -31], "withholdReward": false, "trial_id": "mdp_trial_7", "block": "test", "trialIndex": 8, "score": 16, "costs": 0, "simulationMode": [null, null, null, null, null], "rewards": [-2, 2, -5, -2, 23], "path": ["0", "0", "12", "13", "14", "15", "17"], "rt": [3392, 1793, 1185, 957, 2400], "actions": ["right", "right", "right", "up", "right"], "actionTimes": [5965, 8295, 10015, 11503, 14466], "queries": {"click": {"state": {"target": [], "time": []}, "edge": {"target": [], "time": []}}, "mouseover": {"state": {"target": [], "time": []}, "edge": {"target": [], "time": []}}, "mouseout": {"state": {"target": ["0", "0"], "time": [1135, 3754]}, "edge": {"target": [], "time": []}}}, "displayed_time": "16.58", "trialTime": 19095, "trial_type": "mouselab-mdp", "trial_index": 15, "time_elapsed": 755345, "internal_node_id": "0.0-4.0-1.0-6.0"}}, {"uniqueid": "w33159277:a74683364", "current_trial": 16, "dateTime": 1691143123050, "trialdata": {"revealed_states": [], "clicked_states": ["12"], "num_clicks_accrued": [0, 0, 0, 0, 0, 0, 0, 0, 0, 0, 0, 0, 0], "stateRewards": ["", -2, 4, -5, -12, 85, -24, -18, -15, -78, -22, 26, -1, -1, 2, 14, -45, 52, -23, 7, -33, 24, -6, -2, -4, 5, -7, -16, 36, -39, 5, 71, -87, -23], "withholdReward": false, "trial_id": "mdp_trial_8", "block": "test", "trialIndex": 9, "score": 29.6, "costs": -1.4, "simulationMode": [null, null, null, null, null], "rewards": [-1, -1, 2, 7, 24], "path": ["0", "0", "12", "13", "14", "19", "21"], "rt": [3194, 1090, 586, 884, 889], "actions": ["right", "right", "right", "down", "down"], "actionTimes": [5357, 7036, 8153, 9563, 10996], "queries": {"click": {"state": {"target": ["12"], "time": [3776]}, "edge": {"target": [], "time": []}}, "mouseover": {"state": {"target": ["22", "13", "12", "13", "13"], "time": [2265, 3002, 3374, 4288, 4439]}, "edge": {"target": [], "time": []}}, "mouseout": {"state": {"target": ["12", "0", "22", "13", "12", "13", "13"], "time": [652, 2257, 2919, 3069, 4236, 4330, 4496]}, "edge": {"target": [], "time": []}}}, "displayed_time": "16.17", "trialTime": 19279, "trial_type": "mouselab-mdp", "trial_index": 16, "time_elapsed": 776290, "internal_node_id": "0.0-4.0-1.0-7.0"}}, {"uniqueid": "w33159277:a74683364", "current_trial": 17, "dateTime": 1691143143590, "trialdata": {"revealed_states": [], "clicked_states": [], "num_clicks_accrued": [0, 0, 0, 0, 0, 0, 0, 0, 0, 0, 0, 0, 0], "stateRewards": ["", -2, 2, -4, -4, -59, 88, 62, -3, 69, -15, -34, 1, -2, -5, 7, -54, -20, 78, -16, -74, -53, -21, 2, -4, 2, 13, -8, -44, 26, 9, 72, 4, 17], "withholdReward": false, "trial_id": "mdp_trial_9", "block": "test", "trialIndex": 10, "score": 54, "costs": 0, "simulationMode": [null, null, null, null, null], "rewards": [-2, 2, -4, -4, 62], "path": ["0", "0", "1", "2", "3", "4", "7"], "rt": [1562, 1361, 906, 1090, 2118], "actions": ["up", "up", "up", "right", "down"], "actionTimes": [4094, 6003, 7448, 9069, 11752], "queries": {"click": {"state": {"target": [], "time": []}, "edge": {"target": [], "time": []}}, "mouseover": {"state": {"target": ["0"], "time": [2822]}, "edge": {"target": [], "time": []}}, "mouseout": {"state": {"target": ["0", "0"], "time": [1050, 13514]}, "edge": {"target": [], "time": []}}}, "displayed_time": "16.54", "trialTime": 18888, "trial_type": "mouselab-mdp", "trial_index": 17, "time_elapsed": 796831, "internal_node_id": "0.0-4.0-1.0-8.0"}}, {"uniqueid": "w33159277:a74683364", "current_trial": 18, "dateTime": 1691143168738, "trialdata": {"revealed_states": [], "clicked_states": ["1"], "num_clicks_accrued": [0, 0, 0, 0, 0, 0, 0, 0, 0, 0, 0, 0, 0], "stateRewards": ["", 1, -3, -2, 14, 49, -40, -39, 2, 26, -61, 73, 1, -4, -8, 12, 79, 29, -65, -13, 55, -26, 27, -1, 3, 3, 9, -17, -60, -18, -8, 35, -88, 69], "withholdReward": false, "trial_id": "mdp_trial_10", "block": "test", "trialIndex": 11, "score": 69.6, "costs": -1.4, "simulationMode": [null, null, null, null, null, null], "rewards": [1, -3, -2, 2, 73], "path": ["0", "0", "1", "2", "3", "8", "11"], "rt": [2737, 2756, 1196, 731, 898, 726], "actions": ["up", "up", "up", "up", "left", "left"], "actionTimes": [6986, 9757, 11496, 12806, 14281, 15558], "queries": {"click": {"state": {"target": ["1"], "time": [5612]}, "edge": {"target": [], "time": []}}, "mouseover": {"state": {"target": ["1", "1", "12"], "time": [5068, 5346, 6030]}, "edge": {"target": [], "time": []}}, "mouseout": {"state": {"target": ["0", "1", "1", "12", "12"], "time": [4999, 5185, 5722, 6098, 17379]}, "edge": {"target": [], "time": []}}}, "displayed_time": "18.26", "trialTime": 23393, "trial_type": "mouselab-mdp", "trial_index": 18, "time_elapsed": 821979, "internal_node_id": "0.0-4.0-1.0-9.0"}}, {"uniqueid": "w33159277:a74683364", "current_trial": 19, "dateTime": 1691143191800, "trialdata": {"revealed_states": [], "clicked_states": [], "num_clicks_accrued": [0, 0, 0, 0, 0, 0, 0, 0, 0, 0, 0, 0, 0], "stateRewards": ["", -1, 2, -2, 5, 80, -61, -27, 12, 44, -26, -75, -2, -4, 1, -16, 42, -49, -50, 4, -44, 2, 80, -2, -2, 5, -2, 59, 10, 24, 7, -48, -86, -44], "withholdReward": false, "trial_id": "mdp_trial_11", "block": "test", "trialIndex": 12, "score": 23, "costs": 0, "simulationMode": [null, null, null, null, null], "rewards": [-2, -2, 5, -2, 24], "path": ["0", "0", "23", "24", "25", "26", "29"], "rt": [3071, 542, 899, 1054, 773], "actions": ["left", "left", "left", "up", "left"], "actionTimes": [7732, 8840, 10278, 11869, 13174], "queries": {"click": {"state": {"target": [], "time": []}, "edge": {"target": [], "time": []}}, "mouseover": {"state": {"target": ["0", "12", "13", "13"], "time": [5201, 5369, 5833, 5985]}, "edge": {"target": [], "time": []}}, "mouseout": {"state": {"target": ["13", "12", "0", "12", "13", "13", "18", "15"], "time": [3184, 3235, 5336, 5420, 5856, 6007, 18398, 18465]}, "edge": {"target": [], "time": []}}}, "displayed_time": "18.66", "trialTime": 21265, "trial_type": "mouselab-mdp", "trial_index": 19, "time_elapsed": 845041, "internal_node_id": "0.0-4.0-1.0-10.0"}}, {"uniqueid": "w33159277:a74683364", "current_trial": 20, "dateTime": 1691143216054, "trialdata": {"revealed_states": [], "clicked_states": [], "num_clicks_accrued": [0, 0, 0, 0, 0, 0, 0, 0, 0, 0, 0, 0, 0], "stateRewards": ["", -2, -3, 4, 1, 33, -53, 15, 9, -12, 61, -6, -2, 4, 6, -11, 47, -43, -7, -11, 46, 23, -28, -1, -1, 3, -10, 11, 76, -76, 10, 18, -38, 87], "withholdReward": false, "trial_id": "mdp_trial_12", "block": "test", "trialIndex": 13, "score": 29, "costs": 0, "simulationMode": [null, null, null, null, null], "rewards": [-1, -1, 3, 10, 18], "path": ["0", "0", "23", "24", "25", "30", "31"], "rt": [2594, 631, 703, 694, 854], "actions": ["left", "left", "left", "down", "right"], "actionTimes": [7538, 8708, 9955, 11185, 12577], "queries": {"click": {"state": {"target": [], "time": []}, "edge": {"target": [], "time": []}}, "mouseover": {"state": {"target": [], "time": []}, "edge": {"target": [], "time": []}}, "mouseout": {"state": {"target": ["23", "0", "31", "30", "31", "32", "29", "27", "28", "23", "10", "11", "9", "11", "10", "5", "6", "7"], "time": [3040, 5607, 17639, 17838, 18007, 18121, 19057, 19288, 19907, 20039, 20221, 20272, 20687, 20821, 20987, 21704, 21904, 22038]}, "edge": {"target": [], "time": []}}}, "displayed_time": "18.94", "trialTime": 22530, "trial_type": "mouselab-mdp", "trial_index": 20, "time_elapsed": 869295, "internal_node_id": "0.0-4.0-1.0-11.0"}}, {"uniqueid": "w33159277:a74683364", "current_trial": 21, "dateTime": 1691143237321, "trialdata": {"revealed_states": [], "clicked_states": [], "num_clicks_accrued": [0, 0, 0, 0, 0, 0, 0, 0, 0, 0, 0, 0, 0], "stateRewards": ["", -2, 2, -1, -6, 22, 6, 6, -5, 70, -42, 65, 1, 3, 5, -6, -67, -9, 3, 14, 7, -62, -13, -2, 4, 1, 16, 42, -21, -52, -8, 32, 53, 81], "withholdReward": false, "trial_id": "mdp_trial_13", "block": "test", "trialIndex": 14, "score": -1, "costs": 0, "simulationMode": [null, null, null, null, null], "rewards": [-2, 2, -1, -6, 6], "path": ["0", "0", "1", "2", "3", "4", "6"], "rt": [1992, 1047, 754, 2126, 1403], "actions": ["up", "up", "up", "right", "right"], "actionTimes": [4647, 6222, 7515, 10171, 12117], "queries": {"click": {"state": {"target": [], "time": []}, "edge": {"target": [], "time": []}}, "mouseover": {"state": {"target": [], "time": []}, "edge": {"target": [], "time": []}}, "mouseout": {"state": {"target": ["7", "1", "0", "15"], "time": [940, 1174, 2783, 15339]}, "edge": {"target": [], "time": []}}}, "displayed_time": "16.66", "trialTime": 19387, "trial_type": "mouselab-mdp", "trial_index": 21, "time_elapsed": 890561, "internal_node_id": "0.0-4.0-1.0-12.0"}}, {"uniqueid": "w33159277:a74683364", "current_trial": 22, "dateTime": 1691143263354, "trialdata": {"revealed_states": [], "clicked_states": [], "num_clicks_accrued": [0, 0, 0, 0, 0, 0, 0, 0, 0, 0, 0, 0, 0], "stateRewards": ["", 1, 1, 4, 11, 83, -66, 18, -16, -23, 5, 25, 1, -3, 1, -12, 18, 24, -86, -11, -64, 36, 40, 2, 1, -6, 13, 55, 29, 72, -2, 81, -72, -41], "withholdReward": false, "trial_id": "mdp_trial_14", "block": "test", "trialIndex": 15, "score": 5, "costs": 0, "simulationMode": [null, null, null, null, null], "rewards": [1, -3, 1, -12, 18], "path": ["0", "0", "12", "13", "14", "15", "16"], "rt": [1684, 1045, 1407, 829, 1974], "actions": ["right", "right", "right", "up", "up"], "actionTimes": [4683, 6268, 8237, 9601, 12121], "queries": {"click": {"state": {"target": [], "time": []}, "edge": {"target": [], "time": []}}, "mouseover": {"state": {"target": [], "time": []}, "edge": {"target": [], "time": []}}, "mouseout": {"state": {"target": ["12", "0", "13", "22", "19"], "time": [802, 3521, 14399, 18416, 18453]}, "edge": {"target": [], "time": []}}}, "displayed_time": "17.00", "trialTime": 24286, "trial_type": "mouselab-mdp", "trial_index": 22, "time_elapsed": 916595, "internal_node_id": "0.0-4.0-1.0-13.0"}}, {"uniqueid": "w33159277:a74683364", "current_trial": 23, "dateTime": 1691143285836, "trialdata": {"revealed_states": [], "clicked_states": [], "num_clicks_accrued": [0, 0, 0, 0, 0, 0, 0, 0, 0, 0, 0, 0, 0], "stateRewards": ["", -2, -4, -2, -13, -15, 87, -19, -6, -80, 30, 12, 1, 1, -8, 2, 55, 56, 15, 11, -68, -7, 55, -2, 3, -3, -3, 48, 62, 4, 1, -3, 69, -33], "withholdReward": false, "trial_id": "mdp_trial_15", "block": "test", "trialIndex": 16, "score": 60, "costs": 0, "simulationMode": [null, null, null, null, null], "rewards": [1, 1, -8, 11, 55], "path": ["0", "0", "12", "13", "14", "19", "22"], "rt": [2574, 1194, 2337, 1793, 1118], "actions": ["right", "right", "right", "down", "left"], "actionTimes": [5858, 7605, 10501, 12815, 14497], "queries": {"click": {"state": {"target": [], "time": []}, "edge": {"target": [], "time": []}}, "mouseover": {"state": {"target": ["12", "13", "14", "15", "18", "13"], "time": [4187, 4242, 4302, 4632, 4678, 5047]}, "edge": {"target": [], "time": []}}, "mouseout": {"state": {"target": ["15", "18", "0", "12", "13", "14", "15", "18", "13"], "time": [979, 1065, 4164, 4213, 4266, 4335, 4654, 4702, 18337]}, "edge": {"target": [], "time": []}}}, "displayed_time": "17.29", "trialTime": 20455, "trial_type": "mouselab-mdp", "trial_index": 23, "time_elapsed": 939076, "internal_node_id": "0.0-4.0-1.0-14.0"}}, {"uniqueid": "w33159277:a74683364", "current_trial": 24, "dateTime": 1691143309425, "trialdata": {"revealed_states": [], "clicked_states": [], "num_clicks_accrued": [0, 0, 0, 0, 0, 0, 0, 0, 0, 0, 0, 0, 0], "stateRewards": ["", -1, -3, -6, 14, 41, 18, 63, -14, 80, 21, 17, -2, -4, -2, -5, 13, 70, 8, -4, -64, -10, -20, 2, -1, 4, -1, -17, -55, 42, -7, 47, 54, 15], "withholdReward": false, "trial_id": "mdp_trial_16", "block": "test", "trialIndex": 17, "score": -51, "costs": 0, "simulationMode": [null, null, null, null, null], "rewards": [2, -1, 4, -1, -55], "path": ["0", "0", "23", "24", "25", "26", "28"], "rt": [2270, 748, 682, 993, 1295], "actions": ["left", "left", "left", "up", "right"], "actionTimes": [7424, 8726, 9940, 11491, 13338], "queries": {"click": {"state": {"target": [], "time": []}, "edge": {"target": [], "time": []}}, "mouseover": {"state": {"target": [], "time": []}, "edge": {"target": [], "time": []}}, "mouseout": {"state": {"target": ["15", "16", "23", "0", "0", "13", "14", "14", "13", "12"], "time": [2693, 3110, 3277, 3611, 18543, 18775, 18943, 19658, 19792, 20779]}, "edge": {"target": [], "time": []}}}, "displayed_time": "19.16", "trialTime": 21496, "trial_type": "mouselab-mdp", "trial_index": 24, "time_elapsed": 962665, "internal_node_id": "0.0-4.0-1.0-15.0"}}, {"uniqueid": "w33159277:a74683364", "current_trial": 25, "dateTime": 1691143337070, "trialdata": {"revealed_states": [], "clicked_states": [], "num_clicks_accrued": [0, 0, 0, 0, 0, 0, 0, 0, 0, 0, 0, 0, 0], "stateRewards": ["", -2, -3, -5, 8, 27, 11, 43, -6, -24, -87, 69, -2, 1, 1, 9, 19, 48, -37, 9, -14, 45, 62, 1, 2, 1, 16, -81, -41, 22, 4, -6, -63, 47], "withholdReward": false, "trial_id": "mdp_trial_17", "block": "test", "trialIndex": 18, "score": -103, "costs": 0, "simulationMode": [null, null, null, null, null], "rewards": [-2, -3, -5, -6, -87], "path": ["0", "0", "1", "2", "3", "8", "10"], "rt": [3022, 1041, 1261, 1946, 2663], "actions": ["up", "up", "up", "left", "down"], "actionTimes": [8545, 10142, 11946, 14439, 17670], "queries": {"click": {"state": {"target": [], "time": []}, "edge": {"target": [], "time": []}}, "mouseover": {"state": {"target": ["19", "19"], "time": [5732, 5833]}, "edge": {"target": [], "time": []}}, "mouseout": {"state": {"target": ["0", "12", "13", "14", "13", "12", "19", "19", "19", "20", "21"], "time": [1638, 2115, 2148, 3921, 4001, 4033, 5782, 5933, 24461, 24544, 24926]}, "edge": {"target": [], "time": []}}}, "displayed_time": "19.52", "trialTime": 25819, "trial_type": "mouselab-mdp", "trial_index": 25, "time_elapsed": 990311, "internal_node_id": "0.0-4.0-1.0-16.0"}}, {"uniqueid": "w33159277:a74683364", "current_trial": 26, "dateTime": 1691143358565, "trialdata": {"revealed_states": [], "clicked_states": [], "num_clicks_accrued": [0, 0, 0, 0, 0, 0, 0, 0, 0, 0, 0, 0, 0], "stateRewards": ["", -2, -4, 6, 14, -34, 49, 36, -8, -3, 32, -4, 1, -2, 1, -8, -20, -71, -57, -7, -86, -62, -16, -2, -3, -5, 11, 23, -21, 53, 5, -5, 85, 73], "withholdReward": false, "trial_id": "mdp_trial_18", "block": "test", "trialIndex": 19, "score": -10, "costs": 0, "simulationMode": [null, null, null, null, null], "rewards": [-2, -3, -5, 5, -5], "path": ["0", "0", "23", "24", "25", "30", "31"], "rt": [1884, 2280, 1103, 833, 1401], "actions": ["left", "left", "left", "down", "right"], "actionTimes": [4994, 7831, 9495, 10880, 12822], "queries": {"click": {"state": {"target": [], "time": []}, "edge": {"target": [], "time": []}}, "mouseover": {"state": {"target": ["12"], "time": [3652]}, "edge": {"target": [], "time": []}}, "mouseout": {"state": {"target": ["22", "0", "12"], "time": [1201, 3603, 3687]}, "edge": {"target": [], "time": []}}}, "displayed_time": "17.11", "trialTime": 19758, "trial_type": "mouselab-mdp", "trial_index": 26, "time_elapsed": 1011806, "internal_node_id": "0.0-4.0-1.0-17.0"}}, {"uniqueid": "w33159277:a74683364", "current_trial": 27, "dateTime": 1691143380567, "trialdata": {"revealed_states": [], "clicked_states": [], "num_clicks_accrued": [0, 0, 0, 0, 0, 0, 0, 0, 0, 0, 0, 0, 0], "stateRewards": ["", 2, -1, 5, 6, 10, 86, 55, 10, -45, 63, -71, 1, -2, 5, -8, -50, -72, 36, 15, 61, 12, 33, -1, -4, 6, 5, 79, -56, -21, -16, -87, 60, -81], "withholdReward": false, "trial_id": "mdp_trial_19", "block": "test", "trialIndex": 20, "score": 31, "costs": 0, "simulationMode": [null, null, null, null, null], "rewards": [1, -2, 5, 15, 12], "path": ["0", "0", "12", "13", "14", "19", "21"], "rt": [1662, 1686, 1450, 1222, 780], "actions": ["right", "right", "right", "down", "down"], "actionTimes": [4462, 6697, 8682, 10442, 11951], "queries": {"click": {"state": {"target": [], "time": []}, "edge": {"target": [], "time": []}}, "mouseover": {"state": {"target": [], "time": []}, "edge": {"target": [], "time": []}}, "mouseout": {"state": {"target": ["13", "12", "0"], "time": [821, 1183, 19065]}, "edge": {"target": [], "time": []}}}, "displayed_time": "16.80", "trialTime": 19966, "trial_type": "mouselab-mdp", "trial_index": 27, "time_elapsed": 1033808, "internal_node_id": "0.0-4.0-1.0-18.0"}}, {"uniqueid": "w33159277:a74683364", "current_trial": 28, "dateTime": 1691143407828, "trialdata": {"revealed_states": [], "clicked_states": [], "num_clicks_accrued": [0, 0, 0, 0, 0, 0, 0, 0, 0, 0, 0, 0, 0], "stateRewards": ["", -2, -3, 7, -13, 60, 9, 37, -6, 37, 20, 1, 2, -2, -8, 6, -80, -31, -10, -7, 70, -65, -44, -1, 1, 7, 6, -11, 73, -85, 16, -21, 47, 34], "withholdReward": false, "trial_id": "mdp_trial_20", "block": "test", "trialIndex": 21, "score": 86, "costs": 0, "simulationMode": [null, null, null, null, null], "rewards": [-1, 1, 7, 6, 73], "path": ["0", "0", "23", "24", "25", "26", "28"], "rt": [2055, 1711, 980, 2026, 3054], "actions": ["left", "left", "left", "up", "right"], "actionTimes": [5383, 7639, 9166, 11813, 15400], "queries": {"click": {"state": {"target": [], "time": []}, "edge": {"target": [], "time": []}}, "mouseover": {"state": {"target": [], "time": []}, "edge": {"target": [], "time": []}}, "mouseout": {"state": {"target": ["0", "0", "1", "12", "22"], "time": [1217, 20279, 20445, 20561, 21145]}, "edge": {"target": [], "time": []}}}, "displayed_time": "17.34", "trialTime": 22896, "trial_type": "mouselab-mdp", "trial_index": 28, "time_elapsed": 1061068, "internal_node_id": "0.0-4.0-1.0-19.0"}}, {"uniqueid": "w33159277:a74683364", "current_trial": 29, "dateTime": 1691143429322, "trialdata": {"revealed_states": [], "clicked_states": [], "num_clicks_accrued": [0, 0, 0, 0, 0, 0, 0, 0, 0, 0, 0, 0, 0], "stateRewards": ["", -2, 3, -1, 2, -72, 63, 20, -1, 62, -66, 39, -2, 3, -6, 14, 22, 47, 1, 8, -49, -1, -41, 2, 2, -6, -16, -64, -60, -34, 16, 54, 22, -7], "withholdReward": false, "trial_id": "mdp_trial_21", "block": "test", "trialIndex": 22, "score": 22, "costs": 0, "simulationMode": [null, null, null, null, null], "rewards": [-2, 3, -1, 2, 20], "path": ["0", "0", "1", "2", "3", "4", "7"], "rt": [1813, 1354, 2212, 1985, 1716], "actions": ["up", "up", "up", "right", "down"], "actionTimes": [4961, 6887, 9635, 12167, 14427], "queries": {"click": {"state": {"target": [], "time": []}, "edge": {"target": [], "time": []}}, "mouseover": {"state": {"target": [], "time": []}, "edge": {"target": [], "time": []}}, "mouseout": {"state": {"target": ["0"], "time": [18465]}, "edge": {"target": [], "time": []}}}, "displayed_time": "17.15", "trialTime": 19767, "trial_type": "mouselab-mdp", "trial_index": 29, "time_elapsed": 1082563, "internal_node_id": "0.0-4.0-1.0-20.0"}}, {"uniqueid": "w33159277:a74683364", "current_trial": 30, "dateTime": 1691143452758, "trialdata": {"revealed_states": [], "clicked_states": [], "num_clicks_accrued": [0, 0, 0, 0, 0, 0, 0, 0, 0, 0, 0, 0, 0], "stateRewards": ["", 1, -2, 4, 7, -43, -83, -60, -5, -86, -80, 83, -1, -2, 6, 11, -15, 21, 13, 9, 29, -49, 11, -1, 4, -6, -11, 87, 40, 63, -8, -39, -11, 62], "withholdReward": false, "trial_id": "mdp_trial_22", "block": "test", "trialIndex": 23, "score": 35, "costs": 0, "simulationMode": [null, null, null, null, null], "rewards": [-1, -2, 6, 11, 21], "path": ["0", "0", "12", "13", "14", "15", "17"], "rt": [1998, 660, 1083, 975, 1852], "actions": ["right", "right", "right", "up", "right"], "actionTimes": [6709, 7921, 9541, 11058, 13466], "queries": {"click": {"state": {"target": [], "time": []}, "edge": {"target": [], "time": []}}, "mouseover": {"state": {"target": [], "time": []}, "edge": {"target": [], "time": []}}, "mouseout": {"state": {"target": ["0", "14"], "time": [5617, 16695]}, "edge": {"target": [], "time": []}}}, "displayed_time": "18.71", "trialTime": 21522, "trial_type": "mouselab-mdp", "trial_index": 30, "time_elapsed": 1105999, "internal_node_id": "0.0-4.0-1.0-21.0"}}, {"uniqueid": "w33159277:a74683364", "current_trial": 31, "dateTime": 1691143477558, "trialdata": {"revealed_states": [], "clicked_states": [], "num_clicks_accrued": [0, 0, 0, 0, 0, 0, 0, 0, 0, 0, 0, 0, 0], "stateRewards": ["", -1, -2, 4, 9, 10, -75, 39, 16, -43, 88, -19, -1, 1, 2, 4, -31, 10, 73, 12, 41, -64, -81, -2, 2, -6, 1, -81, -1, -26, 3, -59, -3, -20], "withholdReward": false, "trial_id": "mdp_trial_23", "block": "test", "trialIndex": 24, "score": -67, "costs": 0, "simulationMode": [null, null, null, null, null], "rewards": [-1, 1, 2, 12, -81], "path": ["0", "0", "12", "13", "14", "19", "22"], "rt": [1885, 2374, 1800, 619, 1320], "actions": ["right", "right", "right", "down", "left"], "actionTimes": [6989, 9902, 12246, 13437, 15285], "queries": {"click": {"state": {"target": [], "time": []}, "edge": {"target": [], "time": []}}, "mouseover": {"state": {"target": [], "time": []}, "edge": {"target": [], "time": []}}, "mouseout": {"state": {"target": ["0"], "time": [3670]}, "edge": {"target": [], "time": []}}}, "displayed_time": "19.11", "trialTime": 23001, "trial_type": "mouselab-mdp", "trial_index": 31, "time_elapsed": 1130799, "internal_node_id": "0.0-4.0-1.0-22.0"}}, {"uniqueid": "w33159277:a74683364", "current_trial": 32, "dateTime": 1691143502167, "trialdata": {"revealed_states": [], "clicked_states": [], "num_clicks_accrued": [0, 0, 0, 0, 0, 0, 0, 0, 0, 0, 0, 0, 0], "stateRewards": ["", 1, 4, -4, 14, 35, 51, 19, -13, 54, 78, -74, -2, -1, -3, 13, -11, -42, -73, -15, -24, -3, -69, 2, -1, 5, 16, -27, 73, 58, 9, -60, 5, -60], "withholdReward": false, "trial_id": "mdp_trial_24", "block": "test", "trialIndex": 25, "score": -45, "costs": 0, "simulationMode": [null, null, null, null, null], "rewards": [-2, -1, -3, -15, -24], "path": ["0", "0", "12", "13", "14", "19", "20"], "rt": [1439, 3401, 2019, 2225, 2099], "actions": ["right", "right", "right", "down", "right"], "actionTimes": [5396, 9332, 11881, 14655, 17305], "queries": {"click": {"state": {"target": [], "time": []}, "edge": {"target": [], "time": []}}, "mouseover": {"state": {"target": [], "time": []}, "edge": {"target": [], "time": []}}, "mouseout": {"state": {"target": ["0", "1", "0", "0"], "time": [1950, 2582, 2946, 21212]}, "edge": {"target": [], "time": []}}}, "displayed_time": "17.97", "trialTime": 22557, "trial_type": "mouselab-mdp", "trial_index": 32, "time_elapsed": 1155406, "internal_node_id": "0.0-4.0-1.0-23.0"}}, {"uniqueid": "w33159277:a74683364", "current_trial": 33, "dateTime": 1691143523080, "trialdata": {"revealed_states": [], "clicked_states": [], "num_clicks_accrued": [0, 0, 0, 0, 0, 0, 0, 0, 0, 0, 0, 0, 0], "stateRewards": ["", -1, 2, -6, 6, 43, 78, 78, -2, 55, -29, -17, -2, -4, 1, -15, 13, 7, -79, 8, -28, -68, 36, -1, -3, 3, -16, 84, -18, 87, 10, 32, 13, -81], "withholdReward": false, "trial_id": "mdp_trial_25", "block": "test", "trialIndex": 26, "score": -35, "costs": 0, "simulationMode": [null, null, null, null, null], "rewards": [-1, -3, 3, -16, -18], "path": ["0", "0", "23", "24", "25", "26", "28"], "rt": [2493, 2252, 1626, 680, 590], "actions": ["left", "left", "left", "up", "right"], "actionTimes": [5501, 8304, 10481, 11710, 12864], "queries": {"click": {"state": {"target": [], "time": []}, "edge": {"target": [], "time": []}}, "mouseover": {"state": {"target": [], "time": []}, "edge": {"target": [], "time": []}}, "mouseout": {"state": {"target": ["0", "12"], "time": [16085, 17087]}, "edge": {"target": [], "time": []}}}, "displayed_time": "17.01", "trialTime": 19037, "trial_type": "mouselab-mdp", "trial_index": 33, "time_elapsed": 1176321, "internal_node_id": "0.0-4.0-1.0-24.0"}}, {"uniqueid": "w33159277:a74683364", "current_trial": 34, "dateTime": 1691143547760, "trialdata": {"revealed_states": [], "clicked_states": [], "num_clicks_accrued": [0, 0, 0, 0, 0, 0, 0, 0, 0, 0, 0, 0, 0], "stateRewards": ["", -1, 3, 8, 10, -86, 61, -36, 10, 17, -60, 24, -1, -3, 3, 11, 50, 60, 33, -3, -20, 58, -6, 1, -4, -4, 13, -70, -71, 43, 14, 52, 82, -11], "withholdReward": false, "trial_id": "mdp_trial_26", "block": "test", "trialIndex": 27, "score": -4, "costs": 0, "simulationMode": [null, null, null, null, null], "rewards": [1, -4, -4, 14, -11], "path": ["0", "0", "23", "24", "25", "30", "33"], "rt": [2063, 2403, 2124, 456, 1689], "actions": ["left", "left", "left", "down", "left"], "actionTimes": [5909, 8876, 11590, 12596, 14813], "queries": {"click": {"state": {"target": [], "time": []}, "edge": {"target": [], "time": []}}, "mouseover": {"state": {"target": [], "time": []}, "edge": {"target": [], "time": []}}, "mouseout": {"state": {"target": ["0", "12"], "time": [21091, 21806]}, "edge": {"target": [], "time": []}}}, "displayed_time": "17.85", "trialTime": 22711, "trial_type": "mouselab-mdp", "trial_index": 34, "time_elapsed": 1201001, "internal_node_id": "0.0-4.0-1.0-25.0"}}, {"uniqueid": "w33159277:a74683364", "current_trial": 35, "dateTime": 1691143570478, "trialdata": {"revealed_states": [], "clicked_states": [], "num_clicks_accrued": [0, 0, 0, 0, 0, 0, 0, 0, 0, 0, 0, 0, 0], "stateRewards": ["", 2, 3, -2, -8, -8, -41, 74, 15, -23, -80, 1, 1, 3, 3, -15, -63, -78, 67, 13, 75, -41, 86, 2, -2, 6, -3, -8, -49, 50, -6, 83, 74, 80], "withholdReward": false, "trial_id": "mdp_trial_27", "block": "test", "trialIndex": 28, "score": 95, "costs": 0, "simulationMode": [null, null, null, null, null], "rewards": [1, 3, 3, 13, 75], "path": ["0", "0", "12", "13", "14", "19", "20"], "rt": [2151, 952, 952, 671, 1055], "actions": ["right", "right", "right", "down", "right"], "actionTimes": [5724, 7204, 8689, 9916, 11560], "queries": {"click": {"state": {"target": [], "time": []}, "edge": {"target": [], "time": []}}, "mouseover": {"state": {"target": [], "time": []}, "edge": {"target": [], "time": []}}, "mouseout": {"state": {"target": ["15", "1", "0"], "time": [1153, 1357, 19584]}, "edge": {"target": [], "time": []}}}, "displayed_time": "17.57", "trialTime": 20845, "trial_type": "mouselab-mdp", "trial_index": 35, "time_elapsed": 1223718, "internal_node_id": "0.0-4.0-1.0-26.0"}}, {"uniqueid": "w33159277:a74683364", "current_trial": 36, "dateTime": 1691143594517, "trialdata": {"revealed_states": [], "clicked_states": [], "num_clicks_accrued": [0, 0, 0, 0, 0, 0, 0, 0, 0, 0, 0, 0, 0], "stateRewards": ["", -2, -3, -7, 7, -54, -69, -4, -14, -77, 22, 40, -2, -1, 5, 6, -35, 50, -60, 10, -28, 75, 57, 1, -4, -2, 2, 68, 34, -18, 12, 3, -21, -43], "withholdReward": false, "trial_id": "mdp_trial_28", "block": "test", "trialIndex": 29, "score": -59, "costs": 0, "simulationMode": [null, null, null, null, null], "rewards": [-2, -3, -7, 7, -54], "path": ["0", "0", "1", "2", "3", "4", "5"], "rt": [4231, 1071, 1453, 1140, 2929], "actions": ["up", "up", "up", "right", "up"], "actionTimes": [7160, 9959, 11959, 14021, 17489], "queries": {"click": {"state": {"target": [], "time": []}, "edge": {"target": [], "time": []}}, "mouseover": {"state": {"target": [], "time": []}, "edge": {"target": [], "time": []}}, "mouseout": {"state": {"target": ["0"], "time": [20939]}, "edge": {"target": [], "time": []}}}, "displayed_time": "18.04", "trialTime": 21882, "trial_type": "mouselab-mdp", "trial_index": 36, "time_elapsed": 1247757, "internal_node_id": "0.0-4.0-1.0-27.0"}}, {"uniqueid": "w33159277:a74683364", "current_trial": 37, "dateTime": 1691143620054, "trialdata": {"revealed_states": [], "clicked_states": [], "num_clicks_accrued": [0, 0, 0, 0, 0, 0, 0, 0, 0, 0, 0, 0, 0], "stateRewards": ["", 1, -4, -6, 11, -20, 8, -30, 1, -38, 88, 42, 2, 3, 5, -12, -8, -74, 30, -8, 67, -19, 42, 2, -1, 4, 13, 50, -68, 2, -8, -15, 87, -46], "withholdReward": false, "trial_id": "mdp_trial_29", "block": "test", "trialIndex": 30, "score": -46, "costs": 0, "simulationMode": [null, null, null, null, null], "rewards": [1, -4, -6, 1, -38], "path": ["0", "0", "1", "2", "3", "8", "9"], "rt": [1773, 1266, 1110, 1047, 1800], "actions": ["up", "up", "up", "left", "up"], "actionTimes": [7970, 9773, 11416, 13014, 15362], "queries": {"click": {"state": {"target": [], "time": []}, "edge": {"target": [], "time": []}}, "mouseover": {"state": {"target": [], "time": []}, "edge": {"target": [], "time": []}}, "mouseout": {"state": {"target": ["0", "0", "12"], "time": [4367, 19817, 23182]}, "edge": {"target": [], "time": []}}}, "displayed_time": "20.20", "trialTime": 23650, "trial_type": "mouselab-mdp", "trial_index": 37, "time_elapsed": 1273294, "internal_node_id": "0.0-4.0-1.0-28.0"}}, {"uniqueid": "w33159277:a74683364", "current_trial": 38, "dateTime": 1691143641493, "trialdata": {"revealed_states": [], "clicked_states": [], "num_clicks_accrued": [0, 0, 0, 0, 0, 0, 0, 0, 0, 0, 0, 0, 0], "stateRewards": ["", -2, 3, -5, -7, 66, 43, -60, -4, -70, -75, 4, -1, 2, 2, -13, 54, 11, -40, -1, 77, 32, 15, -2, 3, -8, -9, -35, 83, -27, 6, -74, -34, 44], "withholdReward": false, "trial_id": "mdp_trial_30", "block": "test", "trialIndex": 31, "score": -75, "costs": 0, "simulationMode": [null, null, null, null, null], "rewards": [-2, 3, -8, 6, -74], "path": ["0", "0", "23", "24", "25", "30", "31"], "rt": [1775, 2880, 932, 871, 1254], "actions": ["left", "left", "left", "down", "right"], "actionTimes": [5214, 8659, 10136, 11540, 13344], "queries": {"click": {"state": {"target": [], "time": []}, "edge": {"target": [], "time": []}}, "mouseover": {"state": {"target": [], "time": []}, "edge": {"target": [], "time": []}}, "mouseout": {"state": {"target": ["12", "0"], "time": [1129, 18382]}, "edge": {"target": [], "time": []}}}, "displayed_time": "17.45", "trialTime": 19558, "trial_type": "mouselab-mdp", "trial_index": 38, "time_elapsed": 1294734, "internal_node_id": "0.0-4.0-1.0-29.0"}}, {"uniqueid": "w33159277:a74683364", "current_trial": 39, "dateTime": 1691143664623, "trialdata": {"revealed_states": [], "clicked_states": [], "num_clicks_accrued": [0, 0, 0, 0, 0, 0, 0, 0, 0, 0, 0, 0, 0], "stateRewards": ["", -1, 1, 8, -3, -24, 11, -65, -6, -77, 48, 44, -2, 1, -2, -7, -55, -35, 33, 8, -28, 19, -53, -1, -1, -5, -5, -70, 10, 44, 8, -58, -70, 51], "withholdReward": false, "trial_id": "mdp_trial_31", "block": "test", "trialIndex": 32, "score": -69, "costs": 0, "simulationMode": [null, null, null, null, null], "rewards": [-1, -1, -5, 8, -70], "path": ["0", "0", "23", "24", "25", "30", "32"], "rt": [1889, 973, 1138, 727, 1520], "actions": ["left", "left", "left", "down", "down"], "actionTimes": [7331, 8847, 10569, 11828, 13899], "queries": {"click": {"state": {"target": [], "time": []}, "edge": {"target": [], "time": []}}, "mouseover": {"state": {"target": [], "time": []}, "edge": {"target": [], "time": []}}, "mouseout": {"state": {"target": ["0", "12", "13"], "time": [19482, 19559, 20531]}, "edge": {"target": [], "time": []}}}, "displayed_time": "19.44", "trialTime": 21258, "trial_type": "mouselab-mdp", "trial_index": 39, "time_elapsed": 1317863, "internal_node_id": "0.0-4.0-1.0-30.0"}}, {"uniqueid": "w33159277:a74683364", "current_trial": 40, "dateTime": 1691143687384, "trialdata": {"revealed_states": [], "clicked_states": [], "num_clicks_accrued": [0, 0, 0, 0, 0, 0, 0, 0, 0, 0, 0, 0, 0], "stateRewards": ["", -2, -3, -3, 9, 79, 67, 22, -15, -56, 27, -85, -2, 4, -4, -15, -20, -32, 60, 15, 71, 57, 17, 1, 2, -8, 15, -37, -81, 82, 15, 21, -3, 2], "withholdReward": false, "trial_id": "mdp_trial_32", "block": "test", "trialIndex": 33, "score": 84, "costs": 0, "simulationMode": [null, null, null, null, null], "rewards": [-2, 4, -4, 15, 71], "path": ["0", "0", "12", "13", "14", "19", "20"], "rt": [1484, 1138, 1018, 604, 909], "actions": ["right", "right", "right", "down", "right"], "actionTimes": [5696, 7387, 8945, 10212, 11734], "queries": {"click": {"state": {"target": [], "time": []}, "edge": {"target": [], "time": []}}, "mouseover": {"state": {"target": [], "time": []}, "edge": {"target": [], "time": []}}, "mouseout": {"state": {"target": ["12", "0", "12", "28", "26", "10", "16", "14"], "time": [1111, 16372, 16445, 16835, 16863, 17102, 17151, 18684]}, "edge": {"target": [], "time": []}}}, "displayed_time": "18.21", "trialTime": 20201, "trial_type": "mouselab-mdp", "trial_index": 40, "time_elapsed": 1340625, "internal_node_id": "0.0-4.0-1.0-31.0"}}, {"uniqueid": "w33159277:a74683364", "current_trial": 41, "dateTime": 1691143707687, "trialdata": {"revealed_states": [], "clicked_states": [], "num_clicks_accrued": [0, 0, 0, 0, 0, 0, 0, 0, 0, 0, 0, 0, 0], "stateRewards": ["", -2, 1, -7, 9, 8, 25, 61, -7, -17, 69, -81, 1, 4, -4, -11, 16, 67, 44, 3, 6, -45, -54, -2, 3, 6, -11, -15, 32, -47, 3, -39, -6, -88], "withholdReward": false, "trial_id": "mdp_trial_33", "block": "test", "trialIndex": 34, "score": 57, "costs": 0, "simulationMode": [null, null, null, null, null], "rewards": [1, 4, -4, -11, 67], "path": ["0", "0", "12", "13", "14", "15", "17"], "rt": [1771, 1303, 1273, 674, 1691], "actions": ["right", "right", "right", "up", "right"], "actionTimes": [4353, 6201, 8018, 9234, 11472], "queries": {"click": {"state": {"target": [], "time": []}, "edge": {"target": [], "time": []}}, "mouseover": {"state": {"target": [], "time": []}, "edge": {"target": [], "time": []}}, "mouseout": {"state": {"target": ["13", "12", "0", "14", "14", "12"], "time": [959, 1141, 16257, 16372, 16556, 16755]}, "edge": {"target": [], "time": []}}}, "displayed_time": "16.59", "trialTime": 18479, "trial_type": "mouselab-mdp", "trial_index": 41, "time_elapsed": 1360928, "internal_node_id": "0.0-4.0-1.0-32.0"}}, {"uniqueid": "w33159277:a74683364", "current_trial": 42, "dateTime": 1691143728927, "trialdata": {"revealed_states": [], "clicked_states": [], "num_clicks_accrued": [0, 0, 0, 0, 0, 0, 0, 0, 0, 0, 0, 0, 0], "stateRewards": ["", 1, 2, 7, 13, 88, -71, 27, 3, 60, 5, -53, -2, 2, -6, -1, -30, 79, 47, -4, -14, 46, 68, 1, 1, 8, 10, -14, 86, 48, -11, -67, -44, 5], "withholdReward": false, "trial_id": "mdp_trial_34", "block": "test", "trialIndex": 35, "score": 68, "costs": 0, "simulationMode": [null, null, null, null, null], "rewards": [1, 1, 8, 10, 48], "path": ["0", "0", "23", "24", "25", "26", "29"], "rt": [2261, 1483, 1335, 1050, 1822], "actions": ["left", "left", "left", "up", "left"], "actionTimes": [4819, 6854, 8742, 10337, 12712], "queries": {"click": {"state": {"target": [], "time": []}, "edge": {"target": [], "time": []}}, "mouseover": {"state": {"target": [], "time": []}, "edge": {"target": [], "time": []}}, "mouseout": {"state": {"target": ["0", "0", "0", "12", "13", "14"], "time": [1326, 17158, 17290, 17341, 17407, 17690]}, "edge": {"target": [], "time": []}}}, "displayed_time": "16.56", "trialTime": 19379, "trial_type": "mouselab-mdp", "trial_index": 42, "time_elapsed": 1382168, "internal_node_id": "0.0-4.0-1.0-33.0"}}, {"uniqueid": "w33159277:a74683364", "current_trial": 43, "dateTime": 1691143750741, "trialdata": {"revealed_states": [], "clicked_states": [], "num_clicks_accrued": [0, 0, 0, 0, 0, 0, 0, 0, 0, 0, 0, 0, 0], "stateRewards": ["", 1, 4, -8, -13, -13, -87, -77, -10, -44, 54, 42, 2, -3, -4, 12, -9, -80, 52, 9, 84, -2, -65, 1, -4, -5, -6, 8, 80, 32, 13, -59, -5, -13], "withholdReward": false, "trial_id": "mdp_trial_35", "block": "test", "trialIndex": 36, "score": -93, "costs": 0, "simulationMode": [null, null, null, null, null], "rewards": [1, 4, -8, -13, -77], "path": ["0", "0", "1", "2", "3", "4", "7"], "rt": [2171, 986, 1401, 844, 1483], "actions": ["up", "up", "up", "right", "down"], "actionTimes": [4903, 6439, 8374, 9780, 11805], "queries": {"click": {"state": {"target": [], "time": []}, "edge": {"target": [], "time": []}}, "mouseover": {"state": {"target": ["23"], "time": [3209]}, "edge": {"target": [], "time": []}}, "mouseout": {"state": {"target": ["12", "0", "0", "23"], "time": [903, 969, 3172, 3237]}, "edge": {"target": [], "time": []}}}, "displayed_time": "16.73", "trialTime": 19557, "trial_type": "mouselab-mdp", "trial_index": 43, "time_elapsed": 1403982, "internal_node_id": "0.0-4.0-1.0-34.0"}}, {"uniqueid": "w33159277:a74683364", "current_trial": 44, "dateTime": 1691143774018, "trialdata": {"revealed_states": [], "clicked_states": [], "num_clicks_accrued": [0, 0, 0, 0, 0, 0, 0, 0, 0, 0, 0, 0, 0], "stateRewards": ["", 1, 1, -6, -2, 7, 77, 3, 16, -16, 66, 31, -1, 3, -8, -6, 33, -50, -48, 7, -60, -66, 36, 2, -3, 3, -7, -12, -61, -79, -4, 8, 74, -70], "withholdReward": false, "trial_id": "mdp_trial_36", "block": "test", "trialIndex": 37, "score": 37, "costs": 0, "simulationMode": [null, null, null, null, null], "rewards": [-1, 3, -8, 7, 36], "path": ["0", "0", "12", "13", "14", "19", "22"], "rt": [2042, 555, 730, 1071, 1060], "actions": ["right", "right", "right", "down", "left"], "actionTimes": [7281, 8383, 9645, 11266, 12872], "queries": {"click": {"state": {"target": [], "time": []}, "edge": {"target": [], "time": []}}, "mouseover": {"state": {"target": [], "time": []}, "edge": {"target": [], "time": []}}, "mouseout": {"state": {"target": ["0", "12"], "time": [6068, 18563]}, "edge": {"target": [], "time": []}}}, "displayed_time": "19.24", "trialTime": 21452, "trial_type": "mouselab-mdp", "trial_index": 44, "time_elapsed": 1427258, "internal_node_id": "0.0-4.0-1.0-35.0"}}, {"uniqueid": "w33159277:a74683364", "current_trial": 45, "dateTime": 1691143796230, "trialdata": {"revealed_states": [], "clicked_states": [], "num_clicks_accrued": [0, 0, 0, 0, 0, 0, 0, 0, 0, 0, 0, 0, 0], "stateRewards": ["", 2, 3, 6, -12, -29, 12, 87, 4, 35, -30, 67, 2, 3, -5, -9, 44, 69, -8, 1, 45, -8, 28, -2, -1, -8, 11, -12, -5, 81, 9, 87, 82, 88], "withholdReward": false, "trial_id": "mdp_trial_37", "block": "test", "trialIndex": 38, "score": -7, "costs": 0, "simulationMode": [null, null, null, null, null], "rewards": [2, 3, -5, 1, -8], "path": ["0", "0", "12", "13", "14", "19", "21"], "rt": [1533, 1135, 968, 1190, 1655], "actions": ["right", "right", "right", "down", "down"], "actionTimes": [5228, 6906, 8413, 10143, 12389], "queries": {"click": {"state": {"target": [], "time": []}, "edge": {"target": [], "time": []}}, "mouseover": {"state": {"target": ["12"], "time": [4280]}, "edge": {"target": [], "time": []}}, "mouseout": {"state": {"target": ["12", "0", "12", "13", "14"], "time": [1116, 4251, 16564, 16631, 16714]}, "edge": {"target": [], "time": []}}}, "displayed_time": "17.70", "trialTime": 19272, "trial_type": "mouselab-mdp", "trial_index": 45, "time_elapsed": 1449471, "internal_node_id": "0.0-4.0-1.0-36.0"}}, {"uniqueid": "w33159277:a74683364", "current_trial": 46, "dateTime": 1691143817156, "trialdata": {"revealed_states": [], "clicked_states": [], "num_clicks_accrued": [0, 0, 0, 0, 0, 0, 0, 0, 0, 0, 0, 0, 0], "stateRewards": ["", -2, -3, 1, -7, 39, -67, 16, 5, -20, 73, 66, -1, 4, 5, -3, 23, -68, -87, -8, 3, -3, 17, 1, -4, -2, -13, -32, 34, 61, -5, -11, -18, 12], "withholdReward": false, "trial_id": "mdp_trial_38", "block": "test", "trialIndex": 39, "score": -78, "costs": 0, "simulationMode": [null, null, null, null, null], "rewards": [-2, -3, 1, -7, -67], "path": ["0", "0", "1", "2", "3", "4", "6"], "rt": [1919, 1095, 973, 1856, 1389], "actions": ["up", "up", "up", "right", "right"], "actionTimes": [4424, 6059, 7581, 9972, 11915], "queries": {"click": {"state": {"target": [], "time": []}, "edge": {"target": [], "time": []}}, "mouseover": {"state": {"target": [], "time": []}, "edge": {"target": [], "time": []}}, "mouseout": {"state": {"target": ["14", "12", "0", "12", "13"], "time": [884, 945, 15011, 15143, 17541]}, "edge": {"target": [], "time": []}}}, "displayed_time": "16.51", "trialTime": 18316, "trial_type": "mouselab-mdp", "trial_index": 46, "time_elapsed": 1470397, "internal_node_id": "0.0-4.0-1.0-37.0"}}, {"uniqueid": "w33159277:a74683364", "current_trial": 47, "dateTime": 1691143850746, "trialdata": {"revealed_states": [], "clicked_states": [], "num_clicks_accrued": [0, 0, 0, 0, 0, 0, 0, 0, 0, 0, 0, 0, 0], "stateRewards": ["", -1, 2, 6, 11, 21, -21, -21, -6, 48, -71, 88, -1, -3, 3, 7, 64, 2, 9, -4, 37, -67, 72, 2, 2, -8, -8, -10, 71, -40, -3, 73, 80, 47], "withholdReward": false, "trial_id": "mdp_trial_39", "block": "test", "trialIndex": 40, "score": -70, "costs": 0, "simulationMode": [null, null, null, null, null], "rewards": [-1, 2, 6, -6, -71], "path": ["0", "0", "1", "2", "3", "8", "10"], "rt": [1807, 1590, 1063, 644, 790], "actions": ["up", "up", "up", "left", "down"], "actionTimes": [6036, 8154, 9740, 10928, 12282], "queries": {"click": {"state": {"target": [], "time": []}, "edge": {"target": [], "time": []}}, "mouseover": {"state": {"target": [], "time": []}, "edge": {"target": [], "time": []}}, "mouseout": {"state": {"target": ["0"], "time": [15360]}, "edge": {"target": [], "time": []}}}, "displayed_time": "18.23", "trialTime": 31562, "trial_type": "mouselab-mdp", "trial_index": 47, "time_elapsed": 1503986, "internal_node_id": "0.0-4.0-1.0-38.0"}}, {"uniqueid": "w33159277:a74683364", "current_trial": 48, "dateTime": 1691143872064, "trialdata": {"revealed_states": [], "clicked_states": [], "num_clicks_accrued": [0, 0, 0, 0, 0, 0, 0, 0, 0, 0, 0, 0, 0], "stateRewards": ["", 2, 3, -1, 6, 44, -4, -59, -14, -3, 64, 16, 1, -3, 3, 6, 3, 49, 19, 3, -49, -14, -86, 1, 2, -3, -8, -33, 14, 32, -13, -77, -47, -67], "withholdReward": false, "trial_id": "mdp_trial_40", "block": "test", "trialIndex": 41, "score": -45, "costs": 0, "simulationMode": [null, null, null, null, null], "rewards": [1, -3, 3, 3, -49], "path": ["0", "0", "12", "13", "14", "19", "20"], "rt": [1974, 692, 1091, 1332, 2129], "actions": ["right", "right", "right", "down", "right"], "actionTimes": [5964, 7193, 8824, 10689, 13359], "queries": {"click": {"state": {"target": [], "time": []}, "edge": {"target": [], "time": []}}, "mouseover": {"state": {"target": [], "time": []}, "edge": {"target": [], "time": []}}, "mouseout": {"state": {"target": ["12", "0"], "time": [1751, 4267]}, "edge": {"target": [], "time": []}}}, "displayed_time": "17.99", "trialTime": 19427, "trial_type": "mouselab-mdp", "trial_index": 48, "time_elapsed": 1525305, "internal_node_id": "0.0-4.0-1.0-39.0"}}, {"uniqueid": "w33159277:a74683364", "current_trial": 49, "dateTime": 1691143964651, "trialdata": {"rt": 91172, "response": {"Q0": "$-16 to 16", "Q1": "$-32 to $32", "Q2": "$-88 to $88", "Q3": "The cost for clicking on nodes varied between nodes.", "Q4": "Very motivated"}, "question_order": [0, 1, 2, 3, 4], "trial_id": "final_quiz_control", "trial_type": "survey-multi-choice", "trial_index": 49, "time_elapsed": 1617892, "internal_node_id": "0.0-4.0-2.0"}}, {"uniqueid": "w33159277:a74683364", "current_trial": 50, "dateTime": 1691144264041, "trialdata": {"rt": 297538, "response": {"Q0": "My main strategy after the first 2 rounds was to not use the inspector as it could have resulted in a lower amount", "Q1": "I didn't have a clear strategy as I was aware that the amount attached to a node could change in each round. I picked a node based on a gut feeling", "Q2": "I found it moderately difficult due to the high level of uncertainty in terms of the amounts that could be achieved"}, "trial_id": "self_report_control", "trial_type": "survey-text", "trial_index": 50, "time_elapsed": 1917283, "internal_node_id": "0.0-4.0-3.0"}}, {"uniqueid": "w33159277:a74683364", "current_trial": 51, "dateTime": 1691144298343, "trialdata": {"rt": 34128, "response": {"gender": "female", "age": "22", "colorblind": "0", "effort": "0"}, "trial_type": "survey-html-form", "trial_index": 51, "time_elapsed": 1951585, "internal_node_id": "0.0-4.0-4.0"}}, {"uniqueid": "w33159277:a74683364", "current_trial": 52, "dateTime": 1691144393945, "trialdata": {"rt": 95541, "response": {"Q0": "The instructions were very clear, which made everything easy to understand", "Q1": "No, I have not participated in this HIT before", "Q2": ""}, "trial_type": "survey-text", "trial_index": 52, "time_elapsed": 2047187, "internal_node_id": "0.0-4.0-5.0"}}, {"uniqueid": "w33159277:a74683364", "current_trial": 53, "dateTime": 1691144405484, "trialdata": {"rt": 11340, "stimulus": "Press 'Finish HIT' in order to reach the completion code. Once the data has been saved, you will receive the code either in this window or in the original browser window where you started the experiment.\n", "response": 0, "trial_type": "html-button-response", "trial_index": 53, "time_elapsed": 2058726, "internal_node_id": "0.0-5.0"}}, {"uniqueid": "w33159277:a74683364", "current_trial": 54, "dateTime": 1691144406621, "trialdata": {"success": true, "trial_type": "fullscreen", "trial_index": 54, "time_elapsed": 2059863, "internal_node_id": "0.0-6.0"}}], "questiondata": {"params": {"CODE": "C6DMOQA6", "MIN_TIME": 14, "inspectCost": 1, "startTime": "Fri Aug 04 2023 11:45:42 GMT+0200 (South Africa Standard Time)", "bonusRate": 0.002, "variance": "1_2_4_8_44", "branching": "31123"}, "final_score": 17.2}, "eventdata": [{"eventtype": "initialized", "value": null, "timestamp": 1691142341379, "interval": 0}, {"eventtype": "window_resize", "value": [1024, 694], "timestamp": 1691142341379, "interval": 0}, {"eventtype": "window_resize", "value": [1024, 694], "timestamp": 1691142342676, "interval": 1297}, {"eventtype": "window_resize", "value": [1366, 768], "timestamp": 1691142352439, "interval": 9763}, {"eventtype": "window_resize", "value": [1024, 694], "timestamp": 1691144409505, "interval": 2057066}, {"eventtype": "focus", "value": "off", "timestamp": 1691144437732, "interval": 28227}, {"eventtype": "focus", "value": "on", "timestamp": 1691144557769, "interval": 120037}, {"eventtype": "focus", "value": "off", "timestamp": 1691144579010, "interval": 21241}, {"eventtype": "focus", "value": "on", "timestamp": 1691144597371, "interval": 18361}, {"eventtype": "window_resize", "value": [1366, 708], "timestamp": 1691144600121, "interval": 2750}, {"eventtype": "window_resize", "value": [1024, 694], "timestamp": 1691144603154, "interval": 3033}, {"eventtype": "focus", "value": "off", "timestamp": 1691144629437, "interval": 26283}, {"eventtype": "focus", "value": "on", "timestamp": 1691144641596, "interval": 12159}, {"eventtype": "focus", "value": "off", "timestamp": 1691144644078, "interval": 2482}, {"eventtype": "focus", "value": "on", "timestamp": 1691144699161, "interval": 55083}, {"eventtype": "focus", "value": "off", "timestamp": 1691144699163, "interval": 2}, {"eventtype": "focus", "value": "on", "timestamp": 1691144699230, "interval": 67}, {"eventtype": "focus", "value": "off", "timestamp": 1691144701458, "interval": 2228}], "useragent": "Mozilla/5.0 (Windows NT 10.0; Win64; x64) AppleWebKit/537.36 (KHTML, like Gecko) Chrome/115.0.21929.110 Safari/537.36 Avast/115.0.21929.110", "mode": "live", "id": "w33159277:a74683364", "status": "user data saved", "Beginhit": "2023-08-04 09:46:29.503602", "Beginexp": "2023-08-04 09:46:46.237556", "Endhit": null, "psiturkStatus": 6, "browser": "<redacted>", "platform": "windows", "language": "en-GB"}