{"condition": 1, "counterbalance": 0, "assignmentId": "a80192885", "workerId": "w37709890", "hitId": "h68299847", "currenttrial": 56, "bonus": 0, "data": [{"uniqueid": "w37709890:a80192885", "current_trial": 0, "dateTime": 1691142480347, "trialdata": {"success": true, "trial_type": "fullscreen", "trial_index": 0, "time_elapsed": 3535, "internal_node_id": "0.0-0.0"}}, {"uniqueid": "w37709890:a80192885", "current_trial": 1, "dateTime": 1691142492777, "trialdata": {"view_history": [{"page_index": 0, "viewing_time": 12425}], "rt": 12425, "trial_id": "exp_instructions_misaligned", "trial_type": "instructions", "trial_index": 1, "time_elapsed": 15965, "internal_node_id": "0.0-1.0"}}, {"uniqueid": "w37709890:a80192885", "current_trial": 2, "dateTime": 1691142496847, "trialdata": {"success": true, "trial_type": "fullscreen", "trial_index": 2, "time_elapsed": 20035, "internal_node_id": "0.0-2.0-0.0"}}, {"uniqueid": "w37709890:a80192885", "current_trial": 3, "dateTime": 1691142630695, "trialdata": {"view_history": [{"page_index": 0, "viewing_time": 33516}, {"page_index": 1, "viewing_time": 71369}, {"page_index": 2, "viewing_time": 15746}, {"page_index": 3, "viewing_time": 13215}], "rt": 133846, "trial_id": "mouselab_instructions_1_misaligned", "trial_type": "instructions", "trial_index": 3, "time_elapsed": 153883, "internal_node_id": "0.0-2.0-1.0"}}, {"uniqueid": "w37709890:a80192885", "current_trial": 4, "dateTime": 1691142653420, "trialdata": {"revealed_states": [], "clicked_states": [], "num_clicks_accrued": [0, 0, 0, 0, 0, 0, 0, 0, 0, 0, 0, 0, 0], "stateRewards": ["", 10, -10, 10, -10, -10, -10, 10, -10, -10, -10, -10, 10, 10, -10, 10, -10, 10, -10, -10, -10, 10, 10, -10, -10, 10, -10, -10, 10, -10, 10, 10, -10, 10], "withholdReward": false, "trial_id": "practice_1", "block": "test", "trialIndex": 0, "score": 13.5, "costs": 0, "simulationMode": [null, null, null, null, null], "rewards": [10, 10, -10, 10, -10], "path": ["0", "0", "12", "13", "14", "15", "16"], "rt": [7086, 1204, 118, 162, 2646], "actions": ["right", "right", "right", "up", "up"], "actionTimes": [9045, 10766, 11395, 12071, 15237], "queries": {"click": {"state": {"target": [], "time": []}, "edge": {"target": [], "time": []}}, "mouseover": {"state": {"target": ["23", "24"], "time": [7396, 7512]}, "edge": {"target": [], "time": []}}, "mouseout": {"state": {"target": ["0", "23", "24", "1", "16", "15", "22", "21"], "time": [869, 7480, 13048, 13090, 13124, 20617, 20684, 21749]}, "edge": {"target": [], "time": []}}}, "displayed_time": "15.76", "trialTime": 22308, "trial_type": "mouselab-mdp", "trial_index": 4, "time_elapsed": 176607, "internal_node_id": "0.0-2.0-2.0-0.0"}}, {"uniqueid": "w37709890:a80192885", "current_trial": 5, "dateTime": 1691142670113, "trialdata": {"revealed_states": [], "clicked_states": [], "num_clicks_accrued": [0, 0, 0, 0, 0, 0, 0, 0, 0, 0, 0, 0, 0], "stateRewards": ["", 10, 10, 10, -10, 10, -10, -10, 10, -10, -10, 10, 10, -10, -10, -10, 10, 10, -10, 10, -10, 10, -10, 10, 10, -10, 10, -10, -10, 10, 10, 10, 10, -10], "withholdReward": false, "trial_id": "practice_2", "block": "test", "trialIndex": 1, "score": 53.5, "costs": 0, "simulationMode": [null, null, null, null, null], "rewards": [10, 10, 10, 10, 10], "path": ["0", "0", "1", "2", "3", "8", "11"], "rt": [2286, 408, 1954, 1146, 3690], "actions": ["up", "up", "up", "left", "left"], "actionTimes": [4794, 5716, 8177, 9833, 14042], "queries": {"click": {"state": {"target": [], "time": []}, "edge": {"target": [], "time": []}}, "mouseover": {"state": {"target": [], "time": []}, "edge": {"target": [], "time": []}}, "mouseout": {"state": {"target": ["21", "22", "0", "0", "21"], "time": [1710, 1743, 2059, 15597, 15649]}, "edge": {"target": [], "time": []}}}, "displayed_time": "14.55", "trialTime": 16583, "trial_type": "mouselab-mdp", "trial_index": 5, "time_elapsed": 193301, "internal_node_id": "0.0-2.0-2.0-1.0"}}, {"uniqueid": "w37709890:a80192885", "current_trial": 6, "dateTime": 1691142705280, "trialdata": {"view_history": [{"page_index": 0, "viewing_time": 25442}, {"page_index": 1, "viewing_time": 9722}], "rt": 35164, "trial_id": "mouselab_instructions_2_misaligned", "trial_type": "instructions", "trial_index": 6, "time_elapsed": 228467, "internal_node_id": "0.0-2.0-3.0"}}, {"uniqueid": "w37709890:a80192885", "current_trial": 7, "dateTime": 1691142748356, "trialdata": {"rt": 43071, "response": {"Q0": "The cost for clicking on nodes may vary between nodes.", "Q1": "The better I perform the higher my bonus will be.", "Q2": "No, the amount of cash at each node of the web may be different each time.", "Q3": "To get the highest total score.", "Q4": "Only before moving the spider.", "Q5": "3 seconds"}, "question_order": [0, 1, 2, 3, 4, 5], "correct": {"Q0": "The cost for clicking on nodes may vary between nodes.", "Q1": "The better I perform the higher my bonus will be.", "Q2": "No, the amount of cash at each node of the web may be different each time.", "Q3": "To get the highest total score.", "Q4": "Only before moving the spider.", "Q5": "3 seconds"}, "trial_id": "mouselab_quiz_misaligned", "trial_type": "survey-multi-choice", "trial_index": 7, "time_elapsed": 271544, "internal_node_id": "0.0-2.0-4.0"}}, {"uniqueid": "w37709890:a80192885", "current_trial": 8, "dateTime": 1691142751637, "trialdata": {"rt": 3276, "stimulus": "\n<h1> Get ready to start the game! </h1>\n\nThank you for reading the instructions. Get ready start with the 40 rounds of this game.\n<br><br>\nIf you need to take a break, feel free to take one after the end of a round, before continuing to the next one.\n<br><br>\nRemember, the more money the spider gets, the bigger your bonus will be!\n<br><br>\n<div style='text-align: center;'>Press <code>space</code> to begin.</div>\n\n<br><br>\n(If, at any point, the <code>space</code> key does not take you to the next page, click once on the text and try again.)", "response": " ", "trial_id": "mdp_ready", "trial_type": "html-keyboard-response", "trial_index": 8, "time_elapsed": 274825, "internal_node_id": "0.0-4.0-0.0"}}, {"uniqueid": "w37709890:a80192885", "current_trial": 9, "dateTime": 1691142769593, "trialdata": {"revealed_states": [], "clicked_states": [], "num_clicks_accrued": [0, 0, 0, 0, 0, 0, 0, 0, 0, 0, 0, 0, 0], "stateRewards": ["", 2, 4, -5, 7, 81, 35, 6, 11, 14, -72, 42, -1, 2, 3, -7, -77, -44, -40, -15, -85, 51, -32, -2, -1, -5, 7, -74, 47, 52, 16, -49, 48, -46], "withholdReward": false, "trial_id": "mdp_trial_1", "block": "test", "trialIndex": 2, "score": 43, "costs": 0, "simulationMode": [null, null, null, null, null], "rewards": [2, 4, -5, 7, 35], "path": ["0", "0", "1", "2", "3", "4", "6"], "rt": [7321, 476, 388, 297, 384], "actions": ["up", "up", "up", "right", "right"], "actionTimes": [9305, 10297, 11190, 11998, 12902], "queries": {"click": {"state": {"target": [], "time": []}, "edge": {"target": [], "time": []}}, "mouseover": {"state": {"target": [], "time": []}, "edge": {"target": [], "time": []}}, "mouseout": {"state": {"target": ["0", "23", "23", "0", "0"], "time": [1194, 1260, 1393, 1409, 1710]}, "edge": {"target": [], "time": []}}}, "displayed_time": "15.98", "trialTime": 17838, "trial_type": "mouselab-mdp", "trial_index": 9, "time_elapsed": 292781, "internal_node_id": "0.0-4.0-1.0-0.0"}}, {"uniqueid": "w37709890:a80192885", "current_trial": 10, "dateTime": 1691142787422, "trialdata": {"revealed_states": [], "clicked_states": [], "num_clicks_accrued": [0, 0, 0, 0, 0, 0, 0, 0, 0, 0, 0, 0, 0], "stateRewards": ["", -1, 3, -4, -14, 78, 67, 2, 13, -32, 28, 39, -2, 1, -4, -4, -4, -42, -86, 11, 64, -29, -32, -1, -4, 2, -7, 5, 68, -61, 2, -21, 85, 50], "withholdReward": false, "trial_id": "mdp_trial_2", "block": "test", "trialIndex": 3, "score": -5, "costs": 0, "simulationMode": [null, null, null, null, null], "rewards": [-1, -4, 2, -7, 5], "path": ["0", "0", "23", "24", "25", "26", "27"], "rt": [3246, 236, 249, 297, 92], "actions": ["left", "left", "left", "up", "up"], "actionTimes": [5088, 5834, 6597, 7411, 8023], "queries": {"click": {"state": {"target": [], "time": []}, "edge": {"target": [], "time": []}}, "mouseover": {"state": {"target": [], "time": []}, "edge": {"target": [], "time": []}}, "mouseout": {"state": {"target": ["0"], "time": [1454]}, "edge": {"target": [], "time": []}}}, "displayed_time": "15.84", "trialTime": 17707, "trial_type": "mouselab-mdp", "trial_index": 10, "time_elapsed": 310609, "internal_node_id": "0.0-4.0-1.0-1.0"}}, {"uniqueid": "w37709890:a80192885", "current_trial": 11, "dateTime": 1691142804336, "trialdata": {"revealed_states": [], "clicked_states": [], "num_clicks_accrued": [0, 0, 0, 0, 0, 0, 0, 0, 0, 0, 0, 0, 0], "stateRewards": ["", 1, 2, -3, 6, -88, 74, -45, 7, -46, 40, -77, 1, -4, 4, 3, 22, -25, -59, 8, -83, 19, -60, -1, -1, -1, -8, 26, -29, 64, -7, -88, -51, -55], "withholdReward": false, "trial_id": "mdp_trial_3", "block": "test", "trialIndex": 4, "score": 80, "costs": 0, "simulationMode": [null, null, null, null, null], "rewards": [1, 2, -3, 6, 74], "path": ["0", "0", "1", "2", "3", "4", "6"], "rt": [3669, 1679, 3353, 1667, 898], "actions": ["up", "up", "up", "right", "right"], "actionTimes": [4717, 6914, 10784, 12964, 14376], "queries": {"click": {"state": {"target": [], "time": []}, "edge": {"target": [], "time": []}}, "mouseover": {"state": {"target": [], "time": []}, "edge": {"target": [], "time": []}}, "mouseout": {"state": {"target": ["0"], "time": [961]}, "edge": {"target": [], "time": []}}}, "displayed_time": "15.05", "trialTime": 16792, "trial_type": "mouselab-mdp", "trial_index": 11, "time_elapsed": 327524, "internal_node_id": "0.0-4.0-1.0-2.0"}}, {"uniqueid": "w37709890:a80192885", "current_trial": 12, "dateTime": 1691142822220, "trialdata": {"revealed_states": [], "clicked_states": [], "num_clicks_accrued": [0, 0, 0, 0, 0, 0, 0, 0, 0, 0, 0, 0, 0], "stateRewards": ["", -1, -2, -8, 8, -27, -82, 19, -14, -62, 4, 1, -2, 2, 6, 10, 73, -51, -2, 2, 73, -48, 54, -1, 2, -4, 11, -25, 47, 86, 15, 33, 43, -42], "withholdReward": false, "trial_id": "mdp_trial_4", "block": "test", "trialIndex": 5, "score": 89, "costs": 0, "simulationMode": [null, null, null, null, null], "rewards": [-2, 2, 6, 10, 73], "path": ["0", "0", "12", "13", "14", "15", "16"], "rt": [5996, 778, 3883, 362, 484], "actions": ["right", "right", "right", "up", "up"], "actionTimes": [7417, 8701, 13105, 13980, 14983], "queries": {"click": {"state": {"target": [], "time": []}, "edge": {"target": [], "time": []}}, "mouseover": {"state": {"target": [], "time": []}, "edge": {"target": [], "time": []}}, "mouseout": {"state": {"target": ["0", "0", "12", "13", "13"], "time": [1322, 10951, 10968, 11037, 11369]}, "edge": {"target": [], "time": []}}}, "displayed_time": "15.50", "trialTime": 17747, "trial_type": "mouselab-mdp", "trial_index": 12, "time_elapsed": 345407, "internal_node_id": "0.0-4.0-1.0-3.0"}}, {"uniqueid": "w37709890:a80192885", "current_trial": 13, "dateTime": 1691142847372, "trialdata": {"revealed_states": [], "clicked_states": ["1", "3", "6", "27"], "num_clicks_accrued": [0, 0, 0, 0, 0, 0, 0, 0, 0, 0, 0, 0, 0], "stateRewards": ["", 1, -3, 4, 13, -72, 52, 5, 5, -58, 5, 14, 2, 1, 3, -14, -86, -4, 73, 6, -58, -50, 49, 2, -3, -4, 2, 33, -41, 42, -11, 81, 45, 53], "withholdReward": false, "trial_id": "mdp_trial_5", "block": "test", "trialIndex": 6, "score": 62, "costs": -5, "simulationMode": [null, null, null, null, null], "rewards": [1, -3, 4, 13, 52], "path": ["0", "0", "1", "2", "3", "4", "6"], "rt": [17386, 161, 240, 627, 241], "actions": ["up", "up", "up", "right", "right"], "actionTimes": [19417, 20088, 20831, 21969, 22715], "queries": {"click": {"state": {"target": ["1", "3", "6", "27"], "time": [4753, 7438, 8273, 11670]}, "edge": {"target": [], "time": []}}, "mouseover": {"state": {"target": ["1", "0", "2", "3", "3", "4", "6", "6", "7", "1", "0", "23", "28", "27", "10", "18", "13", "12", "0"], "time": [4274, 5672, 6721, 6753, 7171, 7735, 7753, 8035, 8734, 8767, 9067, 10732, 10765, 10849, 12381, 12447, 12547, 12630, 12714]}, "edge": {"target": [], "time": []}}, "mouseout": {"state": {"target": ["13", "12", "1", "0", "2", "3", "3", "4", "6", "6", "7", "1", "0", "23", "28", "27", "10", "18", "13", "12", "0"], "time": [1274, 1342, 5556, 6671, 6736, 6786, 7719, 7752, 7786, 8717, 8751, 8785, 9200, 10749, 10783, 12364, 12398, 12481, 12564, 12664, 12747]}, "edge": {"target": [], "time": []}}}, "displayed_time": "23.22", "trialTime": 25014, "trial_type": "mouselab-mdp", "trial_index": 13, "time_elapsed": 370560, "internal_node_id": "0.0-4.0-1.0-4.0"}}, {"uniqueid": "w37709890:a80192885", "current_trial": 14, "dateTime": 1691142870304, "trialdata": {"revealed_states": [], "clicked_states": ["25", "21"], "num_clicks_accrued": [0, 0, 0, 0, 0, 0, 0, 0, 0, 0, 0, 0, 0], "stateRewards": ["", 2, 3, 6, -5, -74, -53, 17, -12, 46, 44, 18, -2, 4, 1, -8, 22, -23, -49, 9, -45, 55, 81, 1, -1, -7, -16, -83, -71, -45, 2, 51, 82, 61], "withholdReward": false, "trial_id": "mdp_trial_6", "block": "test", "trialIndex": 7, "score": 63.9, "costs": -3.0999999999999996, "simulationMode": [null, null, null, null, null], "rewards": [-2, 4, 1, 9, 55], "path": ["0", "0", "12", "13", "14", "19", "21"], "rt": [12679, 515, 361, 366, 364], "actions": ["right", "right", "right", "down", "down"], "actionTimes": [17030, 18050, 18927, 19799, 20680], "queries": {"click": {"state": {"target": ["25", "21"], "time": [5532, 6710]}, "edge": {"target": [], "time": []}}, "mouseover": {"state": {"target": ["23", "24", "25", "14", "21", "19", "14", "15", "16", "17", "19", "0"], "time": [4880, 4911, 4995, 6027, 6326, 7127, 7160, 7243, 7526, 8275, 10506, 13805]}, "edge": {"target": [], "time": []}}, "mouseout": {"state": {"target": ["0", "23", "24", "25", "14", "21", "19", "14", "15", "16", "17", "19", "21", "0"], "time": [4004, 4895, 4963, 5616, 6043, 7110, 7143, 7193, 7344, 8159, 10456, 10539, 11607, 13888]}, "edge": {"target": [], "time": []}}}, "displayed_time": "21.20", "trialTime": 22793, "trial_type": "mouselab-mdp", "trial_index": 14, "time_elapsed": 393491, "internal_node_id": "0.0-4.0-1.0-5.0"}}, {"uniqueid": "w37709890:a80192885", "current_trial": 15, "dateTime": 1691142887839, "trialdata": {"revealed_states": [], "clicked_states": ["29"], "num_clicks_accrued": [0, 0, 0, 0, 0, 0, 0, 0, 0, 0, 0, 0, 0], "stateRewards": ["", -1, -4, -6, -15, 21, -67, -63, 9, 51, 69, -14, -1, 3, 8, -8, 39, 72, 63, 15, 19, 47, 15, 1, 4, 5, 16, -18, 34, 35, -14, -80, 40, 1], "withholdReward": false, "trial_id": "mdp_trial_7", "block": "test", "trialIndex": 8, "score": 58.85, "costs": -2.15, "simulationMode": [null, null, null, null, null], "rewards": [1, 4, 5, 16, 35], "path": ["0", "0", "23", "24", "25", "26", "29"], "rt": [10904, 19, 308, 176, 132], "actions": ["left", "left", "left", "up", "left"], "actionTimes": [12478, 13034, 13857, 14542, 15179], "queries": {"click": {"state": {"target": ["29"], "time": [4552]}, "edge": {"target": [], "time": []}}, "mouseover": {"state": {"target": ["23", "26", "28", "26", "29", "29", "32", "12", "21", "0"], "time": [3025, 3291, 3423, 3890, 3907, 4289, 5222, 6272, 6904, 8585]}, "edge": {"target": [], "time": []}}, "mouseout": {"state": {"target": ["0", "23", "26", "28", "26", "29", "29", "32", "12", "21"], "time": [1488, 3040, 3375, 3440, 3906, 3922, 4973, 6172, 6522, 8124]}, "edge": {"target": [], "time": []}}}, "displayed_time": "15.70", "trialTime": 17393, "trial_type": "mouselab-mdp", "trial_index": 15, "time_elapsed": 411026, "internal_node_id": "0.0-4.0-1.0-6.0"}}, {"uniqueid": "w37709890:a80192885", "current_trial": 16, "dateTime": 1691142912941, "trialdata": {"revealed_states": [], "clicked_states": ["5", "17", "9"], "num_clicks_accrued": [0, 0, 0, 0, 0, 0, 0, 0, 0, 0, 0, 0, 0], "stateRewards": ["", 1, -1, 8, 4, 76, -33, -17, -3, -1, -54, -74, -2, 2, -5, 13, -51, 63, 83, 1, 84, 29, -36, 2, -1, 7, -12, -10, -44, -43, -14, 8, -69, 19], "withholdReward": false, "trial_id": "mdp_trial_8", "block": "test", "trialIndex": 9, "score": 81.55, "costs": -6.449999999999999, "simulationMode": [null, null, null, null, null], "rewards": [1, -1, 8, 4, 76], "path": ["0", "0", "1", "2", "3", "4", "5"], "rt": [17513, 67, 60, 571, 254], "actions": ["up", "up", "up", "right", "up"], "actionTimes": [19368, 19942, 20516, 21594, 22361], "queries": {"click": {"state": {"target": ["5", "17", "9"], "time": [4021, 8084, 12187]}, "edge": {"target": [], "time": []}}, "mouseover": {"state": {"target": ["5", "6", "16", "17", "15", "13", "12", "7", "9"], "time": [3822, 4439, 5103, 5420, 8134, 8501, 8683, 11597, 11949]}, "edge": {"target": [], "time": []}}, "mouseout": {"state": {"target": ["0", "5", "6", "16", "17", "15", "13", "12", "7", "9"], "time": [1360, 4321, 5087, 5120, 8102, 8367, 8601, 11568, 11614, 18026]}, "edge": {"target": [], "time": []}}}, "displayed_time": "22.87", "trialTime": 24961, "trial_type": "mouselab-mdp", "trial_index": 16, "time_elapsed": 436129, "internal_node_id": "0.0-4.0-1.0-7.0"}}, {"uniqueid": "w37709890:a80192885", "current_trial": 17, "dateTime": 1691142969259, "trialdata": {"revealed_states": [], "clicked_states": ["29", "32", "17", "5", "20", "22", "11", "9", "27", "33", "16"], "num_clicks_accrued": [0, 0, 0, 0, 0, 0, 0, 0, 0, 0, 0, 0, 0], "stateRewards": ["", -2, 2, 3, -7, 76, 63, 21, 15, 35, -8, -44, 1, 1, -2, -12, 23, 24, 76, -9, 46, 66, -49, -2, -1, 7, 12, 40, -71, -45, -6, 38, -49, 46], "withholdReward": false, "trial_id": "mdp_trial_9", "block": "test", "trialIndex": 10, "score": -11.649999999999991, "costs": -23.649999999999995, "simulationMode": [null, null, null, null, null], "rewards": [1, 1, -2, -12, 24], "path": ["0", "0", "12", "13", "14", "15", "17"], "rt": [46612, 377, 408, 624, 93], "actions": ["right", "right", "right", "up", "right"], "actionTimes": [48923, 49817, 50734, 51862, 52465], "queries": {"click": {"state": {"target": ["29", "32", "17", "5", "20", "22", "11", "9", "27", "33", "16"], "time": [4101, 7594, 10892, 13819, 17125, 20993, 25704, 29970, 33131, 36967, 40712]}, "edge": {"target": [], "time": []}}, "mouseover": {"state": {"target": ["23", "29", "29", "23", "32", "32", "17", "15", "5", "6", "16", "15", "0", "0", "12", "19", "20", "21", "22", "12", "1", "10", "11", "11", "10", "1", "12", "0", "9", "3", "10", "27", "26", "27", "26", "33", "23", "18", "16", "17", "15"], "time": [3417, 3500, 3833, 4565, 4765, 5031, 8329, 11460, 11759, 14721, 14755, 15071, 15204, 15504, 16453, 16486, 16737, 18452, 20617, 21932, 21950, 21982, 22000, 22414, 26629, 26661, 26678, 27261, 29426, 30739, 30789, 30889, 31072, 31372, 33689, 34003, 38035, 38201, 38401, 41298, 47124]}, "edge": {"target": [], "time": []}}, "mouseout": {"state": {"target": ["0", "0", "23", "29", "29", "23", "32", "32", "17", "15", "5", "6", "16", "15", "0", "0", "12", "19", "20", "21", "22", "12", "1", "10", "11", "11", "10", "1", "12", "0", "9", "3", "10", "27", "26", "27", "26", "33", "23", "18", "16", "16", "17", "15"], "time": [1250, 1917, 3431, 3550, 4515, 4582, 4781, 7995, 11443, 11476, 14705, 14738, 14771, 15087, 15254, 16436, 16469, 16520, 18402, 20434, 21898, 21948, 21965, 21997, 22048, 26628, 26644, 26678, 26694, 29363, 30672, 30756, 30806, 31039, 31255, 33687, 33720, 37985, 38051, 38251, 40790, 41248, 47109, 47158]}, "edge": {"target": [], "time": []}}}, "displayed_time": "52.97", "trialTime": 56179, "trial_type": "mouselab-mdp", "trial_index": 17, "time_elapsed": 492447, "internal_node_id": "0.0-4.0-1.0-8.0"}}, {"uniqueid": "w37709890:a80192885", "current_trial": 18, "dateTime": 1691143017097, "trialdata": {"revealed_states": [], "clicked_states": ["20", "5", "9", "29", "32", "16", "17", "6", "11", "33"], "num_clicks_accrued": [0, 0, 0, 0, 0, 0, 0, 0, 0, 0, 0, 0, 0], "stateRewards": ["", 2, -2, 7, -11, -76, -65, -23, 16, -58, 30, 81, 1, 2, 7, 14, 9, 55, -2, 6, 11, -15, 31, -1, -1, -3, 2, 15, 2, 46, 15, 18, 45, -34], "withholdReward": false, "trial_id": "mdp_trial_10", "block": "test", "trialIndex": 11, "score": 82.5, "costs": -21.499999999999996, "simulationMode": [null, null, null, null, null], "rewards": [2, -2, 7, 16, 81], "path": ["0", "0", "1", "2", "3", "8", "11"], "rt": [40442, 475, 262, 573, 230], "actions": ["up", "up", "up", "left", "left"], "actionTimes": [42197, 43176, 43946, 45040, 45779], "queries": {"click": {"state": {"target": ["20", "5", "9", "29", "32", "16", "17", "6", "11", "33"], "time": [3268, 7201, 10540, 14546, 18490, 22040, 25801, 29251, 32806, 35692]}, "edge": {"target": [], "time": []}}, "mouseover": {"state": {"target": ["12", "13", "20", "4", "5", "9", "11", "27", "29", "33", "32", "31", "23", "16", "17", "17", "13", "12", "0", "12", "14", "15", "16", "6", "4", "3", "8", "11", "25", "33", "24", "1"], "time": [2622, 2638, 2755, 3972, 4604, 7916, 11063, 11180, 11380, 15093, 17974, 21336, 21355, 21671, 22936, 23236, 26600, 26633, 27033, 27268, 27667, 27766, 27815, 28698, 30463, 30496, 30514, 30579, 33975, 34258, 36723, 36772]}, "edge": {"target": [], "time": []}}, "mouseout": {"state": {"target": ["0", "12", "13", "20", "4", "5", "9", "11", "27", "29", "33", "32", "31", "23", "16", "17", "17", "13", "12", "0", "12", "14", "15", "16", "6", "4", "3", "8", "11", "25", "33", "24", "1"], "time": [1365, 2637, 2654, 3921, 3988, 7666, 11031, 11097, 11214, 15043, 17909, 21321, 21353, 21370, 22920, 22970, 26567, 26619, 26667, 27266, 27283, 27749, 27799, 27849, 29356, 30479, 30512, 30546, 33808, 34058, 36672, 36739, 36789]}, "edge": {"target": [], "time": []}}}, "displayed_time": "46.30", "trialTime": 47707, "trial_type": "mouselab-mdp", "trial_index": 18, "time_elapsed": 540285, "internal_node_id": "0.0-4.0-1.0-9.0"}}, {"uniqueid": "w37709890:a80192885", "current_trial": 19, "dateTime": 1691143034529, "trialdata": {"revealed_states": [], "clicked_states": [], "num_clicks_accrued": [0, 0, 0, 0, 0, 0, 0, 0, 0, 0, 0, 0, 0], "stateRewards": ["", 1, 1, 1, -3, -7, -1, -41, -10, 20, -72, -63, 1, -4, -2, 2, -66, 30, -84, -2, 49, 23, 71, -1, -4, 4, -12, 67, 5, 18, -16, 88, 56, -5], "withholdReward": false, "trial_id": "mdp_trial_11", "block": "test", "trialIndex": 12, "score": -1, "costs": 0, "simulationMode": [null, null, null, null, null], "rewards": [1, 1, 1, -3, -1], "path": ["0", "0", "1", "2", "3", "4", "6"], "rt": [2872, 16, 1493, 457, 1561], "actions": ["up", "up", "up", "right", "right"], "actionTimes": [4604, 5137, 7147, 8108, 10178], "queries": {"click": {"state": {"target": [], "time": []}, "edge": {"target": [], "time": []}}, "mouseover": {"state": {"target": ["0"], "time": [3989]}, "edge": {"target": [], "time": []}}, "mouseout": {"state": {"target": ["0", "0"], "time": [1098, 1390]}, "edge": {"target": [], "time": []}}}, "displayed_time": "15.73", "trialTime": 17301, "trial_type": "mouselab-mdp", "trial_index": 19, "time_elapsed": 557717, "internal_node_id": "0.0-4.0-1.0-10.0"}}, {"uniqueid": "w37709890:a80192885", "current_trial": 20, "dateTime": 1691143067074, "trialdata": {"revealed_states": [], "clicked_states": ["29", "9", "5", "6", "16", "17"], "num_clicks_accrued": [0, 0, 0, 0, 0, 0, 0, 0, 0, 0, 0, 0, 0], "stateRewards": ["", 2, -1, 3, -12, -83, 6, -33, 9, 28, 24, -50, -2, -1, -2, -5, -87, 37, 82, 12, 80, -5, 10, -2, -3, -6, 9, 22, -1, 16, 9, 77, -62, 58], "withholdReward": false, "trial_id": "mdp_trial_12", "block": "test", "trialIndex": 13, "score": 14.100000000000001, "costs": -12.9, "simulationMode": [null, null, null, null, null], "rewards": [-2, -1, -2, -5, 37], "path": ["0", "0", "12", "13", "14", "15", "17"], "rt": [26039, 41, 341, 464, 133], "actions": ["right", "right", "right", "up", "right"], "actionTimes": [27701, 28258, 29123, 30096, 30748], "queries": {"click": {"state": {"target": ["29", "9", "5", "6", "16", "17"], "time": [2843, 6488, 10111, 12878, 15927, 19895]}, "edge": {"target": [], "time": []}}, "mouseover": {"state": {"target": ["23", "24", "25", "29", "9", "5", "6", "16", "16", "17", "20", "21", "21", "0"], "time": [2055, 2088, 2122, 2557, 3456, 7036, 10966, 13547, 13863, 16776, 20639, 23604, 23859, 24952]}, "edge": {"target": [], "time": []}}, "mouseout": {"state": {"target": ["0", "0", "23", "24", "25", "29", "9", "5", "5", "6", "16", "16", "17", "20", "21", "21", "0"], "time": [1009, 2041, 2072, 2105, 2138, 3389, 6969, 10289, 10700, 13513, 13580, 16643, 20556, 23554, 23720, 24686, 25052]}, "edge": {"target": [], "time": []}}}, "displayed_time": "31.26", "trialTime": 32396, "trial_type": "mouselab-mdp", "trial_index": 20, "time_elapsed": 590262, "internal_node_id": "0.0-4.0-1.0-11.0"}}, {"uniqueid": "w37709890:a80192885", "current_trial": 21, "dateTime": 1691143093521, "trialdata": {"revealed_states": [], "clicked_states": ["29", "5", "6"], "num_clicks_accrued": [0, 0, 0, 0, 0, 0, 0, 0, 0, 0, 0, 0, 0], "stateRewards": ["", -2, 2, -5, 1, 42, -63, -58, -6, 2, 16, 81, -2, 4, 7, -10, 33, 3, -33, -2, -52, -84, -27, 2, -3, -3, 15, -74, -14, -5, -5, -84, 79, -31], "withholdReward": false, "trial_id": "mdp_trial_13", "block": "test", "trialIndex": 14, "score": 31.55, "costs": -6.449999999999999, "simulationMode": [null, null, null, null, null], "rewards": [-2, 2, -5, 1, 42], "path": ["0", "0", "1", "2", "3", "4", "5"], "rt": [18285, 231, 37, 494, 1302], "actions": ["up", "up", "up", "right", "up"], "actionTimes": [20202, 20949, 21503, 22526, 24334], "queries": {"click": {"state": {"target": ["29", "5", "6"], "time": [4685, 7976, 10740]}, "edge": {"target": [], "time": []}}, "mouseover": {"state": {"target": ["23", "28", "27", "29", "26", "28", "7", "4", "5", "6", "7", "0"], "time": [3799, 3830, 3864, 4216, 5332, 5348, 6580, 6630, 6879, 9027, 12077, 12325]}, "edge": {"target": [], "time": []}}, "mouseout": {"state": {"target": ["0", "23", "28", "27", "29", "26", "28", "7", "4", "5", "5", "6", "6", "7", "0"], "time": [1825, 3813, 3847, 3898, 5331, 5347, 5380, 6596, 6779, 8282, 8728, 10897, 12075, 12092, 12408]}, "edge": {"target": [], "time": []}}}, "displayed_time": "24.85", "trialTime": 26299, "trial_type": "mouselab-mdp", "trial_index": 21, "time_elapsed": 616708, "internal_node_id": "0.0-4.0-1.0-12.0"}}, {"uniqueid": "w37709890:a80192885", "current_trial": 22, "dateTime": 1691143127171, "trialdata": {"revealed_states": [], "clicked_states": ["27", "11", "9", "6", "16", "17"], "num_clicks_accrued": [0, 0, 0, 0, 0, 0, 0, 0, 0, 0, 0, 0, 0], "stateRewards": ["", 2, 2, 3, -15, 23, -14, 73, -7, -32, -20, -6, 1, 1, -5, -12, 73, 6, -84, 11, -81, -57, 13, -2, -1, -4, -8, -52, -58, 49, 13, 5, -41, -41], "withholdReward": false, "trial_id": "mdp_trial_14", "block": "test", "trialIndex": 15, "score": 45.1, "costs": -12.9, "simulationMode": [null, null, null, null, null], "rewards": [1, 1, -5, -12, 73], "path": ["0", "0", "12", "13", "14", "15", "16"], "rt": [26538, 341, 341, 508, 358], "actions": ["right", "right", "right", "up", "up"], "actionTimes": [28211, 29067, 29917, 30932, 31800], "queries": {"click": {"state": {"target": ["27", "11", "9", "6", "16", "17"], "time": [3340, 7103, 10579, 14289, 18370, 21548]}, "edge": {"target": [], "time": []}}, "mouseover": {"state": {"target": ["23", "28", "27", "11", "9", "9", "11", "9", "5", "6", "5", "16", "17", "20", "19", "0"], "time": [2517, 2582, 3015, 3848, 4814, 5047, 6562, 7393, 11274, 13972, 15570, 17836, 19217, 22248, 22633, 23098]}, "edge": {"target": [], "time": []}}, "mouseout": {"state": {"target": ["0", "23", "28", "27", "11", "9", "9", "11", "9", "5", "6", "5", "16", "17", "20", "19", "0"], "time": [1547, 2531, 2633, 3441, 4781, 4864, 6396, 7377, 11075, 13905, 15487, 17735, 19101, 22048, 22631, 22648, 23314]}, "edge": {"target": [], "time": []}}}, "displayed_time": "32.31", "trialTime": 33490, "trial_type": "mouselab-mdp", "trial_index": 22, "time_elapsed": 650358, "internal_node_id": "0.0-4.0-1.0-13.0"}}, {"uniqueid": "w37709890:a80192885", "current_trial": 23, "dateTime": 1691143166813, "trialdata": {"revealed_states": [], "clicked_states": ["32", "21", "20", "22", "17", "16", "18", "6"], "num_clicks_accrued": [0, 0, 0, 0, 0, 0, 0, 0, 0, 0, 0, 0, 0], "stateRewards": ["", 1, -1, 1, 13, 31, -56, 72, 2, 41, 5, 63, -2, -3, -2, 3, -71, -26, 52, 13, -31, 24, -67, 2, -2, 5, 4, 66, 43, 72, 9, 86, -26, 44], "withholdReward": false, "trial_id": "mdp_trial_15", "block": "test", "trialIndex": 16, "score": 30.8, "costs": -17.2, "simulationMode": [null, null, null, null, null], "rewards": [-2, -3, -2, 3, 52], "path": ["0", "0", "12", "13", "14", "15", "18"], "rt": [33029, 463, 283, 451, 131], "actions": ["right", "right", "right", "up", "left"], "actionTimes": [34617, 35595, 36398, 37366, 38011], "queries": {"click": {"state": {"target": ["32", "21", "20", "22", "17", "16", "18", "6"], "time": [3477, 7399, 11785, 16018, 18902, 21915, 24674, 28242]}, "edge": {"target": [], "time": []}}, "mouseover": {"state": {"target": ["23", "30", "32", "21", "21", "20", "19", "22", "14", "17", "17", "16", "18", "18", "12", "7", "4", "6"], "time": [2747, 2845, 3162, 4193, 4476, 7940, 12054, 12320, 16448, 16482, 16731, 19663, 22543, 22843, 25325, 25658, 25691, 25891]}, "edge": {"target": [], "time": []}}, "mouseout": {"state": {"target": ["0", "23", "30", "32", "21", "21", "20", "19", "22", "14", "17", "17", "16", "18", "18", "18", "12", "7", "4", "6", "6", "18"], "time": [1214, 2760, 2946, 4126, 4209, 7824, 12021, 12221, 16432, 16465, 16531, 19529, 22527, 22610, 24835, 25292, 25624, 25675, 25841, 28457, 28804, 29170]}, "edge": {"target": [], "time": []}}}, "displayed_time": "38.53", "trialTime": 39476, "trial_type": "mouselab-mdp", "trial_index": 23, "time_elapsed": 690000, "internal_node_id": "0.0-4.0-1.0-14.0"}}, {"uniqueid": "w37709890:a80192885", "current_trial": 24, "dateTime": 1691143196204, "trialdata": {"revealed_states": [], "clicked_states": ["5", "9", "11", "29"], "num_clicks_accrued": [0, 0, 0, 0, 0, 0, 0, 0, 0, 0, 0, 0, 0], "stateRewards": ["", 1, -4, 6, -3, 40, 76, -51, 5, -24, -63, 44, -2, -2, 8, 1, 76, -85, -58, 10, 59, 20, 11, -2, 3, -3, 3, -82, -10, 54, -7, -57, -6, -32], "withholdReward": false, "trial_id": "mdp_trial_16", "block": "test", "trialIndex": 17, "score": 46.4, "costs": -8.6, "simulationMode": [null, null, null, null, null], "rewards": [-2, 3, -3, 3, 54], "path": ["0", "0", "23", "24", "25", "26", "29"], "rt": [21373, 70, 212, 765, 258], "actions": ["left", "left", "left", "up", "left"], "actionTimes": [24694, 25276, 26001, 27285, 28060], "queries": {"click": {"state": {"target": ["5", "9", "11", "29"], "time": [6034, 8884, 11832, 17167]}, "edge": {"target": [], "time": []}}, "mouseover": {"state": {"target": ["7", "6", "5", "5", "9", "11", "10", "1", "28", "11", "27", "29", "27", "29", "27", "1"], "time": [5173, 5223, 5523, 5806, 6687, 9753, 10003, 10086, 10418, 10768, 12466, 16264, 16763, 16929, 17911, 21658]}, "edge": {"target": [], "time": []}}, "mouseout": {"state": {"target": ["0", "7", "6", "5", "5", "9", "11", "10", "1", "28", "11", "27", "29", "27", "29", "27", "29", "1"], "time": [3225, 5188, 5307, 5571, 6140, 9503, 9985, 10035, 10335, 10435, 12383, 16047, 16696, 16863, 17315, 21076, 21574, 21673]}, "edge": {"target": [], "time": []}}}, "displayed_time": "28.57", "trialTime": 29234, "trial_type": "mouselab-mdp", "trial_index": 24, "time_elapsed": 719391, "internal_node_id": "0.0-4.0-1.0-15.0"}}, {"uniqueid": "w37709890:a80192885", "current_trial": 25, "dateTime": 1691143240262, "trialdata": {"revealed_states": [], "clicked_states": ["5", "9", "11", "27", "33", "31", "21", "20"], "num_clicks_accrued": [0, 0, 0, 0, 0, 0, 0, 0, 0, 0, 0, 0, 0], "stateRewards": ["", -1, -2, 4, 9, 10, -75, 39, 16, -43, 88, -19, -1, 1, 2, 4, -31, 10, 73, 12, 41, -64, -81, -2, 2, -6, 1, -81, -1, -26, 3, -59, -3, -20], "withholdReward": false, "trial_id": "mdp_trial_17", "block": "test", "trialIndex": 18, "score": 37.8, "costs": -17.2, "simulationMode": [null, null, null, null, null], "rewards": [-1, 1, 2, 12, 41], "path": ["0", "0", "12", "13", "14", "19", "20"], "rt": [36607, 1253, 394, 337, 270], "actions": ["right", "right", "right", "down", "right"], "actionTimes": [38101, 39859, 40765, 41610, 42389], "queries": {"click": {"state": {"target": ["5", "9", "11", "27", "33", "31", "21", "20"], "time": [3741, 7250, 10907, 15080, 19102, 22948, 26931, 30851]}, "edge": {"target": [], "time": []}}, "mouseover": {"state": {"target": ["1", "4", "5", "9", "11", "27", "29", "33", "32", "31", "32", "21", "20", "19", "22", "0"], "time": [2923, 2970, 3255, 4353, 7950, 11596, 15593, 18790, 19971, 22537, 23817, 26481, 27764, 31212, 31295, 35274]}, "edge": {"target": [], "time": []}}, "mouseout": {"state": {"target": ["0", "1", "4", "5", "9", "11", "27", "29", "33", "32", "31", "32", "21", "20", "19", "22", "0"], "time": [1399, 2937, 2987, 4237, 7767, 11462, 15527, 18574, 19921, 22487, 23651, 26284, 27044, 31195, 31244, 35108, 35573]}, "edge": {"target": [], "time": []}}}, "displayed_time": "42.90", "trialTime": 43900, "trial_type": "mouselab-mdp", "trial_index": 25, "time_elapsed": 763449, "internal_node_id": "0.0-4.0-1.0-16.0"}}, {"uniqueid": "w37709890:a80192885", "current_trial": 26, "dateTime": 1691143281178, "trialdata": {"revealed_states": [], "clicked_states": ["17", "16", "6", "7", "5", "11", "9", "10"], "num_clicks_accrued": [0, 0, 0, 0, 0, 0, 0, 0, 0, 0, 0, 0, 0], "stateRewards": ["", 2, 4, -3, 16, -58, 30, -35, 11, -60, 47, 27, -2, -1, -7, -16, 23, -70, 68, -10, -65, -43, -34, -2, 1, 7, 9, -63, 34, -31, -8, -12, -86, 59], "withholdReward": false, "trial_id": "mdp_trial_18", "block": "test", "trialIndex": 19, "score": 43.8, "costs": -17.2, "simulationMode": [null, null, null, null, null], "rewards": [2, 4, -3, 11, 47], "path": ["0", "0", "1", "2", "3", "8", "10"], "rt": [33237, 339, 174, 743, 158], "actions": ["up", "up", "up", "left", "down"], "actionTimes": [35640, 36498, 37182, 38434, 39098], "queries": {"click": {"state": {"target": ["17", "16", "6", "7", "5", "11", "9", "10"], "time": [5105, 8127, 11110, 14428, 17537, 22682, 26290, 29097]}, "edge": {"target": [], "time": []}}, "mouseover": {"state": {"target": ["7", "4", "6", "16", "17", "16", "16", "6", "7", "4", "5", "9", "11", "9", "8", "10", "27", "23"], "time": [3839, 3855, 4055, 4087, 4304, 5837, 6186, 8866, 12180, 15262, 15546, 18857, 22006, 23353, 26834, 27050, 30481, 33761]}, "edge": {"target": [], "time": []}}, "mouseout": {"state": {"target": ["0", "7", "4", "6", "16", "17", "16", "16", "6", "7", "4", "5", "9", "11", "9", "8", "10", "27", "23"], "time": [2060, 3854, 3870, 4070, 4103, 5770, 6086, 8833, 12063, 15229, 15328, 18541, 21773, 23320, 26817, 26884, 30214, 33526, 33875]}, "edge": {"target": [], "time": []}}}, "displayed_time": "39.61", "trialTime": 40759, "trial_type": "mouselab-mdp", "trial_index": 26, "time_elapsed": 804366, "internal_node_id": "0.0-4.0-1.0-17.0"}}, {"uniqueid": "w37709890:a80192885", "current_trial": 27, "dateTime": 1691143309019, "trialdata": {"revealed_states": [], "clicked_states": [], "num_clicks_accrued": [0, 0, 0, 0, 0, 0, 0, 0, 0, 0, 0, 0, 0], "stateRewards": ["", -1, 3, 8, 9, -53, 20, -84, 2, -28, -62, -31, -1, -2, -7, 2, 51, 58, 45, -4, -17, -41, 36, 2, -2, -7, -15, 29, -54, -37, -16, -43, 65, -17], "withholdReward": false, "trial_id": "mdp_trial_19", "block": "test", "trialIndex": 20, "score": 39, "costs": 0, "simulationMode": [null, null, null, null, null], "rewards": [-1, 3, 8, 9, 20], "path": ["0", "0", "1", "2", "3", "4", "6"], "rt": [17848, 665, 186, 619, 101], "actions": ["up", "up", "up", "right", "right"], "actionTimes": [22151, 23324, 24028, 25160, 25774], "queries": {"click": {"state": {"target": [], "time": []}, "edge": {"target": [], "time": []}}, "mouseover": {"state": {"target": ["1", "4", "5", "2", "1"], "time": [20393, 20460, 20492, 20944, 21026]}, "edge": {"target": [], "time": []}}, "mouseout": {"state": {"target": ["0", "0", "0", "1", "4", "5", "2", "1"], "time": [null, 2380, 20381, 20410, 20475, 20811, 20994, 21124]}, "edge": {"target": [], "time": []}}}, "displayed_time": "26.29", "trialTime": 27674, "trial_type": "mouselab-mdp", "trial_index": 27, "time_elapsed": 832206, "internal_node_id": "0.0-4.0-1.0-18.0"}}, {"uniqueid": "w37709890:a80192885", "current_trial": 28, "dateTime": 1691143335569, "trialdata": {"revealed_states": [], "clicked_states": ["5", "9", "11"], "num_clicks_accrued": [0, 0, 0, 0, 0, 0, 0, 0, 0, 0, 0, 0, 0], "stateRewards": ["", -1, 4, -6, -5, -22, -38, -38, -2, -56, 88, 14, -1, -1, -7, -6, 61, -60, 21, 11, 57, 31, -30, -2, -2, 6, -9, -44, -70, -44, -15, 34, 16, -78], "withholdReward": false, "trial_id": "mdp_trial_20", "block": "test", "trialIndex": 21, "score": 2.5500000000000007, "costs": -6.449999999999999, "simulationMode": [null, null, null, null, null], "rewards": [-1, 4, -6, -2, 14], "path": ["0", "0", "1", "2", "3", "8", "11"], "rt": [19390, 328, 133, 534, 223], "actions": ["up", "up", "up", "left", "left"], "actionTimes": [21357, 22206, 22859, 23911, 24649], "queries": {"click": {"state": {"target": ["5", "9", "11"], "time": [4837, 7784, 11254]}, "edge": {"target": [], "time": []}}, "mouseover": {"state": {"target": ["1", "4", "5", "9", "9", "11", "27", "10", "27", "29", "27", "26", "0", "22", "0"], "time": [4361, 4392, 4426, 5441, 5741, 8605, 11954, 14934, 15767, 16200, 16782, 18281, 18329, 18380, 19463]}, "edge": {"target": [], "time": []}}, "mouseout": {"state": {"target": ["0", "1", "4", "5", "9", "9", "11", "27", "10", "27", "29", "27", "26", "0", "22"], "time": [1845, 4375, 4409, 5391, 5491, 8372, 11820, 14862, 15019, 15916, 16597, 18113, 18296, 18345, 18846]}, "edge": {"target": [], "time": []}}}, "displayed_time": "25.16", "trialTime": 26369, "trial_type": "mouselab-mdp", "trial_index": 28, "time_elapsed": 858757, "internal_node_id": "0.0-4.0-1.0-19.0"}}, {"uniqueid": "w37709890:a80192885", "current_trial": 29, "dateTime": 1691143366738, "trialdata": {"revealed_states": [], "clicked_states": ["16", "17", "20", "21", "32"], "num_clicks_accrued": [0, 0, 0, 0, 0, 0, 0, 0, 0, 0, 0, 0, 0], "stateRewards": ["", 1, -4, -6, -1, -21, 17, -72, 10, 77, 67, -46, -1, 4, -2, 14, -66, -49, -45, -15, -52, 23, -67, 2, -2, -2, 15, -3, 45, -64, 5, -44, 83, 61], "withholdReward": false, "trial_id": "mdp_trial_21", "block": "test", "trialIndex": 22, "score": 75.25, "costs": -10.75, "simulationMode": [null, null, null, null, null], "rewards": [2, -2, -2, 5, 83], "path": ["0", "0", "23", "24", "25", "30", "32"], "rt": [22722, 201, 194, 654, 251], "actions": ["left", "left", "left", "down", "down"], "actionTimes": [25881, 26595, 27304, 28463, 29226], "queries": {"click": {"state": {"target": ["16", "17", "20", "21", "32"], "time": [4729, 8159, 11581, 14344, 18997]}, "edge": {"target": [], "time": []}}, "mouseover": {"state": {"target": ["16", "17", "20", "21", "22", "30", "33", "32", "33", "30", "33", "23", "0"], "time": [4414, 5363, 8777, 12240, 15154, 18117, 18149, 18601, 19916, 23128, 23513, 23646, 23729]}, "edge": {"target": [], "time": []}}, "mouseout": {"state": {"target": ["0", "16", "17", "20", "21", "22", "30", "33", "32", "33", "30", "33", "23"], "time": [3960, 5279, 8727, 12123, 14937, 18035, 18132, 18351, 19818, 23112, 23145, 23579, 23661]}, "edge": {"target": [], "time": []}}}, "displayed_time": "29.74", "trialTime": 30982, "trial_type": "mouselab-mdp", "trial_index": 29, "time_elapsed": 889925, "internal_node_id": "0.0-4.0-1.0-20.0"}}, {"uniqueid": "w37709890:a80192885", "current_trial": 30, "dateTime": 1691143432219, "trialdata": {"revealed_states": [], "clicked_states": ["32", "33", "27", "11", "9", "5", "6", "16", "17", "14", "20", "21", "22", "29"], "num_clicks_accrued": [0, 0, 0, 0, 0, 0, 0, 0, 0, 0, 0, 0, 0], "stateRewards": ["", -1, 3, 1, -11, -22, -36, 19, -5, -70, -52, 50, -2, -4, 4, -2, -41, -83, 29, -2, 22, 10, -6, -2, 3, -2, 14, 54, 44, 77, -9, -65, -37, -40], "withholdReward": false, "trial_id": "mdp_trial_22", "block": "test", "trialIndex": 23, "score": 61.10000000000001, "costs": -28.89999999999999, "simulationMode": [null, null, null, null, null], "rewards": [-2, 3, -2, 14, 77], "path": ["0", "0", "23", "24", "25", "26", "29"], "rt": [55830, 351, 339, 613, 101], "actions": ["left", "left", "left", "up", "left"], "actionTimes": [59674, 60544, 61399, 62522, 63141], "queries": {"click": {"state": {"target": ["32", "33", "27", "11", "9", "5", "6", "16", "17", "14", "20", "21", "22", "29"], "time": [6055, 9055, 13137, 17337, 21184, 24857, 29878, 33420, 36779, 40006, 41190, 44112, 47083, 50189]}, "edge": {"target": [], "time": []}}, "mouseover": {"state": {"target": ["23", "30", "32", "33", "29", "27", "29", "11", "9", "5", "5", "6", "7", "16", "1", "18", "15", "15", "17", "14", "20", "21", "22", "25", "29", "11", "9", "11", "27", "29", "26", "28", "1"], "time": [5345, 5393, 5745, 6675, 9791, 12687, 13820, 16799, 19113, 22129, 22362, 25710, 31487, 31953, 34417, 34967, 35017, 35267, 35450, 37532, 40710, 42327, 44774, 47825, 48238, 50702, 50735, 56329, 56395, 56663, 57897, 57911, 57943]}, "edge": {"target": [], "time": []}}, "mouseout": {"state": {"target": ["0", "12", "23", "30", "32", "33", "29", "27", "29", "27", "11", "9", "5", "5", "5", "6", "7", "16", "1", "18", "15", "15", "17", "14", "20", "21", "22", "25", "29", "11", "9", "11", "27", "29", "26", "28", "1"], "time": [2097, 2347, 5376, 5427, 6626, 9509, 12454, 13720, 16497, 16534, 17453, 22063, 22178, 24983, 25593, 31187, 31769, 34284, 34917, 34984, 35184, 35383, 37499, 40544, 42144, 44724, 47196, 47841, 50669, 50719, 56313, 56363, 56430, 57895, 57910, 57927, 57960]}, "edge": {"target": [], "time": []}}}, "displayed_time": "63.66", "trialTime": 65308, "trial_type": "mouselab-mdp", "trial_index": 30, "time_elapsed": 955406, "internal_node_id": "0.0-4.0-1.0-21.0"}}, {"uniqueid": "w37709890:a80192885", "current_trial": 31, "dateTime": 1691143483031, "trialdata": {"revealed_states": [], "clicked_states": ["32", "33", "29", "27", "11", "9", "5", "6", "16", "17", "20"], "num_clicks_accrued": [0, 0, 0, 0, 0, 0, 0, 0, 0, 0, 0, 0, 0], "stateRewards": ["", -2, 1, -7, 9, 8, 25, 61, -7, -17, 69, -81, 1, 4, -4, -11, 16, 67, 44, 3, 6, -45, -54, -2, 3, 6, -11, -15, 32, -47, 3, -39, -6, -88], "withholdReward": false, "trial_id": "mdp_trial_23", "block": "test", "trialIndex": 24, "score": 33.35000000000001, "costs": -23.649999999999995, "simulationMode": [null, null, null, null, null], "rewards": [1, 4, -4, -11, 67], "path": ["0", "0", "12", "13", "14", "15", "17"], "rt": [43428, 174, 156, 439, 221], "actions": ["right", "right", "right", "up", "right"], "actionTimes": [45791, 46478, 47142, 48091, 48825], "queries": {"click": {"state": {"target": ["32", "33", "29", "27", "11", "9", "5", "6", "16", "17", "20"], "time": [4709, 7665, 11893, 15439, 19390, 22444, 26086, 29696, 32475, 35993, 38795]}, "edge": {"target": [], "time": []}}, "mouseover": {"state": {"target": ["0", "32", "33", "29", "27", "11", "9", "5", "6", "16", "17", "20", "13", "12", "0"], "time": [3926, 4376, 5574, 8306, 12684, 15996, 19928, 23057, 26769, 30649, 33547, 37695, 41174, 41192, 41240]}, "edge": {"target": [], "time": []}}, "mouseout": {"state": {"target": ["0", "0", "32", "33", "29", "27", "11", "9", "5", "6", "16", "17", "20", "17", "13", "12", "0"], "time": [2259, 3941, 5374, 8238, 12416, 15946, 19895, 23008, 26603, 30532, 33315, 37278, 40524, 41140, 41191, 41224, 41822]}, "edge": {"target": [], "time": []}}}, "displayed_time": "49.34", "trialTime": 50644, "trial_type": "mouselab-mdp", "trial_index": 31, "time_elapsed": 1006219, "internal_node_id": "0.0-4.0-1.0-22.0"}}, {"uniqueid": "w37709890:a80192885", "current_trial": 32, "dateTime": 1691143508054, "trialdata": {"revealed_states": [], "clicked_states": [], "num_clicks_accrued": [0, 0, 0, 0, 0, 0, 0, 0, 0, 0, 0, 0, 0], "stateRewards": ["", -2, -4, -6, 12, -58, -70, -80, 2, 16, -88, -62, 1, 2, -5, 11, 77, -35, -44, -5, 18, -83, 87, 1, -3, -5, 13, -44, -21, -86, 10, -52, 8, 29], "withholdReward": false, "trial_id": "mdp_trial_24", "block": "test", "trialIndex": 25, "score": -58, "costs": 0, "simulationMode": [null, null, null, null, null], "rewards": [-2, -4, -6, 12, -58], "path": ["0", "0", "1", "2", "3", "4", "5"], "rt": [5619, 1179, 580, 569, 100], "actions": ["up", "up", "up", "right", "up"], "actionTimes": [13780, 15466, 16566, 17654, 18268], "queries": {"click": {"state": {"target": [], "time": []}, "edge": {"target": [], "time": []}}, "mouseover": {"state": {"target": ["23", "24", "29", "29", "18", "12", "0"], "time": [10457, 10473, 10505, 10956, 12422, 12553, 12921]}, "edge": {"target": [], "time": []}}, "mouseout": {"state": {"target": ["0", "23", "24", "29", "29", "18", "12", "0"], "time": [8058, 10472, 10490, 10522, 12273, 12454, 12587, 24059]}, "edge": {"target": [], "time": []}}}, "displayed_time": "22.16", "trialTime": 24853, "trial_type": "mouselab-mdp", "trial_index": 32, "time_elapsed": 1031242, "internal_node_id": "0.0-4.0-1.0-23.0"}}, {"uniqueid": "w37709890:a80192885", "current_trial": 33, "dateTime": 1691143535755, "trialdata": {"revealed_states": [], "clicked_states": ["11", "27", "29", "33"], "num_clicks_accrued": [0, 0, 0, 0, 0, 0, 0, 0, 0, 0, 0, 0, 0], "stateRewards": ["", -2, -3, -3, 9, 79, 67, 22, -15, -56, 27, -85, -2, 4, -4, -15, -20, -32, 60, 15, 71, 57, 17, 1, 2, -8, 15, -37, -81, 82, 15, 21, -3, 2], "withholdReward": false, "trial_id": "mdp_trial_25", "block": "test", "trialIndex": 26, "score": 83.4, "costs": -8.6, "simulationMode": [null, null, null, null, null], "rewards": [1, 2, -8, 15, 82], "path": ["0", "0", "23", "24", "25", "26", "29"], "rt": [17604, 431, 308, 623, 227], "actions": ["left", "left", "left", "up", "left"], "actionTimes": [21908, 22858, 23683, 24815, 25551], "queries": {"click": {"state": {"target": ["11", "27", "29", "33"], "time": [6773, 10338, 13114, 16190]}, "edge": {"target": [], "time": []}}, "mouseover": {"state": {"target": ["11", "11", "11", "27", "29", "33", "32", "30", "26", "28", "0"], "time": [5074, 6273, 6522, 7357, 10885, 13666, 17480, 17499, 17913, 17945, 18312]}, "edge": {"target": [], "time": []}}, "mouseout": {"state": {"target": ["12", "11", "11", "11", "27", "29", "33", "32", "30", "26", "28"], "time": [1362, 6091, 6342, 7290, 10853, 13583, 17247, 17497, 17513, 17929, 17979]}, "edge": {"target": [], "time": []}}}, "displayed_time": "26.06", "trialTime": 27440, "trial_type": "mouselab-mdp", "trial_index": 33, "time_elapsed": 1058942, "internal_node_id": "0.0-4.0-1.0-24.0"}}, {"uniqueid": "w37709890:a80192885", "current_trial": 34, "dateTime": 1691143585144, "trialdata": {"revealed_states": [], "clicked_states": ["29", "27", "11", "9", "5", "6", "16", "17", "18", "20"], "num_clicks_accrued": [0, 0, 0, 0, 0, 0, 0, 0, 0, 0, 0, 0, 0], "stateRewards": ["", 1, -3, -1, 9, -34, -40, 22, -7, 45, 53, -11, 2, 4, 5, 15, 21, 37, -49, -3, 80, -28, -34, 1, -3, 1, 1, -40, -6, -5, -16, -85, -86, 59], "withholdReward": false, "trial_id": "mdp_trial_26", "block": "test", "trialIndex": 27, "score": 66.5, "costs": -21.499999999999996, "simulationMode": [null, null, null, null, null], "rewards": [2, 4, 5, -3, 80], "path": ["0", "0", "12", "13", "14", "19", "20"], "rt": [38687, 305, 290, 444, 251], "actions": ["right", "right", "right", "down", "right"], "actionTimes": [44245, 45069, 45872, 46825, 47582], "queries": {"click": {"state": {"target": ["29", "27", "11", "9", "5", "6", "16", "17", "18", "20"], "time": [6855, 9764, 12997, 15843, 19471, 22884, 26884, 30375, 33245, 36733]}, "edge": {"target": [], "time": []}}, "mouseover": {"state": {"target": ["28", "27", "29", "27", "11", "9", "5", "6", "16", "17", "15", "18", "20", "21"], "time": [6151, 6183, 6301, 7317, 10329, 13627, 16673, 20337, 23652, 27448, 31045, 31295, 34158, 37522]}, "edge": {"target": [], "time": []}}, "mouseout": {"state": {"target": ["0", "0", "28", "27", "29", "27", "11", "9", "5", "6", "6", "16", "17", "15", "18", "20", "21"], "time": [1621, 6113, 6166, 6234, 7283, 10295, 13544, 16373, 20137, 23057, 23536, 27398, 31012, 31078, 33858, 37356, 42000]}, "edge": {"target": [], "time": []}}}, "displayed_time": "48.10", "trialTime": 49198, "trial_type": "mouselab-mdp", "trial_index": 34, "time_elapsed": 1108332, "internal_node_id": "0.0-4.0-1.0-25.0"}}, {"uniqueid": "w37709890:a80192885", "current_trial": 35, "dateTime": 1691143602707, "trialdata": {"revealed_states": [], "clicked_states": [], "num_clicks_accrued": [0, 0, 0, 0, 0, 0, 0, 0, 0, 0, 0, 0, 0], "stateRewards": ["", 2, -1, 5, 8, 75, -35, -77, 1, -9, -81, -58, 1, 2, -7, 5, 77, -16, 19, 16, -10, -18, 40, -2, 3, 7, -5, 64, 1, -62, 10, 27, 10, 65], "withholdReward": false, "trial_id": "mdp_trial_27", "block": "test", "trialIndex": 28, "score": -15, "costs": 0, "simulationMode": [null, null, null, null, null], "rewards": [1, 2, -7, 5, -16], "path": ["0", "0", "12", "13", "14", "15", "17"], "rt": [6781, 202, 241, 234, 49], "actions": ["right", "right", "right", "up", "right"], "actionTimes": [8737, 9444, 10199, 10942, 11506], "queries": {"click": {"state": {"target": [], "time": []}, "edge": {"target": [], "time": []}}, "mouseover": {"state": {"target": ["12", "13", "19", "21", "21", "0"], "time": [4114, 4147, 4180, 4213, 4813, 7759]}, "edge": {"target": [], "time": []}}, "mouseout": {"state": {"target": ["0", "12", "13", "19", "21", "21", "0"], "time": [1816, 4130, 4163, 4196, 4231, 7361, 7860]}, "edge": {"target": [], "time": []}}}, "displayed_time": "15.96", "trialTime": 17335, "trial_type": "mouselab-mdp", "trial_index": 35, "time_elapsed": 1125895, "internal_node_id": "0.0-4.0-1.0-26.0"}}, {"uniqueid": "w37709890:a80192885", "current_trial": 36, "dateTime": 1691143640178, "trialdata": {"revealed_states": [], "clicked_states": ["29", "27", "11", "9", "5", "7", "16", "17"], "num_clicks_accrued": [0, 0, 0, 0, 0, 0, 0, 0, 0, 0, 0, 0, 0], "stateRewards": ["", 2, 3, -1, 6, 44, -4, -59, -14, -3, 64, 16, 1, -3, 3, 6, 3, 49, 19, 3, -49, -14, -86, 1, 2, -3, -8, -33, 14, 32, -13, -77, -47, -67], "withholdReward": false, "trial_id": "mdp_trial_28", "block": "test", "trialIndex": 29, "score": 38.8, "costs": -17.2, "simulationMode": [null, null, null, null, null], "rewards": [1, -3, 3, 6, 49], "path": ["0", "0", "12", "13", "14", "15", "17"], "rt": [31279, 37, 278, 440, 122], "actions": ["right", "right", "right", "up", "right"], "actionTimes": [32635, 33190, 33997, 34974, 35605], "queries": {"click": {"state": {"target": ["29", "27", "11", "9", "5", "7", "16", "17"], "time": [2457, 5404, 8672, 11709, 14608, 19198, 22512, 25743]}, "edge": {"target": [], "time": []}}, "mouseover": {"state": {"target": ["24", "25", "29", "27", "11", "9", "5", "6", "7", "16", "17", "14", "13", "12"], "time": [1865, 1896, 2231, 2931, 5926, 9275, 12371, 15221, 18664, 20297, 23396, 26491, 31136, 31186]}, "edge": {"target": [], "time": []}}, "mouseout": {"state": {"target": ["0", "24", "25", "29", "27", "11", "9", "5", "6", "7", "16", "16", "17", "14", "13", "12"], "time": [1218, 1879, 1913, 2864, 5844, 8814, 12288, 15152, 18630, 20014, 22717, 23261, 26392, 31122, 31169, 31255]}, "edge": {"target": [], "time": []}}}, "displayed_time": "36.12", "trialTime": 37205, "trial_type": "mouselab-mdp", "trial_index": 36, "time_elapsed": 1163366, "internal_node_id": "0.0-4.0-1.0-27.0"}}, {"uniqueid": "w37709890:a80192885", "current_trial": 37, "dateTime": 1691143694259, "trialdata": {"revealed_states": [], "clicked_states": ["9", "5", "6", "16", "17", "20", "21", "22", "32", "33", "31", "29"], "num_clicks_accrued": [0, 0, 0, 0, 0, 0, 0, 0, 0, 0, 0, 0, 0], "stateRewards": ["", -2, -3, 1, -7, 39, -67, 16, 5, -20, 73, 66, -1, 4, 5, -3, 23, -68, -87, -8, 3, -3, 17, 1, -4, -2, -13, -32, 34, 61, -5, -11, -18, 12], "withholdReward": false, "trial_id": "mdp_trial_29", "block": "test", "trialIndex": 30, "score": 17.200000000000003, "costs": -25.799999999999994, "simulationMode": [null, null, null, null, null], "rewards": [1, -4, -2, -13, 61], "path": ["0", "0", "23", "24", "25", "26", "29"], "rt": [43834, 276, 190, 480, 37], "actions": ["left", "left", "left", "up", "left"], "actionTimes": [48774, 49569, 50265, 51254, 51809], "queries": {"click": {"state": {"target": ["9", "5", "6", "16", "17", "20", "21", "22", "32", "33", "31", "29"], "time": [6512, 9764, 12853, 16197, 19807, 22726, 26366, 29213, 31990, 35099, 38047, 41371]}, "edge": {"target": [], "time": []}}, "mouseover": {"state": {"target": ["10", "8", "9", "5", "6", "16", "16", "17", "20", "21", "21", "22", "32", "32", "33", "30", "31", "25", "29", "27", "23"], "time": [5899, 5930, 6232, 7016, 10378, 13574, 13908, 17138, 20552, 23548, 23798, 27063, 29993, 30259, 33157, 35720, 35770, 38851, 39483, 42448, 46080]}, "edge": {"target": [], "time": []}}, "mouseout": {"state": {"target": ["0", "10", "8", "9", "5", "6", "16", "16", "17", "20", "21", "21", "22", "22", "32", "32", "33", "30", "31", "25", "29", "27", "23"], "time": [1269, 5914, 5964, 6605, 10328, 13541, 13657, 17105, 20419, 23465, 23632, 26996, 29438, 29860, 30076, 33090, 35704, 35753, 38767, 39334, 42331, 45627, 46093]}, "edge": {"target": [], "time": []}}}, "displayed_time": "52.34", "trialTime": 53825, "trial_type": "mouselab-mdp", "trial_index": 37, "time_elapsed": 1217447, "internal_node_id": "0.0-4.0-1.0-28.0"}}, {"uniqueid": "w37709890:a80192885", "current_trial": 38, "dateTime": 1691143714695, "trialdata": {"revealed_states": [], "clicked_states": [], "num_clicks_accrued": [0, 0, 0, 0, 0, 0, 0, 0, 0, 0, 0, 0, 0], "stateRewards": ["", -1, 4, -3, 3, 57, -61, 5, -11, 23, -1, 34, -2, -4, -1, -13, 27, 38, -36, 4, -45, 21, 88, 1, -2, -1, 1, -69, -5, -78, -12, -9, 38, -54], "withholdReward": false, "trial_id": "mdp_trial_30", "block": "test", "trialIndex": 31, "score": -70, "costs": 0, "simulationMode": [null, null, null, null, null], "rewards": [1, -2, -1, 1, -69], "path": ["0", "0", "23", "24", "25", "26", "27"], "rt": [6913, 207, 186, 530, 1142], "actions": ["left", "left", "left", "up", "up"], "actionTimes": [11474, 12200, 12896, 13940, 15601], "queries": {"click": {"state": {"target": [], "time": []}, "edge": {"target": [], "time": []}}, "mouseover": {"state": {"target": ["24", "24", "28", "27", "1", "0"], "time": [7165, 7381, 8814, 9063, 10380, 10862]}, "edge": {"target": [], "time": []}}, "mouseout": {"state": {"target": ["0", "0", "24", "24", "28", "27", "1"], "time": [1439, 1786, 7197, 7481, 8828, 10279, 10428]}, "edge": {"target": [], "time": []}}}, "displayed_time": "18.56", "trialTime": 20195, "trial_type": "mouselab-mdp", "trial_index": 38, "time_elapsed": 1237882, "internal_node_id": "0.0-4.0-1.0-29.0"}}, {"uniqueid": "w37709890:a80192885", "current_trial": 39, "dateTime": 1691143757120, "trialdata": {"revealed_states": [], "clicked_states": ["29", "9", "5", "6", "16", "17", "20", "18", "22", "21"], "num_clicks_accrued": [0, 0, 0, 0, 0, 0, 0, 0, 0, 0, 0, 0, 0], "stateRewards": ["", 1, -2, -3, 14, -42, -87, -37, -11, -50, 33, -44, -2, 4, -7, 13, 48, -75, -66, 12, 23, -2, 82, 1, -4, 3, 12, 51, -15, -26, -11, -52, -29, 82], "withholdReward": false, "trial_id": "mdp_trial_31", "block": "test", "trialIndex": 32, "score": 67.5, "costs": -21.499999999999996, "simulationMode": [null, null, null, null, null], "rewards": [-2, 4, -7, 12, 82], "path": ["0", "0", "12", "13", "14", "19", "22"], "rt": [34429, 426, 236, 590, 519], "actions": ["right", "right", "right", "down", "left"], "actionTimes": [36672, 37613, 38360, 39458, 40486], "queries": {"click": {"state": {"target": ["29", "9", "5", "6", "16", "17", "20", "18", "22", "21"], "time": [3536, 6423, 9598, 13213, 16417, 19573, 22736, 25935, 28903, 33636]}, "edge": {"target": [], "time": []}}, "mouseover": {"state": {"target": ["28", "26", "29", "11", "9", "5", "6", "16", "17", "20", "19", "13", "18", "13", "22", "21", "0"], "time": [2916, 3132, 3315, 4033, 4116, 6979, 10344, 13807, 17105, 20301, 23365, 23499, 23798, 27045, 27328, 29675, 34489]}, "edge": {"target": [], "time": []}}, "mouseout": {"state": {"target": ["0", "12", "28", "26", "29", "11", "9", "5", "6", "16", "17", "20", "19", "13", "18", "13", "22", "21", "0"], "time": [1318, 1417, 2949, 3232, 3645, 4066, 6897, 10094, 13724, 17005, 20185, 23332, 23416, 23548, 27012, 27212, 29625, 34339, 34522]}, "edge": {"target": [], "time": []}}}, "displayed_time": "41.00", "trialTime": 42237, "trial_type": "mouselab-mdp", "trial_index": 39, "time_elapsed": 1280307, "internal_node_id": "0.0-4.0-1.0-30.0"}}, {"uniqueid": "w37709890:a80192885", "current_trial": 40, "dateTime": 1691143807128, "trialdata": {"revealed_states": [], "clicked_states": ["29", "27", "11", "9", "5", "6", "16", "17", "20", "21"], "num_clicks_accrued": [0, 0, 0, 0, 0, 0, 0, 0, 0, 0, 0, 0, 0], "stateRewards": ["", -2, -4, 4, -11, -63, -60, -7, 2, -14, 81, -43, -1, -1, -5, 7, 10, 69, 40, 8, -83, 52, 60, 1, 2, 5, -5, 16, 64, 14, -3, 29, 7, -51], "withholdReward": false, "trial_id": "mdp_trial_32", "block": "test", "trialIndex": 33, "score": 47.5, "costs": -21.499999999999996, "simulationMode": [null, null, null, null, null, null], "rewards": [-1, -1, -5, 7, 69], "path": ["0", "0", "12", "13", "14", "15", "17"], "rt": [35538, 1507, 106, 279, 419, 167], "actions": ["right", "right", "right", "right", "up", "right"], "actionTimes": [43397, 44905, 45530, 46319, 47258, 47939], "queries": {"click": {"state": {"target": ["29", "27", "11", "9", "5", "6", "16", "17", "20", "21"], "time": [8964, 12092, 15452, 18684, 22957, 26343, 29647, 34612, 37396, 40819]}, "edge": {"target": [], "time": []}}, "mouseover": {"state": {"target": ["23", "26", "29", "27", "11", "9", "5", "6", "16", "16", "17", "20", "17", "20", "21", "0"], "time": [8308, 8374, 8780, 9472, 12554, 15835, 19297, 23582, 26974, 27523, 30320, 33501, 33766, 35133, 38185, 41626]}, "edge": {"target": [], "time": []}}, "mouseout": {"state": {"target": ["0", "23", "26", "29", "27", "11", "9", "5", "5", "6", "16", "16", "17", "20", "17", "20", "21"], "time": [7748, 8323, 8439, 9423, 12521, 15784, 18811, 23100, 23527, 26924, 27240, 30253, 33152, 33668, 35050, 38064, 41476]}, "edge": {"target": [], "time": []}}}, "displayed_time": "48.45", "trialTime": 49814, "trial_type": "mouselab-mdp", "trial_index": 40, "time_elapsed": 1330316, "internal_node_id": "0.0-4.0-1.0-31.0"}}, {"uniqueid": "w37709890:a80192885", "current_trial": 41, "dateTime": 1691143838518, "trialdata": {"revealed_states": [], "clicked_states": ["5", "6", "16", "17", "20"], "num_clicks_accrued": [0, 0, 0, 0, 0, 0, 0, 0, 0, 0, 0, 0, 0], "stateRewards": ["", 1, 1, 5, 6, -29, -7, 3, -16, 9, -46, 65, -1, 4, -1, -16, -63, -77, -87, 8, 80, -50, 43, -1, -1, -5, 5, -38, -71, -62, 9, 81, -50, -52], "withholdReward": false, "trial_id": "mdp_trial_33", "block": "test", "trialIndex": 34, "score": 79.25, "costs": -10.75, "simulationMode": [null, null, null, null, null], "rewards": [-1, 4, -1, 8, 80], "path": ["0", "0", "12", "13", "14", "19", "20"], "rt": [21118, 334, 101, 540, 401], "actions": ["right", "right", "right", "down", "right"], "actionTimes": [26174, 27020, 27636, 28691, 29600], "queries": {"click": {"state": {"target": ["5", "6", "16", "17", "20"], "time": [7301, 10187, 13102, 16001, 19106]}, "edge": {"target": [], "time": []}}, "mouseover": {"state": {"target": ["5", "6", "16", "17", "20", "21", "22", "12", "0"], "time": [7051, 7985, 10783, 13729, 16645, 19725, 22972, 23021, 23372]}, "edge": {"target": [], "time": []}}, "mouseout": {"state": {"target": ["0", "1", "0", "5", "6", "16", "17", "20", "21", "22", "12", "0"], "time": [1575, 1891, 6597, 7919, 10717, 13562, 16528, 19642, 22971, 22987, 23088, 23706]}, "edge": {"target": [], "time": []}}}, "displayed_time": "30.12", "trialTime": 31196, "trial_type": "mouselab-mdp", "trial_index": 41, "time_elapsed": 1361705, "internal_node_id": "0.0-4.0-1.0-32.0"}}, {"uniqueid": "w37709890:a80192885", "current_trial": 42, "dateTime": 1691143864972, "trialdata": {"revealed_states": [], "clicked_states": ["29", "33", "31", "21", "20"], "num_clicks_accrued": [0, 0, 0, 0, 0, 0, 0, 0, 0, 0, 0, 0, 0], "stateRewards": ["", -1, -4, -1, -11, 43, 69, 39, 4, 17, -20, -82, -2, -1, 4, 8, -79, 24, -79, 11, 36, 64, 41, 2, 4, -1, 11, -79, -47, 75, -3, 63, -36, -19], "withholdReward": false, "trial_id": "mdp_trial_34", "block": "test", "trialIndex": 35, "score": 80.25, "costs": -10.75, "simulationMode": [null, null, null, null, null], "rewards": [2, 4, -1, 11, 75], "path": ["0", "0", "23", "24", "25", "26", "29"], "rt": [16832, 1114, 163, 461, 137], "actions": ["left", "left", "left", "up", "left"], "actionTimes": [20010, 21649, 22330, 23310, 23952], "queries": {"click": {"state": {"target": ["29", "33", "31", "21", "20"], "time": [4462, 7766, 11456, 14407, 17191]}, "edge": {"target": [], "time": []}}, "mouseover": {"state": {"target": ["27", "29", "27", "33", "32", "32", "31", "31", "20", "20", "21", "20", "12"], "time": [3733, 4000, 5017, 7447, 8330, 8612, 10809, 11127, 12944, 13112, 13225, 14856, 17987]}, "edge": {"target": [], "time": []}}, "mouseout": {"state": {"target": ["0", "10", "0", "27", "29", "27", "33", "32", "32", "31", "31", "20", "20", "21", "20", "12"], "time": [1822, 1916, 3630, 3848, 4966, 7031, 8329, 8363, 10775, 10892, 12859, 12959, 13125, 14822, 17920, 18020]}, "edge": {"target": [], "time": []}}}, "displayed_time": "24.46", "trialTime": 26172, "trial_type": "mouselab-mdp", "trial_index": 42, "time_elapsed": 1388160, "internal_node_id": "0.0-4.0-1.0-33.0"}}, {"uniqueid": "w37709890:a80192885", "current_trial": 43, "dateTime": 1691143888672, "trialdata": {"revealed_states": [], "clicked_states": ["9", "5", "6", "16", "17"], "num_clicks_accrued": [0, 0, 0, 0, 0, 0, 0, 0, 0, 0, 0, 0, 0], "stateRewards": ["", 1, -3, -4, -11, -56, 61, -47, -16, -28, -9, 69, -2, -3, -4, -8, 40, -86, 59, -4, 80, 27, 54, -1, 3, -1, 8, 67, 23, 50, 6, 83, -43, -29], "withholdReward": false, "trial_id": "mdp_trial_35", "block": "test", "trialIndex": 36, "score": 33.25, "costs": -10.75, "simulationMode": [null, null, null, null, null, null], "rewards": [1, -3, -4, -11, 61], "path": ["0", "0", "1", "2", "3", "4", "6"], "rt": [15813, 925, 285, 203, 523, 434], "actions": ["up", "up", "up", "up", "right", "right"], "actionTimes": [17329, 18257, 19055, 19772, 20808, 21751], "queries": {"click": {"state": {"target": ["9", "5", "6", "16", "17"], "time": [2699, 5589, 8432, 11495, 14627]}, "edge": {"target": [], "time": []}}, "mouseover": {"state": {"target": ["10", "8", "9", "9", "5", "6", "16", "17", "15", "0"], "time": [2085, 2117, 2235, 2576, 3217, 6182, 8961, 12278, 15372, 15705]}, "edge": {"target": [], "time": []}}, "mouseout": {"state": {"target": ["0", "10", "8", "9", "9", "5", "6", "16", "17", "15"], "time": [916, 2100, 2185, 2467, 3167, 6116, 8878, 12058, 15355, 15388]}, "edge": {"target": [], "time": []}}}, "displayed_time": "22.27", "trialTime": 23495, "trial_type": "mouselab-mdp", "trial_index": 43, "time_elapsed": 1411859, "internal_node_id": "0.0-4.0-1.0-34.0"}}, {"uniqueid": "w37709890:a80192885", "current_trial": 44, "dateTime": 1691143913646, "trialdata": {"revealed_states": [], "clicked_states": ["11", "9", "5", "6"], "num_clicks_accrued": [0, 0, 0, 0, 0, 0, 0, 0, 0, 0, 0, 0, 0], "stateRewards": ["", 2, 3, 8, 14, 69, -27, 17, 2, -71, -65, -10, 2, -3, 7, 8, 65, -10, 65, -12, 73, -12, 13, -2, -2, 6, 10, -79, -69, -18, 10, -85, 67, 74], "withholdReward": false, "trial_id": "mdp_trial_36", "block": "test", "trialIndex": 37, "score": 87.4, "costs": -8.6, "simulationMode": [null, null, null, null, null], "rewards": [2, 3, 8, 14, 69], "path": ["0", "0", "1", "2", "3", "4", "5"], "rt": [14088, 58, 767, 456, 202], "actions": ["up", "up", "up", "right", "up"], "actionTimes": [19495, 20073, 21350, 22320, 23032], "queries": {"click": {"state": {"target": ["11", "9", "5", "6"], "time": [7112, 10030, 13395, 16236]}, "edge": {"target": [], "time": []}}, "mouseover": {"state": {"target": ["10", "11", "10", "11", "9", "5", "5", "6", "16", "0"], "time": [6128, 6178, 6445, 6662, 7661, 10525, 10825, 14088, 17135, 17751]}, "edge": {"target": [], "time": []}}, "mouseout": {"state": {"target": ["0", "10", "11", "10", "11", "9", "5", "5", "6", "16"], "time": [6099, 6144, 6194, 6613, 7611, 10164, 10558, 13804, 16735, 17251]}, "edge": {"target": [], "time": []}}}, "displayed_time": "23.55", "trialTime": 24774, "trial_type": "mouselab-mdp", "trial_index": 44, "time_elapsed": 1436833, "internal_node_id": "0.0-4.0-1.0-35.0"}}, {"uniqueid": "w37709890:a80192885", "current_trial": 45, "dateTime": 1691143934619, "trialdata": {"revealed_states": [], "clicked_states": ["33", "32", "31", "29"], "num_clicks_accrued": [0, 0, 0, 0, 0, 0, 0, 0, 0, 0, 0, 0, 0], "stateRewards": ["", 1, 1, 4, 11, 83, -66, 18, -16, -23, 5, 25, 1, -3, 1, -12, 18, 24, -86, -11, -64, 36, 40, 2, 1, -6, 13, 55, 29, 72, -2, 81, -72, -41], "withholdReward": false, "trial_id": "mdp_trial_37", "block": "test", "trialIndex": 38, "score": 67.4, "costs": -8.6, "simulationMode": [null, null, null, null, null], "rewards": [2, 1, -6, -2, 81], "path": ["0", "0", "23", "24", "25", "30", "31"], "rt": [13724, 407, 210, 518, 204], "actions": ["left", "left", "left", "down", "right"], "actionTimes": [15631, 16556, 17274, 18302, 19017], "queries": {"click": {"state": {"target": ["33", "32", "31", "29"], "time": [3081, 6235, 9419, 12858]}, "edge": {"target": [], "time": []}}, "mouseover": {"state": {"target": ["23", "30", "33", "32", "31", "25", "29", "29", "28", "0"], "time": [2328, 2460, 2811, 4042, 6741, 9871, 9904, 10207, 13483, 13633]}, "edge": {"target": [], "time": []}}, "mouseout": {"state": {"target": ["0", "23", "30", "33", "32", "31", "25", "29", "29", "28"], "time": [2314, 2344, 2475, 3675, 6674, 9560, 9887, 9971, 13449, 13499]}, "edge": {"target": [], "time": []}}}, "displayed_time": "19.53", "trialTime": 20748, "trial_type": "mouselab-mdp", "trial_index": 45, "time_elapsed": 1457806, "internal_node_id": "0.0-4.0-1.0-36.0"}}, {"uniqueid": "w37709890:a80192885", "current_trial": 46, "dateTime": 1691143961953, "trialdata": {"revealed_states": [], "clicked_states": ["29", "33", "32", "21", "20", "22"], "num_clicks_accrued": [0, 0, 0, 0, 0, 0, 0, 0, 0, 0, 0, 0, 0], "stateRewards": ["", 1, -2, -8, -3, 31, -84, -55, -14, 15, -58, 17, -2, -3, 7, 7, -12, 48, 67, 4, -44, -68, 46, 2, 3, -5, -7, 76, 27, 5, 11, 57, 52, 59], "withholdReward": false, "trial_id": "mdp_trial_38", "block": "test", "trialIndex": 39, "score": 50.1, "costs": -12.9, "simulationMode": [null, null, null, null, null, null], "rewards": [2, 3, -5, 11, 52], "path": ["0", "0", "23", "24", "25", "30", "32"], "rt": [19796, 602, 23, 253, 372, 360], "actions": ["left", "left", "left", "left", "down", "down"], "actionTimes": [21894, 22497, 23030, 23808, 24693, 25563], "queries": {"click": {"state": {"target": ["29", "33", "32", "21", "20", "22"], "time": [3436, 6988, 10371, 13287, 16134, 19479]}, "edge": {"target": [], "time": []}}, "mouseover": {"state": {"target": ["29", "33", "32", "21", "21", "20", "19", "22", "0"], "time": [3157, 4406, 7602, 11182, 11549, 14113, 16777, 17010, 20124]}, "edge": {"target": [], "time": []}}, "mouseout": {"state": {"target": ["0", "12", "0", "29", "33", "32", "21", "21", "20", "20", "19", "22", "0"], "time": [1208, 1324, 1392, 4090, 7536, 10850, 11416, 13996, 16315, 16744, 16877, 20074, 20174]}, "edge": {"target": [], "time": []}}}, "displayed_time": "26.07", "trialTime": 27083, "trial_type": "mouselab-mdp", "trial_index": 46, "time_elapsed": 1485141, "internal_node_id": "0.0-4.0-1.0-37.0"}}, {"uniqueid": "w37709890:a80192885", "current_trial": 47, "dateTime": 1691143979826, "trialdata": {"revealed_states": [], "clicked_states": ["9", "5", "6"], "num_clicks_accrued": [0, 0, 0, 0, 0, 0, 0, 0, 0, 0, 0, 0, 0], "stateRewards": ["", -1, 3, 1, -7, 56, 76, 57, 3, 11, -9, 14, 1, -2, 2, 8, -77, -3, 79, -5, 88, 24, -66, -2, -1, 7, -7, -30, 14, -76, 11, -36, 28, -6], "withholdReward": false, "trial_id": "mdp_trial_39", "block": "test", "trialIndex": 40, "score": 45.55, "costs": -6.449999999999999, "simulationMode": [null, null, null, null, null], "rewards": [-1, 3, 1, -7, 56], "path": ["0", "0", "1", "2", "3", "4", "5"], "rt": [11015, 210, 177, 744, 176], "actions": ["up", "up", "up", "right", "up"], "actionTimes": [12553, 13274, 13957, 15207, 15888], "queries": {"click": {"state": {"target": ["9", "5", "6"], "time": [2748, 5837, 8795]}, "edge": {"target": [], "time": []}}, "mouseover": {"state": {"target": ["1", "3", "9", "5", "6", "16"], "time": [2155, 2189, 2524, 3371, 6387, 9465]}, "edge": {"target": [], "time": []}}, "mouseout": {"state": {"target": ["0", "1", "3", "9", "5", "6", "16"], "time": [1022, 2172, 2206, 2858, 6327, 9382, 9675]}, "edge": {"target": [], "time": []}}}, "displayed_time": "16.39", "trialTime": 17663, "trial_type": "mouselab-mdp", "trial_index": 47, "time_elapsed": 1503014, "internal_node_id": "0.0-4.0-1.0-38.0"}}, {"uniqueid": "w37709890:a80192885", "current_trial": 48, "dateTime": 1691143997073, "trialdata": {"revealed_states": [], "clicked_states": ["29", "33", "32"], "num_clicks_accrued": [0, 0, 0, 0, 0, 0, 0, 0, 0, 0, 0, 0, 0], "stateRewards": ["", 1, -3, -2, 14, 49, -40, -39, 2, 26, -61, 73, 1, -4, -8, 12, 79, 29, -65, -13, 55, -26, 27, -1, 3, 3, 9, -17, -60, -18, -8, 35, -88, 69], "withholdReward": false, "trial_id": "mdp_trial_40", "block": "test", "trialIndex": 41, "score": 59.55, "costs": -6.449999999999999, "simulationMode": [null, null, null, null, null], "rewards": [-1, 3, 3, -8, 69], "path": ["0", "0", "23", "24", "25", "30", "33"], "rt": [10884, 316, 212, 568, 215], "actions": ["left", "left", "left", "down", "left"], "actionTimes": [12154, 12985, 13714, 14802, 15532], "queries": {"click": {"state": {"target": ["29", "33", "32"], "time": [2423, 5635, 8706]}, "edge": {"target": [], "time": []}}, "mouseover": {"state": {"target": ["23", "26", "29", "29", "33", "33", "32", "21", "0"], "time": [1813, 1861, 1894, 2194, 2979, 3245, 5991, 9472, 10154]}, "edge": {"target": [], "time": []}}, "mouseout": {"state": {"target": ["0", "23", "26", "29", "29", "33", "33", "32", "21"], "time": [1128, 1829, 1878, 1927, 2929, 3062, 5974, 9241, 10070]}, "edge": {"target": [], "time": []}}}, "displayed_time": "16.05", "trialTime": 17031, "trial_type": "mouselab-mdp", "trial_index": 48, "time_elapsed": 1520260, "internal_node_id": "0.0-4.0-1.0-39.0"}}, {"uniqueid": "w37709890:a80192885", "current_trial": 49, "dateTime": 1691144035568, "trialdata": {"rt": 38492, "response": {"Q0": "$-2 to $2", "Q1": "$-16 to $16", "Q2": "$-88 to $88", "Q3": "The cost for clicking on nodes varied between nodes.", "Q4": "Very motivated"}, "question_order": [0, 1, 2, 3, 4], "trial_id": "final_quiz_control", "trial_type": "survey-multi-choice", "trial_index": 49, "time_elapsed": 1558755, "internal_node_id": "0.0-4.0-2.0"}}, {"uniqueid": "w37709890:a80192885", "current_trial": 50, "dateTime": 1691144103642, "trialdata": {"rt": 68059, "response": {"Q0": "Opening a node and sticiking to what I think is the highest.", "Q1": "Yes I did, I learnt from my mistakes.", "Q2": "Not difficult at all. It is all about timing."}, "trial_id": "self_report_control", "trial_type": "survey-text", "trial_index": 50, "time_elapsed": 1626830, "internal_node_id": "0.0-4.0-3.0"}}, {"uniqueid": "w37709890:a80192885", "current_trial": 51, "dateTime": 1691144153277, "trialdata": {"rt": 49629, "response": {"Q0": "Disagree", "Q1": "Disagree", "Q2": "Agree", "Q3": "Neither disagree nor agree", "Q4": "Disagree", "Q5": "Agree", "Q6": "Disagree"}, "question_order": [0, 1, 2, 3, 4, 5, 6], "trial_id": "self_report_2", "trial_type": "survey-multi-choice", "trial_index": 51, "time_elapsed": 1676465, "internal_node_id": "0.0-4.0-4.0"}}, {"uniqueid": "w37709890:a80192885", "current_trial": 52, "dateTime": 1691144176358, "trialdata": {"rt": 23075, "response": {"gender": "female", "age": "33", "colorblind": "0", "effort": "0"}, "trial_type": "survey-html-form", "trial_index": 52, "time_elapsed": 1699546, "internal_node_id": "0.0-4.0-5.0"}}, {"uniqueid": "w37709890:a80192885", "current_trial": 53, "dateTime": 1691144208419, "trialdata": {"rt": 32056, "response": {"Q0": "No, the game was easy to understand", "Q1": "No, it was my 1st time.", "Q2": ""}, "trial_type": "survey-text", "trial_index": 53, "time_elapsed": 1731607, "internal_node_id": "0.0-4.0-6.0"}}, {"uniqueid": "w37709890:a80192885", "current_trial": 54, "dateTime": 1691144211129, "trialdata": {"rt": 2702, "stimulus": "Press 'Finish HIT' in order to reach the completion code. Once the data has been saved, you will receive the code either in this window or in the original browser window where you started the experiment.\n", "response": 0, "trial_type": "html-button-response", "trial_index": 54, "time_elapsed": 1734317, "internal_node_id": "0.0-5.0"}}, {"uniqueid": "w37709890:a80192885", "current_trial": 55, "dateTime": 1691144212142, "trialdata": {"success": true, "trial_type": "fullscreen", "trial_index": 55, "time_elapsed": 1735330, "internal_node_id": "0.0-6.0"}}], "questiondata": {"params": {"CODE": "C6DMOQA6", "MIN_TIME": 14, "inspectCost": 1, "startTime": "Fri Aug 04 2023 11:47:55 GMT+0200 (South Africa Standard Time)", "bonusRate": 0.002, "variance": "1_2_4_8_44", "branching": "31123"}, "final_score": 1684.6}, "eventdata": [{"eventtype": "initialized", "value": null, "timestamp": 1691142474561, "interval": 0}, {"eventtype": "window_resize", "value": [1536, 770], "timestamp": 1691142474561, "interval": 0}, {"eventtype": "window_resize", "value": [1536, 770], "timestamp": 1691142475054, "interval": 493}, {"eventtype": "window_resize", "value": [1536, 864], "timestamp": 1691142479573, "interval": 4519}, {"eventtype": "focus", "value": "off", "timestamp": 1691144067276, "interval": 1587703}, {"eventtype": "focus", "value": "on", "timestamp": 1691144069527, "interval": 2251}, {"eventtype": "window_resize", "value": [1536, 770], "timestamp": 1691144211358, "interval": 141831}], "useragent": "Mozilla/5.0 (Windows NT 10.0; Win64; x64) AppleWebKit/537.36 (KHTML, like Gecko) Chrome/114.0.0.0 Safari/537.36 Edg/114.0.1823.79", "mode": "live", "id": "w37709890:a80192885", "status": "user data saved", "Beginhit": "2023-08-04 09:47:52.139003", "Beginexp": "2023-08-04 09:48:00.756934", "Endhit": "2023-08-04 10:16:53.670756", "psiturkStatus": 3, "browser": "<redacted>", "platform": "windows", "language": "en-US"}