{"condition": 1, "counterbalance": 0, "assignmentId": "a91602652", "workerId": "w97699699", "hitId": "h24749771", "currenttrial": 9, "bonus": 0, "data": [{"uniqueid": "w97699699:a91602652", "current_trial": 0, "dateTime": 1693834250440, "trialdata": {"success": true, "trial_type": "fullscreen", "trial_index": 0, "time_elapsed": 1559, "internal_node_id": "0.0-0.0"}}, {"uniqueid": "w97699699:a91602652", "current_trial": 1, "dateTime": 1693834251171, "trialdata": {"view_history": [{"page_index": 0, "viewing_time": 728}], "rt": 728, "trial_id": "exp_instructions_misaligned", "trial_type": "instructions", "trial_index": 1, "time_elapsed": 2290, "internal_node_id": "0.0-1.0"}}, {"uniqueid": "w97699699:a91602652", "current_trial": 2, "dateTime": 1693834259920, "trialdata": {"view_history": [{"page_index": 0, "viewing_time": 1345}, {"page_index": 1, "viewing_time": 1618}, {"page_index": 2, "viewing_time": 811}, {"page_index": 3, "viewing_time": 1545}, {"page_index": 2, "viewing_time": 584}, {"page_index": 1, "viewing_time": 1643}, {"page_index": 2, "viewing_time": 474}, {"page_index": 3, "viewing_time": 727}], "rt": 8747, "trial_id": "mouselab_instructions_1_misaligned", "trial_type": "instructions", "trial_index": 2, "time_elapsed": 11039, "internal_node_id": "0.0-2.0-1.0"}}, {"uniqueid": "w97699699:a91602652", "current_trial": 3, "dateTime": 1693834266732, "trialdata": {"revealed_states": [], "clicked_states": ["12"], "num_clicks_accrued": [0, 0, 0, 0, 0, 0, 0, 0, 0, 0, 0, 0, 0], "stateRewards": ["", 10, -10, 10, -10, 10, 10, -10, 10, 10, 10, 10, 10, 10, 10, 10, -10, -10, 10, 10, 10, 10, 10, -10, 10, 10, 10, -10, -10, -10, -10, 10, -10, 10], "withholdReward": false, "trial_id": "practice_1", "block": "test", "trialIndex": 0, "score": 33, "costs": -0.5, "simulationMode": [null, null, null, null, null], "rewards": [10, 10, 10, 10, -10], "path": ["0", "0", "12", "13", "14", "15", "16"], "rt": [2726, 56, 83, 26, 108], "actions": ["right", "right", "right", "up", "up"], "actionTimes": [3492, 4058, 4666, 5210, 5827], "queries": {"click": {"state": {"target": ["12"], "time": [1483]}, "edge": {"target": [], "time": []}}, "mouseover": {"state": {"target": ["0", "12", "13", "14"], "time": [802, 1338, 1622, 2802]}, "edge": {"target": [], "time": []}}, "mouseout": {"state": {"target": ["0", "12", "13"], "time": [1102, 1587, 2753]}, "edge": {"target": [], "time": []}}}, "displayed_time": "6.34", "trialTime": 6370, "trial_type": "mouselab-mdp", "trial_index": 3, "time_elapsed": 17851, "internal_node_id": "0.0-2.0-2.0-0.0"}}, {"uniqueid": "w97699699:a91602652", "current_trial": 4, "dateTime": 1693834273173, "trialdata": {"revealed_states": [], "clicked_states": ["12", "18"], "num_clicks_accrued": [0, 0, 0, 0, 0, 0, 0, 0, 0, 0, 0, 0, 0], "stateRewards": ["", -10, -10, -10, 10, -10, -10, -10, -10, 10, -10, -10, 10, 10, -10, -10, -10, 10, 10, -10, 10, 10, 10, -10, -10, -10, 10, -10, 10, 10, -10, -10, -10, -10], "withholdReward": false, "trial_id": "practice_2", "block": "test", "trialIndex": 1, "score": 12.5, "costs": -1, "simulationMode": [null, null, null, null, null, null], "rewards": [10, 10, -10, -10, 10], "path": ["0", "0", "12", "13", "14", "15", "18"], "rt": [2118, 158, 93, 140, 114, 153], "actions": ["right", "right", "right", "right", "up", "left"], "actionTimes": [2917, 3077, 3701, 4349, 4974, 5646], "queries": {"click": {"state": {"target": ["12", "18"], "time": [988, 2046]}, "edge": {"target": [], "time": []}}, "mouseover": {"state": {"target": ["12", "13", "18", "15"], "time": [911, 1209, 1309, 2375]}, "edge": {"target": [], "time": []}}, "mouseout": {"state": {"target": ["14", "0", "12", "13", "18", "15"], "time": [443, 876, 995, 1277, 2342, 2391]}, "edge": {"target": [], "time": []}}}, "displayed_time": "6.16", "trialTime": 6205, "trial_type": "mouselab-mdp", "trial_index": 4, "time_elapsed": 24292, "internal_node_id": "0.0-2.0-2.0-1.0"}}, {"uniqueid": "w97699699:a91602652", "current_trial": 5, "dateTime": 1693834275542, "trialdata": {"view_history": [{"page_index": 0, "viewing_time": 1349}, {"page_index": 1, "viewing_time": 1017}], "rt": 2367, "trial_id": "mouselab_instructions_2_misaligned", "trial_type": "instructions", "trial_index": 5, "time_elapsed": 26661, "internal_node_id": "0.0-2.0-3.0"}}, {"uniqueid": "w97699699:a91602652", "current_trial": 6, "dateTime": 1693834282812, "trialdata": {"rt": 7268, "response": {"Q0": "The cost for clicking on nodes may vary between nodes.", "Q1": "The better I perform the higher my bonus will be.", "Q2": "No, the amount of cash at each node of the web may be different each time.", "Q3": "To get the highest total score.", "Q4": "Only before moving the spider.", "Q5": "3 seconds"}, "question_order": [0, 1, 2, 3, 4, 5], "correct": {"Q0": "The cost for clicking on nodes may vary between nodes.", "Q1": "The better I perform the higher my bonus will be.", "Q2": "No, the amount of cash at each node of the web may be different each time.", "Q3": "To get the highest total score.", "Q4": "Only before moving the spider.", "Q5": "3 seconds"}, "trial_id": "mouselab_quiz_misaligned", "trial_type": "survey-multi-choice", "trial_index": 6, "time_elapsed": 33931, "internal_node_id": "0.0-2.0-4.0"}}, {"uniqueid": "w97699699:a91602652", "current_trial": 7, "dateTime": 1693834285407, "trialdata": {"rt": 2587, "response": {"Q0": "Not sure"}, "question_order": [0], "trial_id": "repeat_check", "trial_type": "survey-multi-choice", "trial_index": 7, "time_elapsed": 36526, "internal_node_id": "0.0-4.0-0.0"}}, {"uniqueid": "w97699699:a91602652", "current_trial": 8, "dateTime": 1693834286345, "trialdata": {"rt": 931, "stimulus": "\n<h1> Get ready to start the game! </h1>\n\nThank you for reading the instructions. Get ready start with the 40 rounds of this game.\n<br><br>\nIf you need to take a break, feel free to take one after the end of a round, before continuing to the next one.\n<br><br>\nRemember, the more money the spider gets, the bigger your bonus will be!\n<br><br>\n<div style='text-align: center;'>Press <code>space</code> to begin.</div>\n\n<br><br>\n(If, at any point, the <code>space</code> key does not take you to the next page, click once on the text and try again.)", "response": " ", "trial_id": "mdp_ready", "trial_type": "html-keyboard-response", "trial_index": 8, "time_elapsed": 37463, "internal_node_id": "0.0-6.0-0.0"}}], "questiondata": {"params": {"CODE": "C6DMOQA6", "MIN_TIME": 14, "inspectCost": 1, "startTime": "Mon Sep 04 2023 15:30:48 GMT+0200 (Central European Summer Time)", "bonusRate": 0.002, "variance": "1_2_4_8_44", "branching": "31123"}}, "eventdata": [{"eventtype": "initialized", "value": null, "timestamp": 1693834247543, "interval": 0}, {"eventtype": "window_resize", "value": [1024, 738], "timestamp": 1693834247543, "interval": 0}, {"eventtype": "window_resize", "value": [1024, 738], "timestamp": 1693834247900, "interval": 357}, {"eventtype": "window_resize", "value": [1440, 900], "timestamp": 1693834249694, "interval": 1794}], "useragent": "Mozilla/5.0 (Macintosh; Intel Mac OS X 10_15_7) AppleWebKit/537.36 (KHTML, like Gecko) Chrome/115.0.0.0 Safari/537.36", "mode": "debug", "id": "w97699699:a91602652", "status": "user data saved", "Beginhit": "2023-09-04 13:30:46.653231", "Beginexp": "2023-09-04 13:30:50.617759", "Endhit": null, "psiturkStatus": 2, "browser": "<redacted>", "platform": "macos", "language": "en-US", "excludeReason": "quizfail"}