{"condition": 0, "counterbalance": 0, "assignmentId": "a80322464", "workerId": "w64674747", "hitId": "h59528752", "currenttrial": 55, "bonus": 0, "data": [{"uniqueid": "w64674747:a80322464", "current_trial": 0, "dateTime": 1693580829164, "trialdata": {"success": true, "trial_type": "fullscreen", "trial_index": 0, "time_elapsed": 10282, "internal_node_id": "0.0-0.0"}}, {"uniqueid": "w64674747:a80322464", "current_trial": 1, "dateTime": 1693580944962, "trialdata": {"view_history": [{"page_index": 0, "viewing_time": 115784}], "rt": 115786, "trial_id": "exp_instructions_control", "trial_type": "instructions", "trial_index": 1, "time_elapsed": 126081, "internal_node_id": "0.0-1.0"}}, {"uniqueid": "w64674747:a80322464", "current_trial": 2, "dateTime": 1693581653884, "trialdata": {"view_history": [{"page_index": 0, "viewing_time": 337020}, {"page_index": 1, "viewing_time": 171602}, {"page_index": 2, "viewing_time": 51676}, {"page_index": 3, "viewing_time": 148618}], "rt": 708917, "trial_id": "mouselab_instructions_1_control", "trial_type": "instructions", "trial_index": 2, "time_elapsed": 835003, "internal_node_id": "0.0-2.0-1.0"}}, {"uniqueid": "w64674747:a80322464", "current_trial": 3, "dateTime": 1693581698535, "trialdata": {"revealed_states": [], "clicked_states": ["12", "23", "1"], "num_clicks_accrued": [0, 0, 0, 0, 0, 0, 0, 0, 0, 0, 0, 0, 0], "stateRewards": ["", -10, 10, 10, -10, 10, -10, 10, -10, -10, 10, -10, -10, -10, -10, 10, -10, 10, -10, 10, -10, -10, 10, 10, 10, 10, -10, 10, -10, 10, -10, 10, 10, -10], "withholdReward": false, "trial_id": "practice_1", "block": "test", "trialIndex": 0, "score": 32, "costs": -1.5, "simulationMode": [null, null, null, null, null], "rewards": [10, 10, 10, -10, 10], "path": ["0", "0", "23", "24", "25", "26", "27"], "rt": [10306, 7556, 203, 922, 871], "actions": ["left", "left", "left", "up", "up"], "actionTimes": [18923, 26995, 27716, 29152, 30532], "queries": {"click": {"state": {"target": ["12", "23", "1"], "time": [11733, 14336, 16246]}, "edge": {"target": [], "time": []}}, "mouseover": {"state": {"target": ["12", "23", "1"], "time": [10742, 13574, 15354]}, "edge": {"target": [], "time": []}}, "mouseout": {"state": {"target": ["0", "0", "12", "23", "1", "23", "23", "24", "12"], "time": [7079, 10593, 11945, 15187, 17259, 17403, 21466, 33372, 40048]}, "edge": {"target": [], "time": []}}}, "displayed_time": "31.04", "trialTime": 43326, "trial_type": "mouselab-mdp", "trial_index": 3, "time_elapsed": 879653, "internal_node_id": "0.0-2.0-2.0-0.0"}}, {"uniqueid": "w64674747:a80322464", "current_trial": 4, "dateTime": 1693581731105, "trialdata": {"revealed_states": [], "clicked_states": ["23", "12", "1", "2", "10", "7"], "num_clicks_accrued": [0, 0, 0, 0, 0, 0, 0, 0, 0, 0, 0, 0, 0], "stateRewards": ["", 10, -10, 10, 10, -10, -10, 10, -10, 10, 10, 10, -10, -10, -10, -10, -10, 10, -10, 10, -10, -10, 10, -10, 10, -10, -10, -10, -10, -10, -10, -10, -10, -10], "withholdReward": false, "trial_id": "practice_2", "block": "test", "trialIndex": 1, "score": 10.5, "costs": -3, "simulationMode": [null, null, null, null, null], "rewards": [10, -10, 10, 10, -10], "path": ["0", "0", "1", "2", "3", "4", "5"], "rt": [11501, 775, 8187, 395, 638], "actions": ["up", "up", "up", "right", "up"], "actionTimes": [14776, 16064, 24758, 25661, 26819], "queries": {"click": {"state": {"target": ["23", "12", "1", "2", "10", "7"], "time": [5117, 6388, 7483, 9630, 11254, 12538]}, "edge": {"target": [], "time": []}}, "mouseover": {"state": {"target": ["23", "0", "12", "12", "1", "2", "3", "10", "7", "7"], "time": [4682, 5614, 5698, 6080, 6946, 8878, 10310, 10575, 11908, 12176]}, "edge": {"target": [], "time": []}}, "mouseout": {"state": {"target": ["0", "23", "0", "12", "12", "1", "2", "3", "10", "2", "7", "7", "7"], "time": [3127, 5584, 5664, 5797, 6864, 8778, 10260, 10410, 11808, 11874, 11926, 12764, 13492]}, "edge": {"target": [], "time": []}}}, "displayed_time": "27.33", "trialTime": 32406, "trial_type": "mouselab-mdp", "trial_index": 4, "time_elapsed": 912223, "internal_node_id": "0.0-2.0-2.0-1.0"}}, {"uniqueid": "w64674747:a80322464", "current_trial": 5, "dateTime": 1693581782570, "trialdata": {"view_history": [{"page_index": 0, "viewing_time": 22956}, {"page_index": 1, "viewing_time": 28504}], "rt": 51460, "trial_id": "mouselab_instructions_2_control", "trial_type": "instructions", "trial_index": 5, "time_elapsed": 963689, "internal_node_id": "0.0-2.0-3.0"}}, {"uniqueid": "w64674747:a80322464", "current_trial": 6, "dateTime": 1693581857153, "trialdata": {"rt": 74577, "response": {"Q0": "The cost for clicking on nodes may vary between nodes.", "Q1": "The better I perform the higher my bonus will be.", "Q2": "No, the amount of cash at each node of the web may be different each time.", "Q3": "To get the highest total score.", "Q4": "Only before moving the spider.", "Q5": "3 seconds"}, "question_order": [0, 1, 2, 3, 4, 5], "correct": {"Q0": "The cost for clicking on nodes may vary between nodes.", "Q1": "The better I perform the higher my bonus will be.", "Q2": "No, the amount of cash at each node of the web may be different each time.", "Q3": "To get the highest total score.", "Q4": "Only before moving the spider.", "Q5": "3 seconds"}, "trial_id": "mouselab_quiz_control", "trial_type": "survey-multi-choice", "trial_index": 6, "time_elapsed": 1038272, "internal_node_id": "0.0-2.0-4.0"}}, {"uniqueid": "w64674747:a80322464", "current_trial": 7, "dateTime": 1693581870268, "trialdata": {"rt": 13104, "response": {"Q0": "No"}, "question_order": [0], "trial_id": "repeat_check", "trial_type": "survey-multi-choice", "trial_index": 7, "time_elapsed": 1051387, "internal_node_id": "0.0-4.0-0.0"}}, {"uniqueid": "w64674747:a80322464", "current_trial": 8, "dateTime": 1693581906969, "trialdata": {"rt": 36692, "stimulus": "\n<h1> Get ready to start the game! </h1>\n\nThank you for reading the instructions. Get ready start with the 40 rounds of this game.\n<br><br>\nIf you need to take a break, feel free to take one after the end of a round, before continuing to the next one.\n<br><br>\nRemember, the more money the spider gets, the bigger your bonus will be!\n<br><br>\n<div style='text-align: center;'>Press <code>space</code> to begin.</div>\n\n<br><br>\n(If, at any point, the <code>space</code> key does not take you to the next page, click once on the text and try again.)", "response": " ", "trial_id": "mdp_ready", "trial_type": "html-keyboard-response", "trial_index": 8, "time_elapsed": 1088088, "internal_node_id": "0.0-6.0-0.0"}}, {"uniqueid": "w64674747:a80322464", "current_trial": 9, "dateTime": 1693581935472, "trialdata": {"revealed_states": [], "clicked_states": ["23", "12", "1", "13", "18", "22"], "num_clicks_accrued": [0, 0, 0, 0, 0, 0, 0, 0, 0, 0, 0, 0, 0], "stateRewards": ["", -1, 4, 3, 12, -27, 34, -33, 3, -63, 1, 6, 2, 2, -6, -11, -77, -85, 68, -6, 51, 81, -60, -2, -2, 1, 15, 20, 15, 68, -10, -14, 6, -4], "withholdReward": false, "trial_id": "mdp_trial_1", "block": "test", "trialIndex": 2, "score": 46.6, "costs": -8.4, "simulationMode": [null, null, null, null, null], "rewards": [2, 2, -6, -11, 68], "path": ["0", "0", "12", "13", "14", "15", "18"], "rt": [14888, 112, 821, 449, 60], "actions": ["right", "right", "right", "up", "left"], "actionTimes": [20001, 20623, 21966, 22926, 23502], "queries": {"click": {"state": {"target": ["23", "12", "1", "13", "18", "22"], "time": [6063, 8317, 10529, 13724, 15623, 17663]}, "edge": {"target": [], "time": []}}, "mouseover": {"state": {"target": ["23", "1", "12", "1", "18", "13", "18", "15", "22", "12", "0"], "time": [5656, 6372, 7455, 8802, 13083, 13299, 14316, 16229, 17062, 18693, 19043]}, "edge": {"target": [], "time": []}}, "mouseout": {"state": {"target": ["0", "23", "1", "12", "1", "18", "13", "18", "15", "22", "12", "0", "12", "13", "14", "21"], "time": [4141, 6307, 7341, 8722, 13033, 13166, 13939, 16179, 16962, 18626, 18760, 19277, 25537, 25571, 25604, 27302]}, "edge": {"target": [], "time": []}}}, "displayed_time": "24.02", "trialTime": 28335, "trial_type": "mouselab-mdp", "trial_index": 9, "time_elapsed": 1116590, "internal_node_id": "0.0-6.0-1.0-0.0"}}, {"uniqueid": "w64674747:a80322464", "current_trial": 10, "dateTime": 1693581967527, "trialdata": {"revealed_states": [], "clicked_states": ["23", "1", "12", "2", "8", "7", "4"], "num_clicks_accrued": [0, 0, 0, 0, 0, 0, 0, 0, 0, 0, 0, 0, 0], "stateRewards": ["", 2, -3, -2, 14, -4, 85, 46, 15, -28, 41, 31, -1, -1, -1, 5, 62, 79, 57, 12, -73, -64, 86, -1, 1, -3, -5, 68, 11, -32, 8, -80, -21, -56], "withholdReward": false, "trial_id": "mdp_trial_2", "block": "test", "trialIndex": 3, "score": 86.2, "costs": -9.8, "simulationMode": [null, null, null, null, null], "rewards": [2, -3, -2, 14, 85], "path": ["0", "0", "1", "2", "3", "4", "6"], "rt": [18968, 575, 355, 455, 563], "actions": ["up", "up", "up", "right", "right"], "actionTimes": [21594, 22687, 23551, 24518, 25591], "queries": {"click": {"state": {"target": ["23", "1", "12", "2", "8", "7", "4"], "time": [4362, 6330, 9147, 11584, 13269, 15884, 18899]}, "edge": {"target": [], "time": []}}, "mouseover": {"state": {"target": ["23", "1", "1", "12", "12", "13", "2", "1", "3", "3", "8", "10", "7", "4", "6", "4", "5"], "time": [3796, 4878, 5941, 6959, 8691, 9624, 10905, 12088, 12371, 12638, 12852, 13835, 15532, 16582, 16948, 18564, 19362]}, "edge": {"target": [], "time": []}}, "mouseout": {"state": {"target": ["0", "23", "1", "1", "1", "12", "12", "13", "2", "1", "3", "3", "8", "10", "2", "7", "4", "6", "4", "5"], "time": [1714, 4573, 5792, 6547, 6759, 8475, 9574, 10772, 12072, 12222, 12386, 12769, 13786, 14917, 15234, 16531, 16915, 18182, 19120, 20229]}, "edge": {"target": [], "time": []}}}, "displayed_time": "26.11", "trialTime": 31888, "trial_type": "mouselab-mdp", "trial_index": 10, "time_elapsed": 1148645, "internal_node_id": "0.0-6.0-1.0-1.0"}}, {"uniqueid": "w64674747:a80322464", "current_trial": 11, "dateTime": 1693582005167, "trialdata": {"revealed_states": [], "clicked_states": ["23", "1", "12", "25", "31", "28", "18", "14", "17", "8", "2", "4"], "num_clicks_accrued": [0, 0, 0, 0, 0, 0, 0, 0, 0, 0, 0, 0, 0], "stateRewards": ["", -2, -4, -2, 10, -8, -15, -47, 7, -84, 53, 5, -1, 2, -7, 3, 83, 31, 47, -1, 30, -8, 69, 2, -4, -1, 8, -7, 12, -8, -8, -13, 30, -84], "withholdReward": false, "trial_id": "mdp_trial_3", "block": "test", "trialIndex": 4, "score": 27.2, "costs": -16.8, "simulationMode": [null, null, null, null, null], "rewards": [-1, 2, -7, 3, 47], "path": ["0", "0", "12", "13", "14", "15", "18"], "rt": [27509, 526, 109, 311, 386], "actions": ["right", "right", "right", "up", "left"], "actionTimes": [29388, 30433, 31065, 31899, 32807], "queries": {"click": {"state": {"target": ["23", "1", "12", "25", "31", "28", "18", "14", "17", "8", "2", "4"], "time": [2787, 4954, 6742, 8746, 11279, 13742, 16349, 18253, 20640, 22680, 25410, 27005]}, "edge": {"target": [], "time": []}}, "mouseover": {"state": {"target": ["23", "1", "1", "12", "0", "24", "25", "30", "31", "24", "24", "28", "13", "7", "18", "18", "14", "15", "17", "13", "2", "8", "10", "2", "2", "4", "6", "7", "1"], "time": [2364, 3245, 4463, 5494, 7230, 7258, 7743, 9305, 10438, 11772, 12269, 13153, 14719, 15618, 15734, 15934, 17049, 18766, 20346, 21229, 21894, 22261, 23177, 24576, 25117, 25923, 27572, 28621, 28705]}, "edge": {"target": [], "time": []}}, "mouseout": {"state": {"target": ["0", "23", "1", "1", "12", "0", "24", "25", "30", "31", "24", "24", "28", "13", "7", "18", "18", "18", "14", "15", "17", "13", "2", "8", "10", "2", "2", "4", "6", "7", "1", "0", "22", "19", "20"], "time": [2297, 3007, 4278, 5443, 7227, 7244, 7275, 9274, 10389, 11494, 11858, 13104, 13960, 15518, 15701, 15818, 16574, 16899, 18467, 20282, 21163, 21278, 21944, 23144, 24542, 24677, 25633, 27555, 28571, 28655, 34333, 34433, 34916, 34932, 34949]}, "edge": {"target": [], "time": []}}}, "displayed_time": "33.32", "trialTime": 37461, "trial_type": "mouselab-mdp", "trial_index": 11, "time_elapsed": 1186285, "internal_node_id": "0.0-6.0-1.0-2.0"}}, {"uniqueid": "w64674747:a80322464", "current_trial": 12, "dateTime": 1693582032374, "trialdata": {"revealed_states": [], "clicked_states": ["23", "1", "12", "30", "19", "17", "8"], "num_clicks_accrued": [0, 0, 0, 0, 0, 0, 0, 0, 0, 0, 0, 0, 0], "stateRewards": ["", -2, -4, 2, 10, -17, 18, 73, 11, -32, 23, -13, -2, -4, 7, 12, -25, 66, -23, 15, 40, -76, -9, 1, 2, -7, -5, -20, 24, 3, -5, 16, -73, 70], "withholdReward": false, "trial_id": "mdp_trial_4", "block": "test", "trialIndex": 5, "score": 69.2, "costs": -9.8, "simulationMode": [null, null, null, null, null, null], "rewards": [-2, -4, 7, 12, 66], "path": ["0", "0", "12", "13", "14", "15", "17"], "rt": [16048, 784, 365, 84, 355, 635], "actions": ["right", "right", "right", "right", "up", "right"], "actionTimes": [18597, 19385, 20270, 20871, 21741, 22886], "queries": {"click": {"state": {"target": ["23", "1", "12", "30", "19", "17", "8"], "time": [3444, 5355, 7820, 10518, 12107, 14142, 17211]}, "edge": {"target": [], "time": []}}, "mouseover": {"state": {"target": ["23", "1", "12", "0", "23", "24", "25", "25", "30", "31", "22", "19", "14", "17", "15", "7", "2", "3", "8"], "time": [3036, 3834, 5865, 8231, 8251, 8268, 8296, 8663, 10178, 11177, 11293, 11659, 12726, 12858, 14672, 14805, 15005, 15256, 16172]}, "edge": {"target": [], "time": []}}, "mouseout": {"state": {"target": ["19", "23", "1", "12", "0", "23", "24", "25", "25", "30", "31", "22", "19", "14", "17", "15", "7", "2", "3", "8", "1", "21"], "time": [1319, 3783, 5814, 8046, 8248, 8265, 8281, 8312, 9929, 10731, 11210, 11627, 12692, 12758, 14639, 14705, 14889, 15088, 16122, 24364, 24914, 26329]}, "edge": {"target": [], "time": []}}}, "displayed_time": "23.40", "trialTime": 27009, "trial_type": "mouselab-mdp", "trial_index": 12, "time_elapsed": 1213492, "internal_node_id": "0.0-6.0-1.0-3.0"}}, {"uniqueid": "w64674747:a80322464", "current_trial": 13, "dateTime": 1693582066127, "trialdata": {"revealed_states": [], "clicked_states": ["1", "25", "29", "15", "21", "19", "30", "8", "9", "6", "10", "26"], "num_clicks_accrued": [0, 0, 0, 0, 0, 0, 0, 0, 0, 0, 0, 0, 0], "stateRewards": ["", 1, 4, -8, -5, -15, -7, 21, 13, -30, 40, -65, 1, 1, 5, -14, 35, 27, -38, -11, 36, -58, -47, -2, 4, -3, 13, -16, -49, 22, 15, -56, -44, -10], "withholdReward": false, "trial_id": "mdp_trial_5", "block": "test", "trialIndex": 6, "score": 33.2, "costs": -16.8, "simulationMode": [null, null, null, null, null], "rewards": [1, 4, -8, 13, 40], "path": ["0", "0", "1", "2", "3", "8", "10"], "rt": [24567, 523, 187, 410, 255], "actions": ["up", "up", "up", "left", "down"], "actionTimes": [26033, 27067, 27762, 28688, 29465], "queries": {"click": {"state": {"target": ["1", "25", "29", "15", "21", "19", "30", "8", "9", "6", "10", "26"], "time": [2512, 4899, 6699, 9151, 10913, 13642, 15287, 17344, 18885, 20443, 22280, 23931]}, "edge": {"target": [], "time": []}}, "mouseover": {"state": {"target": ["1", "23", "24", "25", "29", "26", "28", "18", "15", "17", "15", "19", "21", "21", "19", "22", "31", "30", "30", "31", "24", "28", "10", "8", "8", "9", "3", "4", "6", "7", "2", "10", "28", "25", "26", "26", "25", "24", "23"], "time": [2101, 3117, 4364, 4498, 5481, 7096, 7117, 7161, 7180, 7211, 8495, 10093, 10191, 10392, 11826, 14221, 14672, 14706, 14821, 16052, 16286, 16321, 16369, 16403, 17053, 18303, 19666, 19748, 19849, 21464, 21681, 21881, 22947, 23030, 23195, 23579, 24661, 24860, 24926]}, "edge": {"target": [], "time": []}}, "mouseout": {"state": {"target": ["0", "0", "1", "23", "24", "25", "29", "26", "28", "18", "15", "17", "15", "19", "21", "21", "19", "22", "31", "30", "30", "31", "24", "28", "10", "8", "8", "9", "3", "4", "6", "7", "2", "10", "28", "25", "26", "26", "25", "24", "23", "22"], "time": [702, 1901, 3049, 4348, 4432, 5397, 6912, 7113, 7128, 7178, 7194, 8461, 9777, 10142, 10209, 11574, 14220, 14237, 14689, 14736, 15968, 16253, 16303, 16336, 16386, 16419, 18186, 19616, 19717, 19797, 21414, 21513, 21746, 22499, 22980, 23080, 23313, 24594, 24810, 24894, 24976, 31788]}, "edge": {"target": [], "time": []}}}, "displayed_time": "29.98", "trialTime": 33554, "trial_type": "mouselab-mdp", "trial_index": 13, "time_elapsed": 1247246, "internal_node_id": "0.0-6.0-1.0-4.0"}}, {"uniqueid": "w64674747:a80322464", "current_trial": 14, "dateTime": 1693582093692, "trialdata": {"revealed_states": [], "clicked_states": ["23", "1", "12", "5", "11", "6"], "num_clicks_accrued": [0, 0, 0, 0, 0, 0, 0, 0, 0, 0, 0, 0, 0], "stateRewards": ["", -2, 2, -4, -4, -59, 88, 62, -3, 69, -15, -34, 1, -2, -5, 7, -54, -20, 78, -16, -74, -53, -21, 2, -4, 2, 13, -8, -44, 26, 9, 72, 4, 17], "withholdReward": false, "trial_id": "mdp_trial_6", "block": "test", "trialIndex": 7, "score": 71.6, "costs": -8.4, "simulationMode": [null, null, null, null, null], "rewards": [-2, 2, -4, -4, 88], "path": ["0", "0", "1", "2", "3", "4", "6"], "rt": [17651, 338, 89, 490, 590], "actions": ["up", "up", "up", "right", "right"], "actionTimes": [19451, 20304, 20907, 21907, 23005], "queries": {"click": {"state": {"target": ["23", "1", "12", "5", "11", "6"], "time": [2835, 5748, 8771, 12216, 13740, 15950]}, "edge": {"target": [], "time": []}}, "mouseover": {"state": {"target": ["23", "24", "15", "15", "18", "1", "12", "12", "15", "17", "15", "16", "4", "5", "9", "11", "8", "4", "6", "2", "28", "28", "28"], "time": [2334, 3332, 4282, 4664, 4764, 5381, 6279, 8161, 9226, 9276, 10376, 10759, 11541, 11807, 12939, 13290, 14407, 14704, 15537, 16753, 17195, 17486, 17952]}, "edge": {"target": [], "time": []}}, "mouseout": {"state": {"target": ["19", "12", "0", "23", "24", "15", "15", "18", "1", "12", "12", "15", "17", "15", "16", "4", "5", "9", "11", "11", "8", "4", "6", "2", "28", "28", "28", "0", "21"], "time": [601, 1117, 1167, 3299, 4201, 4299, 4713, 5015, 6231, 7995, 9176, 9259, 10359, 10426, 11458, 11607, 12825, 13190, 13960, 14373, 14440, 15437, 16686, 16768, 17419, 17785, 18734, 24060, 24609]}, "edge": {"target": [], "time": []}}}, "displayed_time": "23.52", "trialTime": 27368, "trial_type": "mouselab-mdp", "trial_index": 14, "time_elapsed": 1274810, "internal_node_id": "0.0-6.0-1.0-5.0"}}, {"uniqueid": "w64674747:a80322464", "current_trial": 15, "dateTime": 1693582122575, "trialdata": {"revealed_states": [], "clicked_states": ["23", "33", "12", "1", "5", "11"], "num_clicks_accrued": [0, 0, 0, 0, 0, 0, 0, 0, 0, 0, 0, 0, 0], "stateRewards": ["", 2, -4, 1, -12, -59, -53, -74, 16, -88, -66, 66, 1, -2, 8, -9, -14, 22, 25, -1, -39, 47, -14, -1, -1, -2, 1, -4, 52, -26, 15, -7, 46, 43], "withholdReward": false, "trial_id": "mdp_trial_7", "block": "test", "trialIndex": 8, "score": 72.6, "costs": -8.4, "simulationMode": [null, null, null, null, null], "rewards": [2, -4, 1, 16, 66], "path": ["0", "0", "1", "2", "3", "8", "11"], "rt": [19090, 288, 455, 153, 701], "actions": ["up", "up", "up", "left", "left"], "actionTimes": [20952, 21759, 22726, 23390, 24604], "queries": {"click": {"state": {"target": ["23", "33", "12", "1", "5", "11"], "time": [2956, 6057, 8242, 10989, 14332, 17516]}, "edge": {"target": [], "time": []}}, "mouseover": {"state": {"target": ["23", "1", "31", "33", "22", "12", "1", "17", "4", "5", "9", "11", "27", "29", "26", "6"], "time": [2570, 3435, 4802, 4985, 7035, 7315, 9263, 11810, 13209, 13609, 15107, 17123, 18137, 18206, 19270, 19803]}, "edge": {"target": [], "time": []}}, "mouseout": {"state": {"target": ["0", "23", "1", "23", "31", "33", "22", "12", "1", "17", "4", "5", "9", "11", "27", "29", "26", "6", "18", "14"], "time": [1286, 3368, 4701, 4767, 4817, 6272, 7148, 8899, 11427, 13026, 13254, 14942, 16724, 18107, 18153, 19254, 19287, 25530, 25664, 26113]}, "edge": {"target": [], "time": []}}}, "displayed_time": "25.12", "trialTime": 28681, "trial_type": "mouselab-mdp", "trial_index": 15, "time_elapsed": 1303693, "internal_node_id": "0.0-6.0-1.0-6.0"}}, {"uniqueid": "w64674747:a80322464", "current_trial": 16, "dateTime": 1693582174316, "trialdata": {"revealed_states": [], "clicked_states": ["12", "20", "33", "32", "11", "6", "9", "16", "17", "29", "21", "28", "10", "7"], "num_clicks_accrued": [0, 0, 0, 0, 0, 0, 0, 0, 0, 0, 0, 0, 0], "stateRewards": ["", 1, -3, 4, 13, -72, 52, 5, 5, -58, 5, 14, 2, 1, 3, -14, -86, -4, 73, 6, -58, -50, 49, 2, -3, -4, 2, 33, -41, 42, -11, 81, 45, 53], "withholdReward": false, "trial_id": "mdp_trial_8", "block": "test", "trialIndex": 9, "score": 9.400000000000006, "costs": -19.599999999999998, "simulationMode": [null, null, null, null, null], "rewards": [2, -3, -4, -11, 45], "path": ["0", "0", "23", "24", "25", "30", "32"], "rt": [39335, 554, 15, 424, 105], "actions": ["left", "left", "left", "down", "down"], "actionTimes": [42223, 43292, 43813, 44773, 45385], "queries": {"click": {"state": {"target": ["12", "20", "33", "32", "11", "6", "9", "16", "17", "29", "21", "28", "10", "7"], "time": [5000, 6806, 9453, 11861, 15023, 18143, 20909, 24620, 26168, 28214, 30501, 33362, 37347, 39500]}, "edge": {"target": [], "time": []}}, "mouseover": {"state": {"target": ["0", "12", "19", "20", "19", "24", "30", "33", "33", "32", "32", "30", "25", "27", "11", "8", "3", "4", "5", "6", "4", "9", "3", "17", "16", "17", "15", "18", "28", "26", "29", "29", "26", "23", "20", "21", "12", "28", "27", "10", "2", "7", "2", "10", "2", "7", "1", "23", "0"], "time": [3870, 3920, 5501, 5601, 7505, 8032, 8448, 8765, 9098, 10062, 10264, 12279, 12312, 12363, 12795, 15713, 15761, 15792, 16024, 17807, 20037, 20520, 21552, 21952, 23018, 25515, 26649, 26665, 26714, 26732, 26748, 27180, 28665, 28690, 29228, 29660, 31525, 32375, 34572, 35372, 35420, 35472, 36873, 36971, 37872, 37919, 40517, 40601, 41228]}, "edge": {"target": [], "time": []}}, "mouseout": {"state": {"target": ["30", "24", "23", "0", "0", "12", "19", "20", "19", "24", "30", "33", "33", "32", "32", "30", "25", "27", "11", "8", "3", "4", "5", "6", "4", "9", "3", "17", "16", "17", "15", "18", "28", "26", "29", "29", "26", "23", "20", "21", "12", "28", "27", "10", "2", "7", "2", "10", "2", "7", "1", "23", "0", "12", "13", "14"], "time": [2004, 2420, 2471, 2587, 3887, 5452, 5551, 7501, 7517, 8281, 8732, 8798, 10000, 10146, 12262, 12310, 12327, 12393, 15710, 15744, 15776, 15875, 17574, 20021, 20071, 21535, 21568, 22968, 25314, 26647, 26664, 26682, 26730, 26746, 26763, 28663, 28686, 28704, 29544, 31395, 31541, 34222, 35221, 35405, 35456, 36854, 36921, 37853, 37905, 40484, 40550, 40783, 47812, 47843, 47860, 47881]}, "edge": {"target": [], "time": []}}}, "displayed_time": "45.90", "trialTime": 51536, "trial_type": "mouselab-mdp", "trial_index": 16, "time_elapsed": 1355435, "internal_node_id": "0.0-6.0-1.0-7.0"}}, {"uniqueid": "w64674747:a80322464", "current_trial": 17, "dateTime": 1693582194458, "trialdata": {"revealed_states": [], "clicked_states": ["11"], "num_clicks_accrued": [0, 0, 0, 0, 0, 0, 0, 0, 0, 0, 0, 0, 0], "stateRewards": ["", -1, -3, -3, 1, -38, 2, -53, -2, -1, -81, 70, -1, 1, -5, -9, 46, 15, 35, -1, -22, 38, 59, -2, 4, -8, 13, 1, -83, -43, 4, 76, 13, 48], "withholdReward": false, "trial_id": "mdp_trial_9", "block": "test", "trialIndex": 10, "score": 59.6, "costs": -1.4, "simulationMode": [null, null, null, null, null], "rewards": [-1, -3, -3, -2, 70], "path": ["0", "0", "1", "2", "3", "8", "11"], "rt": [4719, 135, 1403, 231, 142], "actions": ["up", "up", "up", "left", "left"], "actionTimes": [6479, 7125, 9042, 9785, 10445], "queries": {"click": {"state": {"target": ["11"], "time": [3265]}, "edge": {"target": [], "time": []}}, "mouseover": {"state": {"target": ["1", "10", "11", "11", "8", "2", "18", "15", "16", "17"], "time": [2395, 2444, 2510, 2926, 3841, 3891, 3942, 4326, 4376, 4707]}, "edge": {"target": [], "time": []}}, "mouseout": {"state": {"target": ["20", "14", "18", "1", "10", "11", "11", "8", "2", "18", "15", "16", "17"], "time": [428, 495, 845, 2411, 2460, 2544, 3808, 3859, 3908, 3958, 4343, 4391, 11518]}, "edge": {"target": [], "time": []}}}, "displayed_time": "15.76", "trialTime": 19950, "trial_type": "mouselab-mdp", "trial_index": 17, "time_elapsed": 1375576, "internal_node_id": "0.0-6.0-1.0-8.0"}}, {"uniqueid": "w64674747:a80322464", "current_trial": 18, "dateTime": 1693582221356, "trialdata": {"revealed_states": [], "clicked_states": ["23", "12", "1", "17", "21", "29", "28"], "num_clicks_accrued": [0, 0, 0, 0, 0, 0, 0, 0, 0, 0, 0, 0, 0], "stateRewards": ["", 1, 4, 5, -5, 58, -80, 75, 6, 25, -39, 46, 2, -2, 4, 2, 59, 31, -22, -12, -61, 15, 72, 1, -2, -7, 8, 77, 76, -23, -7, 71, -15, -3], "withholdReward": false, "trial_id": "mdp_trial_10", "block": "test", "trialIndex": 11, "score": 66.2, "costs": -9.8, "simulationMode": [null, null, null, null, null], "rewards": [1, -2, -7, 8, 76], "path": ["0", "0", "23", "24", "25", "26", "28"], "rt": [17534, 260, 595, 210, 86], "actions": ["left", "left", "left", "up", "right"], "actionTimes": [19428, 20207, 21320, 22051, 22644], "queries": {"click": {"state": {"target": ["23", "12", "1", "17", "21", "29", "28"], "time": [3225, 5228, 7263, 9305, 11496, 13963, 15977]}, "edge": {"target": [], "time": []}}, "mouseover": {"state": {"target": ["23", "12", "1", "17", "21", "29", "33", "33", "26", "27", "28", "8", "9", "8", "10"], "time": [2693, 3774, 5705, 8902, 10851, 12618, 14564, 14946, 15047, 15096, 15530, 16612, 16995, 18627, 18675]}, "edge": {"target": [], "time": []}}, "mouseout": {"state": {"target": ["0", "23", "12", "1", "17", "21", "29", "33", "33", "26", "27", "28", "8", "9", "8", "10", "13", "14"], "time": [2377, 3710, 5622, 7478, 9901, 12016, 14447, 14647, 14980, 15064, 15130, 16528, 16662, 18592, 18659, 18709, 24138, 24156]}, "edge": {"target": [], "time": []}}}, "displayed_time": "23.16", "trialTime": 26668, "trial_type": "mouselab-mdp", "trial_index": 18, "time_elapsed": 1402474, "internal_node_id": "0.0-6.0-1.0-9.0"}}, {"uniqueid": "w64674747:a80322464", "current_trial": 19, "dateTime": 1693582245749, "trialdata": {"revealed_states": [], "clicked_states": ["23", "1", "12", "21", "22", "5"], "num_clicks_accrued": [0, 0, 0, 0, 0, 0, 0, 0, 0, 0, 0, 0, 0], "stateRewards": ["", -2, 2, -2, -7, -50, -62, -45, 7, 36, -24, -72, -1, -1, 8, -1, -67, 20, -52, 2, 35, -50, 80, -1, 1, 6, -6, -70, 6, 88, 8, -47, 74, -19], "withholdReward": false, "trial_id": "mdp_trial_11", "block": "test", "trialIndex": 12, "score": 79.6, "costs": -8.4, "simulationMode": [null, null, null, null, null], "rewards": [-1, -1, 8, 2, 80], "path": ["0", "0", "12", "13", "14", "19", "22"], "rt": [13291, 304, 105, 605, 717], "actions": ["right", "right", "right", "down", "left"], "actionTimes": [16487, 17309, 17921, 19041, 20265], "queries": {"click": {"state": {"target": ["23", "1", "12", "21", "22", "5"], "time": [4058, 5705, 7492, 11036, 12855, 14573]}, "edge": {"target": [], "time": []}}, "mouseover": {"state": {"target": ["23", "1", "12", "19", "21", "22", "21", "22", "22", "13", "18", "6", "5", "4", "7", "1"], "time": [3813, 4494, 6176, 8157, 8424, 9990, 10289, 11520, 11886, 13469, 13503, 13868, 13968, 15433, 15484, 15551]}, "edge": {"target": [], "time": []}}, "mouseout": {"state": {"target": ["1", "0", "23", "1", "12", "19", "21", "22", "21", "22", "22", "13", "18", "6", "5", "4", "7", "1", "16"], "time": [2630, 3563, 4282, 6127, 7910, 8391, 9690, 10207, 11471, 11603, 13451, 13484, 13518, 13885, 15401, 15467, 15518, 21812, 21879]}, "edge": {"target": [], "time": []}}}, "displayed_time": "20.78", "trialTime": 24175, "trial_type": "mouselab-mdp", "trial_index": 19, "time_elapsed": 1426867, "internal_node_id": "0.0-6.0-1.0-10.0"}}, {"uniqueid": "w64674747:a80322464", "current_trial": 20, "dateTime": 1693582289426, "trialdata": {"revealed_states": [], "clicked_states": ["23", "27", "12", "1", "5", "16", "9", "33", "29", "21", "20", "18", "28", "31"], "num_clicks_accrued": [0, 0, 0, 0, 0, 0, 0, 0, 0, 0, 0, 0, 0], "stateRewards": ["", -2, 4, 3, 5, -61, 4, 30, 1, -47, 83, 10, 1, 4, 7, -14, 19, -74, -83, 6, -2, -2, -65, -1, -2, 4, -11, 12, -1, -68, 11, -38, -28, 66], "withholdReward": false, "trial_id": "mdp_trial_12", "block": "test", "trialIndex": 13, "score": 58.400000000000006, "costs": -19.599999999999998, "simulationMode": [null, null, null, null, null], "rewards": [-1, -2, 4, 11, 66], "path": ["0", "0", "23", "24", "25", "30", "33"], "rt": [33194, 344, 261, 386, 905], "actions": ["left", "left", "left", "down", "left"], "actionTimes": [35933, 36796, 37577, 38469, 39886], "queries": {"click": {"state": {"target": ["23", "27", "12", "1", "5", "16", "9", "33", "29", "21", "20", "18", "28", "31"], "time": [3610, 5672, 8623, 10669, 13892, 15590, 17389, 19562, 21534, 25112, 27164, 29102, 31127, 33221]}, "edge": {"target": [], "time": []}}, "mouseover": {"state": {"target": ["23", "1", "27", "33", "30", "14", "13", "12", "1", "16", "16", "4", "5", "6", "16", "3", "8", "9", "27", "29", "29", "33", "29", "21", "20", "21", "21", "20", "19", "12", "18", "13", "24", "28", "28", "24", "31"], "time": [3231, 4048, 4415, 6579, 7512, 7645, 7911, 8212, 10190, 11207, 11690, 13123, 13223, 14687, 14754, 16187, 16203, 16601, 17852, 17869, 18450, 19184, 20232, 23762, 24362, 24410, 24728, 25543, 27657, 27707, 28390, 29589, 30222, 30323, 30540, 31771, 32386]}, "edge": {"target": [], "time": []}}, "mouseout": {"state": {"target": ["33", "25", "24", "0", "0", "23", "1", "27", "33", "30", "14", "13", "12", "1", "16", "16", "4", "5", "5", "6", "16", "3", "8", "9", "27", "29", "29", "33", "29", "29", "21", "20", "21", "21", "20", "19", "12", "18", "13", "24", "28", "28", "24", "31"], "time": [651, 1150, 1200, 1732, 2301, 3999, 4215, 6146, 7496, 7529, 7878, 8078, 9959, 10895, 11224, 13039, 13190, 14125, 14654, 14703, 16120, 16201, 16219, 17802, 17867, 17884, 18734, 20149, 21754, 22047, 23795, 24379, 24426, 25493, 27641, 27674, 27741, 29573, 29622, 30255, 30339, 31739, 32353, 33439]}, "edge": {"target": [], "time": []}}}, "displayed_time": "40.40", "trialTime": 43445, "trial_type": "mouselab-mdp", "trial_index": 20, "time_elapsed": 1470545, "internal_node_id": "0.0-6.0-1.0-11.0"}}, {"uniqueid": "w64674747:a80322464", "current_trial": 21, "dateTime": 1693582312009, "trialdata": {"revealed_states": [], "clicked_states": ["23", "29", "11", "6", "7"], "num_clicks_accrued": [0, 0, 0, 0, 0, 0, 0, 0, 0, 0, 0, 0, 0], "stateRewards": ["", 1, 2, -3, 6, -88, 74, -45, 7, -46, 40, -77, 1, -4, 4, 3, 22, -25, -59, 8, -83, 19, -60, -1, -1, -1, -8, 26, -29, 64, -7, -88, -51, -55], "withholdReward": false, "trial_id": "mdp_trial_13", "block": "test", "trialIndex": 14, "score": 73, "costs": -7, "simulationMode": [null, null, null, null, null], "rewards": [1, 2, -3, 6, 74], "path": ["0", "0", "1", "2", "3", "4", "6"], "rt": [11889, 97, 402, 220, 113], "actions": ["up", "up", "up", "right", "right"], "actionTimes": [14403, 15025, 15942, 16677, 17303], "queries": {"click": {"state": {"target": ["23", "29", "11", "6", "7"], "time": [3578, 5885, 7923, 9888, 12745]}, "edge": {"target": [], "time": []}}, "mouseover": {"state": {"target": ["23", "26", "29", "8", "9", "8", "11", "8", "3", "4", "6", "6", "7", "7", "18", "13"], "time": [3103, 4117, 4521, 6383, 6431, 6815, 7097, 8347, 8379, 8413, 8463, 8763, 11177, 11560, 13525, 13625]}, "edge": {"target": [], "time": []}}, "mouseout": {"state": {"target": ["21", "0", "23", "26", "29", "8", "9", "8", "11", "8", "3", "4", "6", "6", "7", "7", "18", "13"], "time": [721, 1969, 3810, 4467, 6298, 6399, 6766, 6881, 8329, 8363, 8396, 8430, 8629, 11145, 11210, 13342, 13608, 13641]}, "edge": {"target": [], "time": []}}}, "displayed_time": "17.82", "trialTime": 22356, "trial_type": "mouselab-mdp", "trial_index": 21, "time_elapsed": 1493127, "internal_node_id": "0.0-6.0-1.0-12.0"}}, {"uniqueid": "w64674747:a80322464", "current_trial": 22, "dateTime": 1693582343853, "trialdata": {"revealed_states": [], "clicked_states": ["12", "1", "23", "17", "18", "11", "5", "31", "33"], "num_clicks_accrued": [0, 0, 0, 0, 0, 0, 0, 0, 0, 0, 0, 0, 0], "stateRewards": ["", -2, 1, -7, 9, 8, 25, 61, -7, -17, 69, -81, 1, 4, -4, -11, 16, 67, 44, 3, 6, -45, -54, -2, 3, 6, -11, -15, 32, -47, 3, -39, -6, -88], "withholdReward": false, "trial_id": "mdp_trial_14", "block": "test", "trialIndex": 15, "score": 21.4, "costs": -12.600000000000001, "simulationMode": [null, null, null, null, null], "rewards": [1, 4, -4, -11, 44], "path": ["0", "0", "12", "13", "14", "15", "18"], "rt": [22164, 180, 442, 181, 398], "actions": ["right", "right", "right", "up", "left"], "actionTimes": [24367, 25069, 26024, 26712, 27629], "queries": {"click": {"state": {"target": ["12", "1", "23", "17", "18", "11", "5", "31", "33"], "time": [3144, 4826, 6878, 9989, 12210, 14971, 17324, 20121, 22449]}, "edge": {"target": [], "time": []}}, "mouseover": {"state": {"target": ["12", "1", "23", "17", "17", "17", "15", "18", "15", "17", "15", "18", "10", "8", "11", "9", "5", "6", "7", "24", "31", "30", "33", "30"], "time": [2837, 3619, 5600, 7333, 7748, 7948, 8765, 9081, 9348, 9564, 10437, 10545, 12710, 12744, 13143, 15658, 15957, 18122, 19088, 19521, 19821, 20752, 21019, 23583]}, "edge": {"target": [], "time": []}}, "mouseout": {"state": {"target": ["0", "0", "12", "1", "23", "17", "17", "17", "15", "18", "15", "17", "15", "18", "10", "8", "11", "9", "5", "6", "7", "24", "31", "31", "30", "33", "30", "31", "21"], "time": [1338, 2655, 3359, 5367, 7249, 7358, 7798, 8732, 8831, 9315, 9530, 10424, 10478, 12627, 12727, 12777, 15592, 15825, 17838, 19056, 19105, 19554, 20342, 20721, 20819, 23567, 23617, 23650, 29028]}, "edge": {"target": [], "time": []}}}, "displayed_time": "28.15", "trialTime": 31625, "trial_type": "mouselab-mdp", "trial_index": 22, "time_elapsed": 1524971, "internal_node_id": "0.0-6.0-1.0-13.0"}}, {"uniqueid": "w64674747:a80322464", "current_trial": 23, "dateTime": 1693582374046, "trialdata": {"revealed_states": [], "clicked_states": ["23", "33", "17", "11", "5", "22", "20"], "num_clicks_accrued": [0, 0, 0, 0, 0, 0, 0, 0, 0, 0, 0, 0, 0], "stateRewards": ["", -1, 2, 5, -6, 13, -64, -47, 8, -79, -80, -33, 1, 2, -2, -16, 56, -71, -10, 3, 29, 44, 85, -1, 4, 5, 4, -36, -56, 19, 8, 52, -13, -2], "withholdReward": false, "trial_id": "mdp_trial_15", "block": "test", "trialIndex": 16, "score": 79.2, "costs": -9.8, "simulationMode": [null, null, null, null, null, null], "rewards": [1, 2, -2, 3, 85], "path": ["0", "0", "12", "13", "14", "19", "22"], "rt": [17948, 2378, 85, 331, 685, 716], "actions": ["right", "right", "right", "right", "down", "left"], "actionTimes": [20357, 22740, 23332, 24179, 25381, 26609], "queries": {"click": {"state": {"target": ["23", "33", "17", "11", "5", "22", "20"], "time": [3404, 6134, 9021, 11889, 13948, 16541, 18889]}, "edge": {"target": [], "time": []}}, "mouseover": {"state": {"target": ["23", "1", "31", "30", "30", "33", "32", "31", "16", "17", "15", "16", "7", "2", "10", "8", "11", "3", "2", "7", "7", "4", "5", "5", "3", "10", "26", "29", "26", "12", "22", "19", "20", "13"], "time": [2850, 4016, 4797, 4864, 5264, 5414, 6728, 7346, 7427, 7878, 9575, 9692, 10759, 11108, 11158, 11207, 11557, 12622, 12706, 12789, 12905, 13139, 13205, 13488, 14573, 14638, 15121, 15220, 15551, 15684, 16086, 17285, 17900, 22014]}, "edge": {"target": [], "time": []}}, "mouseout": {"state": {"target": ["0", "0", "23", "1", "23", "31", "30", "30", "33", "33", "32", "31", "23", "16", "17", "15", "16", "7", "2", "10", "8", "11", "3", "2", "7", "7", "4", "5", "5", "3", "10", "26", "29", "26", "12", "22", "19", "20", "13", "14"], "time": [1002, 1999, 3966, 4647, 4747, 4814, 4914, 5314, 6354, 6612, 7315, 7361, 7377, 7445, 9542, 9608, 10692, 10792, 11141, 11175, 11225, 12114, 12639, 12756, 12806, 13122, 13171, 13272, 14556, 14603, 14653, 15153, 15520, 15603, 15702, 17268, 17301, 21814, 27775, 27808]}, "edge": {"target": [], "time": []}}}, "displayed_time": "27.12", "trialTime": 29978, "trial_type": "mouselab-mdp", "trial_index": 23, "time_elapsed": 1555165, "internal_node_id": "0.0-6.0-1.0-14.0"}}, {"uniqueid": "w64674747:a80322464", "current_trial": 24, "dateTime": 1693582399297, "trialdata": {"revealed_states": [], "clicked_states": ["23", "29", "17", "16", "9", "11"], "num_clicks_accrued": [0, 0, 0, 0, 0, 0, 0, 0, 0, 0, 0, 0, 0], "stateRewards": ["", -1, -3, -6, -2, -7, 80, -45, -3, -38, -72, 76, 2, 1, 7, 4, -62, 14, -74, 14, -87, -21, -88, -2, 1, -7, -10, 66, 56, -76, 10, -29, -72, -70], "withholdReward": false, "trial_id": "mdp_trial_16", "block": "test", "trialIndex": 17, "score": 54.6, "costs": -8.4, "simulationMode": [null, null, null, null, null], "rewards": [-1, -3, -6, -3, 76], "path": ["0", "0", "1", "2", "3", "8", "11"], "rt": [16817, 90, 366, 287, 101], "actions": ["up", "up", "up", "left", "left"], "actionTimes": [18397, 19008, 19888, 20689, 21300], "queries": {"click": {"state": {"target": ["23", "29", "17", "16", "9", "11"], "time": [2587, 5002, 7152, 10457, 12550, 14704]}, "edge": {"target": [], "time": []}}, "mouseover": {"state": {"target": ["23", "24", "29", "17", "19", "21", "22", "13", "14", "14", "15", "16", "4", "3", "9", "11", "1", "24", "33", "30", "31"], "time": [2102, 3066, 3231, 5931, 7728, 7779, 8078, 8395, 9079, 9411, 9516, 9627, 10975, 11328, 11441, 13257, 15705, 15837, 16253, 17102, 17168]}, "edge": {"target": [], "time": []}}, "mouseout": {"state": {"target": ["0", "23", "24", "29", "17", "17", "19", "21", "22", "13", "14", "14", "15", "16", "4", "3", "9", "11", "1", "24", "33", "30", "31"], "time": [1102, 3033, 3082, 5480, 7378, 7646, 7746, 7928, 8294, 8895, 9128, 9477, 9561, 10876, 10992, 11358, 13157, 15222, 15738, 15888, 17070, 17153, 17185]}, "edge": {"target": [], "time": []}}}, "displayed_time": "21.82", "trialTime": 25027, "trial_type": "mouselab-mdp", "trial_index": 24, "time_elapsed": 1580416, "internal_node_id": "0.0-6.0-1.0-15.0"}}, {"uniqueid": "w64674747:a80322464", "current_trial": 25, "dateTime": 1693582443130, "trialdata": {"revealed_states": [], "clicked_states": ["23", "17", "11", "33", "7", "28", "31", "20", "18", "5", "29", "27"], "num_clicks_accrued": [0, 0, 0, 0, 0, 0, 0, 0, 0, 0, 0, 0, 0], "stateRewards": ["", 2, 3, 3, 10, 19, -21, 6, 9, 54, 68, 16, 2, 2, -6, -8, 40, -2, -75, -2, -42, 55, 59, -1, 2, 4, -14, 11, -34, -30, -6, 61, -53, 13], "withholdReward": false, "trial_id": "mdp_trial_17", "block": "test", "trialIndex": 18, "score": 43.2, "costs": -16.8, "simulationMode": [null, null, null, null, null], "rewards": [-1, 2, 4, -6, 61], "path": ["0", "0", "23", "24", "25", "30", "31"], "rt": [34161, 383, 680, 394, 605], "actions": ["left", "left", "left", "down", "right"], "actionTimes": [36273, 37168, 38363, 39278, 40406], "queries": {"click": {"state": {"target": ["23", "17", "11", "33", "7", "28", "31", "20", "18", "5", "29", "27"], "time": [3326, 6743, 8777, 10401, 13849, 16733, 19223, 21874, 24692, 26872, 30740, 33389]}, "edge": {"target": [], "time": []}}, "mouseover": {"state": {"target": ["1", "0", "23", "17", "15", "17", "17", "10", "11", "26", "25", "33", "33", "29", "26", "10", "7", "7", "0", "23", "24", "28", "24", "31", "22", "22", "19", "20", "21", "12", "18", "2", "8", "9", "5", "8", "10", "24", "31", "25", "29", "30", "25", "26", "27", "28", "0", "12"], "time": [2667, 2783, 2949, 4213, 5230, 5663, 6431, 7346, 7660, 9377, 9398, 9428, 10008, 11357, 13077, 13107, 13138, 13555, 14421, 15503, 16119, 16420, 17268, 17535, 19816, 20367, 21182, 21253, 22664, 24096, 24346, 25328, 25378, 25461, 25813, 29241, 29274, 29407, 29473, 30073, 30273, 31454, 32754, 32802, 32852, 34001, 34118, 34536]}, "edge": {"target": [], "time": []}}, "mouseout": {"state": {"target": ["23", "1", "0", "23", "17", "15", "17", "17", "10", "11", "26", "25", "33", "33", "29", "26", "10", "7", "7", "0", "23", "24", "28", "24", "31", "22", "22", "19", "20", "20", "21", "12", "18", "2", "8", "9", "5", "8", "10", "24", "31", "25", "29", "29", "30", "25", "26", "27", "27", "28", "0", "12", "19"], "time": [1250, 2733, 2800, 3798, 5197, 5614, 5730, 6966, 7379, 9326, 9397, 9415, 9442, 11174, 13074, 13090, 13122, 13154, 14354, 14437, 15535, 16353, 17251, 17317, 19700, 20301, 21133, 21232, 22089, 22631, 22679, 24146, 25278, 25361, 25411, 25476, 29157, 29258, 29307, 29441, 29624, 30123, 30960, 31289, 32721, 32786, 32818, 33599, 33953, 34035, 34169, 34554, 41612]}, "edge": {"target": [], "time": []}}}, "displayed_time": "40.91", "trialTime": 43599, "trial_type": "mouselab-mdp", "trial_index": 25, "time_elapsed": 1624248, "internal_node_id": "0.0-6.0-1.0-16.0"}}, {"uniqueid": "w64674747:a80322464", "current_trial": 26, "dateTime": 1693582470715, "trialdata": {"revealed_states": [], "clicked_states": ["17", "5", "11", "29", "21", "20"], "num_clicks_accrued": [0, 0, 0, 0, 0, 0, 0, 0, 0, 0, 0, 0, 0], "stateRewards": ["", 1, -4, -6, 11, -20, 8, -30, 1, -38, 88, 42, 2, 3, 5, -12, -8, -74, 30, -8, 67, -19, 42, 2, -1, 4, 13, 50, -68, 2, -8, -15, 87, -46], "withholdReward": false, "trial_id": "mdp_trial_18", "block": "test", "trialIndex": 19, "score": 60.6, "costs": -8.4, "simulationMode": [null, null, null, null, null], "rewards": [2, 3, 5, -8, 67], "path": ["0", "0", "12", "13", "14", "19", "20"], "rt": [17393, 92, 381, 496, 507], "actions": ["right", "right", "right", "down", "right"], "actionTimes": [19867, 20478, 21369, 22379, 23414], "queries": {"click": {"state": {"target": ["17", "5", "11", "29", "21", "20"], "time": [4018, 6160, 9223, 11280, 14171, 16708]}, "edge": {"target": [], "time": []}}, "mouseover": {"state": {"target": ["12", "15", "17", "16", "6", "5", "11", "27", "29", "25", "31", "21", "21", "20", "19", "22", "32", "33", "30"], "time": [3102, 3417, 3701, 4599, 5347, 5448, 8596, 10094, 10510, 11892, 11958, 12956, 13814, 16138, 17155, 17171, 17253, 17753, 19103]}, "edge": {"target": [], "time": []}}, "mouseout": {"state": {"target": ["14", "0", "12", "15", "17", "16", "6", "5", "11", "27", "29", "25", "31", "21", "21", "20", "19", "22", "32", "33", "30", "31", "32"], "time": [1353, 3001, 3301, 3568, 4499, 4914, 5382, 6374, 10046, 10177, 11501, 11909, 11975, 13377, 16056, 17153, 17170, 17186, 17636, 19086, 19119, 24531, 26929]}, "edge": {"target": [], "time": []}}}, "displayed_time": "23.93", "trialTime": 27363, "trial_type": "mouselab-mdp", "trial_index": 26, "time_elapsed": 1651833, "internal_node_id": "0.0-6.0-1.0-17.0"}}, {"uniqueid": "w64674747:a80322464", "current_trial": 27, "dateTime": 1693582489349, "trialdata": {"revealed_states": [], "clicked_states": ["28"], "num_clicks_accrued": [0, 0, 0, 0, 0, 0, 0, 0, 0, 0, 0, 0, 0], "stateRewards": ["", -1, 1, -5, -6, -78, 47, -13, 12, 48, -88, 20, 2, -3, -2, 13, -20, 37, -57, 14, -38, 30, 31, -2, -2, 8, 2, -23, 78, 28, 12, -74, -88, 8], "withholdReward": false, "trial_id": "mdp_trial_19", "block": "test", "trialIndex": 20, "score": 82.6, "costs": -1.4, "simulationMode": [null, null, null, null, null], "rewards": [-2, -2, 8, 2, 78], "path": ["0", "0", "23", "24", "25", "26", "28"], "rt": [5931, 336, 161, 286, 869], "actions": ["left", "left", "left", "up", "right"], "actionTimes": [7535, 8377, 9051, 9857, 11240], "queries": {"click": {"state": {"target": ["28"], "time": [4319]}, "edge": {"target": [], "time": []}}, "mouseover": {"state": {"target": ["28", "26", "29", "26", "28", "28", "1", "7"], "time": [2380, 2828, 3262, 3461, 3529, 4011, 4826, 4926]}, "edge": {"target": [], "time": []}}, "mouseout": {"state": {"target": ["26", "23", "0", "0", "28", "26", "29", "26", "28", "28", "1", "7", "18", "0", "12", "13"], "time": [614, 829, 979, 2064, 2795, 3129, 3411, 3512, 3594, 4759, 4859, 6741, 13136, 13451, 14351, 15216]}, "edge": {"target": [], "time": []}}}, "displayed_time": "15.61", "trialTime": 18401, "trial_type": "mouselab-mdp", "trial_index": 27, "time_elapsed": 1670467, "internal_node_id": "0.0-6.0-1.0-18.0"}}, {"uniqueid": "w64674747:a80322464", "current_trial": 28, "dateTime": 1693582507937, "trialdata": {"revealed_states": [], "clicked_states": ["10"], "num_clicks_accrued": [0, 0, 0, 0, 0, 0, 0, 0, 0, 0, 0, 0, 0], "stateRewards": ["", -2, -1, -5, 10, -36, -70, 68, -9, 86, 71, -10, 2, -4, 7, -7, 66, 44, -66, -13, -69, 43, 15, -2, 2, 6, -13, 62, 57, 50, -10, -69, 42, -72], "withholdReward": false, "trial_id": "mdp_trial_20", "block": "test", "trialIndex": 21, "score": 52.6, "costs": -1.4, "simulationMode": [null, null, null, null, null], "rewards": [-2, -1, -5, -9, 71], "path": ["0", "0", "1", "2", "3", "8", "10"], "rt": [4839, 68, 184, 326, 102], "actions": ["up", "up", "up", "left", "down"], "actionTimes": [6521, 7112, 7810, 8650, 9291], "queries": {"click": {"state": {"target": ["10"], "time": [3583]}, "edge": {"target": [], "time": []}}, "mouseover": {"state": {"target": ["1", "1", "2", "10", "5", "5"], "time": [2263, 2579, 2662, 3211, 4178, 4496]}, "edge": {"target": [], "time": []}}, "mouseout": {"state": {"target": ["0", "1", "1", "2", "10", "5", "5", "22"], "time": [1221, 2379, 2629, 2696, 4076, 4194, 12137, 17198]}, "edge": {"target": [], "time": []}}}, "displayed_time": "15.68", "trialTime": 18323, "trial_type": "mouselab-mdp", "trial_index": 28, "time_elapsed": 1689055, "internal_node_id": "0.0-6.0-1.0-19.0"}}, {"uniqueid": "w64674747:a80322464", "current_trial": 29, "dateTime": 1693582534130, "trialdata": {"revealed_states": [], "clicked_states": ["20", "16", "9", "28", "33", "6"], "num_clicks_accrued": [0, 0, 0, 0, 0, 0, 0, 0, 0, 0, 0, 0, 0], "stateRewards": ["", 1, 3, 3, -10, 52, 68, 59, 12, 7, 49, 21, -2, -3, -4, -2, -2, 63, 63, -4, 44, 43, -76, -2, -3, -6, 13, 48, 36, 12, -5, -36, -33, -11], "withholdReward": false, "trial_id": "mdp_trial_21", "block": "test", "trialIndex": 22, "score": 56.6, "costs": -8.4, "simulationMode": [null, null, null, null, null], "rewards": [1, 3, 3, -10, 68], "path": ["0", "0", "1", "2", "3", "4", "6"], "rt": [16673, 175, 1104, 186, 313], "actions": ["up", "up", "up", "right", "right"], "actionTimes": [18562, 19247, 20858, 21554, 22380], "queries": {"click": {"state": {"target": ["20", "16", "9", "28", "33", "6"], "time": [3316, 5438, 8439, 9954, 13049, 15151]}, "edge": {"target": [], "time": []}}, "mouseover": {"state": {"target": ["0", "19", "20", "14", "15", "16", "8", "11", "9", "11", "27", "26", "25", "28", "24", "31", "30", "30", "33", "2", "6", "5"], "time": [2402, 2752, 2969, 3867, 3918, 4151, 5898, 5931, 6299, 8945, 9012, 9030, 9145, 9445, 11345, 11393, 12226, 12377, 12644, 13658, 14140, 16488]}, "edge": {"target": [], "time": []}}, "mouseout": {"state": {"target": ["0", "0", "19", "20", "14", "15", "16", "8", "11", "9", "11", "27", "26", "25", "28", "24", "31", "30", "30", "33", "2", "6", "5"], "time": [1237, 2435, 2919, 3834, 3900, 3967, 5833, 5915, 5966, 8912, 8978, 9028, 9079, 9345, 11329, 11379, 11464, 12260, 12576, 13610, 13675, 16321, 24431]}, "edge": {"target": [], "time": []}}}, "displayed_time": "22.90", "trialTime": 25909, "trial_type": "mouselab-mdp", "trial_index": 29, "time_elapsed": 1715248, "internal_node_id": "0.0-6.0-1.0-20.0"}}, {"uniqueid": "w64674747:a80322464", "current_trial": 30, "dateTime": 1693582555447, "trialdata": {"revealed_states": [], "clicked_states": ["6", "11", "29"], "num_clicks_accrued": [0, 0, 0, 0, 0, 0, 0, 0, 0, 0, 0, 0, 0], "stateRewards": ["", 1, -1, -7, -7, -22, 15, -13, 13, 26, -32, 38, -1, 1, -7, -4, 16, -62, 86, 12, -54, 56, 64, -2, -1, 6, 14, -57, 37, 62, -6, -25, 50, -70], "withholdReward": false, "trial_id": "mdp_trial_22", "block": "test", "trialIndex": 23, "score": 74.8, "costs": -4.199999999999999, "simulationMode": [null, null, null, null, null], "rewards": [-2, -1, 6, 14, 62], "path": ["0", "0", "23", "24", "25", "26", "29"], "rt": [9274, 218, 446, 631, 516], "actions": ["left", "left", "left", "up", "left"], "actionTimes": [11955, 12683, 13640, 14793, 15818], "queries": {"click": {"state": {"target": ["6", "11", "29"], "time": [3977, 6128, 8549]}, "edge": {"target": [], "time": []}}, "mouseover": {"state": {"target": ["1", "4", "6", "4", "11", "27", "29", "24", "31", "24", "28", "23"], "time": [3169, 3303, 3653, 4436, 4535, 6684, 6848, 9162, 9428, 10979, 11112, 11228]}, "edge": {"target": [], "time": []}}, "mouseout": {"state": {"target": ["20", "19", "0", "1", "4", "6", "4", "11", "27", "29", "24", "31", "24", "28", "23"], "time": [1406, 1422, 3136, 3219, 3353, 4435, 4451, 6635, 6750, 9029, 9230, 10929, 11045, 11145, 11261]}, "edge": {"target": [], "time": []}}}, "displayed_time": "16.68", "trialTime": 21053, "trial_type": "mouselab-mdp", "trial_index": 30, "time_elapsed": 1736566, "internal_node_id": "0.0-6.0-1.0-21.0"}}, {"uniqueid": "w64674747:a80322464", "current_trial": 31, "dateTime": 1693582574576, "trialdata": {"revealed_states": [], "clicked_states": ["25", "16"], "num_clicks_accrued": [0, 0, 0, 0, 0, 0, 0, 0, 0, 0, 0, 0, 0], "stateRewards": ["", -2, -4, -6, 12, -58, -70, -80, 2, 16, -88, -62, 1, 2, -5, 11, 77, -35, -44, -5, 18, -83, 87, 1, -3, -5, 13, -44, -21, -86, 10, -52, 8, 29], "withholdReward": false, "trial_id": "mdp_trial_23", "block": "test", "trialIndex": 24, "score": 83.2, "costs": -2.8, "simulationMode": [null, null, null, null, null], "rewards": [1, 2, -5, 11, 77], "path": ["0", "0", "12", "13", "14", "15", "16"], "rt": [7641, 281, 342, 508, 324], "actions": ["right", "right", "right", "up", "up"], "actionTimes": [9199, 9989, 10848, 11866, 12710], "queries": {"click": {"state": {"target": ["25", "16"], "time": [3318, 6053]}, "edge": {"target": [], "time": []}}, "mouseover": {"state": {"target": ["23", "1", "23", "24", "25", "17", "16", "4", "3", "8", "9"], "time": [2113, 2445, 2595, 2744, 2943, 4727, 4977, 6958, 7007, 7074, 7324]}, "edge": {"target": [], "time": []}}, "mouseout": {"state": {"target": ["23", "23", "1", "23", "24", "25", "17", "16", "4", "3", "8", "9", "21"], "time": [997, 2179, 2513, 2679, 2829, 4211, 4875, 6543, 6991, 7040, 7107, 16316, 18114]}, "edge": {"target": [], "time": []}}}, "displayed_time": "15.57", "trialTime": 18862, "trial_type": "mouselab-mdp", "trial_index": 31, "time_elapsed": 1755694, "internal_node_id": "0.0-6.0-1.0-22.0"}}, {"uniqueid": "w64674747:a80322464", "current_trial": 32, "dateTime": 1693582600306, "trialdata": {"revealed_states": [], "clicked_states": ["29", "31", "20", "16", "10"], "num_clicks_accrued": [0, 0, 0, 0, 0, 0, 0, 0, 0, 0, 0, 0, 0], "stateRewards": ["", -2, -3, 1, -7, 39, -67, 16, 5, -20, 73, 66, -1, 4, 5, -3, 23, -68, -87, -8, 3, -3, 17, 1, -4, -2, -13, -32, 34, 61, -5, -11, -18, 12], "withholdReward": false, "trial_id": "mdp_trial_24", "block": "test", "trialIndex": 25, "score": 67, "costs": -7, "simulationMode": [null, null, null, null, null], "rewards": [-2, -3, 1, 5, 73], "path": ["0", "0", "1", "2", "3", "8", "10"], "rt": [14555, 286, 412, 416, 182], "actions": ["up", "up", "up", "left", "down"], "actionTimes": [16383, 17189, 18115, 19054, 19750], "queries": {"click": {"state": {"target": ["29", "31", "20", "16", "10"], "time": [3363, 5333, 8653, 11434, 13423]}, "edge": {"target": [], "time": []}}, "mouseover": {"state": {"target": ["23", "24", "25", "29", "25", "31", "21", "21", "19", "14", "20", "19", "22", "14", "16", "10", "1"], "time": [2382, 2431, 2800, 2951, 3814, 3931, 7645, 7927, 8009, 8127, 8327, 9276, 10325, 10709, 11075, 12056, 15655]}, "edge": {"target": [], "time": []}}, "mouseout": {"state": {"target": ["0", "23", "24", "25", "29", "25", "31", "21", "21", "19", "14", "20", "19", "22", "14", "16", "10", "1", "22"], "time": [2350, 2398, 2783, 2849, 3781, 3864, 5556, 7662, 7977, 8042, 8211, 8867, 9293, 10359, 10726, 11940, 15571, 21431, 23996]}, "edge": {"target": [], "time": []}}}, "displayed_time": "20.27", "trialTime": 25497, "trial_type": "mouselab-mdp", "trial_index": 32, "time_elapsed": 1781424, "internal_node_id": "0.0-6.0-1.0-23.0"}}, {"uniqueid": "w64674747:a80322464", "current_trial": 33, "dateTime": 1693582618225, "trialdata": {"revealed_states": [], "clicked_states": ["29"], "num_clicks_accrued": [0, 0, 0, 0, 0, 0, 0, 0, 0, 0, 0, 0, 0], "stateRewards": ["", 2, -1, 4, -9, -43, 7, 54, -13, 38, -40, -83, -1, 2, -8, -10, 34, -33, 11, -14, -79, 65, 26, 1, 2, 4, 10, 21, 1, 86, 4, -53, 28, -29], "withholdReward": false, "trial_id": "mdp_trial_25", "block": "test", "trialIndex": 26, "score": 101.6, "costs": -1.4, "simulationMode": [null, null, null, null, null], "rewards": [1, 2, 4, 10, 86], "path": ["0", "0", "23", "24", "25", "26", "29"], "rt": [4990, 19, 353, 492, 435], "actions": ["left", "left", "left", "up", "left"], "actionTimes": [6517, 7053, 7920, 8926, 9872], "queries": {"click": {"state": {"target": ["29"], "time": [3283]}, "edge": {"target": [], "time": []}}, "mouseover": {"state": {"target": ["23", "24", "28", "26", "29", "26", "15", "17"], "time": [2022, 2088, 2205, 2338, 2804, 3805, 4220, 4269]}, "edge": {"target": [], "time": []}}, "mouseout": {"state": {"target": ["0", "23", "24", "28", "26", "29", "26", "15", "17"], "time": [1022, 2055, 2138, 2238, 2705, 3509, 3822, 4236, 12080]}, "edge": {"target": [], "time": []}}}, "displayed_time": "15.53", "trialTime": 17679, "trial_type": "mouselab-mdp", "trial_index": 33, "time_elapsed": 1799343, "internal_node_id": "0.0-6.0-1.0-24.0"}}, {"uniqueid": "w64674747:a80322464", "current_trial": 34, "dateTime": 1693582637405, "trialdata": {"revealed_states": [], "clicked_states": ["17"], "num_clicks_accrued": [0, 0, 0, 0, 0, 0, 0, 0, 0, 0, 0, 0, 0], "stateRewards": ["", -1, -3, -6, 14, 41, 18, 63, -14, 80, 21, 17, -2, -4, -2, -5, 13, 70, 8, -4, -64, -10, -20, 2, -1, 4, -1, -17, -55, 42, -7, 47, 54, 15], "withholdReward": false, "trial_id": "mdp_trial_26", "block": "test", "trialIndex": 27, "score": 55.6, "costs": -1.4, "simulationMode": [null, null, null, null, null], "rewards": [-2, -4, -2, -5, 70], "path": ["0", "0", "12", "13", "14", "15", "17"], "rt": [4630, 79, 355, 185, 446], "actions": ["right", "right", "right", "up", "right"], "actionTimes": [6714, 7307, 8185, 8878, 9841], "queries": {"click": {"state": {"target": ["17"], "time": [3290]}, "edge": {"target": [], "time": []}}, "mouseover": {"state": {"target": ["18", "15", "17", "17", "15", "2", "10", "2", "7"], "time": [2599, 2630, 2648, 2948, 3763, 3863, 4264, 5614, 5712]}, "edge": {"target": [], "time": []}}, "mouseout": {"state": {"target": ["22", "13", "0", "18", "15", "17", "17", "15", "2", "10", "2", "7", "16"], "time": [667, 999, 2565, 2615, 2647, 2679, 3747, 3780, 4231, 5579, 5662, 11656, 11707]}, "edge": {"target": [], "time": []}}}, "displayed_time": "16.09", "trialTime": 18938, "trial_type": "mouselab-mdp", "trial_index": 34, "time_elapsed": 1818524, "internal_node_id": "0.0-6.0-1.0-25.0"}}, {"uniqueid": "w64674747:a80322464", "current_trial": 35, "dateTime": 1693582656003, "trialdata": {"revealed_states": [], "clicked_states": ["33", "7"], "num_clicks_accrued": [0, 0, 0, 0, 0, 0, 0, 0, 0, 0, 0, 0, 0], "stateRewards": ["", -1, -2, 8, -6, -79, -6, 87, 9, -5, -66, -38, 2, 2, 5, -6, -82, 74, 85, -8, 67, -30, -15, 1, -2, -2, -2, 87, 64, 49, 7, 2, -38, -9], "withholdReward": false, "trial_id": "mdp_trial_27", "block": "test", "trialIndex": 28, "score": 83.2, "costs": -2.8, "simulationMode": [null, null, null, null, null], "rewards": [-1, -2, 8, -6, 87], "path": ["0", "0", "1", "2", "3", "4", "7"], "rt": [6344, 180, 452, 407, 639], "actions": ["up", "up", "up", "right", "down"], "actionTimes": [8351, 9045, 10015, 10936, 12085], "queries": {"click": {"state": {"target": ["33", "7"], "time": [3329, 5394]}, "edge": {"target": [], "time": []}}, "mouseover": {"state": {"target": ["23", "31", "30", "33", "25", "7", "6", "5", "9", "9", "8", "10"], "time": [2520, 2619, 2769, 2936, 3785, 4218, 5899, 6198, 6465, 6849, 6914, 7031]}, "edge": {"target": [], "time": []}}, "mouseout": {"state": {"target": ["21", "0", "23", "31", "30", "33", "25", "7", "6", "5", "9", "9", "8", "10", "4"], "time": [1037, 1553, 2537, 2638, 2886, 3753, 3801, 5816, 6066, 6365, 6532, 6865, 6964, 13759, 13858]}, "edge": {"target": [], "time": []}}}, "displayed_time": "16.01", "trialTime": 18308, "trial_type": "mouselab-mdp", "trial_index": 35, "time_elapsed": 1837121, "internal_node_id": "0.0-6.0-1.0-26.0"}}, {"uniqueid": "w64674747:a80322464", "current_trial": 36, "dateTime": 1693582695369, "trialdata": {"revealed_states": [], "clicked_states": ["20", "29", "7", "28", "22", "9", "18", "17", "32", "31", "11"], "num_clicks_accrued": [0, 0, 0, 0, 0, 0, 0, 0, 0, 0, 0, 0, 0], "stateRewards": ["", -1, -4, 8, 8, -68, 47, 24, -7, -61, 49, -69, -1, -1, 8, -7, 42, 1, -45, -11, 10, -63, -6, 1, 4, 6, -16, 79, -37, -58, -12, 81, 18, -53], "withholdReward": false, "trial_id": "mdp_trial_28", "block": "test", "trialIndex": 29, "score": 64.6, "costs": -15.400000000000002, "simulationMode": [null, null, null, null, null], "rewards": [1, 4, 6, -12, 81], "path": ["0", "0", "23", "24", "25", "30", "31"], "rt": [29793, 149, 558, 230, 456], "actions": ["left", "left", "left", "down", "right"], "actionTimes": [31588, 32254, 33328, 34066, 35041], "queries": {"click": {"state": {"target": ["20", "29", "7", "28", "22", "9", "18", "17", "32", "31", "11"], "time": [2976, 6208, 9194, 11310, 13365, 16660, 18732, 21378, 24489, 27001, 29287]}, "edge": {"target": [], "time": []}}, "mouseover": {"state": {"target": ["12", "19", "20", "19", "13", "12", "2", "10", "27", "29", "29", "10", "3", "5", "7", "1", "23", "24", "24", "28", "24", "31", "13", "14", "19", "22", "13", "7", "2", "8", "9", "9", "8", "10", "18", "15", "17", "12", "0", "31", "33", "30", "32", "31", "28", "10", "11", "28", "24"], "time": [2217, 2432, 2631, 3550, 3599, 3616, 4031, 4064, 4114, 4545, 5197, 6779, 6812, 6943, 7576, 9775, 9891, 10073, 10490, 10673, 11796, 11855, 12272, 12290, 12639, 12870, 14105, 14420, 14804, 14888, 15052, 15269, 17067, 17150, 17616, 20749, 20847, 22162, 22213, 22762, 23312, 23746, 24146, 25277, 27723, 28223, 28489, 30172, 30207]}, "edge": {"target": [], "time": []}}, "mouseout": {"state": {"target": ["31", "25", "24", "12", "0", "12", "19", "20", "19", "13", "12", "2", "10", "27", "29", "29", "10", "3", "5", "7", "7", "1", "23", "24", "24", "28", "24", "31", "13", "14", "19", "22", "13", "7", "2", "8", "9", "9", "9", "8", "10", "18", "15", "17", "12", "0", "31", "33", "30", "32", "31", "28", "10", "11", "28", "24", "31", "31", "12", "13", "14"], "time": [350, 684, 734, 1166, 2186, 2234, 2514, 3548, 3581, 3614, 3631, 4048, 4081, 4147, 4597, 6710, 6793, 6827, 7161, 9403, 9708, 9808, 10008, 10441, 10607, 11773, 11834, 11889, 12289, 12323, 12689, 14054, 14121, 14454, 14836, 14953, 15121, 16882, 17051, 17100, 17401, 18942, 20782, 22079, 22196, 22696, 22779, 23679, 23777, 25094, 27490, 28190, 28340, 30122, 30205, 30239, 37249, 37398, 37515, 37546, 37915]}, "edge": {"target": [], "time": []}}}, "displayed_time": "35.55", "trialTime": 39073, "trial_type": "mouselab-mdp", "trial_index": 36, "time_elapsed": 1876487, "internal_node_id": "0.0-6.0-1.0-27.0"}}, {"uniqueid": "w64674747:a80322464", "current_trial": 37, "dateTime": 1693582713538, "trialdata": {"revealed_states": [], "clicked_states": ["17", "10"], "num_clicks_accrued": [0, 0, 0, 0, 0, 0, 0, 0, 0, 0, 0, 0, 0], "stateRewards": ["", 1, 2, 2, -15, -84, 28, -26, 13, 31, 86, 30, -2, 1, -1, -8, 66, -40, -1, -10, -32, 57, -17, 1, 2, -2, 9, -23, 77, 85, 12, -32, -62, -35], "withholdReward": false, "trial_id": "mdp_trial_29", "block": "test", "trialIndex": 30, "score": 101.2, "costs": -2.8, "simulationMode": [null, null, null, null, null], "rewards": [1, 2, 2, 13, 86], "path": ["0", "0", "1", "2", "3", "8", "10"], "rt": [6510, 80, 357, 261, 56], "actions": ["up", "up", "up", "left", "down"], "actionTimes": [8940, 9541, 10417, 11186, 11748], "queries": {"click": {"state": {"target": ["17", "10"], "time": [3779, 5985]}, "edge": {"target": [], "time": []}}, "mouseover": {"state": {"target": ["1", "15", "17", "15", "18", "10", "8", "11", "10", "3", "5", "4", "7"], "time": [2933, 3249, 3383, 4347, 4380, 4515, 4613, 5047, 5497, 6533, 6595, 7328, 7662]}, "edge": {"target": [], "time": []}}, "mouseout": {"state": {"target": ["15", "18", "1", "1", "15", "17", "15", "18", "10", "8", "11", "10", "3", "5", "4", "7", "16"], "time": [1101, 1434, 1517, 2983, 3300, 4315, 4364, 4398, 4581, 5014, 5396, 6483, 6553, 7311, 7378, 13573, 13656]}, "edge": {"target": [], "time": []}}}, "displayed_time": "16.43", "trialTime": 17897, "trial_type": "mouselab-mdp", "trial_index": 37, "time_elapsed": 1894656, "internal_node_id": "0.0-6.0-1.0-28.0"}}, {"uniqueid": "w64674747:a80322464", "current_trial": 38, "dateTime": 1693582769946, "trialdata": {"revealed_states": [], "clicked_states": ["28", "33", "18", "9", "6", "29", "32", "10", "7", "5", "21", "20", "22", "17", "16", "11", "27"], "num_clicks_accrued": [0, 0, 0, 0, 0, 0, 0, 0, 0, 0, 0, 0, 0], "stateRewards": ["", -2, -2, -3, -6, -15, -11, 41, -12, -63, -76, 2, -2, -3, 8, 9, -36, -2, -18, -16, -32, -85, -17, -2, 1, 5, -16, 82, 35, -88, -1, 80, -82, -20], "withholdReward": false, "trial_id": "mdp_trial_30", "block": "test", "trialIndex": 31, "score": 46.2, "costs": -23.799999999999994, "simulationMode": [null, null, null, null, null], "rewards": [-2, 1, 5, -16, 82], "path": ["0", "0", "23", "24", "25", "26", "27"], "rt": [46654, 305, 109, 594, 89], "actions": ["left", "left", "left", "up", "up"], "actionTimes": [49719, 50540, 51172, 52279, 52886], "queries": {"click": {"state": {"target": ["28", "33", "18", "9", "6", "29", "32", "10", "7", "5", "21", "20", "22", "17", "16", "11", "27"], "time": [4451, 7630, 10687, 13569, 15800, 18465, 20933, 22950, 25395, 28134, 31313, 33374, 35683, 37805, 40245, 43434, 46670]}, "edge": {"target": [], "time": []}}, "mouseover": {"state": {"target": ["12", "23", "24", "28", "24", "31", "31", "30", "33", "30", "31", "14", "15", "18", "7", "2", "8", "9", "3", "7", "6", "7", "2", "28", "26", "27", "29", "30", "32", "24", "23", "10", "2", "7", "4", "5", "6", "16", "17", "20", "21", "20", "19", "22", "15", "17", "15", "16", "7", "26", "26", "27", "11", "26", "25", "26", "27", "26", "25", "31"], "time": [3512, 3596, 3645, 4128, 4959, 5011, 5459, 6611, 6960, 8042, 8059, 9039, 9271, 9388, 11337, 11707, 11787, 12211, 14201, 14718, 15300, 16315, 16333, 16748, 16830, 16899, 17197, 19079, 19329, 21544, 21594, 22010, 23428, 24941, 27089, 27605, 28637, 28670, 28688, 29503, 29802, 32433, 33848, 35014, 36213, 36679, 38377, 38794, 40727, 40810, 41191, 41224, 41291, 44254, 44771, 44854, 45412, 47153, 47201, 47767]}, "edge": {"target": [], "time": []}}, "mouseout": {"state": {"target": ["12", "12", "23", "24", "28", "24", "31", "31", "30", "33", "30", "31", "14", "15", "18", "7", "2", "8", "9", "3", "7", "6", "7", "2", "28", "26", "27", "29", "30", "32", "24", "23", "10", "2", "7", "4", "5", "6", "16", "17", "20", "21", "20", "19", "22", "15", "17", "15", "16", "7", "26", "26", "27", "11", "26", "25", "26", "27", "26", "25", "31"], "time": [2429, 3546, 3629, 3693, 4943, 4992, 5043, 6593, 6742, 8040, 8057, 8074, 9089, 9339, 11272, 11705, 11753, 12141, 14134, 14234, 15115, 16298, 16332, 16348, 16782, 16847, 17147, 18931, 19120, 21460, 21577, 21610, 23412, 23462, 27039, 27172, 28604, 28653, 28686, 28704, 29702, 31986, 33832, 33865, 36163, 36247, 38360, 38394, 40464, 40744, 40826, 41208, 41258, 44189, 44288, 44804, 44987, 47137, 47185, 47217, 48935]}, "edge": {"target": [], "time": []}}}, "displayed_time": "53.40", "trialTime": 56136, "trial_type": "mouselab-mdp", "trial_index": 38, "time_elapsed": 1951064, "internal_node_id": "0.0-6.0-1.0-29.0"}}, {"uniqueid": "w64674747:a80322464", "current_trial": 39, "dateTime": 1693582787129, "trialdata": {"revealed_states": [], "clicked_states": ["17"], "num_clicks_accrued": [0, 0, 0, 0, 0, 0, 0, 0, 0, 0, 0, 0, 0], "stateRewards": ["", -1, -4, -6, -15, 21, -67, -63, 9, 51, 69, -14, -1, 3, 8, -8, 39, 72, 63, 15, 19, 47, 15, 1, 4, 5, 16, -18, 34, 35, -14, -80, 40, 1], "withholdReward": false, "trial_id": "mdp_trial_31", "block": "test", "trialIndex": 32, "score": 72.6, "costs": -1.4, "simulationMode": [null, null, null, null, null], "rewards": [-1, 3, 8, -8, 72], "path": ["0", "0", "12", "13", "14", "15", "17"], "rt": [4291, 178, 438, 15, 34], "actions": ["right", "right", "right", "up", "right"], "actionTimes": [6326, 7017, 7972, 8498, 9067], "queries": {"click": {"state": {"target": ["17"], "time": [3382]}, "edge": {"target": [], "time": []}}, "mouseover": {"state": {"target": ["15", "17", "18", "1", "2", "7"], "time": [2839, 2972, 3838, 3888, 4063, 4238]}, "edge": {"target": [], "time": []}}, "mouseout": {"state": {"target": ["13", "12", "0", "15", "17", "18", "1", "2", "7", "2", "4", "6"], "time": [1158, 1190, 2440, 2907, 3806, 3854, 3937, 4188, 10432, 10616, 10699, 10749]}, "edge": {"target": [], "time": []}}}, "displayed_time": "16.04", "trialTime": 16901, "trial_type": "mouselab-mdp", "trial_index": 39, "time_elapsed": 1968247, "internal_node_id": "0.0-6.0-1.0-30.0"}}, {"uniqueid": "w64674747:a80322464", "current_trial": 40, "dateTime": 1693582807490, "trialdata": {"revealed_states": [], "clicked_states": ["10", "28", "22", "17"], "num_clicks_accrued": [0, 0, 0, 0, 0, 0, 0, 0, 0, 0, 0, 0, 0], "stateRewards": ["", -1, 1, -1, 2, 19, 85, -18, 2, -3, -26, 36, 2, 4, 7, -9, -18, 70, 72, -5, 35, -20, -28, 1, -2, -4, -3, -59, -11, -63, -2, -72, 59, -69], "withholdReward": false, "trial_id": "mdp_trial_32", "block": "test", "trialIndex": 33, "score": 68.4, "costs": -5.6, "simulationMode": [null, null, null, null, null], "rewards": [2, 4, 7, -9, 70], "path": ["0", "0", "12", "13", "14", "15", "17"], "rt": [12301, 146, 723, 5, 42], "actions": ["right", "right", "right", "up", "right"], "actionTimes": [14645, 15318, 16560, 17078, 17644], "queries": {"click": {"state": {"target": ["10", "28", "22", "17"], "time": [3786, 5832, 8203, 11133]}, "edge": {"target": [], "time": []}}, "mouseover": {"state": {"target": ["1", "10", "11", "10", "24", "31", "28", "31", "22", "14", "17", "14", "13"], "time": [2734, 2782, 3250, 3482, 4347, 4414, 4930, 7127, 7829, 8793, 9259, 13090, 13224]}, "edge": {"target": [], "time": []}}, "mouseout": {"state": {"target": ["16", "18", "12", "1", "10", "11", "10", "10", "24", "31", "28", "31", "22", "14", "17", "14", "13", "22", "19", "20"], "time": [1276, 1350, 1701, 2751, 2816, 3350, 4005, 4281, 4398, 4464, 6330, 7261, 8743, 8843, 13057, 13190, 13273, 19283, 19317, 19367]}, "edge": {"target": [], "time": []}}}, "displayed_time": "18.15", "trialTime": 20072, "trial_type": "mouselab-mdp", "trial_index": 40, "time_elapsed": 1988608, "internal_node_id": "0.0-6.0-1.0-31.0"}}, {"uniqueid": "w64674747:a80322464", "current_trial": 41, "dateTime": 1693582834507, "trialdata": {"revealed_states": [], "clicked_states": ["33", "28", "5", "10", "22"], "num_clicks_accrued": [0, 0, 0, 0, 0, 0, 0, 0, 0, 0, 0, 0, 0], "stateRewards": ["", 2, 3, 6, -5, -74, -53, 17, -12, 46, 44, 18, -2, 4, 1, -8, 22, -23, -49, 9, -45, 55, 81, 1, -1, -7, -16, -83, -71, -45, 2, 51, 82, 61], "withholdReward": false, "trial_id": "mdp_trial_33", "block": "test", "trialIndex": 34, "score": 60, "costs": -7, "simulationMode": [null, null, null, null, null], "rewards": [-2, 4, 1, 9, 55], "path": ["0", "0", "12", "13", "14", "19", "21"], "rt": [15920, 343, 569, 395, 179], "actions": ["right", "right", "right", "down", "down"], "actionTimes": [19924, 20781, 21856, 22765, 23463], "queries": {"click": {"state": {"target": ["33", "28", "5", "10", "22"], "time": [5847, 8767, 10927, 13729, 15966]}, "edge": {"target": [], "time": []}}, "mouseover": {"state": {"target": ["31", "33", "33", "30", "24", "10", "3", "2", "23", "31", "24", "28", "8", "5", "3", "10", "22", "23", "24", "25", "29", "26", "28"], "time": [4469, 4770, 5530, 6301, 6384, 6484, 6583, 7599, 7699, 8066, 8266, 8333, 9296, 9763, 11330, 11445, 15192, 16541, 16574, 16607, 17040, 18756, 18822]}, "edge": {"target": [], "time": []}}, "mouseout": {"state": {"target": ["31", "0", "31", "33", "33", "30", "24", "10", "3", "2", "23", "31", "24", "28", "8", "5", "3", "10", "22", "23", "24", "25", "29", "26", "28", "25", "12", "13", "19"], "time": [2921, 4419, 4487, 4853, 6267, 6334, 6401, 6518, 7216, 7633, 7733, 8233, 8299, 8990, 9313, 11296, 11346, 14376, 16184, 16558, 16590, 16644, 18722, 18789, 25179, 25699, 25965, 25998, 26065]}, "edge": {"target": [], "time": []}}}, "displayed_time": "23.98", "trialTime": 26715, "trial_type": "mouselab-mdp", "trial_index": 41, "time_elapsed": 2015625, "internal_node_id": "0.0-6.0-1.0-32.0"}}, {"uniqueid": "w64674747:a80322464", "current_trial": 42, "dateTime": 1693582887000, "trialdata": {"revealed_states": [], "clicked_states": ["29", "16", "31", "10", "7", "5", "6", "22", "20", "33", "27", "18", "17", "9", "28", "32"], "num_clicks_accrued": [0, 0, 0, 0, 0, 0, 0, 0, 0, 0, 0, 0, 0], "stateRewards": ["", -2, 2, -5, 1, 42, -63, -58, -6, 2, 16, 81, -2, 4, 7, -10, 33, 3, -33, -2, -52, -84, -27, 2, -3, -3, 15, -74, -14, -5, -5, -84, 79, -31], "withholdReward": false, "trial_id": "mdp_trial_34", "block": "test", "trialIndex": 35, "score": 47.60000000000001, "costs": -22.399999999999995, "simulationMode": [null, null, null, null, null], "rewards": [2, -3, -3, -5, 79], "path": ["0", "0", "23", "24", "25", "30", "32"], "rt": [43957, 396, 201, 309, 202], "actions": ["left", "left", "left", "down", "down"], "actionTimes": [45745, 46657, 47379, 48201, 48911], "queries": {"click": {"state": {"target": ["29", "16", "31", "10", "7", "5", "6", "22", "20", "33", "27", "18", "17", "9", "28", "32"], "time": [3909, 6145, 8342, 10906, 13109, 15214, 17521, 19566, 21647, 23772, 27273, 30220, 33316, 36500, 39823, 42940]}, "edge": {"target": [], "time": []}}, "mouseover": {"state": {"target": ["1", "24", "29", "26", "28", "1", "18", "15", "16", "31", "31", "24", "28", "8", "10", "8", "5", "5", "4", "7", "4", "5", "6", "12", "12", "13", "22", "19", "20", "19", "25", "33", "25", "24", "26", "27", "28", "0", "12", "18", "0", "13", "14", "17", "14", "0", "1", "10", "8", "9", "8", "1", "0", "31", "28", "23", "32", "31"], "time": [2552, 3321, 3435, 4367, 4416, 4800, 4850, 5099, 5649, 7148, 7415, 8879, 8946, 9395, 9778, 11393, 11793, 12296, 12382, 12727, 13559, 13607, 15707, 18088, 18237, 18520, 18603, 20070, 20135, 22100, 22216, 22667, 24364, 24647, 26546, 26911, 28097, 28176, 29577, 29893, 31041, 32541, 32577, 32640, 33788, 35653, 35686, 35753, 35819, 36204, 36968, 37036, 37101, 38967, 39433, 40598, 42563, 44062]}, "edge": {"target": [], "time": []}}, "mouseout": {"state": {"target": ["20", "19", "22", "13", "12", "1", "24", "29", "26", "28", "1", "18", "15", "16", "31", "31", "24", "28", "8", "10", "8", "5", "5", "4", "7", "4", "5", "6", "6", "12", "12", "13", "22", "19", "20", "19", "22", "25", "33", "25", "24", "26", "27", "28", "0", "12", "18", "0", "13", "14", "17", "17", "14", "0", "1", "10", "8", "9", "8", "1", "0", "31", "28", "28", "23", "32", "31"], "time": [404, 470, 570, 920, 987, 2936, 3369, 4350, 4400, 4434, 4818, 4879, 5565, 6567, 7197, 8813, 8913, 8979, 9446, 11116, 11443, 11859, 12326, 12458, 13330, 13592, 15606, 17745, 17987, 18137, 18255, 18552, 20055, 20102, 22083, 22116, 22133, 22566, 24298, 24530, 26346, 26729, 28063, 28112, 28194, 29610, 30941, 31091, 32574, 32591, 33531, 33772, 33822, 35672, 35702, 35768, 36069, 36953, 36985, 37052, 37153, 39134, 40038, 40532, 40614, 43995, 44095]}, "edge": {"target": [], "time": []}}}, "displayed_time": "49.42", "trialTime": 52199, "trial_type": "mouselab-mdp", "trial_index": 42, "time_elapsed": 2068118, "internal_node_id": "0.0-6.0-1.0-33.0"}}, {"uniqueid": "w64674747:a80322464", "current_trial": 43, "dateTime": 1693582908162, "trialdata": {"revealed_states": [], "clicked_states": ["16", "22", "33", "28", "6"], "num_clicks_accrued": [0, 0, 0, 0, 0, 0, 0, 0, 0, 0, 0, 0, 0], "stateRewards": ["", -1, 3, 8, 10, -86, 61, -36, 10, 17, -60, 24, -1, -3, 3, 11, 50, 60, 33, -3, -20, 58, -6, 1, -4, -4, 13, -70, -71, 43, 14, 52, 82, -11], "withholdReward": false, "trial_id": "mdp_trial_35", "block": "test", "trialIndex": 36, "score": 74, "costs": -7, "simulationMode": [null, null, null, null, null], "rewards": [-1, 3, 8, 10, 61], "path": ["0", "0", "1", "2", "3", "4", "6"], "rt": [12931, 211, 72, 358, 303], "actions": ["up", "up", "up", "right", "right"], "actionTimes": [14326, 15049, 15640, 16511, 17321], "queries": {"click": {"state": {"target": ["16", "22", "33", "28", "6"], "time": [2485, 4667, 6761, 8882, 10993]}, "edge": {"target": [], "time": []}}, "mouseover": {"state": {"target": ["16", "16", "22", "31", "33", "26", "28", "10", "2", "7", "6", "10", "8", "8", "10"], "time": [1899, 2048, 3430, 5162, 5577, 7343, 7875, 9507, 9591, 9690, 10073, 11622, 11739, 12189, 12294]}, "edge": {"target": [], "time": []}}, "mouseout": {"state": {"target": ["1", "2", "1", "16", "16", "22", "31", "33", "26", "28", "10", "2", "7", "6", "10", "8", "8", "10", "24", "31"], "time": [483, 549, 865, 1917, 2963, 5112, 5178, 6984, 7392, 9425, 9557, 9657, 10027, 11490, 11639, 11938, 12237, 18200, 18283, 18832]}, "edge": {"target": [], "time": []}}}, "displayed_time": "17.83", "trialTime": 20892, "trial_type": "mouselab-mdp", "trial_index": 43, "time_elapsed": 2089281, "internal_node_id": "0.0-6.0-1.0-34.0"}}, {"uniqueid": "w64674747:a80322464", "current_trial": 44, "dateTime": 1693582942329, "trialdata": {"revealed_states": [], "clicked_states": ["17", "29", "31", "7", "11", "6", "22", "20", "32", "28"], "num_clicks_accrued": [0, 0, 0, 0, 0, 0, 0, 0, 0, 0, 0, 0, 0], "stateRewards": ["", -2, -1, 3, -3, 71, -58, -21, 7, -10, -75, -37, 2, 4, -1, -12, -79, -29, -48, 3, -41, -10, -30, -1, -2, 1, -15, 13, 66, 22, -1, -42, -86, -55], "withholdReward": false, "trial_id": "mdp_trial_36", "block": "test", "trialIndex": 37, "score": 35, "costs": -14.000000000000002, "simulationMode": [null, null, null, null, null], "rewards": [-1, -2, 1, -15, 66], "path": ["0", "0", "23", "24", "25", "26", "28"], "rt": [26250, 191, 510, 255, 470], "actions": ["left", "left", "left", "up", "right"], "actionTimes": [27639, 28342, 29362, 30138, 31118], "queries": {"click": {"state": {"target": ["17", "29", "31", "7", "11", "6", "22", "20", "32", "28"], "time": [2504, 4323, 6306, 8177, 10942, 13730, 15948, 18834, 21296, 24672]}, "edge": {"target": [], "time": []}}, "mouseover": {"state": {"target": ["18", "15", "17", "15", "18", "1", "28", "26", "29", "25", "30", "31", "10", "5", "4", "7", "2", "2", "10", "11", "8", "6", "18", "13", "22", "20", "21", "32", "30", "23", "1", "1", "28", "25"], "time": [1775, 1809, 2208, 3023, 3056, 3089, 3189, 3522, 3605, 4754, 4820, 5188, 6736, 7268, 7369, 7486, 10033, 10117, 10234, 10532, 11581, 12900, 14245, 14295, 14696, 17491, 19390, 20521, 21920, 23620, 23654, 23935, 24319, 26784]}, "edge": {"target": [], "time": []}}, "mouseout": {"state": {"target": ["0", "18", "15", "17", "15", "18", "1", "28", "26", "29", "25", "30", "31", "10", "5", "4", "7", "2", "2", "10", "11", "8", "7", "6", "18", "13", "22", "20", "21", "32", "30", "23", "1", "1", "28", "28", "25", "30", "24", "13", "14", "15"], "time": [941, 1793, 1907, 2717, 3040, 3072, 3106, 3489, 3572, 4704, 4776, 4887, 6530, 6753, 7335, 7418, 9983, 10084, 10166, 10298, 11158, 11615, 11715, 14195, 14278, 14328, 16859, 19324, 19407, 21511, 21970, 23638, 23671, 23968, 24897, 26717, 32212, 32528, 32611, 32761, 33111, 33161]}, "edge": {"target": [], "time": []}}}, "displayed_time": "31.63", "trialTime": 33888, "trial_type": "mouselab-mdp", "trial_index": 44, "time_elapsed": 2123447, "internal_node_id": "0.0-6.0-1.0-35.0"}}, {"uniqueid": "w64674747:a80322464", "current_trial": 45, "dateTime": 1693582968816, "trialdata": {"revealed_states": [], "clicked_states": ["17", "28", "7", "31", "21", "27"], "num_clicks_accrued": [0, 0, 0, 0, 0, 0, 0, 0, 0, 0, 0, 0, 0], "stateRewards": ["", -2, 2, 3, -7, -31, -33, 29, -8, -57, 50, -83, -1, -1, 5, 13, -23, -62, 25, 5, -66, -85, 14, 1, -2, -1, 16, 71, 33, -19, -14, 5, -43, 79], "withholdReward": false, "trial_id": "mdp_trial_37", "block": "test", "trialIndex": 38, "score": 76.6, "costs": -8.4, "simulationMode": [null, null, null, null, null], "rewards": [1, -2, -1, 16, 71], "path": ["0", "0", "23", "24", "25", "26", "27"], "rt": [15185, 263, 627, 152, 2299], "actions": ["left", "left", "left", "up", "up"], "actionTimes": [17412, 18193, 19340, 19999, 22811], "queries": {"click": {"state": {"target": ["17", "28", "7", "31", "21", "27"], "time": [3379, 5709, 7861, 10039, 12318, 14345]}, "edge": {"target": [], "time": []}}, "mouseover": {"state": {"target": ["18", "15", "17", "24", "29", "26", "28", "11", "8", "8", "10", "10", "2", "7", "0", "31", "21", "29", "27", "16", "5", "4"], "time": [2695, 2716, 3078, 3894, 4360, 4692, 4992, 6224, 6257, 6540, 6607, 7057, 7124, 7225, 8338, 9004, 11236, 13266, 13567, 15333, 15882, 16749]}, "edge": {"target": [], "time": []}}, "mouseout": {"state": {"target": ["17", "15", "18", "18", "15", "17", "24", "29", "26", "28", "11", "8", "8", "10", "10", "2", "7", "0", "31", "21", "29", "27", "16", "5", "4", "1", "2", "1"], "time": [363, 431, 813, 2713, 2743, 3793, 3909, 4427, 4893, 5918, 6241, 6274, 6557, 6707, 7090, 7175, 8272, 8355, 10521, 12734, 13416, 14576, 15366, 16732, 16766, 23708, 24124, 24190]}, "edge": {"target": [], "time": []}}}, "displayed_time": "23.33", "trialTime": 26212, "trial_type": "mouselab-mdp", "trial_index": 45, "time_elapsed": 2149934, "internal_node_id": "0.0-6.0-1.0-36.0"}}, {"uniqueid": "w64674747:a80322464", "current_trial": 46, "dateTime": 1693582995022, "trialdata": {"revealed_states": [], "clicked_states": ["20", "31", "9", "17", "33"], "num_clicks_accrued": [0, 0, 0, 0, 0, 0, 0, 0, 0, 0, 0, 0, 0], "stateRewards": ["", 1, -2, -3, 14, -42, -87, -37, -11, -50, 33, -44, -2, 4, -7, 13, 48, -75, -66, 12, 23, -2, 82, 1, -4, 3, 12, 51, -15, -26, -11, -52, -29, 82], "withholdReward": false, "trial_id": "mdp_trial_38", "block": "test", "trialIndex": 39, "score": 64, "costs": -7, "simulationMode": [null, null, null, null, null], "rewards": [1, -4, 3, -11, 82], "path": ["0", "0", "23", "24", "25", "30", "33"], "rt": [13500, 180, 487, 225, 435], "actions": ["left", "left", "left", "down", "left"], "actionTimes": [15155, 15845, 16849, 17590, 18546], "queries": {"click": {"state": {"target": ["20", "31", "9", "17", "33"], "time": [2771, 4953, 7246, 9413, 12162]}, "edge": {"target": [], "time": []}}, "mouseover": {"state": {"target": ["12", "13", "14", "19", "20", "22", "25", "31", "24", "10", "8", "5", "9", "8", "1", "12", "15", "17", "13", "31", "30", "33", "32"], "time": [2008, 2042, 2108, 2208, 2377, 3177, 3241, 3829, 5291, 5375, 5407, 5991, 6742, 7721, 7787, 8221, 8304, 8353, 10118, 11368, 11634, 11734, 14132]}, "edge": {"target": [], "time": []}}, "mouseout": {"state": {"target": ["23", "10", "2", "7", "12", "0", "12", "13", "14", "19", "20", "22", "25", "31", "24", "10", "8", "5", "9", "8", "1", "12", "15", "17", "13", "31", "30", "33", "32", "0", "1", "0", "19"], "time": [329, 511, 577, 644, 843, 1956, 2025, 2075, 2176, 2310, 3161, 3193, 3258, 5240, 5308, 5390, 5657, 6390, 7704, 7738, 7803, 8254, 8337, 10069, 10151, 11418, 11685, 13632, 14331, 23672, 24122, 24172, 24722]}, "edge": {"target": [], "time": []}}}, "displayed_time": "19.06", "trialTime": 25926, "trial_type": "mouselab-mdp", "trial_index": 46, "time_elapsed": 2176140, "internal_node_id": "0.0-6.0-1.0-37.0"}}, {"uniqueid": "w64674747:a80322464", "current_trial": 47, "dateTime": 1693583019777, "trialdata": {"revealed_states": [], "clicked_states": ["6", "29", "7", "31", "21"], "num_clicks_accrued": [0, 0, 0, 0, 0, 0, 0, 0, 0, 0, 0, 0, 0], "stateRewards": ["", 2, 3, -3, 4, 72, -28, 34, -12, 57, -64, -15, 2, 1, -4, -15, 2, 49, 31, -1, -42, -58, 31, -2, 1, -2, -13, -75, -19, -22, -6, 61, 10, -56], "withholdReward": false, "trial_id": "mdp_trial_39", "block": "test", "trialIndex": 40, "score": -6, "costs": -7, "simulationMode": [null, null, null, null, null], "rewards": [-2, 1, -2, -6, 10], "path": ["0", "0", "23", "24", "25", "30", "32"], "rt": [11390, 37, 177, 328, 5], "actions": ["left", "left", "left", "down", "down"], "actionTimes": [13231, 13770, 14457, 15290, 15803], "queries": {"click": {"state": {"target": ["6", "29", "7", "31", "21"], "time": [2853, 4902, 6877, 9011, 11169]}, "edge": {"target": [], "time": []}}, "mouseover": {"state": {"target": ["1", "2", "4", "6", "2", "10", "29", "26", "28", "2", "7", "24", "31", "19", "21"], "time": [2158, 2210, 2424, 2492, 3325, 3355, 3955, 5311, 5353, 5604, 5921, 7537, 8219, 9684, 10051]}, "edge": {"target": [], "time": []}}, "mouseout": {"state": {"target": ["18", "1", "2", "4", "6", "2", "10", "29", "26", "28", "2", "7", "24", "31", "19", "21", "0"], "time": [893, 2191, 2275, 2440, 3071, 3339, 3389, 5289, 5327, 5369, 5689, 7354, 7854, 9384, 9717, 11631, 23954]}, "edge": {"target": [], "time": []}}}, "displayed_time": "16.33", "trialTime": 24472, "trial_type": "mouselab-mdp", "trial_index": 47, "time_elapsed": 2200895, "internal_node_id": "0.0-6.0-1.0-38.0"}}, {"uniqueid": "w64674747:a80322464", "current_trial": 48, "dateTime": 1693583047732, "trialdata": {"revealed_states": [], "clicked_states": ["17", "29", "32", "9", "7", "10", "31"], "num_clicks_accrued": [0, 0, 0, 0, 0, 0, 0, 0, 0, 0, 0, 0, 0], "stateRewards": ["", 2, 4, 4, -8, -36, -33, 38, 16, -51, 57, 57, 1, 3, 4, -6, 45, 68, 87, 1, 63, 24, -55, -2, 2, -6, -13, -63, -50, 8, 2, 80, 6, 60], "withholdReward": false, "trial_id": "mdp_trial_40", "block": "test", "trialIndex": 41, "score": 66.2, "costs": -9.8, "simulationMode": [null, null, null, null, null], "rewards": [-2, 2, -6, 2, 80], "path": ["0", "0", "23", "24", "25", "30", "31"], "rt": [20062, 249, 331, 391, 573], "actions": ["left", "left", "left", "down", "right"], "actionTimes": [21438, 22193, 23024, 23920, 24998], "queries": {"click": {"state": {"target": ["17", "29", "32", "9", "7", "10", "31"], "time": [3328, 5586, 8198, 10833, 13197, 15750, 18203]}, "edge": {"target": [], "time": []}}, "mouseover": {"state": {"target": ["1", "17", "15", "18", "26", "29", "33", "32", "30", "25", "11", "9", "4", "7", "7", "2", "10", "31", "13", "22"], "time": [1997, 2846, 3845, 3863, 4294, 4377, 6209, 7908, 8673, 8708, 8856, 9672, 11836, 12036, 12303, 13668, 13784, 16848, 19172, 19428]}, "edge": {"target": [], "time": []}}, "mouseout": {"state": {"target": ["0", "1", "17", "15", "18", "26", "29", "33", "32", "30", "25", "11", "9", "4", "7", "7", "2", "10", "31", "13", "22", "19", "20"], "time": [547, 2380, 3552, 3861, 3877, 4343, 6025, 7741, 8414, 8706, 8739, 9524, 11704, 11870, 12053, 13618, 13685, 16217, 18646, 19212, 26892, 26937, 26987]}, "edge": {"target": [], "time": []}}}, "displayed_time": "25.51", "trialTime": 27605, "trial_type": "mouselab-mdp", "trial_index": 48, "time_elapsed": 2228850, "internal_node_id": "0.0-6.0-1.0-39.0"}}, {"uniqueid": "w64674747:a80322464", "current_trial": 49, "dateTime": 1693583164882, "trialdata": {"rt": 117144, "response": {"Q0": "$-2 to $2", "Q1": "$-4 to $4", "Q2": "$-16 to $16", "Q3": "The cost for clicking on nodes varied between nodes.", "Q4": "Slightly motivated"}, "question_order": [0, 1, 2, 3, 4], "trial_id": "final_quiz_control", "trial_type": "survey-multi-choice", "trial_index": 49, "time_elapsed": 2346000, "internal_node_id": "0.0-6.0-2.0"}}, {"uniqueid": "w64674747:a80322464", "current_trial": 50, "dateTime": 1693583404125, "trialdata": {"rt": 239229, "response": {"Q0": "to inspect the last rows of the web and ultimately remember which was the highest and then use that route  ", "Q1": "No, i just used the same strategy till the end", "Q2": "inspecting all the rows would have been impossible, what made it difficult is that i cannot inspect all of them and expect to make a good score at the end "}, "trial_id": "self_report_control", "trial_type": "survey-text", "trial_index": 50, "time_elapsed": 2585244, "internal_node_id": "0.0-6.0-3.0"}}, {"uniqueid": "w64674747:a80322464", "current_trial": 51, "dateTime": 1693583438719, "trialdata": {"rt": 34587, "response": {"gender": "female", "age": "26", "colorblind": "0", "effort": "0"}, "trial_type": "survey-html-form", "trial_index": 51, "time_elapsed": 2619838, "internal_node_id": "0.0-6.0-4.0"}}, {"uniqueid": "w64674747:a80322464", "current_trial": 52, "dateTime": 1693583480432, "trialdata": {"rt": 41704, "response": {"Q0": "No", "Q1": "N/A.. No", "Q2": ""}, "trial_type": "survey-text", "trial_index": 52, "time_elapsed": 2661551, "internal_node_id": "0.0-6.0-5.0"}}, {"uniqueid": "w64674747:a80322464", "current_trial": 53, "dateTime": 1693583546144, "trialdata": {"rt": 65705, "stimulus": "<h1>Completion Code Instructions (1/2)</h1>\n<br><br><br><br>\nYou have reached the end of the experiment! The completion code consists of two parts: (1) a code with 2 characters (2) a code with 6 characters. On this page, you will receive the second part of the code. The first part of the completion code will be on the next page.\n<br><br>\nThe second part of your completion code is: <b>EWEK22</b>\n<br><br>\nPlease note this down. Then, press 'Next' in order to find the first part of your completion code. Once the data has been saved, you will receive this code either in this window or in the original browser window where you started the experiment.\n <br><br>\n<h2 style='color: red;'>Note: this is <strong>NOT</strong> the full completion code. Copy this down and click 'Next' to get the full completion code on the next page.</h2>", "response": 0, "trial_type": "html-button-response", "trial_index": 53, "time_elapsed": 2727263, "internal_node_id": "0.0-6.0-6.0"}}, {"uniqueid": "w64674747:a80322464", "current_trial": 54, "dateTime": 1693583547151, "trialdata": {"success": true, "trial_type": "fullscreen", "trial_index": 54, "time_elapsed": 2728270, "internal_node_id": "0.0-7.0"}}], "questiondata": {"params": {"CODE": "C6DMOQA6", "MIN_TIME": 14, "inspectCost": 1, "startTime": "Fri Sep 01 2023 17:06:56 GMT+0200 (South Africa Standard Time)", "bonusRate": 0.002, "variance": "1_2_4_8_44", "branching": "31123"}, "final_score": 2439.4}, "eventdata": [{"eventtype": "initialized", "value": null, "timestamp": 1693580815871, "interval": 0}, {"eventtype": "window_resize", "value": [1024, 650], "timestamp": 1693580815871, "interval": 0}, {"eventtype": "window_resize", "value": [1024, 650], "timestamp": 1693580816605, "interval": 734}, {"eventtype": "window_resize", "value": [1366, 768], "timestamp": 1693580828411, "interval": 11806}, {"eventtype": "focus", "value": "off", "timestamp": 1693583232379, "interval": 2403968}, {"eventtype": "window_resize", "value": [1366, 767], "timestamp": 1693583232613, "interval": 234}, {"eventtype": "window_resize", "value": [1366, 768], "timestamp": 1693583232820, "interval": 207}, {"eventtype": "focus", "value": "on", "timestamp": 1693583234380, "interval": 1560}, {"eventtype": "window_resize", "value": [1024, 650], "timestamp": 1693583546393, "interval": 312013}], "useragent": "Mozilla/5.0 (Windows NT 10.0; Win64; x64) AppleWebKit/537.36 (KHTML, like Gecko) Chrome/116.0.0.0 Safari/537.36 Edg/116.0.1938.54", "mode": "live", "id": "w64674747:a80322464", "status": "user data saved", "Beginhit": "2023-09-01 15:06:53.076963", "Beginexp": "2023-09-01 15:07:10.950919", "Endhit": "2023-09-01 15:52:31.985626", "psiturkStatus": 3, "browser": "<redacted>", "platform": "windows", "language": "en-US"}