{"condition": 1, "counterbalance": 0, "assignmentId": "a13524426", "workerId": "w32892584", "hitId": "h14501661", "currenttrial": 56, "bonus": 0, "data": [{"uniqueid": "w32892584:a13524426", "current_trial": 0, "dateTime": 1693834663385, "trialdata": {"success": true, "trial_type": "fullscreen", "trial_index": 0, "time_elapsed": 7398, "internal_node_id": "0.0-0.0"}}, {"uniqueid": "w32892584:a13524426", "current_trial": 1, "dateTime": 1693834673048, "trialdata": {"view_history": [{"page_index": 0, "viewing_time": 9659}], "rt": 9660, "trial_id": "exp_instructions_misaligned", "trial_type": "instructions", "trial_index": 1, "time_elapsed": 17061, "internal_node_id": "0.0-1.0"}}, {"uniqueid": "w32892584:a13524426", "current_trial": 2, "dateTime": 1693835174368, "trialdata": {"view_history": [{"page_index": 0, "viewing_time": 74781}, {"page_index": 1, "viewing_time": 78721}, {"page_index": 2, "viewing_time": 23484}, {"page_index": 3, "viewing_time": 324333}], "rt": 501319, "trial_id": "mouselab_instructions_1_misaligned", "trial_type": "instructions", "trial_index": 2, "time_elapsed": 518381, "internal_node_id": "0.0-2.0-1.0"}}, {"uniqueid": "w32892584:a13524426", "current_trial": 3, "dateTime": 1693835192175, "trialdata": {"revealed_states": [], "clicked_states": [], "num_clicks_accrued": [0, 0, 0, 0, 0, 0, 0, 0, 0, 0, 0, 0, 0], "stateRewards": ["", 10, -10, 10, -10, -10, -10, 10, -10, 10, 10, 10, -10, 10, -10, -10, 10, -10, -10, 10, -10, -10, -10, 10, -10, 10, 10, -10, -10, 10, -10, -10, 10, 10], "withholdReward": false, "trial_id": "practice_1", "block": "test", "trialIndex": 0, "score": 13.5, "costs": 0, "simulationMode": [null, null, null, null, null], "rewards": [10, -10, 10, -10, 10], "path": ["0", "0", "1", "2", "3", "8", "11"], "rt": [3336, 973, 274, 398, 723], "actions": ["up", "up", "up", "left", "left"], "actionTimes": [7919, 9407, 10191, 11098, 12338], "queries": {"click": {"state": {"target": [], "time": []}, "edge": {"target": [], "time": []}}, "mouseover": {"state": {"target": [], "time": []}, "edge": {"target": [], "time": []}}, "mouseout": {"state": {"target": [], "time": []}, "edge": {"target": [], "time": []}}}, "displayed_time": "12.85", "trialTime": 16044, "trial_type": "mouselab-mdp", "trial_index": 3, "time_elapsed": 536188, "internal_node_id": "0.0-2.0-2.0-0.0"}}, {"uniqueid": "w32892584:a13524426", "current_trial": 4, "dateTime": 1693835213857, "trialdata": {"revealed_states": [], "clicked_states": [], "num_clicks_accrued": [0, 0, 0, 0, 0, 0, 0, 0, 0, 0, 0, 0, 0], "stateRewards": ["", 10, -10, -10, -10, 10, 10, 10, 10, 10, -10, -10, -10, 10, 10, 10, -10, -10, 10, -10, -10, 10, -10, 10, 10, 10, -10, 10, 10, 10, -10, -10, -10, 10], "withholdReward": false, "trial_id": "practice_2", "block": "test", "trialIndex": 1, "score": 33.5, "costs": 0, "simulationMode": [null, null, null, null, null], "rewards": [10, 10, 10, -10, 10], "path": ["0", "0", "23", "24", "25", "26", "27"], "rt": [2073, 368, 3389, 1354, 105], "actions": ["left", "left", "left", "up", "up"], "actionTimes": [10392, 11269, 15171, 17036, 17650], "queries": {"click": {"state": {"target": [], "time": []}, "edge": {"target": [], "time": []}}, "mouseover": {"state": {"target": [], "time": []}, "edge": {"target": [], "time": []}}, "mouseout": {"state": {"target": ["0", "1"], "time": [6760, 7117]}, "edge": {"target": [], "time": []}}}, "displayed_time": "18.16", "trialTime": 21487, "trial_type": "mouselab-mdp", "trial_index": 4, "time_elapsed": 557870, "internal_node_id": "0.0-2.0-2.0-1.0"}}, {"uniqueid": "w32892584:a13524426", "current_trial": 5, "dateTime": 1693835267605, "trialdata": {"view_history": [{"page_index": 0, "viewing_time": 41080}, {"page_index": 1, "viewing_time": 12665}], "rt": 53746, "trial_id": "mouselab_instructions_2_misaligned", "trial_type": "instructions", "trial_index": 5, "time_elapsed": 611618, "internal_node_id": "0.0-2.0-3.0"}}, {"uniqueid": "w32892584:a13524426", "current_trial": 6, "dateTime": 1693835354890, "trialdata": {"rt": 87282, "response": {"Q0": "The cost for clicking on nodes may vary between nodes.", "Q1": "The better I perform the higher my bonus will be.", "Q2": "No, the amount of cash at each node of the web may be different each time.", "Q3": "To get the highest total score.", "Q4": "Only before moving the spider.", "Q5": "3 seconds"}, "question_order": [0, 1, 2, 3, 4, 5], "correct": {"Q0": "The cost for clicking on nodes may vary between nodes.", "Q1": "The better I perform the higher my bonus will be.", "Q2": "No, the amount of cash at each node of the web may be different each time.", "Q3": "To get the highest total score.", "Q4": "Only before moving the spider.", "Q5": "3 seconds"}, "trial_id": "mouselab_quiz_misaligned", "trial_type": "survey-multi-choice", "trial_index": 6, "time_elapsed": 698903, "internal_node_id": "0.0-2.0-4.0"}}, {"uniqueid": "w32892584:a13524426", "current_trial": 7, "dateTime": 1693835379230, "trialdata": {"rt": 24333, "response": {"Q0": "No"}, "question_order": [0], "trial_id": "repeat_check", "trial_type": "survey-multi-choice", "trial_index": 7, "time_elapsed": 723242, "internal_node_id": "0.0-4.0-0.0"}}, {"uniqueid": "w32892584:a13524426", "current_trial": 8, "dateTime": 1693835397945, "trialdata": {"rt": 18711, "stimulus": "\n<h1> Get ready to start the game! </h1>\n\nThank you for reading the instructions. Get ready start with the 40 rounds of this game.\n<br><br>\nIf you need to take a break, feel free to take one after the end of a round, before continuing to the next one.\n<br><br>\nRemember, the more money the spider gets, the bigger your bonus will be!\n<br><br>\n<div style='text-align: center;'>Press <code>space</code> to begin.</div>\n\n<br><br>\n(If, at any point, the <code>space</code> key does not take you to the next page, click once on the text and try again.)", "response": " ", "trial_id": "mdp_ready", "trial_type": "html-keyboard-response", "trial_index": 8, "time_elapsed": 741958, "internal_node_id": "0.0-6.0-0.0"}}, {"uniqueid": "w32892584:a13524426", "current_trial": 9, "dateTime": 1693835418025, "trialdata": {"revealed_states": [], "clicked_states": [], "num_clicks_accrued": [0, 0, 0, 0, 0, 0, 0, 0, 0, 0, 0, 0, 0], "stateRewards": ["", -2, -4, -8, 8, 63, -50, -19, -7, -17, -31, 31, 1, 3, -5, 12, -35, -63, -29, -4, -17, -75, -79, -2, -3, -2, 8, -3, -85, 10, -2, -82, -82, 56], "withholdReward": false, "trial_id": "mdp_trial_1", "block": "test", "trialIndex": 2, "score": -25, "costs": 0, "simulationMode": [null, null, null, null, null], "rewards": [-2, -4, -8, 8, -19], "path": ["0", "0", "1", "2", "3", "4", "7"], "rt": [1460, 317, 1152, 857, 1039], "actions": ["up", "up", "up", "right", "down"], "actionTimes": [4790, 5623, 7291, 8645, 10176], "queries": {"click": {"state": {"target": [], "time": []}, "edge": {"target": [], "time": []}}, "mouseover": {"state": {"target": [], "time": []}, "edge": {"target": [], "time": []}}, "mouseout": {"state": {"target": [], "time": []}, "edge": {"target": [], "time": []}}}, "displayed_time": "17.33", "trialTime": 19886, "trial_type": "mouselab-mdp", "trial_index": 9, "time_elapsed": 762038, "internal_node_id": "0.0-6.0-1.0-0.0"}}, {"uniqueid": "w32892584:a13524426", "current_trial": 10, "dateTime": 1693835439142, "trialdata": {"revealed_states": [], "clicked_states": [], "num_clicks_accrued": [0, 0, 0, 0, 0, 0, 0, 0, 0, 0, 0, 0, 0], "stateRewards": ["", -1, 1, 8, -8, -49, 62, -78, 16, 28, -81, 78, -2, -3, -1, -4, 67, 49, -2, -13, -16, -39, 83, 1, -4, 4, -5, -20, 7, 84, 7, -32, -59, 19], "withholdReward": false, "trial_id": "mdp_trial_2", "block": "test", "trialIndex": 3, "score": -24, "costs": 0, "simulationMode": [null, null, null, null, null], "rewards": [1, -4, 4, -5, -20], "path": ["0", "0", "23", "24", "25", "26", "27"], "rt": [1982, 39, 432, 1297, 146], "actions": ["left", "left", "left", "up", "up"], "actionTimes": [4471, 5000, 5941, 7738, 8386], "queries": {"click": {"state": {"target": [], "time": []}, "edge": {"target": [], "time": []}}, "mouseover": {"state": {"target": [], "time": []}, "edge": {"target": [], "time": []}}, "mouseout": {"state": {"target": ["0"], "time": [1793]}, "edge": {"target": [], "time": []}}}, "displayed_time": "16.49", "trialTime": 20920, "trial_type": "mouselab-mdp", "trial_index": 10, "time_elapsed": 783155, "internal_node_id": "0.0-6.0-1.0-1.0"}}, {"uniqueid": "w32892584:a13524426", "current_trial": 11, "dateTime": 1693835462634, "trialdata": {"revealed_states": [], "clicked_states": [], "num_clicks_accrued": [0, 0, 0, 0, 0, 0, 0, 0, 0, 0, 0, 0, 0], "stateRewards": ["", -1, 3, 1, -7, 56, 76, 57, 3, 11, -9, 14, 1, -2, 2, 8, -77, -3, 79, -5, 88, 24, -66, -2, -1, 7, -7, -30, 14, -76, 11, -36, 28, -6], "withholdReward": false, "trial_id": "mdp_trial_3", "block": "test", "trialIndex": 4, "score": 20, "costs": 0, "simulationMode": [null, null, null, null, null], "rewards": [-1, 3, 1, 3, 14], "path": ["0", "0", "1", "2", "3", "8", "11"], "rt": [2075, 39, 91, 984, 354], "actions": ["up", "up", "up", "left", "left"], "actionTimes": [5985, 6543, 7162, 8655, 9507], "queries": {"click": {"state": {"target": [], "time": []}, "edge": {"target": [], "time": []}}, "mouseover": {"state": {"target": [], "time": []}, "edge": {"target": [], "time": []}}, "mouseout": {"state": {"target": [], "time": []}, "edge": {"target": [], "time": []}}}, "displayed_time": "17.91", "trialTime": 23290, "trial_type": "mouselab-mdp", "trial_index": 11, "time_elapsed": 806647, "internal_node_id": "0.0-6.0-1.0-2.0"}}, {"uniqueid": "w32892584:a13524426", "current_trial": 12, "dateTime": 1693835486032, "trialdata": {"revealed_states": [], "clicked_states": [], "num_clicks_accrued": [0, 0, 0, 0, 0, 0, 0, 0, 0, 0, 0, 0, 0], "stateRewards": ["", -1, -1, 4, -16, -75, 81, -51, -7, -84, 73, -30, -2, 1, -3, -16, -77, 33, 14, 1, 45, 87, -66, 2, 2, -5, -7, -19, -17, 79, -3, 8, 49, 47], "withholdReward": false, "trial_id": "mdp_trial_4", "block": "test", "trialIndex": 5, "score": -89, "costs": 0, "simulationMode": [null, null, null, null, null], "rewards": [-1, -1, 4, -16, -75], "path": ["0", "0", "1", "2", "3", "4", "5"], "rt": [1825, 442, 459, 801, 904], "actions": ["up", "up", "up", "right", "up"], "actionTimes": [3554, 4514, 5481, 6790, 8190], "queries": {"click": {"state": {"target": [], "time": []}, "edge": {"target": [], "time": []}}, "mouseover": {"state": {"target": ["1"], "time": [2255]}, "edge": {"target": [], "time": []}}, "mouseout": {"state": {"target": ["0", "0"], "time": [639, 2204]}, "edge": {"target": [], "time": []}}}, "displayed_time": "15.73", "trialTime": 23153, "trial_type": "mouselab-mdp", "trial_index": 12, "time_elapsed": 830045, "internal_node_id": "0.0-6.0-1.0-3.0"}}, {"uniqueid": "w32892584:a13524426", "current_trial": 13, "dateTime": 1693835511037, "trialdata": {"revealed_states": [], "clicked_states": [], "num_clicks_accrued": [0, 0, 0, 0, 0, 0, 0, 0, 0, 0, 0, 0, 0], "stateRewards": ["", -2, -4, 2, 10, -17, 18, 73, 11, -32, 23, -13, -2, -4, 7, 12, -25, 66, -23, 15, 40, -76, -9, 1, 2, -7, -5, -20, 24, 3, -5, 16, -73, 70], "withholdReward": false, "trial_id": "mdp_trial_5", "block": "test", "trialIndex": 6, "score": -60, "costs": 0, "simulationMode": [null, null, null, null, null], "rewards": [-2, -4, 7, 15, -76], "path": ["0", "0", "12", "13", "14", "19", "21"], "rt": [2077, 649, 164, 887, 597], "actions": ["right", "right", "right", "down", "down"], "actionTimes": [8810, 9971, 10635, 12041, 13134], "queries": {"click": {"state": {"target": [], "time": []}, "edge": {"target": [], "time": []}}, "mouseover": {"state": {"target": [], "time": []}, "edge": {"target": [], "time": []}}, "mouseout": {"state": {"target": ["1", "0", "23", "31"], "time": [5889, 23461, 23478, 23511]}, "edge": {"target": [], "time": []}}}, "displayed_time": "20.73", "trialTime": 24762, "trial_type": "mouselab-mdp", "trial_index": 13, "time_elapsed": 855049, "internal_node_id": "0.0-6.0-1.0-4.0"}}, {"uniqueid": "w32892584:a13524426", "current_trial": 14, "dateTime": 1693835530706, "trialdata": {"revealed_states": [], "clicked_states": [], "num_clicks_accrued": [0, 0, 0, 0, 0, 0, 0, 0, 0, 0, 0, 0, 0], "stateRewards": ["", 2, 3, -6, -5, -3, 55, 40, 11, 61, 11, 51, 2, -4, -6, 9, -25, 29, -15, -6, 7, -77, -2, -2, -4, 1, 14, -43, -1, 56, -12, -54, 41, -74], "withholdReward": false, "trial_id": "mdp_trial_6", "block": "test", "trialIndex": 7, "score": 24, "costs": 0, "simulationMode": [null, null, null, null, null], "rewards": [-2, -4, 1, -12, 41], "path": ["0", "0", "23", "24", "25", "30", "32"], "rt": [2472, 190, 315, 553, 494], "actions": ["left", "left", "left", "down", "down"], "actionTimes": [5492, 6193, 7017, 8087, 9078], "queries": {"click": {"state": {"target": [], "time": []}, "edge": {"target": [], "time": []}}, "mouseover": {"state": {"target": [], "time": []}, "edge": {"target": [], "time": []}}, "mouseout": {"state": {"target": ["30", "25"], "time": [1737, 2070]}, "edge": {"target": [], "time": []}}}, "displayed_time": "17.02", "trialTime": 19409, "trial_type": "mouselab-mdp", "trial_index": 14, "time_elapsed": 874718, "internal_node_id": "0.0-6.0-1.0-5.0"}}, {"uniqueid": "w32892584:a13524426", "current_trial": 15, "dateTime": 1693835553168, "trialdata": {"revealed_states": [], "clicked_states": [], "num_clicks_accrued": [0, 0, 0, 0, 0, 0, 0, 0, 0, 0, 0, 0, 0], "stateRewards": ["", -1, -3, 1, -4, -48, -63, -49, -2, -84, -19, 65, 2, -2, -2, -12, -4, 59, 9, 6, 75, 69, -13, -1, -3, -3, -2, -37, -68, -36, 13, 32, 18, -14], "withholdReward": false, "trial_id": "mdp_trial_7", "block": "test", "trialIndex": 8, "score": -9, "costs": 0, "simulationMode": [null, null, null, null, null], "rewards": [2, -2, -2, 6, -13], "path": ["0", "0", "12", "13", "14", "19", "22"], "rt": [2065, 429, 93, 1028, 2564], "actions": ["right", "right", "right", "down", "left"], "actionTimes": [4901, 5840, 6452, 7989, 11055], "queries": {"click": {"state": {"target": [], "time": []}, "edge": {"target": [], "time": []}}, "mouseover": {"state": {"target": [], "time": []}, "edge": {"target": [], "time": []}}, "mouseout": {"state": {"target": ["0"], "time": [1825]}, "edge": {"target": [], "time": []}}}, "displayed_time": "16.84", "trialTime": 22210, "trial_type": "mouselab-mdp", "trial_index": 15, "time_elapsed": 897181, "internal_node_id": "0.0-6.0-1.0-6.0"}}, {"uniqueid": "w32892584:a13524426", "current_trial": 16, "dateTime": 1693835572688, "trialdata": {"revealed_states": [], "clicked_states": [], "num_clicks_accrued": [0, 0, 0, 0, 0, 0, 0, 0, 0, 0, 0, 0, 0], "stateRewards": ["", 1, 1, 1, -3, -7, -1, -41, -10, 20, -72, -63, 1, -4, -2, 2, -66, 30, -84, -2, 49, 23, 71, -1, -4, 4, -12, 67, 5, 18, -16, 88, 56, -5], "withholdReward": false, "trial_id": "mdp_trial_8", "block": "test", "trialIndex": 9, "score": -1, "costs": 0, "simulationMode": [null, null, null, null, null], "rewards": [1, 1, 1, -3, -1], "path": ["0", "0", "1", "2", "3", "4", "6"], "rt": [1639, 3446, 365, 405, 1334], "actions": ["up", "up", "up", "right", "right"], "actionTimes": [2808, 6749, 7614, 8538, 10367], "queries": {"click": {"state": {"target": [], "time": []}, "edge": {"target": [], "time": []}}, "mouseover": {"state": {"target": [], "time": []}, "edge": {"target": [], "time": []}}, "mouseout": {"state": {"target": ["0"], "time": [991]}, "edge": {"target": [], "time": []}}}, "displayed_time": "15.17", "trialTime": 19270, "trial_type": "mouselab-mdp", "trial_index": 16, "time_elapsed": 916701, "internal_node_id": "0.0-6.0-1.0-7.0"}}, {"uniqueid": "w32892584:a13524426", "current_trial": 17, "dateTime": 1693835597019, "trialdata": {"revealed_states": [], "clicked_states": [], "num_clicks_accrued": [0, 0, 0, 0, 0, 0, 0, 0, 0, 0, 0, 0, 0], "stateRewards": ["", 1, -1, 1, 13, 31, -56, 72, 2, 41, 5, 63, -2, -3, -2, 3, -71, -26, 52, 13, -31, 24, -67, 2, -2, 5, 4, 66, 43, 72, 9, 86, -26, 44], "withholdReward": false, "trial_id": "mdp_trial_9", "block": "test", "trialIndex": 10, "score": -12, "costs": 0, "simulationMode": [null, null, null, null, null], "rewards": [2, -2, 5, 9, -26], "path": ["0", "0", "23", "24", "25", "30", "32"], "rt": [2975, 159, 310, 475, 722], "actions": ["left", "left", "left", "down", "down"], "actionTimes": [10674, 11326, 12143, 13124, 14354], "queries": {"click": {"state": {"target": [], "time": []}, "edge": {"target": [], "time": []}}, "mouseover": {"state": {"target": [], "time": []}, "edge": {"target": [], "time": []}}, "mouseout": {"state": {"target": ["0"], "time": [6766]}, "edge": {"target": [], "time": []}}}, "displayed_time": "21.70", "trialTime": 24066, "trial_type": "mouselab-mdp", "trial_index": 17, "time_elapsed": 941031, "internal_node_id": "0.0-6.0-1.0-8.0"}}, {"uniqueid": "w32892584:a13524426", "current_trial": 18, "dateTime": 1693835619755, "trialdata": {"revealed_states": [], "clicked_states": [], "num_clicks_accrued": [0, 0, 0, 0, 0, 0, 0, 0, 0, 0, 0, 0, 0], "stateRewards": ["", 2, -4, 1, -12, -59, -53, -74, 16, -88, -66, 66, 1, -2, 8, -9, -14, 22, 25, -1, -39, 47, -14, -1, -1, -2, 1, -4, 52, -26, 15, -7, 46, 43], "withholdReward": false, "trial_id": "mdp_trial_10", "block": "test", "trialIndex": 11, "score": 53, "costs": 0, "simulationMode": [null, null, null, null, null], "rewards": [1, -2, 8, -1, 47], "path": ["0", "0", "12", "13", "14", "19", "21"], "rt": [2211, 131, 192, 685, 103], "actions": ["right", "right", "right", "down", "down"], "actionTimes": [4724, 5370, 6080, 7275, 7874], "queries": {"click": {"state": {"target": [], "time": []}, "edge": {"target": [], "time": []}}, "mouseover": {"state": {"target": ["1"], "time": [3405]}, "edge": {"target": [], "time": []}}, "mouseout": {"state": {"target": ["0"], "time": [1363]}, "edge": {"target": [], "time": []}}}, "displayed_time": "16.52", "trialTime": 22472, "trial_type": "mouselab-mdp", "trial_index": 18, "time_elapsed": 963768, "internal_node_id": "0.0-6.0-1.0-9.0"}}, {"uniqueid": "w32892584:a13524426", "current_trial": 19, "dateTime": 1693835640149, "trialdata": {"revealed_states": [], "clicked_states": [], "num_clicks_accrued": [0, 0, 0, 0, 0, 0, 0, 0, 0, 0, 0, 0, 0], "stateRewards": ["", 2, 4, 7, -6, -76, -81, 2, 5, -66, -3, 36, -2, -4, 6, -2, -69, 4, -49, -6, 67, 38, -67, 2, 1, 1, 6, -68, -21, 52, -16, -16, 6, -70], "withholdReward": false, "trial_id": "mdp_trial_11", "block": "test", "trialIndex": 12, "score": 15, "costs": 0, "simulationMode": [null, null, null, null, null], "rewards": [2, 4, 7, 5, -3], "path": ["0", "0", "1", "2", "3", "8", "10"], "rt": [1827, 606, 2, 951, 682], "actions": ["up", "up", "up", "left", "down"], "actionTimes": [4212, 5312, 5807, 7289, 8469], "queries": {"click": {"state": {"target": [], "time": []}, "edge": {"target": [], "time": []}}, "mouseover": {"state": {"target": [], "time": []}, "edge": {"target": [], "time": []}}, "mouseout": {"state": {"target": ["1"], "time": [1723]}, "edge": {"target": [], "time": []}}}, "displayed_time": "16.39", "trialTime": 20131, "trial_type": "mouselab-mdp", "trial_index": 19, "time_elapsed": 984162, "internal_node_id": "0.0-6.0-1.0-10.0"}}, {"uniqueid": "w32892584:a13524426", "current_trial": 20, "dateTime": 1693835662592, "trialdata": {"revealed_states": [], "clicked_states": [], "num_clicks_accrued": [0, 0, 0, 0, 0, 0, 0, 0, 0, 0, 0, 0, 0], "stateRewards": ["", -2, 1, -7, 9, 8, 25, 61, -7, -17, 69, -81, 1, 4, -4, -11, 16, 67, 44, 3, 6, -45, -54, -2, 3, 6, -11, -15, 32, -47, 3, -39, -6, -88], "withholdReward": false, "trial_id": "mdp_trial_12", "block": "test", "trialIndex": 13, "score": 57, "costs": 0, "simulationMode": [null, null, null, null, null], "rewards": [1, 4, -4, -11, 67], "path": ["0", "0", "12", "13", "14", "15", "17"], "rt": [2335, 375, 594, 513, 1829], "actions": ["right", "right", "right", "up", "right"], "actionTimes": [3728, 4594, 5696, 6729, 9078], "queries": {"click": {"state": {"target": [], "time": []}, "edge": {"target": [], "time": []}}, "mouseover": {"state": {"target": [], "time": []}, "edge": {"target": [], "time": []}}, "mouseout": {"state": {"target": [], "time": []}, "edge": {"target": [], "time": []}}}, "displayed_time": "15.40", "trialTime": 22167, "trial_type": "mouselab-mdp", "trial_index": 20, "time_elapsed": 1006604, "internal_node_id": "0.0-6.0-1.0-11.0"}}, {"uniqueid": "w32892584:a13524426", "current_trial": 21, "dateTime": 1693835686041, "trialdata": {"revealed_states": [], "clicked_states": [], "num_clicks_accrued": [0, 0, 0, 0, 0, 0, 0, 0, 0, 0, 0, 0, 0], "stateRewards": ["", 1, -1, 4, 5, -32, 18, 20, 6, -88, -74, 9, -2, 1, -2, -14, 34, -77, -38, -1, 80, -36, 73, 2, 3, -8, 10, -48, -73, -71, -11, -22, 20, 54], "withholdReward": false, "trial_id": "mdp_trial_13", "block": "test", "trialIndex": 14, "score": -23, "costs": 0, "simulationMode": [null, null, null, null, null], "rewards": [1, -1, 4, 5, -32], "path": ["0", "0", "1", "2", "3", "4", "5"], "rt": [2582, 293, 438, 466, 1394], "actions": ["up", "up", "up", "right", "up"], "actionTimes": [6583, 7371, 8329, 9306, 11216], "queries": {"click": {"state": {"target": [], "time": []}, "edge": {"target": [], "time": []}}, "mouseover": {"state": {"target": [], "time": []}, "edge": {"target": [], "time": []}}, "mouseout": {"state": {"target": ["0"], "time": [2242]}, "edge": {"target": [], "time": []}}}, "displayed_time": "18.00", "trialTime": 23174, "trial_type": "mouselab-mdp", "trial_index": 21, "time_elapsed": 1030053, "internal_node_id": "0.0-6.0-1.0-12.0"}}, {"uniqueid": "w32892584:a13524426", "current_trial": 22, "dateTime": 1693835705482, "trialdata": {"revealed_states": [], "clicked_states": [], "num_clicks_accrued": [0, 0, 0, 0, 0, 0, 0, 0, 0, 0, 0, 0, 0], "stateRewards": ["", -1, 2, 7, 8, 75, 67, -11, 6, 52, -17, 38, -1, 4, -8, 14, 74, -37, -17, -12, 52, 55, 71, -2, -1, -5, 2, 21, 6, -88, -14, 64, -61, -47], "withholdReward": false, "trial_id": "mdp_trial_14", "block": "test", "trialIndex": 15, "score": 35, "costs": 0, "simulationMode": [null, null, null, null, null], "rewards": [-1, 4, -8, -12, 52], "path": ["0", "0", "12", "13", "14", "19", "20"], "rt": [2157, 1601, 821, 1505, 936], "actions": ["right", "right", "right", "down", "right"], "actionTimes": [3872, 5970, 7288, 9288, 10719], "queries": {"click": {"state": {"target": [], "time": []}, "edge": {"target": [], "time": []}}, "mouseover": {"state": {"target": [], "time": []}, "edge": {"target": [], "time": []}}, "mouseout": {"state": {"target": [], "time": []}, "edge": {"target": [], "time": []}}}, "displayed_time": "15.72", "trialTime": 19141, "trial_type": "mouselab-mdp", "trial_index": 22, "time_elapsed": 1049495, "internal_node_id": "0.0-6.0-1.0-13.0"}}, {"uniqueid": "w32892584:a13524426", "current_trial": 23, "dateTime": 1693835724352, "trialdata": {"revealed_states": [], "clicked_states": [], "num_clicks_accrued": [0, 0, 0, 0, 0, 0, 0, 0, 0, 0, 0, 0, 0], "stateRewards": ["", -2, 2, -1, -6, 22, 6, 6, -5, 70, -42, 65, 1, 3, 5, -6, -67, -9, 3, 14, 7, -62, -13, -2, 4, 1, 16, 42, -21, -52, -8, 32, 53, 81], "withholdReward": false, "trial_id": "mdp_trial_15", "block": "test", "trialIndex": 16, "score": -2, "costs": 0, "simulationMode": [null, null, null, null, null], "rewards": [-2, 4, 1, 16, -21], "path": ["0", "0", "23", "24", "25", "26", "28"], "rt": [6329, 85, 75, 526, 2], "actions": ["left", "left", "left", "up", "right"], "actionTimes": [8763, 9342, 9930, 10966, 11474], "queries": {"click": {"state": {"target": [], "time": []}, "edge": {"target": [], "time": []}}, "mouseover": {"state": {"target": [], "time": []}, "edge": {"target": [], "time": []}}, "mouseout": {"state": {"target": [], "time": []}, "edge": {"target": [], "time": []}}}, "displayed_time": "16.43", "trialTime": 18581, "trial_type": "mouselab-mdp", "trial_index": 23, "time_elapsed": 1068365, "internal_node_id": "0.0-6.0-1.0-14.0"}}, {"uniqueid": "w32892584:a13524426", "current_trial": 24, "dateTime": 1693835752232, "trialdata": {"revealed_states": [], "clicked_states": [], "num_clicks_accrued": [0, 0, 0, 0, 0, 0, 0, 0, 0, 0, 0, 0, 0], "stateRewards": ["", -2, -4, -2, 10, -8, -15, -47, 7, -84, 53, 5, -1, 2, -7, 3, 83, 31, 47, -1, 30, -8, 69, 2, -4, -1, 8, -7, 12, -8, -8, -13, 30, -84], "withholdReward": false, "trial_id": "mdp_trial_16", "block": "test", "trialIndex": 17, "score": -45, "costs": 0, "simulationMode": [null, null, null, null, null], "rewards": [-2, -4, -2, 10, -47], "path": ["0", "0", "1", "2", "3", "4", "7"], "rt": [2852, 674, 310, 1009, 591], "actions": ["up", "up", "up", "right", "down"], "actionTimes": [10275, 11447, 12250, 13763, 14846], "queries": {"click": {"state": {"target": [], "time": []}, "edge": {"target": [], "time": []}}, "mouseover": {"state": {"target": [], "time": []}, "edge": {"target": [], "time": []}}, "mouseout": {"state": {"target": ["0", "1"], "time": [6434, 6539]}, "edge": {"target": [], "time": []}}}, "displayed_time": "21.42", "trialTime": 27575, "trial_type": "mouselab-mdp", "trial_index": 24, "time_elapsed": 1096245, "internal_node_id": "0.0-6.0-1.0-15.0"}}, {"uniqueid": "w32892584:a13524426", "current_trial": 25, "dateTime": 1693835780349, "trialdata": {"revealed_states": [], "clicked_states": [], "num_clicks_accrued": [0, 0, 0, 0, 0, 0, 0, 0, 0, 0, 0, 0, 0], "stateRewards": ["", 2, -3, -5, 5, 11, -9, -33, 6, 67, 6, -30, -1, -2, -6, 13, 55, 13, 72, -14, 75, 21, -66, -2, -4, 6, 15, -1, -35, 60, 2, 51, -73, 12], "withholdReward": false, "trial_id": "mdp_trial_17", "block": "test", "trialIndex": 18, "score": -10, "costs": 0, "simulationMode": [null, null, null, null, null], "rewards": [2, -3, -5, 5, -9], "path": ["0", "0", "1", "2", "3", "4", "6"], "rt": [1866, 62, 215, 4544, 586], "actions": ["up", "up", "up", "right", "right"], "actionTimes": [8970, 9528, 10248, 15308, 16397], "queries": {"click": {"state": {"target": [], "time": []}, "edge": {"target": [], "time": []}}, "mouseover": {"state": {"target": [], "time": []}, "edge": {"target": [], "time": []}}, "mouseout": {"state": {"target": ["0"], "time": [6237]}, "edge": {"target": [], "time": []}}}, "displayed_time": "21.11", "trialTime": 27837, "trial_type": "mouselab-mdp", "trial_index": 25, "time_elapsed": 1124362, "internal_node_id": "0.0-6.0-1.0-16.0"}}, {"uniqueid": "w32892584:a13524426", "current_trial": 26, "dateTime": 1693835800711, "trialdata": {"revealed_states": [], "clicked_states": [], "num_clicks_accrued": [0, 0, 0, 0, 0, 0, 0, 0, 0, 0, 0, 0, 0], "stateRewards": ["", -2, -4, 6, 14, -34, 49, 36, -8, -3, 32, -4, 1, -2, 1, -8, -20, -71, -57, -7, -86, -62, -16, -2, -3, -5, 11, 23, -21, 53, 5, -5, 85, 73], "withholdReward": false, "trial_id": "mdp_trial_18", "block": "test", "trialIndex": 19, "score": 68, "costs": 0, "simulationMode": [null, null, null, null, null], "rewards": [-2, -3, -5, 5, 73], "path": ["0", "0", "23", "24", "25", "30", "33"], "rt": [1965, 303, 180, 485, 1178], "actions": ["left", "left", "left", "down", "left"], "actionTimes": [3271, 4069, 4743, 5748, 7440], "queries": {"click": {"state": {"target": [], "time": []}, "edge": {"target": [], "time": []}}, "mouseover": {"state": {"target": [], "time": []}, "edge": {"target": [], "time": []}}, "mouseout": {"state": {"target": ["0"], "time": [2247]}, "edge": {"target": [], "time": []}}}, "displayed_time": "15.31", "trialTime": 20079, "trial_type": "mouselab-mdp", "trial_index": 26, "time_elapsed": 1144723, "internal_node_id": "0.0-6.0-1.0-17.0"}}, {"uniqueid": "w32892584:a13524426", "current_trial": 27, "dateTime": 1693835818832, "trialdata": {"revealed_states": [], "clicked_states": [], "num_clicks_accrued": [0, 0, 0, 0, 0, 0, 0, 0, 0, 0, 0, 0, 0], "stateRewards": ["", 1, 3, -2, 15, 51, 15, -19, 11, 67, -45, -73, 2, 4, -2, -13, 36, 9, -28, 10, -30, 31, 16, 1, 2, -1, -16, 14, -22, 36, -1, 88, -5, 45], "withholdReward": false, "trial_id": "mdp_trial_19", "block": "test", "trialIndex": 20, "score": 22, "costs": 0, "simulationMode": [null, null, null, null, null], "rewards": [1, 2, -1, -16, 36], "path": ["0", "0", "23", "24", "25", "26", "29"], "rt": [3031, 28, 325, 349, 743], "actions": ["left", "left", "left", "up", "left"], "actionTimes": [4466, 5000, 5845, 6704, 7962], "queries": {"click": {"state": {"target": [], "time": []}, "edge": {"target": [], "time": []}}, "mouseover": {"state": {"target": [], "time": []}, "edge": {"target": [], "time": []}}, "mouseout": {"state": {"target": ["0"], "time": [1005]}, "edge": {"target": [], "time": []}}}, "displayed_time": "15.44", "trialTime": 17840, "trial_type": "mouselab-mdp", "trial_index": 27, "time_elapsed": 1162845, "internal_node_id": "0.0-6.0-1.0-18.0"}}, {"uniqueid": "w32892584:a13524426", "current_trial": 28, "dateTime": 1693835855824, "trialdata": {"revealed_states": [], "clicked_states": [], "num_clicks_accrued": [0, 0, 0, 0, 0, 0, 0, 0, 0, 0, 0, 0, 0], "stateRewards": ["", 2, -2, 7, -11, -76, -65, -23, 16, -58, 30, 81, 1, 2, 7, 14, 9, 55, -2, 6, 11, -15, 31, -1, -1, -3, 2, 15, 2, 46, 15, 18, 45, -34], "withholdReward": false, "trial_id": "mdp_trial_20", "block": "test", "trialIndex": 21, "score": -80, "costs": 0, "simulationMode": [null, null, null, null, null], "rewards": [2, -2, 7, -11, -76], "path": ["0", "0", "1", "2", "3", "4", "5"], "rt": [9701, 487, 198, 841, 628], "actions": ["up", "up", "up", "right", "up"], "actionTimes": [11669, 12657, 13352, 14710, 15848], "queries": {"click": {"state": {"target": [], "time": []}, "edge": {"target": [], "time": []}}, "mouseover": {"state": {"target": [], "time": []}, "edge": {"target": [], "time": []}}, "mouseout": {"state": {"target": ["0", "0", "31", "0", "1"], "time": [927, 29748, 30023, 30257, 30357]}, "edge": {"target": [], "time": []}}}, "displayed_time": "16.37", "trialTime": 36699, "trial_type": "mouselab-mdp", "trial_index": 28, "time_elapsed": 1199836, "internal_node_id": "0.0-6.0-1.0-19.0"}}, {"uniqueid": "w32892584:a13524426", "current_trial": 29, "dateTime": 1693835887045, "trialdata": {"revealed_states": [], "clicked_states": [], "num_clicks_accrued": [0, 0, 0, 0, 0, 0, 0, 0, 0, 0, 0, 0, 0], "stateRewards": ["", -2, 1, 6, -2, -10, -78, -69, 14, -15, 7, -1, 1, -1, -2, 13, 77, 32, 87, 5, -74, 30, -26, 1, 3, 4, 12, 39, 54, -43, 2, 10, 23, 13], "withholdReward": false, "trial_id": "mdp_trial_21", "block": "test", "trialIndex": 22, "score": 18, "costs": 0, "simulationMode": [null, null, null, null, null], "rewards": [-2, 1, 6, 14, -1], "path": ["0", "0", "1", "2", "3", "8", "11"], "rt": [1874, 439, 92, 6963, 383], "actions": ["up", "up", "up", "left", "left"], "actionTimes": [5041, 5974, 6576, 14047, 14929], "queries": {"click": {"state": {"target": [], "time": []}, "edge": {"target": [], "time": []}}, "mouseover": {"state": {"target": [], "time": []}, "edge": {"target": [], "time": []}}, "mouseout": {"state": {"target": ["2", "2", "1"], "time": [1735, 2008, 2051]}, "edge": {"target": [], "time": []}}}, "displayed_time": "17.17", "trialTime": 30922, "trial_type": "mouselab-mdp", "trial_index": 29, "time_elapsed": 1231058, "internal_node_id": "0.0-6.0-1.0-20.0"}}, {"uniqueid": "w32892584:a13524426", "current_trial": 30, "dateTime": 1693835909825, "trialdata": {"revealed_states": [], "clicked_states": [], "num_clicks_accrued": [0, 0, 0, 0, 0, 0, 0, 0, 0, 0, 0, 0, 0], "stateRewards": ["", -2, 1, -7, -8, -37, -76, -87, 11, 30, -63, 80, -1, 4, 2, -1, 42, 17, 52, -3, -75, -80, -68, 2, -3, -5, -15, -48, 82, 24, -7, 5, -22, -71], "withholdReward": false, "trial_id": "mdp_trial_22", "block": "test", "trialIndex": 23, "score": 21, "costs": 0, "simulationMode": [null, null, null, null, null], "rewards": [-1, 4, 2, -1, 17], "path": ["0", "0", "12", "13", "14", "15", "17"], "rt": [3667, 363, 662, 501, 153], "actions": ["right", "right", "right", "up", "right"], "actionTimes": [9508, 10372, 11551, 12555, 13207], "queries": {"click": {"state": {"target": [], "time": []}, "edge": {"target": [], "time": []}}, "mouseover": {"state": {"target": [], "time": []}, "edge": {"target": [], "time": []}}, "mouseout": {"state": {"target": ["0"], "time": [5657]}, "edge": {"target": [], "time": []}}}, "displayed_time": "19.84", "trialTime": 22482, "trial_type": "mouselab-mdp", "trial_index": 30, "time_elapsed": 1253838, "internal_node_id": "0.0-6.0-1.0-21.0"}}, {"uniqueid": "w32892584:a13524426", "current_trial": 31, "dateTime": 1693835931608, "trialdata": {"revealed_states": [], "clicked_states": [], "num_clicks_accrued": [0, 0, 0, 0, 0, 0, 0, 0, 0, 0, 0, 0, 0], "stateRewards": ["", 2, 4, -5, 7, 81, 35, 6, 11, 14, -72, 42, -1, 2, 3, -7, -77, -44, -40, -15, -85, 51, -32, -2, -1, -5, 7, -74, 47, 52, 16, -49, 48, -46], "withholdReward": false, "trial_id": "mdp_trial_23", "block": "test", "trialIndex": 24, "score": 56, "costs": 0, "simulationMode": [null, null, null, null, null], "rewards": [-2, -1, -5, 16, 48], "path": ["0", "0", "23", "24", "25", "30", "32"], "rt": [5216, 323, 511, 359, 1148], "actions": ["left", "left", "left", "down", "down"], "actionTimes": [6873, 7696, 8717, 9613, 11271], "queries": {"click": {"state": {"target": [], "time": []}, "edge": {"target": [], "time": []}}, "mouseover": {"state": {"target": [], "time": []}, "edge": {"target": [], "time": []}}, "mouseout": {"state": {"target": ["0", "0"], "time": [792, 891]}, "edge": {"target": [], "time": []}}}, "displayed_time": "15.66", "trialTime": 21479, "trial_type": "mouselab-mdp", "trial_index": 31, "time_elapsed": 1275621, "internal_node_id": "0.0-6.0-1.0-22.0"}}, {"uniqueid": "w32892584:a13524426", "current_trial": 32, "dateTime": 1693835950581, "trialdata": {"revealed_states": [], "clicked_states": [], "num_clicks_accrued": [0, 0, 0, 0, 0, 0, 0, 0, 0, 0, 0, 0, 0], "stateRewards": ["", -2, 2, 3, -7, -31, -33, 29, -8, -57, 50, -83, -1, -1, 5, 13, -23, -62, 25, 5, -66, -85, 14, 1, -2, -1, 16, 71, 33, -19, -14, 5, -43, 79], "withholdReward": false, "trial_id": "mdp_trial_24", "block": "test", "trialIndex": 25, "score": -77, "costs": 0, "simulationMode": [null, null, null, null, null], "rewards": [-1, -1, 5, 5, -85], "path": ["0", "0", "12", "13", "14", "19", "21"], "rt": [2593, 336, 86, 464, 330], "actions": ["right", "right", "right", "down", "down"], "actionTimes": [4000, 4831, 5430, 6406, 7237], "queries": {"click": {"state": {"target": [], "time": []}, "edge": {"target": [], "time": []}}, "mouseover": {"state": {"target": [], "time": []}, "edge": {"target": [], "time": []}}, "mouseout": {"state": {"target": ["0", "23", "0"], "time": [494, 777, 2043]}, "edge": {"target": [], "time": []}}}, "displayed_time": "15.41", "trialTime": 18669, "trial_type": "mouselab-mdp", "trial_index": 32, "time_elapsed": 1294594, "internal_node_id": "0.0-6.0-1.0-23.0"}}, {"uniqueid": "w32892584:a13524426", "current_trial": 33, "dateTime": 1693835969822, "trialdata": {"revealed_states": [], "clicked_states": [], "num_clicks_accrued": [0, 0, 0, 0, 0, 0, 0, 0, 0, 0, 0, 0, 0], "stateRewards": ["", -1, 2, -6, 6, 43, 78, 78, -2, 55, -29, -17, -2, -4, 1, -15, 13, 7, -79, 8, -28, -68, 36, -1, -3, 3, -16, 84, -18, 87, 10, 32, 13, -81], "withholdReward": false, "trial_id": "mdp_trial_25", "block": "test", "trialIndex": 26, "score": -24, "costs": 0, "simulationMode": [null, null, null, null, null], "rewards": [-1, 2, -6, -2, -17], "path": ["0", "0", "1", "2", "3", "8", "11"], "rt": [2585, 83, 178, 508, 322], "actions": ["up", "up", "up", "left", "left"], "actionTimes": [4729, 5306, 5999, 7013, 7844], "queries": {"click": {"state": {"target": [], "time": []}, "edge": {"target": [], "time": []}}, "mouseover": {"state": {"target": [], "time": []}, "edge": {"target": [], "time": []}}, "mouseout": {"state": {"target": [], "time": []}, "edge": {"target": [], "time": []}}}, "displayed_time": "16.14", "trialTime": 18919, "trial_type": "mouselab-mdp", "trial_index": 33, "time_elapsed": 1313835, "internal_node_id": "0.0-6.0-1.0-24.0"}}, {"uniqueid": "w32892584:a13524426", "current_trial": 34, "dateTime": 1693836006469, "trialdata": {"revealed_states": [], "clicked_states": [], "num_clicks_accrued": [0, 0, 0, 0, 0, 0, 0, 0, 0, 0, 0, 0, 0], "stateRewards": ["", -1, 2, -2, 5, 80, -61, -27, 12, 44, -26, -75, -2, -4, 1, -16, 42, -49, -50, 4, -44, 2, 80, -2, -2, 5, -2, 59, 10, 24, 7, -48, -86, -44], "withholdReward": false, "trial_id": "mdp_trial_26", "block": "test", "trialIndex": 27, "score": 84, "costs": 0, "simulationMode": [null, null, null, null, null], "rewards": [-1, 2, -2, 5, 80], "path": ["0", "0", "1", "2", "3", "4", "5"], "rt": [1262, 144, 651, 639, 176], "actions": ["up", "up", "up", "right", "up"], "actionTimes": [18291, 18946, 20103, 21238, 21908], "queries": {"click": {"state": {"target": [], "time": []}, "edge": {"target": [], "time": []}}, "mouseover": {"state": {"target": [], "time": []}, "edge": {"target": [], "time": []}}, "mouseout": {"state": {"target": ["0"], "time": [35356]}, "edge": {"target": [], "time": []}}}, "displayed_time": "31.03", "trialTime": 36335, "trial_type": "mouselab-mdp", "trial_index": 34, "time_elapsed": 1350481, "internal_node_id": "0.0-6.0-1.0-25.0"}}, {"uniqueid": "w32892584:a13524426", "current_trial": 35, "dateTime": 1693836031344, "trialdata": {"revealed_states": [], "clicked_states": [], "num_clicks_accrued": [0, 0, 0, 0, 0, 0, 0, 0, 0, 0, 0, 0, 0], "stateRewards": ["", -1, 3, -4, -14, 78, 67, 2, 13, -32, 28, 39, -2, 1, -4, -4, -4, -42, -86, 11, 64, -29, -32, -1, -4, 2, -7, 5, 68, -61, 2, -21, 85, 50], "withholdReward": false, "trial_id": "mdp_trial_27", "block": "test", "trialIndex": 28, "score": -26, "costs": 0, "simulationMode": [null, null, null, null, null], "rewards": [-2, 1, -4, 11, -32], "path": ["0", "0", "12", "13", "14", "19", "22"], "rt": [2328, 300, 375, 650, 6489], "actions": ["right", "right", "right", "down", "left"], "actionTimes": [7970, 8783, 9674, 10832, 17820], "queries": {"click": {"state": {"target": [], "time": []}, "edge": {"target": [], "time": []}}, "mouseover": {"state": {"target": [], "time": []}, "edge": {"target": [], "time": []}}, "mouseout": {"state": {"target": ["0", "0", "12", "13"], "time": [5083, 23437, 23471, 23654]}, "edge": {"target": [], "time": []}}}, "displayed_time": "19.64", "trialTime": 24560, "trial_type": "mouselab-mdp", "trial_index": 35, "time_elapsed": 1375357, "internal_node_id": "0.0-6.0-1.0-26.0"}}, {"uniqueid": "w32892584:a13524426", "current_trial": 36, "dateTime": 1693836057671, "trialdata": {"revealed_states": [], "clicked_states": [], "num_clicks_accrued": [0, 0, 0, 0, 0, 0, 0, 0, 0, 0, 0, 0, 0], "stateRewards": ["", -2, 2, -5, -6, 10, -66, -58, -10, -11, -63, -70, -1, -4, -5, 7, 66, -64, -43, -3, 45, -37, 4, -2, -2, -6, -4, -30, 33, 43, 15, -32, -65, -59], "withholdReward": false, "trial_id": "mdp_trial_28", "block": "test", "trialIndex": 29, "score": -50, "costs": 0, "simulationMode": [null, null, null, null, null], "rewards": [-1, -4, -5, -3, -37], "path": ["0", "0", "12", "13", "14", "19", "21"], "rt": [1202, 50, 300, 437, 540], "actions": ["right", "right", "right", "down", "down"], "actionTimes": [3110, 3676, 4491, 5444, 6496], "queries": {"click": {"state": {"target": [], "time": []}, "edge": {"target": [], "time": []}}, "mouseover": {"state": {"target": [], "time": []}, "edge": {"target": [], "time": []}}, "mouseout": {"state": {"target": [], "time": []}, "edge": {"target": [], "time": []}}}, "displayed_time": "15.91", "trialTime": 26010, "trial_type": "mouselab-mdp", "trial_index": 36, "time_elapsed": 1401684, "internal_node_id": "0.0-6.0-1.0-27.0"}}, {"uniqueid": "w32892584:a13524426", "current_trial": 37, "dateTime": 1693836082531, "trialdata": {"revealed_states": [], "clicked_states": [], "num_clicks_accrued": [0, 0, 0, 0, 0, 0, 0, 0, 0, 0, 0, 0, 0], "stateRewards": ["", 1, 1, -2, 7, -31, -6, 76, 1, -36, -16, -53, 2, 1, 7, 13, -47, -10, 47, -7, 72, 46, -56, -2, -2, -2, 11, -80, 44, 38, 16, 67, 85, -78], "withholdReward": false, "trial_id": "mdp_trial_29", "block": "test", "trialIndex": 30, "score": -15, "costs": 0, "simulationMode": [null, null, null, null, null], "rewards": [1, 1, -2, 1, -16], "path": ["0", "0", "1", "2", "3", "8", "10"], "rt": [3975, 85, 327, 679, 426], "actions": ["up", "up", "up", "left", "down"], "actionTimes": [9774, 10350, 11190, 12376, 13321], "queries": {"click": {"state": {"target": [], "time": []}, "edge": {"target": [], "time": []}}, "mouseover": {"state": {"target": [], "time": []}, "edge": {"target": [], "time": []}}, "mouseout": {"state": {"target": ["0"], "time": [1050]}, "edge": {"target": [], "time": []}}}, "displayed_time": "19.80", "trialTime": 24532, "trial_type": "mouselab-mdp", "trial_index": 37, "time_elapsed": 1426543, "internal_node_id": "0.0-6.0-1.0-28.0"}}, {"uniqueid": "w32892584:a13524426", "current_trial": 38, "dateTime": 1693836104641, "trialdata": {"revealed_states": [], "clicked_states": [], "num_clicks_accrued": [0, 0, 0, 0, 0, 0, 0, 0, 0, 0, 0, 0, 0], "stateRewards": ["", -1, 3, -7, 16, -32, -74, -48, 2, 10, 15, -30, 1, 1, -2, 10, 12, -83, 67, 13, -66, 47, 65, -2, 4, 2, -14, -8, -57, 24, 9, 65, 12, 46], "withholdReward": false, "trial_id": "mdp_trial_30", "block": "test", "trialIndex": 31, "score": -73, "costs": 0, "simulationMode": [null, null, null, null, null], "rewards": [1, 1, -2, 10, -83], "path": ["0", "0", "12", "13", "14", "15", "17"], "rt": [2332, 478, 204, 399, 72], "actions": ["right", "right", "right", "up", "right"], "actionTimes": [4784, 5780, 6487, 7399, 7971], "queries": {"click": {"state": {"target": [], "time": []}, "edge": {"target": [], "time": []}}, "mouseover": {"state": {"target": [], "time": []}, "edge": {"target": [], "time": []}}, "mouseout": {"state": {"target": ["0", "0"], "time": [1702, 20988]}, "edge": {"target": [], "time": []}}}, "displayed_time": "16.45", "trialTime": 21777, "trial_type": "mouselab-mdp", "trial_index": 38, "time_elapsed": 1448654, "internal_node_id": "0.0-6.0-1.0-29.0"}}, {"uniqueid": "w32892584:a13524426", "current_trial": 39, "dateTime": 1693836124638, "trialdata": {"revealed_states": [], "clicked_states": [], "num_clicks_accrued": [0, 0, 0, 0, 0, 0, 0, 0, 0, 0, 0, 0, 0], "stateRewards": ["", -2, -3, 1, -14, 48, -49, 67, -1, -35, -48, 3, -2, 1, -4, -5, 86, -84, 39, 1, 48, 41, -42, -1, -4, 2, -7, 18, -86, 17, 7, -9, 57, -69], "withholdReward": false, "trial_id": "mdp_trial_31", "block": "test", "trialIndex": 32, "score": 30, "costs": 0, "simulationMode": [null, null, null, null, null], "rewards": [-2, -3, 1, -14, 48], "path": ["0", "0", "1", "2", "3", "4", "5"], "rt": [1690, 175, 1806, 870, 170], "actions": ["up", "up", "up", "right", "up"], "actionTimes": [4147, 4821, 7135, 8498, 9180], "queries": {"click": {"state": {"target": [], "time": []}, "edge": {"target": [], "time": []}}, "mouseover": {"state": {"target": [], "time": []}, "edge": {"target": [], "time": []}}, "mouseout": {"state": {"target": [], "time": []}, "edge": {"target": [], "time": []}}}, "displayed_time": "16.46", "trialTime": 19634, "trial_type": "mouselab-mdp", "trial_index": 39, "time_elapsed": 1468650, "internal_node_id": "0.0-6.0-1.0-30.0"}}, {"uniqueid": "w32892584:a13524426", "current_trial": 40, "dateTime": 1693836145929, "trialdata": {"revealed_states": [], "clicked_states": [], "num_clicks_accrued": [0, 0, 0, 0, 0, 0, 0, 0, 0, 0, 0, 0, 0], "stateRewards": ["", -1, 3, -5, -2, -13, -9, -34, -7, -81, 32, 35, -2, -2, 1, -14, -32, 81, 7, 4, 82, 56, -8, -1, 3, -8, 6, -24, -24, -53, 2, 38, 61, 54], "withholdReward": false, "trial_id": "mdp_trial_32", "block": "test", "trialIndex": 33, "score": -18, "costs": 0, "simulationMode": [null, null, null, null, null], "rewards": [-1, 3, -5, -2, -13], "path": ["0", "0", "1", "2", "3", "4", "5"], "rt": [1744, 377, 181, 678, 1047], "actions": ["up", "up", "up", "right", "up"], "actionTimes": [6768, 7641, 8341, 9537, 11076], "queries": {"click": {"state": {"target": [], "time": []}, "edge": {"target": [], "time": []}}, "mouseover": {"state": {"target": [], "time": []}, "edge": {"target": [], "time": []}}, "mouseout": {"state": {"target": [], "time": []}, "edge": {"target": [], "time": []}}}, "displayed_time": "19.03", "trialTime": 20856, "trial_type": "mouselab-mdp", "trial_index": 40, "time_elapsed": 1489942, "internal_node_id": "0.0-6.0-1.0-31.0"}}, {"uniqueid": "w32892584:a13524426", "current_trial": 41, "dateTime": 1693836169706, "trialdata": {"revealed_states": [], "clicked_states": [], "num_clicks_accrued": [0, 0, 0, 0, 0, 0, 0, 0, 0, 0, 0, 0, 0], "stateRewards": ["", 1, 2, 2, -15, -84, 28, -26, 13, 31, 86, 30, -2, 1, -1, -8, 66, -40, -1, -10, -32, 57, -17, 1, 2, -2, 9, -23, 77, 85, 12, -32, -62, -35], "withholdReward": false, "trial_id": "mdp_trial_33", "block": "test", "trialIndex": 34, "score": 45, "costs": 0, "simulationMode": [null, null, null, null, null], "rewards": [-2, 1, -1, -10, 57], "path": ["0", "0", "12", "13", "14", "19", "21"], "rt": [1427, 108, 659, 1145, 86], "actions": ["right", "right", "right", "down", "down"], "actionTimes": [2750, 3372, 4541, 6177, 6764], "queries": {"click": {"state": {"target": [], "time": []}, "edge": {"target": [], "time": []}}, "mouseover": {"state": {"target": [], "time": []}, "edge": {"target": [], "time": []}}, "mouseout": {"state": {"target": [], "time": []}, "edge": {"target": [], "time": []}}}, "displayed_time": "15.33", "trialTime": 23381, "trial_type": "mouselab-mdp", "trial_index": 41, "time_elapsed": 1513719, "internal_node_id": "0.0-6.0-1.0-32.0"}}, {"uniqueid": "w32892584:a13524426", "current_trial": 42, "dateTime": 1693836187254, "trialdata": {"revealed_states": [], "clicked_states": [], "num_clicks_accrued": [0, 0, 0, 0, 0, 0, 0, 0, 0, 0, 0, 0, 0], "stateRewards": ["", 2, -3, -4, -1, 25, -16, 16, 10, -71, -20, -55, 1, 3, -4, -9, 1, 32, 11, -6, 32, -50, -41, -1, 4, 4, -8, 7, -81, 70, 2, -52, 45, -10], "withholdReward": false, "trial_id": "mdp_trial_34", "block": "test", "trialIndex": 35, "score": -15, "costs": 0, "simulationMode": [null, null, null, null, null], "rewards": [2, -3, -4, 10, -20], "path": ["0", "0", "1", "2", "3", "8", "10"], "rt": [1522, 172, 566, 651, 1068], "actions": ["up", "up", "up", "left", "down"], "actionTimes": [2491, 3165, 4242, 5393, 6976], "queries": {"click": {"state": {"target": [], "time": []}, "edge": {"target": [], "time": []}}, "mouseover": {"state": {"target": [], "time": []}, "edge": {"target": [], "time": []}}, "mouseout": {"state": {"target": [], "time": []}, "edge": {"target": [], "time": []}}}, "displayed_time": "14.98", "trialTime": 17142, "trial_type": "mouselab-mdp", "trial_index": 42, "time_elapsed": 1531267, "internal_node_id": "0.0-6.0-1.0-33.0"}}, {"uniqueid": "w32892584:a13524426", "current_trial": 43, "dateTime": 1693836205549, "trialdata": {"revealed_states": [], "clicked_states": [], "num_clicks_accrued": [0, 0, 0, 0, 0, 0, 0, 0, 0, 0, 0, 0, 0], "stateRewards": ["", -2, 3, -1, -9, 44, 48, -37, -3, 71, -39, 87, -1, 3, -4, 4, -21, 59, -15, -8, -1, 28, -38, 2, 4, 4, 8, -85, -72, -63, 14, 58, 63, -46], "withholdReward": false, "trial_id": "mdp_trial_35", "block": "test", "trialIndex": 36, "score": -19, "costs": 0, "simulationMode": [null, null, null, null, null], "rewards": [-1, 3, -4, 4, -21], "path": ["0", "0", "12", "13", "14", "15", "16"], "rt": [2589, 184, 432, 1004, 186], "actions": ["right", "right", "right", "up", "up"], "actionTimes": [3815, 4507, 5453, 6974, 7655], "queries": {"click": {"state": {"target": [], "time": []}, "edge": {"target": [], "time": []}}, "mouseover": {"state": {"target": [], "time": []}, "edge": {"target": [], "time": []}}, "mouseout": {"state": {"target": [], "time": []}, "edge": {"target": [], "time": []}}}, "displayed_time": "15.23", "trialTime": 17878, "trial_type": "mouselab-mdp", "trial_index": 43, "time_elapsed": 1549561, "internal_node_id": "0.0-6.0-1.0-34.0"}}, {"uniqueid": "w32892584:a13524426", "current_trial": 44, "dateTime": 1693836225795, "trialdata": {"revealed_states": [], "clicked_states": [], "num_clicks_accrued": [0, 0, 0, 0, 0, 0, 0, 0, 0, 0, 0, 0, 0], "stateRewards": ["", 2, 3, -1, 16, -78, -11, 46, 2, -20, 79, -67, 2, 3, 2, 11, -83, -42, -58, -11, -67, -22, 55, 2, -1, -1, -16, -83, -82, 23, -11, -29, 13, 13], "withholdReward": false, "trial_id": "mdp_trial_36", "block": "test", "trialIndex": 37, "score": -40, "costs": 0, "simulationMode": [null, null, null, null, null], "rewards": [2, -1, -1, -11, -29], "path": ["0", "0", "23", "24", "25", "30", "31"], "rt": [2259, 39, 608, 825, 215], "actions": ["left", "left", "left", "down", "right"], "actionTimes": [4045, 4595, 5721, 7044, 7751], "queries": {"click": {"state": {"target": [], "time": []}, "edge": {"target": [], "time": []}}, "mouseover": {"state": {"target": [], "time": []}, "edge": {"target": [], "time": []}}, "mouseout": {"state": {"target": [], "time": []}, "edge": {"target": [], "time": []}}}, "displayed_time": "15.80", "trialTime": 19835, "trial_type": "mouselab-mdp", "trial_index": 44, "time_elapsed": 1569807, "internal_node_id": "0.0-6.0-1.0-35.0"}}, {"uniqueid": "w32892584:a13524426", "current_trial": 45, "dateTime": 1693836243695, "trialdata": {"revealed_states": [], "clicked_states": [], "num_clicks_accrued": [0, 0, 0, 0, 0, 0, 0, 0, 0, 0, 0, 0, 0], "stateRewards": ["", 1, 1, 6, -14, -40, 37, 16, -13, 33, -68, 49, 2, 4, 3, 6, 55, 27, 32, 10, -65, 20, -87, 2, 1, -6, -5, -42, 12, 29, -8, 16, 76, -33], "withholdReward": false, "trial_id": "mdp_trial_37", "block": "test", "trialIndex": 38, "score": -68, "costs": 0, "simulationMode": [null, null, null, null, null], "rewards": [2, 4, 3, 10, -87], "path": ["0", "0", "12", "13", "14", "19", "22"], "rt": [1982, 258, 2395, 8, 602], "actions": ["right", "right", "right", "down", "left"], "actionTimes": [3449, 4207, 7112, 7622, 8749], "queries": {"click": {"state": {"target": [], "time": []}, "edge": {"target": [], "time": []}}, "mouseover": {"state": {"target": [], "time": []}, "edge": {"target": [], "time": []}}, "mouseout": {"state": {"target": [], "time": []}, "edge": {"target": [], "time": []}}}, "displayed_time": "15.47", "trialTime": 17517, "trial_type": "mouselab-mdp", "trial_index": 45, "time_elapsed": 1587708, "internal_node_id": "0.0-6.0-1.0-36.0"}}, {"uniqueid": "w32892584:a13524426", "current_trial": 46, "dateTime": 1693836262848, "trialdata": {"revealed_states": [], "clicked_states": [], "num_clicks_accrued": [0, 0, 0, 0, 0, 0, 0, 0, 0, 0, 0, 0, 0], "stateRewards": ["", -1, -4, -3, 1, -45, -67, -24, 14, 32, 22, 22, -1, 1, -5, -7, 72, 84, -79, -5, 19, -40, -2, -1, -2, 8, -3, 84, -25, -28, 11, 64, -66, 77], "withholdReward": false, "trial_id": "mdp_trial_38", "block": "test", "trialIndex": 39, "score": -50, "costs": 0, "simulationMode": [null, null, null, null, null], "rewards": [-1, -2, 8, 11, -66], "path": ["0", "0", "23", "24", "25", "30", "32"], "rt": [1776, 62, 281, 653, 146], "actions": ["left", "left", "left", "down", "down"], "actionTimes": [4646, 5203, 6004, 7158, 7801], "queries": {"click": {"state": {"target": [], "time": []}, "edge": {"target": [], "time": []}}, "mouseover": {"state": {"target": [], "time": []}, "edge": {"target": [], "time": []}}, "mouseout": {"state": {"target": ["0"], "time": [2356]}, "edge": {"target": [], "time": []}}}, "displayed_time": "16.87", "trialTime": 18773, "trial_type": "mouselab-mdp", "trial_index": 46, "time_elapsed": 1606861, "internal_node_id": "0.0-6.0-1.0-37.0"}}, {"uniqueid": "w32892584:a13524426", "current_trial": 47, "dateTime": 1693836285118, "trialdata": {"revealed_states": [], "clicked_states": [], "num_clicks_accrued": [0, 0, 0, 0, 0, 0, 0, 0, 0, 0, 0, 0, 0], "stateRewards": ["", 1, -1, 4, -2, -75, -75, 84, -9, -60, -79, 59, 2, -4, 8, 9, -17, -82, 80, 14, -4, 49, 49, -1, 3, 6, -11, -33, 34, 55, 9, -57, 5, 59], "withholdReward": false, "trial_id": "mdp_trial_39", "block": "test", "trialIndex": 40, "score": 69, "costs": 0, "simulationMode": [null, null, null, null, null], "rewards": [2, -4, 8, 14, 49], "path": ["0", "0", "12", "13", "14", "19", "21"], "rt": [1469, 161, 8, 506, 48], "actions": ["right", "right", "right", "down", "down"], "actionTimes": [5041, 5725, 6250, 7280, 7842], "queries": {"click": {"state": {"target": [], "time": []}, "edge": {"target": [], "time": []}}, "mouseover": {"state": {"target": [], "time": []}, "edge": {"target": [], "time": []}}, "mouseout": {"state": {"target": ["0", "0"], "time": [2338, 2410]}, "edge": {"target": [], "time": []}}}, "displayed_time": "17.58", "trialTime": 21877, "trial_type": "mouselab-mdp", "trial_index": 47, "time_elapsed": 1629131, "internal_node_id": "0.0-6.0-1.0-38.0"}}, {"uniqueid": "w32892584:a13524426", "current_trial": 48, "dateTime": 1693836304656, "trialdata": {"revealed_states": [], "clicked_states": [], "num_clicks_accrued": [0, 0, 0, 0, 0, 0, 0, 0, 0, 0, 0, 0, 0], "stateRewards": ["", 2, 3, 6, -12, -29, 12, 87, 4, 35, -30, 67, 2, 3, -5, -9, 44, 69, -8, 1, 45, -8, 28, -2, -1, -8, 11, -12, -5, 81, 9, 87, 82, 88], "withholdReward": false, "trial_id": "mdp_trial_40", "block": "test", "trialIndex": 41, "score": -5, "costs": 0, "simulationMode": [null, null, null, null, null], "rewards": [-2, -1, -8, 11, -5], "path": ["0", "0", "23", "24", "25", "26", "28"], "rt": [3225, 546, 599, 427, 24], "actions": ["left", "left", "left", "up", "right"], "actionTimes": [4749, 5811, 6914, 7862, 8387], "queries": {"click": {"state": {"target": [], "time": []}, "edge": {"target": [], "time": []}}, "mouseover": {"state": {"target": [], "time": []}, "edge": {"target": [], "time": []}}, "mouseout": {"state": {"target": ["0"], "time": [1980]}, "edge": {"target": [], "time": []}}}, "displayed_time": "15.53", "trialTime": 19133, "trial_type": "mouselab-mdp", "trial_index": 48, "time_elapsed": 1648669, "internal_node_id": "0.0-6.0-1.0-39.0"}}, {"uniqueid": "w32892584:a13524426", "current_trial": 49, "dateTime": 1693836381969, "trialdata": {"rt": 77311, "response": {"Q0": "$-16 to 16", "Q1": "$-4 to $4", "Q2": "$-88 to $88", "Q3": "The cost for clicking on nodes varied between nodes.", "Q4": "Neither motivated nor unmotivated"}, "question_order": [0, 1, 2, 3, 4], "trial_id": "final_quiz_control", "trial_type": "survey-multi-choice", "trial_index": 49, "time_elapsed": 1725981, "internal_node_id": "0.0-6.0-2.0"}}, {"uniqueid": "w32892584:a13524426", "current_trial": 50, "dateTime": 1693836415936, "trialdata": {"rt": 42638, "response": {"Q0": "random selection", "Q1": "no", "Q2": "fairly easy"}, "trial_id": "self_report_control", "trial_type": "survey-text", "trial_index": 50, "time_elapsed": 1759949, "internal_node_id": "0.0-6.0-3.0"}}, {"uniqueid": "w32892584:a13524426", "current_trial": 51, "dateTime": 1693836540135, "trialdata": {"rt": 124194, "response": {"Q0": "Neither disagree nor agree", "Q1": "Disagree", "Q2": "Agree", "Q3": "Neither disagree nor agree", "Q4": "Neither disagree nor agree", "Q5": "Neither disagree nor agree", "Q6": "Neither disagree nor agree"}, "question_order": [0, 1, 2, 3, 4, 5, 6], "trial_id": "self_report_2", "trial_type": "survey-multi-choice", "trial_index": 51, "time_elapsed": 1884148, "internal_node_id": "0.0-6.0-4.0"}}, {"uniqueid": "w32892584:a13524426", "current_trial": 52, "dateTime": 1693836570236, "trialdata": {"rt": 30053, "response": {"gender": "male", "age": "25", "colorblind": "0", "effort": "1"}, "trial_type": "survey-html-form", "trial_index": 52, "time_elapsed": 1914249, "internal_node_id": "0.0-6.0-5.0"}}, {"uniqueid": "w32892584:a13524426", "current_trial": 53, "dateTime": 1693836587953, "trialdata": {"rt": 17701, "response": {"Q0": "no", "Q1": "no", "Q2": ""}, "trial_type": "survey-text", "trial_index": 53, "time_elapsed": 1931966, "internal_node_id": "0.0-6.0-6.0"}}, {"uniqueid": "w32892584:a13524426", "current_trial": 54, "dateTime": 1693836598766, "trialdata": {"rt": 10813, "stimulus": "<h1>Completion Code Instructions (1/2)</h1>\n<br><br><br><br>\nYou have reached the end of the experiment! The completion code consists of two parts: (1) a code with 2 characters (2) a code with 6 characters. On this page, you will receive the second part of the code. The first part of the completion code will be on the next page.\n<br><br>\nThe second part of your completion code is: <b>EWEK22</b>\n<br><br>\nPlease note this down. Then, press 'Next' in order to find the first part of your completion code. Once the data has been saved, you will receive this code either in this window or in the original browser window where you started the experiment.\n <br><br>\n<h2 style='color: red;'>Note: this is <strong>NOT</strong> the full completion code. Copy this down and click 'Next' to get the full completion code on the next page.</h2>", "response": 0, "trial_type": "html-button-response", "trial_index": 54, "time_elapsed": 1942779, "internal_node_id": "0.0-6.0-7.0"}}, {"uniqueid": "w32892584:a13524426", "current_trial": 55, "dateTime": 1693836599798, "trialdata": {"success": true, "trial_type": "fullscreen", "trial_index": 55, "time_elapsed": 1943811, "internal_node_id": "0.0-7.0"}}], "questiondata": {"params": {"CODE": "C6DMOQA6", "MIN_TIME": 14, "inspectCost": 1, "startTime": "Mon Sep 04 2023 15:37:32 GMT+0200 (South Africa Standard Time)", "bonusRate": 0.002, "variance": "1_2_4_8_44", "branching": "31123"}}, "eventdata": [{"eventtype": "initialized", "value": null, "timestamp": 1693834651568, "interval": 0}, {"eventtype": "window_resize", "value": [1028, 744], "timestamp": 1693834651568, "interval": 0}, {"eventtype": "window_resize", "value": [1028, 744], "timestamp": 1693834652063, "interval": 495}, {"eventtype": "window_resize", "value": [1536, 864], "timestamp": 1693834662649, "interval": 10586}, {"eventtype": "window_resize", "value": [1028, 744], "timestamp": 1693836599344, "interval": 1936695}], "useragent": "Mozilla/5.0 (Windows NT 10.0; Win64; x64) AppleWebKit/537.36 (KHTML, like Gecko) Chrome/116.0.0.0 Safari/537.36", "mode": "live", "id": "w32892584:a13524426", "status": "user data saved", "Beginhit": "2023-09-04 13:37:15.00683", "Beginexp": "2023-09-04 13:37:34.583475", "Endhit": "2023-09-04 14:10:00.899111", "psiturkStatus": 3, "browser": "<redacted>", "platform": "windows", "language": "en-ZA"}