{"condition": 1, "counterbalance": 0, "assignmentId": "a43420750", "workerId": "w36699951", "hitId": "h21929207", "currenttrial": 56, "bonus": 0, "data": [{"uniqueid": "w36699951:a43420750", "current_trial": 0, "dateTime": 1691159957801, "trialdata": {"success": true, "trial_type": "fullscreen", "trial_index": 0, "time_elapsed": 5911, "internal_node_id": "0.0-0.0"}}, {"uniqueid": "w36699951:a43420750", "current_trial": 1, "dateTime": 1691159974999, "trialdata": {"view_history": [{"page_index": 0, "viewing_time": 17191}], "rt": 17193, "trial_id": "exp_instructions_misaligned", "trial_type": "instructions", "trial_index": 1, "time_elapsed": 23110, "internal_node_id": "0.0-1.0"}}, {"uniqueid": "w36699951:a43420750", "current_trial": 2, "dateTime": 1691159977635, "trialdata": {"success": true, "trial_type": "fullscreen", "trial_index": 2, "time_elapsed": 25746, "internal_node_id": "0.0-2.0-0.0"}}, {"uniqueid": "w36699951:a43420750", "current_trial": 3, "dateTime": 1691160214505, "trialdata": {"view_history": [{"page_index": 0, "viewing_time": 122426}, {"page_index": 1, "viewing_time": 68712}, {"page_index": 2, "viewing_time": 22102}, {"page_index": 3, "viewing_time": 23629}], "rt": 236868, "trial_id": "mouselab_instructions_1_misaligned", "trial_type": "instructions", "trial_index": 3, "time_elapsed": 262616, "internal_node_id": "0.0-2.0-1.0"}}, {"uniqueid": "w36699951:a43420750", "current_trial": 4, "dateTime": 1691160270912, "trialdata": {"revealed_states": [], "clicked_states": ["23", "1", "12", "13", "18", "15", "17", "2", "3", "8", "9", "4"], "num_clicks_accrued": [0, 0, 0, 0, 0, 0, 0, 0, 0, 0, 0, 0, 0], "stateRewards": ["", 10, -10, -10, 10, 10, -10, 10, -10, 10, -10, 10, 10, 10, 10, 10, 10, -10, 10, -10, 10, 10, 10, -10, -10, -10, -10, -10, -10, 10, 10, 10, 10, 10], "withholdReward": false, "trial_id": "practice_1", "block": "test", "trialIndex": 0, "score": -12.5, "costs": -6, "simulationMode": [null, null, null, null, null], "rewards": [10, -10, -10, -10, 10], "path": ["0", "0", "1", "2", "3", "8", "9"], "rt": [44184, 546, 1215, 783, 91], "actions": ["up", "up", "up", "left", "up"], "actionTimes": [48693, 49757, 51492, 52791, 53397], "queries": {"click": {"state": {"target": ["23", "1", "12", "13", "18", "15", "17", "2", "3", "8", "9", "4"], "time": [6188, 8202, 9273, 10311, 11374, 12718, 14024, 22269, 24050, 25360, 26799, 28002]}, "edge": {"target": [], "time": []}}, "mouseover": {"state": {"target": ["23", "24", "1", "12", "13", "18", "15", "17", "7", "2", "10", "3", "8", "9", "4", "7", "12", "15"], "time": [5929, 6930, 7978, 8893, 9775, 10974, 12044, 13759, 22014, 22098, 22915, 23879, 24500, 25931, 27511, 29377, 31008, 41864]}, "edge": {"target": [], "time": []}}, "mouseout": {"state": {"target": ["0", "23", "24", "1", "12", "13", "18", "15", "15", "17", "7", "2", "2", "10", "2", "3", "8", "9", "4", "7", "12", "15"], "time": [5241, 6719, 7628, 8727, 9725, 10642, 11917, 12808, 13424, 14705, 22032, 22387, 22764, 23529, 23596, 24416, 25702, 27179, 29345, 29408, 31348, 41883]}, "edge": {"target": [], "time": []}}}, "displayed_time": "53.91", "trialTime": 55758, "trial_type": "mouselab-mdp", "trial_index": 4, "time_elapsed": 319023, "internal_node_id": "0.0-2.0-2.0-0.0"}}, {"uniqueid": "w36699951:a43420750", "current_trial": 5, "dateTime": 1691160293245, "trialdata": {"revealed_states": [], "clicked_states": ["1", "23"], "num_clicks_accrued": [0, 0, 0, 0, 0, 0, 0, 0, 0, 0, 0, 0, 0], "stateRewards": ["", -10, -10, 10, 10, -10, -10, 10, -10, -10, 10, -10, -10, 10, -10, 10, -10, 10, 10, -10, -10, -10, -10, -10, 10, -10, 10, 10, -10, -10, 10, -10, 10, 10], "withholdReward": false, "trial_id": "practice_2", "block": "test", "trialIndex": 1, "score": 12.5, "costs": -1, "simulationMode": [null, null, null, null, null], "rewards": [-10, 10, -10, 10, 10], "path": ["0", "0", "23", "24", "25", "30", "33"], "rt": [7467, 1439, 5406, 144, 193], "actions": ["left", "left", "left", "down", "left"], "actionTimes": [9755, 11707, 17623, 18286, 18986], "queries": {"click": {"state": {"target": ["1", "23"], "time": [3003, 4974]}, "edge": {"target": [], "time": []}}, "mouseover": {"state": {"target": ["1", "12", "0", "23", "0", "12", "12"], "time": [2770, 3656, 4484, 4718, 5788, 6816, 7576]}, "edge": {"target": [], "time": []}}, "mouseout": {"state": {"target": ["12", "1", "12", "0", "23", "0", "12", "12"], "time": [1640, 3522, 4402, 4601, 5703, 5837, 6982, 7600]}, "edge": {"target": [], "time": []}}}, "displayed_time": "19.49", "trialTime": 22025, "trial_type": "mouselab-mdp", "trial_index": 5, "time_elapsed": 341355, "internal_node_id": "0.0-2.0-2.0-1.0"}}, {"uniqueid": "w36699951:a43420750", "current_trial": 6, "dateTime": 1691160311205, "trialdata": {"view_history": [{"page_index": 0, "viewing_time": 10990}, {"page_index": 1, "viewing_time": 6967}], "rt": 17959, "trial_id": "mouselab_instructions_2_misaligned", "trial_type": "instructions", "trial_index": 6, "time_elapsed": 359316, "internal_node_id": "0.0-2.0-3.0"}}, {"uniqueid": "w36699951:a43420750", "current_trial": 7, "dateTime": 1691160347023, "trialdata": {"rt": 35814, "response": {"Q0": "The cost for clicking on nodes may vary between nodes.", "Q1": "The better I perform the higher my bonus will be.", "Q2": "No, the amount of cash at each node of the web may be different each time.", "Q3": "To get the highest total score.", "Q4": "Only before moving the spider.", "Q5": "3 seconds"}, "question_order": [0, 1, 2, 3, 4, 5], "correct": {"Q0": "The cost for clicking on nodes may vary between nodes.", "Q1": "The better I perform the higher my bonus will be.", "Q2": "No, the amount of cash at each node of the web may be different each time.", "Q3": "To get the highest total score.", "Q4": "Only before moving the spider.", "Q5": "3 seconds"}, "trial_id": "mouselab_quiz_misaligned", "trial_type": "survey-multi-choice", "trial_index": 7, "time_elapsed": 395134, "internal_node_id": "0.0-2.0-4.0"}}, {"uniqueid": "w36699951:a43420750", "current_trial": 8, "dateTime": 1691160359288, "trialdata": {"rt": 12256, "stimulus": "\n<h1> Get ready to start the game! </h1>\n\nThank you for reading the instructions. Get ready start with the 40 rounds of this game.\n<br><br>\nIf you need to take a break, feel free to take one after the end of a round, before continuing to the next one.\n<br><br>\nRemember, the more money the spider gets, the bigger your bonus will be!\n<br><br>\n<div style='text-align: center;'>Press <code>space</code> to begin.</div>\n\n<br><br>\n(If, at any point, the <code>space</code> key does not take you to the next page, click once on the text and try again.)", "response": " ", "trial_id": "mdp_ready", "trial_type": "html-keyboard-response", "trial_index": 8, "time_elapsed": 407399, "internal_node_id": "0.0-4.0-0.0"}}, {"uniqueid": "w36699951:a43420750", "current_trial": 9, "dateTime": 1691160377659, "trialdata": {"revealed_states": [], "clicked_states": ["1"], "num_clicks_accrued": [0, 0, 0, 0, 0, 0, 0, 0, 0, 0, 0, 0, 0], "stateRewards": ["", 1, 3, -2, 15, 51, 15, -19, 11, 67, -45, -73, 2, 4, -2, -13, 36, 9, -28, 10, -30, 31, 16, 1, 2, -1, -16, 14, -22, 36, -1, 88, -5, 45], "withholdReward": false, "trial_id": "mdp_trial_1", "block": "test", "trialIndex": 2, "score": 80.25, "costs": 0.25, "simulationMode": [null, null, null, null, null], "rewards": [1, 3, -2, 11, 67], "path": ["0", "0", "1", "2", "3", "8", "9"], "rt": [2668, 983, 634, 31, 14], "actions": ["up", "up", "up", "left", "up"], "actionTimes": [4609, 6099, 7249, 7796, 8343], "queries": {"click": {"state": {"target": ["1"], "time": [2925]}, "edge": {"target": [], "time": []}}, "mouseover": {"state": {"target": ["1"], "time": [2451]}, "edge": {"target": [], "time": []}}, "mouseout": {"state": {"target": ["0", "1", "1"], "time": [2369, 3005, 3534]}, "edge": {"target": [], "time": []}}}, "displayed_time": "15.94", "trialTime": 18041, "trial_type": "mouselab-mdp", "trial_index": 9, "time_elapsed": 425769, "internal_node_id": "0.0-4.0-1.0-0.0"}}, {"uniqueid": "w36699951:a43420750", "current_trial": 10, "dateTime": 1691160396190, "trialdata": {"revealed_states": [], "clicked_states": ["12"], "num_clicks_accrued": [0, 0, 0, 0, 0, 0, 0, 0, 0, 0, 0, 0, 0], "stateRewards": ["", 1, 4, -8, -13, -13, -87, -77, -10, -44, 54, 42, 2, -3, -4, 12, -9, -80, 52, 9, 84, -2, -65, 1, -4, -5, -6, 8, 80, 32, 13, -59, -5, -13], "withholdReward": false, "trial_id": "mdp_trial_2", "block": "test", "trialIndex": 3, "score": -5.75, "costs": 0.25, "simulationMode": [null, null, null, null, null], "rewards": [1, -4, -5, -6, 8], "path": ["0", "0", "23", "24", "25", "26", "27"], "rt": [5945, 545, 823, 16, 626], "actions": ["left", "left", "left", "up", "up"], "actionTimes": [8888, 9944, 11288, 11816, 12973], "queries": {"click": {"state": {"target": ["12"], "time": [4420]}, "edge": {"target": [], "time": []}}, "mouseover": {"state": {"target": ["1", "12", "23"], "time": [3336, 3835, 7250]}, "edge": {"target": [], "time": []}}, "mouseout": {"state": {"target": ["1", "12", "23"], "time": [3802, 4938, 7999]}, "edge": {"target": [], "time": []}}}, "displayed_time": "16.94", "trialTime": 18175, "trial_type": "mouselab-mdp", "trial_index": 10, "time_elapsed": 444301, "internal_node_id": "0.0-4.0-1.0-1.0"}}, {"uniqueid": "w36699951:a43420750", "current_trial": 11, "dateTime": 1691160414424, "trialdata": {"revealed_states": [], "clicked_states": ["1"], "num_clicks_accrued": [0, 0, 0, 0, 0, 0, 0, 0, 0, 0, 0, 0, 0], "stateRewards": ["", -2, 4, 3, 5, -61, 4, 30, 1, -47, 83, 10, 1, 4, 7, -14, 19, -74, -83, 6, -2, -2, -65, -1, -2, 4, -11, 12, -1, -68, 11, -38, -28, 66], "withholdReward": false, "trial_id": "mdp_trial_3", "block": "test", "trialIndex": 4, "score": 16.25, "costs": 0.25, "simulationMode": [null, null, null, null, null], "rewards": [-2, 4, 3, 1, 10], "path": ["0", "0", "1", "2", "3", "8", "11"], "rt": [3645, 389, 1258, 272, 1276], "actions": ["up", "up", "up", "left", "left"], "actionTimes": [5232, 6135, 7904, 8684, 10469], "queries": {"click": {"state": {"target": ["1"], "time": [2596]}, "edge": {"target": [], "time": []}}, "mouseover": {"state": {"target": ["1"], "time": [2079]}, "edge": {"target": [], "time": []}}, "mouseout": {"state": {"target": ["0", "1"], "time": [1379, 3163]}, "edge": {"target": [], "time": []}}}, "displayed_time": "15.59", "trialTime": 17918, "trial_type": "mouselab-mdp", "trial_index": 11, "time_elapsed": 462535, "internal_node_id": "0.0-4.0-1.0-2.0"}}, {"uniqueid": "w36699951:a43420750", "current_trial": 12, "dateTime": 1691160431871, "trialdata": {"revealed_states": [], "clicked_states": ["1", "2", "7"], "num_clicks_accrued": [0, 0, 0, 0, 0, 0, 0, 0, 0, 0, 0, 0, 0], "stateRewards": ["", 1, 3, 3, -10, 52, 68, 59, 12, 7, 49, 21, -2, -3, -4, -2, -2, 63, 63, -4, 44, 43, -76, -2, -3, -6, 13, 48, 36, 12, -5, -36, -33, -11], "withholdReward": false, "trial_id": "mdp_trial_4", "block": "test", "trialIndex": 5, "score": 65.75, "costs": -2.25, "simulationMode": [null, null, null, null, null, null], "rewards": [1, 3, 3, 12, 49], "path": ["0", "0", "1", "2", "3", "8", "10"], "rt": [5880, 609, 353, 1459, 416, 552], "actions": ["up", "up", "up", "up", "left", "down"], "actionTimes": [7866, 8478, 9350, 11321, 12245, 13311], "queries": {"click": {"state": {"target": ["1", "2", "7"], "time": [2935, 4507, 6144]}, "edge": {"target": [], "time": []}}, "mouseover": {"state": {"target": ["1", "2", "2", "7"], "time": [2398, 3682, 4284, 5563]}, "edge": {"target": [], "time": []}}, "mouseout": {"state": {"target": ["1", "2", "2", "7"], "time": [3053, 3932, 5119, 6716]}, "edge": {"target": [], "time": []}}}, "displayed_time": "15.99", "trialTime": 17099, "trial_type": "mouselab-mdp", "trial_index": 12, "time_elapsed": 479981, "internal_node_id": "0.0-4.0-1.0-3.0"}}, {"uniqueid": "w36699951:a43420750", "current_trial": 13, "dateTime": 1691160449690, "trialdata": {"revealed_states": [], "clicked_states": ["23", "24"], "num_clicks_accrued": [0, 0, 0, 0, 0, 0, 0, 0, 0, 0, 0, 0, 0], "stateRewards": ["", 2, -1, 1, 10, -52, 86, -22, -2, -14, -63, 38, 1, 3, 7, -8, 11, -32, -27, 9, -71, 40, -87, -2, -1, 5, -7, 12, 31, -57, 13, 86, -58, 29], "withholdReward": false, "trial_id": "mdp_trial_5", "block": "test", "trialIndex": 6, "score": -43.1, "costs": -0.09999999999999998, "simulationMode": [null, null, null, null, null], "rewards": [-2, -1, 5, 13, -58], "path": ["0", "0", "23", "24", "25", "30", "32"], "rt": [4076, 532, 188, 198, 274], "actions": ["left", "left", "left", "down", "down"], "actionTimes": [5739, 6785, 7477, 8186, 8981], "queries": {"click": {"state": {"target": ["23", "24"], "time": [2280, 3672]}, "edge": {"target": [], "time": []}}, "mouseover": {"state": {"target": ["23", "24", "28"], "time": [2004, 3191, 4520]}, "edge": {"target": [], "time": []}}, "mouseout": {"state": {"target": ["1", "0", "23", "24"], "time": [1138, 1921, 2400, 3766]}, "edge": {"target": [], "time": []}}}, "displayed_time": "15.66", "trialTime": 17487, "trial_type": "mouselab-mdp", "trial_index": 13, "time_elapsed": 497801, "internal_node_id": "0.0-4.0-1.0-4.0"}}, {"uniqueid": "w36699951:a43420750", "current_trial": 14, "dateTime": 1691160470984, "trialdata": {"revealed_states": [], "clicked_states": [], "num_clicks_accrued": [0, 0, 0, 0, 0, 0, 0, 0, 0, 0, 0, 0, 0], "stateRewards": ["", -1, -3, -7, -7, -76, 30, -49, 11, -70, 56, 2, 1, 4, -3, -14, -59, -83, -25, -9, -21, -67, -73, -2, 4, 4, -9, -11, -32, 60, 9, -87, 22, -64], "withholdReward": false, "trial_id": "mdp_trial_6", "block": "test", "trialIndex": 7, "score": 2, "costs": 0, "simulationMode": [null, null, null, null, null], "rewards": [-1, -3, -7, 11, 2], "path": ["0", "0", "1", "2", "3", "8", "11"], "rt": [12256, 421, 328, 2011, 110], "actions": ["up", "up", "up", "left", "left"], "actionTimes": [14231, 15166, 16006, 18539, 19168], "queries": {"click": {"state": {"target": [], "time": []}, "edge": {"target": [], "time": []}}, "mouseover": {"state": {"target": ["0", "12", "0", "0"], "time": [5898, 6016, 8463, 9429]}, "edge": {"target": [], "time": []}}, "mouseout": {"state": {"target": ["28", "23", "0", "0", "12", "0", "0"], "time": [1252, 1352, 2501, 5933, 6915, 8614, 9546]}, "edge": {"target": [], "time": []}}}, "displayed_time": "19.68", "trialTime": 20877, "trial_type": "mouselab-mdp", "trial_index": 14, "time_elapsed": 519094, "internal_node_id": "0.0-4.0-1.0-5.0"}}, {"uniqueid": "w36699951:a43420750", "current_trial": 15, "dateTime": 1691160488476, "trialdata": {"revealed_states": [], "clicked_states": ["23"], "num_clicks_accrued": [0, 0, 0, 0, 0, 0, 0, 0, 0, 0, 0, 0, 0], "stateRewards": ["", 1, -1, 4, 5, -32, 18, 20, 6, -88, -74, 9, -2, 1, -2, -14, 34, -77, -38, -1, 80, -36, 73, 2, 3, -8, 10, -48, -73, -71, -11, -22, 20, 54], "withholdReward": false, "trial_id": "mdp_trial_7", "block": "test", "trialIndex": 8, "score": -40.75, "costs": 0.25, "simulationMode": [null, null, null, null, null], "rewards": [2, 3, -8, 10, -48], "path": ["0", "0", "23", "24", "25", "26", "27"], "rt": [2460, 892, 1016, 410, 740], "actions": ["left", "left", "left", "up", "up"], "actionTimes": [4081, 5487, 7011, 7936, 9187], "queries": {"click": {"state": {"target": ["23"], "time": [2462]}, "edge": {"target": [], "time": []}}, "mouseover": {"state": {"target": ["23"], "time": [2179]}, "edge": {"target": [], "time": []}}, "mouseout": {"state": {"target": ["0"], "time": [2062]}, "edge": {"target": [], "time": []}}}, "displayed_time": "15.62", "trialTime": 16831, "trial_type": "mouselab-mdp", "trial_index": 15, "time_elapsed": 536587, "internal_node_id": "0.0-4.0-1.0-6.0"}}, {"uniqueid": "w36699951:a43420750", "current_trial": 16, "dateTime": 1691160508239, "trialdata": {"revealed_states": [], "clicked_states": [], "num_clicks_accrued": [0, 0, 0, 0, 0, 0, 0, 0, 0, 0, 0, 0, 0], "stateRewards": ["", -2, -2, -7, -13, -10, 49, -68, -1, 84, 70, 88, 1, 4, 4, 12, -57, 25, 30, 8, -1, -77, 57, 2, 3, 2, 3, -18, -80, 23, -15, -41, 70, 11], "withholdReward": false, "trial_id": "mdp_trial_8", "block": "test", "trialIndex": 9, "score": 62, "costs": 0, "simulationMode": [null, null, null, null, null], "rewards": [2, 3, 2, -15, 70], "path": ["0", "0", "23", "24", "25", "30", "32"], "rt": [11910, 850, 646, 25, 146], "actions": ["left", "left", "left", "down", "down"], "actionTimes": [13833, 15178, 16346, 16884, 17553], "queries": {"click": {"state": {"target": [], "time": []}, "edge": {"target": [], "time": []}}, "mouseover": {"state": {"target": [], "time": []}, "edge": {"target": [], "time": []}}, "mouseout": {"state": {"target": ["23"], "time": [1268]}, "edge": {"target": [], "time": []}}}, "displayed_time": "18.08", "trialTime": 19397, "trial_type": "mouselab-mdp", "trial_index": 16, "time_elapsed": 556350, "internal_node_id": "0.0-4.0-1.0-7.0"}}, {"uniqueid": "w36699951:a43420750", "current_trial": 17, "dateTime": 1691160526307, "trialdata": {"revealed_states": [], "clicked_states": ["23", "12", "13", "1"], "num_clicks_accrued": [0, 0, 0, 0, 0, 0, 0, 0, 0, 0, 0, 0, 0], "stateRewards": ["", 2, -3, 5, 11, -79, 54, 11, -9, -78, 33, 22, -2, -1, 2, 14, 43, 34, 1, 10, 49, -65, 39, -1, 1, -1, 3, -16, -2, 11, 2, 12, 48, -65], "withholdReward": false, "trial_id": "mdp_trial_9", "block": "test", "trialIndex": 10, "score": -82.6, "costs": 0.4, "simulationMode": [null, null, null, null, null], "rewards": [2, -3, 5, -9, -78], "path": ["0", "0", "1", "2", "3", "8", "9"], "rt": [11643, 268, 144, 88, 89], "actions": ["up", "up", "up", "left", "up"], "actionTimes": [13404, 14188, 14847, 15456, 16059], "queries": {"click": {"state": {"target": ["23", "12", "13", "1"], "time": [4767, 7282, 8772, 11115]}, "edge": {"target": [], "time": []}}, "mouseover": {"state": {"target": ["23", "12", "13", "1"], "time": [4444, 6973, 8372, 10736]}, "edge": {"target": [], "time": []}}, "mouseout": {"state": {"target": ["0", "23", "12", "13", "12", "1"], "time": [4309, 5710, 8267, 10019, 10138, 11344]}, "edge": {"target": [], "time": []}}}, "displayed_time": "16.57", "trialTime": 17706, "trial_type": "mouselab-mdp", "trial_index": 17, "time_elapsed": 574418, "internal_node_id": "0.0-4.0-1.0-8.0"}}, {"uniqueid": "w36699951:a43420750", "current_trial": 18, "dateTime": 1691160544519, "trialdata": {"revealed_states": [], "clicked_states": [], "num_clicks_accrued": [0, 0, 0, 0, 0, 0, 0, 0, 0, 0, 0, 0, 0], "stateRewards": ["", 2, -4, 4, 9, 69, 9, -75, 12, -86, 66, 25, -1, 3, 2, -13, -88, -3, 1, 4, -69, 49, -84, 2, -1, 4, 2, -18, -81, -52, -15, -69, -54, 25], "withholdReward": false, "trial_id": "mdp_trial_10", "block": "test", "trialIndex": 11, "score": -64, "costs": 0, "simulationMode": [null, null, null, null, null], "rewards": [2, -1, 4, -15, -54], "path": ["0", "0", "23", "24", "25", "30", "32"], "rt": [2106, 1024, 1074, 64, 1241], "actions": ["left", "left", "left", "down", "down"], "actionTimes": [4414, 5950, 7533, 8105, 9864], "queries": {"click": {"state": {"target": [], "time": []}, "edge": {"target": [], "time": []}}, "mouseover": {"state": {"target": ["0"], "time": [2992]}, "edge": {"target": [], "time": []}}, "mouseout": {"state": {"target": ["0"], "time": [3009]}, "edge": {"target": [], "time": []}}}, "displayed_time": "16.31", "trialTime": 17865, "trial_type": "mouselab-mdp", "trial_index": 18, "time_elapsed": 592630, "internal_node_id": "0.0-4.0-1.0-9.0"}}, {"uniqueid": "w36699951:a43420750", "current_trial": 19, "dateTime": 1691160567465, "trialdata": {"revealed_states": [], "clicked_states": ["1", "23"], "num_clicks_accrued": [0, 0, 0, 0, 0, 0, 0, 0, 0, 0, 0, 0, 0], "stateRewards": ["", -2, -3, 8, -4, -30, 31, 69, 9, 66, 87, 64, -2, 2, 8, 5, 47, 16, -39, -8, -54, 51, -19, 1, -2, -2, -11, -25, -26, 43, -9, 19, -84, 86], "withholdReward": false, "trial_id": "mdp_trial_11", "block": "test", "trialIndex": 12, "score": 99.5, "costs": 0.5, "simulationMode": [null, null, null, null, null], "rewards": [-2, -3, 8, 9, 87], "path": ["0", "0", "1", "2", "3", "8", "10"], "rt": [4606, 194, 151, 1997, 215], "actions": ["up", "up", "up", "left", "down"], "actionTimes": [10103, 10813, 11471, 13980, 14712], "queries": {"click": {"state": {"target": ["1", "23"], "time": [6592, 8401]}, "edge": {"target": [], "time": []}}, "mouseover": {"state": {"target": ["1", "23"], "time": [6170, 8134]}, "edge": {"target": [], "time": []}}, "mouseout": {"state": {"target": ["0", "1", "23"], "time": [6103, 7606, 8614]}, "edge": {"target": [], "time": []}}}, "displayed_time": "19.50", "trialTime": 22574, "trial_type": "mouselab-mdp", "trial_index": 19, "time_elapsed": 615576, "internal_node_id": "0.0-4.0-1.0-10.0"}}, {"uniqueid": "w36699951:a43420750", "current_trial": 20, "dateTime": 1691160585308, "trialdata": {"revealed_states": [], "clicked_states": ["12", "23", "1"], "num_clicks_accrued": [0, 0, 0, 0, 0, 0, 0, 0, 0, 0, 0, 0, 0], "stateRewards": ["", -1, 2, -2, 13, -56, -28, 10, 14, 53, -80, -29, 1, -3, -3, -14, 14, 9, -40, -9, 18, 18, 48, 1, 1, 1, -9, 64, -39, -9, 7, -52, -78, 7], "withholdReward": false, "trial_id": "mdp_trial_12", "block": "test", "trialIndex": 13, "score": -15.25, "costs": 0.75, "simulationMode": [null, null, null, null, null], "rewards": [-1, 2, -2, 14, -29], "path": ["0", "0", "1", "2", "3", "8", "11"], "rt": [4786, 80, 84, 175, 78], "actions": ["up", "up", "up", "left", "left"], "actionTimes": [7036, 7635, 8236, 8927, 9515], "queries": {"click": {"state": {"target": ["12", "23", "1"], "time": [3094, 4426, 5608]}, "edge": {"target": [], "time": []}}, "mouseover": {"state": {"target": ["12", "23", "1"], "time": [2822, 4106, 5321]}, "edge": {"target": [], "time": []}}, "mouseout": {"state": {"target": ["23", "0", "12", "23"], "time": [1639, 1706, 3313, 4972]}, "edge": {"target": [], "time": []}}}, "displayed_time": "16.25", "trialTime": 17469, "trial_type": "mouselab-mdp", "trial_index": 20, "time_elapsed": 633419, "internal_node_id": "0.0-4.0-1.0-11.0"}}, {"uniqueid": "w36699951:a43420750", "current_trial": 21, "dateTime": 1691160602701, "trialdata": {"revealed_states": [], "clicked_states": [], "num_clicks_accrued": [0, 0, 0, 0, 0, 0, 0, 0, 0, 0, 0, 0, 0], "stateRewards": ["", 1, 1, -5, 8, -6, 45, 16, -6, -7, -22, -38, -1, -4, 8, -11, -16, 21, -45, -15, -59, -32, 42, -1, 3, 6, 11, -7, 34, -27, -8, 85, 43, -9], "withholdReward": false, "trial_id": "mdp_trial_13", "block": "test", "trialIndex": 14, "score": -8, "costs": 0, "simulationMode": [null, null, null, null, null], "rewards": [-1, 3, 6, 11, -27], "path": ["0", "0", "23", "24", "25", "26", "29"], "rt": [875, 123, 416, 1406, 1967], "actions": ["left", "left", "left", "up", "left"], "actionTimes": [2882, 3526, 4462, 6377, 8852], "queries": {"click": {"state": {"target": [], "time": []}, "edge": {"target": [], "time": []}}, "mouseover": {"state": {"target": [], "time": []}, "edge": {"target": [], "time": []}}, "mouseout": {"state": {"target": ["1"], "time": [1352]}, "edge": {"target": [], "time": []}}}, "displayed_time": "16.01", "trialTime": 17023, "trial_type": "mouselab-mdp", "trial_index": 21, "time_elapsed": 650812, "internal_node_id": "0.0-4.0-1.0-12.0"}}, {"uniqueid": "w36699951:a43420750", "current_trial": 22, "dateTime": 1691160621135, "trialdata": {"revealed_states": [], "clicked_states": [], "num_clicks_accrued": [0, 0, 0, 0, 0, 0, 0, 0, 0, 0, 0, 0, 0], "stateRewards": ["", -1, 1, 3, -8, -23, -15, -14, -11, -23, 58, 68, 1, 3, 5, 12, -17, -41, -7, -10, -4, 82, 10, 1, 4, -4, 11, 73, 55, -55, -1, -86, -86, 54], "withholdReward": false, "trial_id": "mdp_trial_14", "block": "test", "trialIndex": 15, "score": -86, "costs": 0, "simulationMode": [null, null, null, null, null], "rewards": [1, 4, -4, -1, -86], "path": ["0", "0", "23", "24", "25", "30", "32"], "rt": [1113, 167, 164, 183, 1371], "actions": ["left", "left", "left", "down", "down"], "actionTimes": [3703, 4392, 5072, 5773, 7664], "queries": {"click": {"state": {"target": [], "time": []}, "edge": {"target": [], "time": []}}, "mouseover": {"state": {"target": [], "time": []}, "edge": {"target": [], "time": []}}, "mouseout": {"state": {"target": ["0"], "time": [2367]}, "edge": {"target": [], "time": []}}}, "displayed_time": "16.59", "trialTime": 18060, "trial_type": "mouselab-mdp", "trial_index": 22, "time_elapsed": 669246, "internal_node_id": "0.0-4.0-1.0-13.0"}}, {"uniqueid": "w36699951:a43420750", "current_trial": 23, "dateTime": 1691160638065, "trialdata": {"revealed_states": [], "clicked_states": [], "num_clicks_accrued": [0, 0, 0, 0, 0, 0, 0, 0, 0, 0, 0, 0, 0], "stateRewards": ["", 1, 2, -3, -6, 50, -7, 7, -7, -80, 21, -1, 2, 2, 4, -1, 33, 84, 1, 14, -53, 81, 6, -2, -2, -3, -9, -87, -38, -59, -5, -74, -3, -71], "withholdReward": false, "trial_id": "mdp_trial_15", "block": "test", "trialIndex": 16, "score": 14, "costs": 0, "simulationMode": [null, null, null, null, null], "rewards": [1, 2, -3, -7, 21], "path": ["0", "0", "1", "2", "3", "8", "10"], "rt": [1247, 55, 722, 811, 63], "actions": ["up", "up", "up", "left", "down"], "actionTimes": [2739, 3311, 4557, 5879, 6449], "queries": {"click": {"state": {"target": [], "time": []}, "edge": {"target": [], "time": []}}, "mouseover": {"state": {"target": [], "time": []}, "edge": {"target": [], "time": []}}, "mouseout": {"state": {"target": ["0"], "time": [1167]}, "edge": {"target": [], "time": []}}}, "displayed_time": "15.49", "trialTime": 16532, "trial_type": "mouselab-mdp", "trial_index": 23, "time_elapsed": 686176, "internal_node_id": "0.0-4.0-1.0-14.0"}}, {"uniqueid": "w36699951:a43420750", "current_trial": 24, "dateTime": 1691160655261, "trialdata": {"revealed_states": [], "clicked_states": ["1", "2", "3", "23", "24", "25"], "num_clicks_accrued": [0, 0, 0, 0, 0, 0, 0, 0, 0, 0, 0, 0, 0], "stateRewards": ["", -1, -4, -3, 1, -45, -67, -24, 14, 32, 22, 22, -1, 1, -5, -7, 72, 84, -79, -5, 19, -40, -2, -1, -2, 8, -3, 84, -25, -28, 11, 64, -66, 77], "withholdReward": false, "trial_id": "mdp_trial_16", "block": "test", "trialIndex": 17, "score": 83.9, "costs": -2.0999999999999996, "simulationMode": [null, null, null, null, null], "rewards": [-1, -2, 8, -3, 84], "path": ["0", "0", "23", "24", "25", "26", "27"], "rt": [8325, 107, 219, 94, 1508], "actions": ["left", "left", "left", "up", "up"], "actionTimes": [9460, 10083, 10812, 11420, 13455], "queries": {"click": {"state": {"target": ["1", "2", "3", "23", "24", "25"], "time": [1885, 3496, 4727, 6294, 7204, 7905]}, "edge": {"target": [], "time": []}}, "mouseover": {"state": {"target": ["1", "2", "3", "23", "23", "24", "25"], "time": [1730, 3295, 4561, 5695, 6110, 7029, 7697]}, "edge": {"target": [], "time": []}}, "mouseout": {"state": {"target": ["0", "1", "1", "2", "3", "23", "23", "24"], "time": [940, 2548, 3179, 4080, 5262, 5762, 6744, 7628]}, "edge": {"target": [], "time": []}}}, "displayed_time": "15.14", "trialTime": 16804, "trial_type": "mouselab-mdp", "trial_index": 24, "time_elapsed": 703372, "internal_node_id": "0.0-4.0-1.0-15.0"}}, {"uniqueid": "w36699951:a43420750", "current_trial": 25, "dateTime": 1691160674148, "trialdata": {"revealed_states": [], "clicked_states": ["1", "2", "10", "7"], "num_clicks_accrued": [0, 0, 0, 0, 0, 0, 0, 0, 0, 0, 0, 0, 0], "stateRewards": ["", 2, -1, -2, -5, -47, -57, -33, -11, 31, -18, -72, -2, 1, -4, -8, -46, -53, -50, 15, -85, -9, 39, -2, -2, 1, 14, -1, -8, 53, -12, -41, -74, 62], "withholdReward": false, "trial_id": "mdp_trial_17", "block": "test", "trialIndex": 18, "score": -93.4, "costs": -4.4, "simulationMode": [null, null, null, null, null], "rewards": [-2, -2, 1, -12, -74], "path": ["0", "0", "23", "24", "25", "30", "32"], "rt": [9111, 587, 639, 575, 1533], "actions": ["left", "left", "left", "down", "down"], "actionTimes": [11365, 12461, 13612, 14700, 16752], "queries": {"click": {"state": {"target": ["1", "2", "10", "7"], "time": [2963, 3655, 4306, 7965]}, "edge": {"target": [], "time": []}}, "mouseover": {"state": {"target": ["1", "2", "10", "8", "3", "7", "2", "3"], "time": [2779, 3415, 4164, 5015, 5679, 7840, 8691, 8894]}, "edge": {"target": [], "time": []}}, "mouseout": {"state": {"target": ["25", "24", "23", "0", "0", "1", "2", "10", "8", "3", "7", "2", "3"], "time": [1029, 1079, 1182, 1379, 2612, 3295, 4052, 4778, 5613, 7358, 8557, 8724, 9490]}, "edge": {"target": [], "time": []}}}, "displayed_time": "17.25", "trialTime": 18504, "trial_type": "mouselab-mdp", "trial_index": 25, "time_elapsed": 722259, "internal_node_id": "0.0-4.0-1.0-16.0"}}, {"uniqueid": "w36699951:a43420750", "current_trial": 26, "dateTime": 1691160691253, "trialdata": {"revealed_states": [], "clicked_states": ["23"], "num_clicks_accrued": [0, 0, 0, 0, 0, 0, 0, 0, 0, 0, 0, 0, 0], "stateRewards": ["", 1, 2, -5, 14, 54, -14, -25, 16, -5, -87, 78, -1, 1, 3, -3, 52, 53, 53, -10, 73, -69, -48, 2, 3, 1, 8, -62, -7, 85, 7, 82, 52, -28], "withholdReward": false, "trial_id": "mdp_trial_18", "block": "test", "trialIndex": 19, "score": 99.25, "costs": 0.25, "simulationMode": [null, null, null, null, null], "rewards": [2, 3, 1, 8, 85], "path": ["0", "0", "23", "24", "25", "26", "29"], "rt": [1918, 254, 190, 688, 118], "actions": ["left", "left", "left", "up", "left"], "actionTimes": [3396, 4166, 4869, 6066, 6696], "queries": {"click": {"state": {"target": ["23"], "time": [2165]}, "edge": {"target": [], "time": []}}, "mouseover": {"state": {"target": ["0", "23"], "time": [1728, 2028]}, "edge": {"target": [], "time": []}}, "mouseout": {"state": {"target": ["2", "1", "0", "23"], "time": [895, 994, 1911, 2253]}, "edge": {"target": [], "time": []}}}, "displayed_time": "15.48", "trialTime": 16723, "trial_type": "mouselab-mdp", "trial_index": 26, "time_elapsed": 739363, "internal_node_id": "0.0-4.0-1.0-17.0"}}, {"uniqueid": "w36699951:a43420750", "current_trial": 27, "dateTime": 1691160711405, "trialdata": {"revealed_states": [], "clicked_states": [], "num_clicks_accrued": [0, 0, 0, 0, 0, 0, 0, 0, 0, 0, 0, 0, 0], "stateRewards": ["", -2, 1, -7, -8, -37, -76, -87, 11, 30, -63, 80, -1, 4, 2, -1, 42, 17, 52, -3, -75, -80, -68, 2, -3, -5, -15, -48, 82, 24, -7, 5, -22, -71], "withholdReward": false, "trial_id": "mdp_trial_19", "block": "test", "trialIndex": 20, "score": -35, "costs": 0, "simulationMode": [null, null, null, null, null], "rewards": [2, -3, -5, -7, -22], "path": ["0", "0", "23", "24", "25", "30", "32"], "rt": [1433, 2882, 1651, 45, 891], "actions": ["left", "left", "left", "down", "down"], "actionTimes": [6291, 9685, 11852, 12410, 13838], "queries": {"click": {"state": {"target": [], "time": []}, "edge": {"target": [], "time": []}}, "mouseover": {"state": {"target": [], "time": []}, "edge": {"target": [], "time": []}}, "mouseout": {"state": {"target": ["23"], "time": [3235]}, "edge": {"target": [], "time": []}}}, "displayed_time": "18.86", "trialTime": 19732, "trial_type": "mouselab-mdp", "trial_index": 27, "time_elapsed": 759516, "internal_node_id": "0.0-4.0-1.0-18.0"}}, {"uniqueid": "w36699951:a43420750", "current_trial": 28, "dateTime": 1691160828355, "trialdata": {"revealed_states": [], "clicked_states": [], "num_clicks_accrued": [0, 0, 0, 0, 0, 0, 0, 0, 0, 0, 0, 0, 0], "stateRewards": ["", 1, 4, 5, -5, 58, -80, 75, 6, 25, -39, 46, 2, -2, 4, 2, 59, 31, -22, -12, -61, 15, 72, 1, -2, -7, 8, 77, 76, -23, -7, 71, -15, -3], "withholdReward": false, "trial_id": "mdp_trial_20", "block": "test", "trialIndex": 21, "score": 41, "costs": 0, "simulationMode": [null, null, null, null, null], "rewards": [1, 4, 5, 6, 25], "path": ["0", "0", "1", "2", "3", "8", "9"], "rt": [275, 35, 127, 195, 353], "actions": ["up", "up", "up", "left", "up"], "actionTimes": [4233, 4782, 5432, 6141, 7015], "queries": {"click": {"state": {"target": [], "time": []}, "edge": {"target": [], "time": []}}, "mouseover": {"state": {"target": [], "time": []}, "edge": {"target": [], "time": []}}, "mouseout": {"state": {"target": ["0"], "time": [3700]}, "edge": {"target": [], "time": []}}}, "displayed_time": "17.96", "trialTime": 116541, "trial_type": "mouselab-mdp", "trial_index": 28, "time_elapsed": 876465, "internal_node_id": "0.0-4.0-1.0-19.0"}}, {"uniqueid": "w36699951:a43420750", "current_trial": 29, "dateTime": 1691160852393, "trialdata": {"revealed_states": [], "clicked_states": ["1", "2", "10"], "num_clicks_accrued": [0, 0, 0, 0, 0, 0, 0, 0, 0, 0, 0, 0, 0], "stateRewards": ["", -1, -4, -6, -15, 21, -67, -63, 9, 51, 69, -14, -1, 3, 8, -8, 39, 72, 63, 15, 19, 47, 15, 1, 4, 5, 16, -18, 34, 35, -14, -80, 40, 1], "withholdReward": false, "trial_id": "mdp_trial_21", "block": "test", "trialIndex": 22, "score": 64.75, "costs": -2.25, "simulationMode": [null, null, null, null, null, null], "rewards": [-1, -4, -6, 9, 69], "path": ["0", "0", "1", "2", "3", "8", "10"], "rt": [6132, 580, 542, 1364, 660, 101], "actions": ["up", "up", "up", "up", "left", "down"], "actionTimes": [8165, 8749, 9821, 11691, 12867, 13476], "queries": {"click": {"state": {"target": ["1", "2", "10"], "time": [4179, 5413, 6909]}, "edge": {"target": [], "time": []}}, "mouseover": {"state": {"target": ["1", "2", "10"], "time": [3796, 5008, 6157]}, "edge": {"target": [], "time": []}}, "mouseout": {"state": {"target": ["0", "1", "2", "10"], "time": [1776, 4404, 6034, 7413]}, "edge": {"target": [], "time": []}}}, "displayed_time": "16.04", "trialTime": 23609, "trial_type": "mouselab-mdp", "trial_index": 29, "time_elapsed": 900503, "internal_node_id": "0.0-4.0-1.0-20.0"}}, {"uniqueid": "w36699951:a43420750", "current_trial": 30, "dateTime": 1691160869926, "trialdata": {"revealed_states": [], "clicked_states": ["24", "7", "10"], "num_clicks_accrued": [0, 0, 0, 0, 0, 0, 0, 0, 0, 0, 0, 0, 0], "stateRewards": ["", 1, 1, 7, -11, 80, -20, -53, -14, 3, 31, 27, 2, -1, -8, -10, 33, 41, 86, 9, 78, -37, -13, -1, -2, -6, -8, -80, 75, 4, -16, -49, -74, 24], "withholdReward": false, "trial_id": "mdp_trial_22", "block": "test", "trialIndex": 23, "score": 21.35, "costs": -4.65, "simulationMode": [null, null, null, null, null, null], "rewards": [1, 1, 7, -14, 31], "path": ["0", "0", "1", "2", "3", "8", "10"], "rt": [7758, 855, 659, 250, 76, 60], "actions": ["up", "up", "up", "up", "left", "down"], "actionTimes": [9205, 10068, 11256, 12026, 12619, 13187], "queries": {"click": {"state": {"target": ["24", "7", "10"], "time": [2373, 4048, 7425]}, "edge": {"target": [], "time": []}}, "mouseover": {"state": {"target": ["23", "24", "28", "7", "7", "2", "8", "11", "10"], "time": [1915, 2082, 2988, 3317, 3665, 4568, 5000, 5550, 7045]}, "edge": {"target": [], "time": []}}, "mouseout": {"state": {"target": ["1", "0", "23", "24", "28", "7", "7", "2", "8", "11"], "time": [583, 1832, 1982, 2966, 3202, 3351, 4273, 4616, 5484, 6996]}, "edge": {"target": [], "time": []}}}, "displayed_time": "15.45", "trialTime": 16931, "trial_type": "mouselab-mdp", "trial_index": 30, "time_elapsed": 918037, "internal_node_id": "0.0-4.0-1.0-21.0"}}, {"uniqueid": "w36699951:a43420750", "current_trial": 31, "dateTime": 1691160889522, "trialdata": {"revealed_states": [], "clicked_states": ["29", "27", "33"], "num_clicks_accrued": [0, 0, 0, 0, 0, 0, 0, 0, 0, 0, 0, 0, 0], "stateRewards": ["", 1, 2, -3, -5, 66, -50, -47, -5, 1, 28, -27, 1, 1, -1, -6, 37, -25, 56, 1, -82, -66, -40, -1, -4, -7, 15, -61, -23, 26, 10, 14, -56, 29], "withholdReward": false, "trial_id": "mdp_trial_23", "block": "test", "trialIndex": 24, "score": 20.55, "costs": -6.449999999999999, "simulationMode": [null, null, null, null, null], "rewards": [-1, -4, -7, 10, 29], "path": ["0", "0", "23", "24", "25", "30", "33"], "rt": [12325, 182, 90, 567, 159], "actions": ["left", "left", "left", "down", "left"], "actionTimes": [14643, 15346, 15956, 17033, 17704], "queries": {"click": {"state": {"target": ["29", "27", "33"], "time": [3934, 7377, 11809]}, "edge": {"target": [], "time": []}}, "mouseover": {"state": {"target": ["28", "26", "29", "27", "26", "25", "33", "30", "31", "24"], "time": [2873, 2939, 3588, 4507, 8923, 8993, 9457, 12524, 12652, 13268]}, "edge": {"target": [], "time": []}}, "mouseout": {"state": {"target": ["10", "1", "28", "26", "29", "27", "26", "25", "33", "30", "31", "24"], "time": [1323, 1589, 2889, 3489, 4426, 8909, 8955, 9238, 12484, 12621, 12718, 13401]}, "edge": {"target": [], "time": []}}}, "displayed_time": "18.21", "trialTime": 19148, "trial_type": "mouselab-mdp", "trial_index": 31, "time_elapsed": 937632, "internal_node_id": "0.0-4.0-1.0-22.0"}}, {"uniqueid": "w36699951:a43420750", "current_trial": 32, "dateTime": 1691160915266, "trialdata": {"revealed_states": [], "clicked_states": ["9", "10", "27", "29"], "num_clicks_accrued": [0, 0, 0, 0, 0, 0, 0, 0, 0, 0, 0, 0, 0], "stateRewards": ["", -1, -3, 3, 5, 56, 39, 50, -1, -80, 33, -46, 1, -2, -6, -8, 87, 48, 54, -11, -20, -64, -54, -2, 3, -7, -3, 12, 88, 35, -16, -46, -70, -3], "withholdReward": false, "trial_id": "mdp_trial_24", "block": "test", "trialIndex": 25, "score": 17.4, "costs": -8.6, "simulationMode": [null, null, null, null, null], "rewards": [-2, 3, -7, -3, 35], "path": ["0", "0", "23", "24", "25", "26", "29"], "rt": [18586, 78, 31, 499, 408], "actions": ["left", "left", "left", "up", "left"], "actionTimes": [20536, 21124, 21674, 22709, 23635], "queries": {"click": {"state": {"target": ["9", "10", "27", "29"], "time": [3598, 8912, 13235, 17129]}, "edge": {"target": [], "time": []}}, "mouseover": {"state": {"target": ["2", "8", "9", "11", "10", "28", "26", "27", "29"], "time": [2396, 2774, 3274, 4642, 7986, 12033, 12616, 12866, 14717]}, "edge": {"target": [], "time": []}}, "mouseout": {"state": {"target": ["12", "12", "0", "2", "8", "9", "11", "10", "10", "28", "26", "27", "29"], "time": [1058, 1125, 2347, 2448, 3158, 4159, 6938, 9159, 10073, 12433, 12717, 14283, 17765]}, "edge": {"target": [], "time": []}}}, "displayed_time": "24.14", "trialTime": 25344, "trial_type": "mouselab-mdp", "trial_index": 32, "time_elapsed": 963377, "internal_node_id": "0.0-4.0-1.0-23.0"}}, {"uniqueid": "w36699951:a43420750", "current_trial": 33, "dateTime": 1691160932754, "trialdata": {"revealed_states": [], "clicked_states": ["5", "9"], "num_clicks_accrued": [0, 0, 0, 0, 0, 0, 0, 0, 0, 0, 0, 0, 0], "stateRewards": ["", -1, 2, 6, 11, 21, -21, -21, -6, 48, -71, 88, -1, -3, 3, 7, 64, 2, 9, -4, 37, -67, 72, 2, 2, -8, -8, -10, 71, -40, -3, 73, 80, 47], "withholdReward": false, "trial_id": "mdp_trial_25", "block": "test", "trialIndex": 26, "score": 44.7, "costs": -4.3, "simulationMode": [null, null, null, null, null], "rewards": [-1, 2, 6, -6, 48], "path": ["0", "0", "1", "2", "3", "8", "9"], "rt": [8853, 50, 628, 393, 80], "actions": ["up", "up", "up", "left", "up"], "actionTimes": [10963, 11531, 12708, 13603, 14191], "queries": {"click": {"state": {"target": ["5", "9"], "time": [3487, 6831]}, "edge": {"target": [], "time": []}}, "mouseover": {"state": {"target": ["23", "2", "3", "5", "9", "11", "28", "25", "33"], "time": [2533, 2666, 3015, 3082, 4552, 7718, 7816, 8248, 8646]}, "edge": {"target": [], "time": []}}, "mouseout": {"state": {"target": ["0", "23", "2", "3", "5", "9", "11", "28", "25"], "time": [2483, 2550, 2986, 3032, 4020, 7666, 7739, 8114, 8282]}, "edge": {"target": [], "time": []}}}, "displayed_time": "16.11", "trialTime": 17094, "trial_type": "mouselab-mdp", "trial_index": 33, "time_elapsed": 980864, "internal_node_id": "0.0-4.0-1.0-24.0"}}, {"uniqueid": "w36699951:a43420750", "current_trial": 34, "dateTime": 1691160960935, "trialdata": {"revealed_states": [], "clicked_states": ["32", "33", "27", "9", "5"], "num_clicks_accrued": [0, 0, 0, 0, 0, 0, 0, 0, 0, 0, 0, 0, 0], "stateRewards": ["", -2, 1, -7, 9, 8, 25, 61, -7, -17, 69, -81, 1, 4, -4, -11, 16, 67, 44, 3, 6, -45, -54, -2, 3, 6, -11, -15, 32, -47, 3, -39, -6, -88], "withholdReward": false, "trial_id": "mdp_trial_26", "block": "test", "trialIndex": 27, "score": 43.25, "costs": -10.75, "simulationMode": [null, null, null, null, null], "rewards": [-2, 1, -7, -7, 69], "path": ["0", "0", "1", "2", "3", "8", "10"], "rt": [18808, 268, 60, 65, 16], "actions": ["up", "up", "up", "left", "down"], "actionTimes": [20911, 21694, 22272, 22892, 23459], "queries": {"click": {"state": {"target": ["32", "33", "27", "9", "5"], "time": [3174, 6628, 9507, 13354, 17281]}, "edge": {"target": [], "time": []}}, "mouseover": {"state": {"target": ["23", "30", "32", "30", "25", "33", "29", "27", "29", "11", "9", "5", "5"], "time": [2389, 2656, 2921, 3756, 3975, 5189, 7155, 7524, 10806, 12613, 12913, 14198, 16977]}, "edge": {"target": [], "time": []}}, "mouseout": {"state": {"target": ["33", "24", "23", "0", "23", "30", "32", "30", "25", "33", "29", "27", "29", "27", "11", "9", "5", "5", "5"], "time": [805, 889, 1505, 2360, 2441, 2706, 3401, 3821, 4594, 7105, 7238, 10668, 12496, 12580, 12630, 13571, 14564, 17504, 18209]}, "edge": {"target": [], "time": []}}}, "displayed_time": "24.02", "trialTime": 27729, "trial_type": "mouselab-mdp", "trial_index": 34, "time_elapsed": 1009046, "internal_node_id": "0.0-4.0-1.0-25.0"}}, {"uniqueid": "w36699951:a43420750", "current_trial": 35, "dateTime": 1691160979534, "trialdata": {"revealed_states": [], "clicked_states": ["27", "33"], "num_clicks_accrued": [0, 0, 0, 0, 0, 0, 0, 0, 0, 0, 0, 0, 0], "stateRewards": ["", 1, -1, 4, -2, -75, -75, 84, -9, -60, -79, 59, 2, -4, 8, 9, -17, -82, 80, 14, -4, 49, 49, -1, 3, 6, -11, -33, 34, 55, 9, -57, 5, 59], "withholdReward": false, "trial_id": "mdp_trial_27", "block": "test", "trialIndex": 28, "score": 71.7, "costs": -4.3, "simulationMode": [null, null, null, null, null], "rewards": [-1, 3, 6, 9, 59], "path": ["0", "0", "23", "24", "25", "30", "33"], "rt": [10214, 419, 195, 163, 149], "actions": ["left", "left", "left", "down", "left"], "actionTimes": [13363, 14288, 14997, 15681, 16348], "queries": {"click": {"state": {"target": ["27", "33"], "time": [5896, 9463]}, "edge": {"target": [], "time": []}}, "mouseover": {"state": {"target": ["28", "28", "27", "26", "25", "33"], "time": [4525, 4725, 5358, 7043, 8175, 8678]}, "edge": {"target": [], "time": []}}, "mouseout": {"state": {"target": ["4", "6", "15", "13", "12", "0", "28", "28", "27", "26", "25"], "time": [1744, 1776, 2042, 2159, 2409, 3842, 4558, 5324, 6674, 7115, 8308]}, "edge": {"target": [], "time": []}}}, "displayed_time": "17.15", "trialTime": 18205, "trial_type": "mouselab-mdp", "trial_index": 35, "time_elapsed": 1027644, "internal_node_id": "0.0-4.0-1.0-26.0"}}, {"uniqueid": "w36699951:a43420750", "current_trial": 36, "dateTime": 1691161027658, "trialdata": {"revealed_states": [], "clicked_states": ["9", "10", "27", "29"], "num_clicks_accrued": [0, 0, 0, 0, 0, 0, 0, 0, 0, 0, 0, 0, 0], "stateRewards": ["", -2, -3, -3, 9, 79, 67, 22, -15, -56, 27, -85, -2, 4, -4, -15, -20, -32, 60, 15, 71, 57, 17, 1, 2, -8, 15, -37, -81, 82, 15, 21, -3, 2], "withholdReward": false, "trial_id": "mdp_trial_28", "block": "test", "trialIndex": 29, "score": 83.4, "costs": -8.6, "simulationMode": [null, null, null, null, null], "rewards": [1, 2, -8, 15, 82], "path": ["0", "0", "23", "24", "25", "26", "29"], "rt": [19741, 12, 17, 23, 611], "actions": ["left", "left", "left", "up", "left"], "actionTimes": [21734, 22263, 22800, 23339, 24466], "queries": {"click": {"state": {"target": ["9", "10", "27", "29"], "time": [4986, 8564, 13118, 18320]}, "edge": {"target": [], "time": []}}, "mouseover": {"state": {"target": ["1", "4", "5", "9", "9", "8", "8", "10", "27", "29"], "time": [2399, 2847, 3080, 3782, 4684, 5726, 6272, 8285, 9511, 17751]}, "edge": {"target": [], "time": []}}, "mouseout": {"state": {"target": ["33", "23", "0", "1", "4", "5", "9", "9", "9", "8", "8", "10", "27", "29", "27"], "time": [1002, 1081, 2377, 2415, 3063, 3547, 3829, 5204, 5598, 5797, 6301, 8805, 17019, 18568, 18955]}, "edge": {"target": [], "time": []}}}, "displayed_time": "24.98", "trialTime": 47683, "trial_type": "mouselab-mdp", "trial_index": 36, "time_elapsed": 1075769, "internal_node_id": "0.0-4.0-1.0-27.0"}}, {"uniqueid": "w36699951:a43420750", "current_trial": 37, "dateTime": 1691161050450, "trialdata": {"revealed_states": [], "clicked_states": ["10"], "num_clicks_accrued": [0, 0, 0, 0, 0, 0, 0, 0, 0, 0, 0, 0, 0], "stateRewards": ["", -2, -4, -2, 10, -8, -15, -47, 7, -84, 53, 5, -1, 2, -7, 3, 83, 31, 47, -1, 30, -8, 69, 2, -4, -1, 8, -7, 12, -8, -8, -13, 30, -84], "withholdReward": false, "trial_id": "mdp_trial_29", "block": "test", "trialIndex": 30, "score": 49.85, "costs": -2.15, "simulationMode": [null, null, null, null, null], "rewards": [-2, -4, -2, 7, 53], "path": ["0", "0", "1", "2", "3", "8", "10"], "rt": [5392, 76, 90, 11, 9], "actions": ["up", "up", "up", "left", "down"], "actionTimes": [10357, 10953, 11551, 12080, 12618], "queries": {"click": {"state": {"target": ["10"], "time": [6108]}, "edge": {"target": [], "time": []}}, "mouseover": {"state": {"target": ["10", "8", "10"], "time": [5449, 5580, 5763]}, "edge": {"target": [], "time": []}}, "mouseout": {"state": {"target": ["8", "2", "1", "0", "10", "8", "10"], "time": [3648, 3798, 4081, 5227, 5480, 5613, 6633]}, "edge": {"target": [], "time": []}}}, "displayed_time": "18.97", "trialTime": 22349, "trial_type": "mouselab-mdp", "trial_index": 37, "time_elapsed": 1098560, "internal_node_id": "0.0-4.0-1.0-28.0"}}, {"uniqueid": "w36699951:a43420750", "current_trial": 38, "dateTime": 1691161072299, "trialdata": {"revealed_states": [], "clicked_states": ["29", "33"], "num_clicks_accrued": [0, 0, 0, 0, 0, 0, 0, 0, 0, 0, 0, 0, 0], "stateRewards": ["", 2, 3, 6, -5, -74, -53, 17, -12, 46, 44, 18, -2, 4, 1, -8, 22, -23, -49, 9, -45, 55, 81, 1, -1, -7, -16, -83, -71, -45, 2, 51, 82, 61], "withholdReward": false, "trial_id": "mdp_trial_30", "block": "test", "trialIndex": 31, "score": 51.7, "costs": -4.3, "simulationMode": [null, null, null, null, null], "rewards": [1, -1, -7, 2, 61], "path": ["0", "0", "23", "24", "25", "30", "33"], "rt": [10631, 61, 136, 88, 298], "actions": ["left", "left", "left", "down", "left"], "actionTimes": [13868, 14445, 15088, 15688, 16499], "queries": {"click": {"state": {"target": ["29", "33"], "time": [4526, 9408]}, "edge": {"target": [], "time": []}}, "mouseover": {"state": {"target": ["23", "28", "26", "29", "33", "32"], "time": [3608, 3758, 3875, 4209, 8853, 12119]}, "edge": {"target": [], "time": []}}, "mouseout": {"state": {"target": ["9", "4", "7", "0", "23", "28", "26", "29", "29", "33"], "time": [1962, 2158, 2208, 3559, 3658, 3824, 3891, 4756, 5211, 10553]}, "edge": {"target": [], "time": []}}}, "displayed_time": "17.24", "trialTime": 21393, "trial_type": "mouselab-mdp", "trial_index": 38, "time_elapsed": 1120409, "internal_node_id": "0.0-4.0-1.0-29.0"}}, {"uniqueid": "w36699951:a43420750", "current_trial": 39, "dateTime": 1691161094860, "trialdata": {"revealed_states": [], "clicked_states": ["23", "27"], "num_clicks_accrued": [0, 0, 0, 0, 0, 0, 0, 0, 0, 0, 0, 0, 0], "stateRewards": ["", -2, 2, -1, -6, 22, 6, 6, -5, 70, -42, 65, 1, 3, 5, -6, -67, -9, 3, 14, 7, -62, -13, -2, 4, 1, 16, 42, -21, -52, -8, 32, 53, 81], "withholdReward": false, "trial_id": "mdp_trial_31", "block": "test", "trialIndex": 32, "score": 59.1, "costs": -1.9, "simulationMode": [null, null, null, null, null], "rewards": [-2, 4, 1, 16, 42], "path": ["0", "0", "23", "24", "25", "26", "27"], "rt": [7266, 129, 164, 486, 64], "actions": ["left", "left", "left", "up", "up"], "actionTimes": [14138, 14788, 15470, 16475, 17055], "queries": {"click": {"state": {"target": ["23", "27"], "time": [8531, 10077]}, "edge": {"target": [], "time": []}}, "mouseover": {"state": {"target": ["23", "28", "27", "29"], "time": [7728, 9161, 9610, 10929]}, "edge": {"target": [], "time": []}}, "mouseout": {"state": {"target": ["32", "0", "23", "28", "27"], "time": [5231, 7611, 9077, 9195, 10780]}, "edge": {"target": [], "time": []}}}, "displayed_time": "20.87", "trialTime": 22113, "trial_type": "mouselab-mdp", "trial_index": 39, "time_elapsed": 1142971, "internal_node_id": "0.0-4.0-1.0-30.0"}}, {"uniqueid": "w36699951:a43420750", "current_trial": 40, "dateTime": 1691161117309, "trialdata": {"revealed_states": [], "clicked_states": ["33", "32"], "num_clicks_accrued": [0, 0, 0, 0, 0, 0, 0, 0, 0, 0, 0, 0, 0], "stateRewards": ["", -2, 2, 5, -14, -56, 64, 84, -5, 52, 39, 85, -2, 1, 7, 8, 21, 29, -78, -9, -10, -69, 10, -2, -1, -7, 15, 72, 20, 41, -2, 52, 80, 22], "withholdReward": false, "trial_id": "mdp_trial_32", "block": "test", "trialIndex": 33, "score": 63.7, "costs": -4.3, "simulationMode": [null, null, null, null, null], "rewards": [-2, -1, -7, -2, 80], "path": ["0", "0", "23", "24", "25", "30", "32"], "rt": [8574, 20, 4, 23, 17], "actions": ["left", "left", "left", "down", "down"], "actionTimes": [10319, 10856, 11374, 11932, 12478], "queries": {"click": {"state": {"target": ["33", "32"], "time": [2732, 6328]}, "edge": {"target": [], "time": []}}, "mouseover": {"state": {"target": ["23", "24", "25", "33", "32", "32", "29"], "time": [1882, 1916, 2090, 2358, 4381, 5872, 6940]}, "edge": {"target": [], "time": []}}, "mouseout": {"state": {"target": ["29", "26", "0", "23", "24", "25", "33", "32", "32", "29"], "time": [775, 808, 1863, 1895, 1961, 2108, 3664, 4432, 6855, 7307]}, "edge": {"target": [], "time": []}}}, "displayed_time": "15.75", "trialTime": 22005, "trial_type": "mouselab-mdp", "trial_index": 40, "time_elapsed": 1165419, "internal_node_id": "0.0-4.0-1.0-31.0"}}, {"uniqueid": "w36699951:a43420750", "current_trial": 41, "dateTime": 1691161150759, "trialdata": {"revealed_states": [], "clicked_states": ["33", "29", "27", "11", "10"], "num_clicks_accrued": [0, 0, 0, 0, 0, 0, 0, 0, 0, 0, 0, 0, 0], "stateRewards": ["", -1, 3, 1, -7, 56, 76, 57, 3, 11, -9, 14, 1, -2, 2, 8, -77, -3, 79, -5, 88, 24, -66, -2, -1, 7, -7, -30, 14, -76, 11, -36, 28, -6], "withholdReward": false, "trial_id": "mdp_trial_33", "block": "test", "trialIndex": 34, "score": 6.25, "costs": -10.75, "simulationMode": [null, null, null, null, null], "rewards": [-1, 3, 1, 3, 11], "path": ["0", "0", "1", "2", "3", "8", "9"], "rt": [22138, 452, 226, 39, 3], "actions": ["up", "up", "up", "left", "up"], "actionTimes": [24971, 25935, 26675, 27223, 27738], "queries": {"click": {"state": {"target": ["33", "29", "27", "11", "10"], "time": [4485, 8430, 13379, 16861, 20754]}, "edge": {"target": [], "time": []}}, "mouseover": {"state": {"target": ["23", "24", "25", "30", "33", "29", "27", "11", "10"], "time": [3400, 3599, 3833, 3999, 4132, 7963, 12476, 15258, 20402]}, "edge": {"target": [], "time": []}}, "mouseout": {"state": {"target": ["10", "23", "0", "23", "24", "25", "30", "33", "33", "29", "27", "11", "10"], "time": [1850, 2100, 3383, 3516, 3766, 3866, 4049, 5368, 7846, 11960, 14728, 19838, 21855]}, "edge": {"target": [], "time": []}}}, "displayed_time": "28.27", "trialTime": 32984, "trial_type": "mouselab-mdp", "trial_index": 41, "time_elapsed": 1198869, "internal_node_id": "0.0-4.0-1.0-32.0"}}, {"uniqueid": "w36699951:a43420750", "current_trial": 42, "dateTime": 1691161168376, "trialdata": {"revealed_states": [], "clicked_states": ["29", "33"], "num_clicks_accrued": [0, 0, 0, 0, 0, 0, 0, 0, 0, 0, 0, 0, 0], "stateRewards": ["", 2, -4, 7, 3, 23, -42, 4, 7, -81, -33, 7, -2, -4, 5, -1, 50, -57, -14, -13, -14, 44, 55, -2, -2, 5, -2, 33, 1, 57, -13, -7, 58, 87], "withholdReward": false, "trial_id": "mdp_trial_34", "block": "test", "trialIndex": 35, "score": 70.7, "costs": -4.3, "simulationMode": [null, null, null, null, null], "rewards": [-2, -2, 5, -13, 87], "path": ["0", "0", "23", "24", "25", "30", "33"], "rt": [10387, 81, 211, 15, 98], "actions": ["left", "left", "left", "down", "left"], "actionTimes": [12471, 13059, 13787, 14329, 14957], "queries": {"click": {"state": {"target": ["29", "33"], "time": [3366, 7985]}, "edge": {"target": [], "time": []}}, "mouseover": {"state": {"target": ["28", "26", "29", "33"], "time": [2716, 2867, 2999, 7645]}, "edge": {"target": [], "time": []}}, "mouseout": {"state": {"target": ["23", "0", "28", "26", "29", "33", "33"], "time": [1233, 1449, 2765, 2965, 6513, 8204, 11458]}, "edge": {"target": [], "time": []}}}, "displayed_time": "16.09", "trialTime": 17160, "trial_type": "mouselab-mdp", "trial_index": 42, "time_elapsed": 1216487, "internal_node_id": "0.0-4.0-1.0-33.0"}}, {"uniqueid": "w36699951:a43420750", "current_trial": 43, "dateTime": 1691161192780, "trialdata": {"revealed_states": [], "clicked_states": ["9", "27", "29"], "num_clicks_accrued": [0, 0, 0, 0, 0, 0, 0, 0, 0, 0, 0, 0, 0], "stateRewards": ["", 2, -1, -3, 16, -3, -16, -62, -1, 13, -26, 43, -1, 4, 3, -9, -54, -37, -3, -12, -71, -68, -57, 1, -3, 2, -9, 2, -2, -9, -11, 84, -52, 55], "withholdReward": false, "trial_id": "mdp_trial_35", "block": "test", "trialIndex": 36, "score": -69.45, "costs": -6.449999999999999, "simulationMode": [null, null, null, null, null], "rewards": [1, -3, 2, -11, -52], "path": ["0", "0", "23", "24", "25", "30", "32"], "rt": [15485, 492, 311, 92, 151], "actions": ["left", "left", "left", "down", "down"], "actionTimes": [17676, 18681, 19501, 20115, 20773], "queries": {"click": {"state": {"target": ["9", "27", "29"], "time": [3879, 8926, 13412]}, "edge": {"target": [], "time": []}}, "mouseover": {"state": {"target": ["1", "2", "8", "9", "11", "11", "27", "29"], "time": [2950, 2983, 3320, 3533, 7712, 7978, 8578, 13041]}, "edge": {"target": [], "time": []}}, "mouseout": {"state": {"target": ["0", "1", "2", "8", "9", "11", "11", "27", "29"], "time": [2916, 2966, 3251, 3365, 4589, 7762, 8261, 10199, 14125]}, "edge": {"target": [], "time": []}}}, "displayed_time": "21.29", "trialTime": 23513, "trial_type": "mouselab-mdp", "trial_index": 43, "time_elapsed": 1240891, "internal_node_id": "0.0-4.0-1.0-34.0"}}, {"uniqueid": "w36699951:a43420750", "current_trial": 44, "dateTime": 1691161210800, "trialdata": {"revealed_states": [], "clicked_states": [], "num_clicks_accrued": [0, 0, 0, 0, 0, 0, 0, 0, 0, 0, 0, 0, 0], "stateRewards": ["", -1, -2, -8, 8, -27, -82, 19, -14, -62, 4, 1, -2, 2, 6, 10, 73, -51, -2, 2, 73, -48, 54, -1, 2, -4, 11, -25, 47, 86, 15, 33, 43, -42], "withholdReward": false, "trial_id": "mdp_trial_36", "block": "test", "trialIndex": 37, "score": -17, "costs": 0, "simulationMode": [null, null, null, null, null], "rewards": [-1, 2, -4, 11, -25], "path": ["0", "0", "23", "24", "25", "26", "27"], "rt": [2940, 584, 90, 38, 3], "actions": ["left", "left", "left", "up", "up"], "actionTimes": [5572, 6669, 7273, 7819, 8334], "queries": {"click": {"state": {"target": [], "time": []}, "edge": {"target": [], "time": []}}, "mouseover": {"state": {"target": ["1", "2", "9", "8", "10"], "time": [3281, 3315, 3881, 4431, 4514]}, "edge": {"target": [], "time": []}}, "mouseout": {"state": {"target": ["29", "25", "24", "0", "1", "2", "9", "8", "10"], "time": [1166, 1466, 1483, 3244, 3298, 3364, 3965, 4480, 4696]}, "edge": {"target": [], "time": []}}}, "displayed_time": "16.64", "trialTime": 17585, "trial_type": "mouselab-mdp", "trial_index": 44, "time_elapsed": 1258911, "internal_node_id": "0.0-4.0-1.0-35.0"}}, {"uniqueid": "w36699951:a43420750", "current_trial": 45, "dateTime": 1691161227911, "trialdata": {"revealed_states": [], "clicked_states": ["29"], "num_clicks_accrued": [0, 0, 0, 0, 0, 0, 0, 0, 0, 0, 0, 0, 0], "stateRewards": ["", 2, 3, -3, 4, 72, -28, 34, -12, 57, -64, -15, 2, 1, -4, -15, 2, 49, 31, -1, -42, -58, 31, -2, 1, -2, -13, -75, -19, -22, -6, 61, 10, -56], "withholdReward": false, "trial_id": "mdp_trial_37", "block": "test", "trialIndex": 38, "score": -93.15, "costs": -2.15, "simulationMode": [null, null, null, null, null], "rewards": [-2, 1, -2, -13, -75], "path": ["0", "0", "23", "24", "25", "26", "27"], "rt": [9394, 30, 232, 1385, 39], "actions": ["left", "left", "left", "up", "up"], "actionTimes": [11115, 11658, 12407, 14310, 14871], "queries": {"click": {"state": {"target": ["29"], "time": [3479]}, "edge": {"target": [], "time": []}}, "mouseover": {"state": {"target": ["23", "24", "25", "26", "29", "33", "30", "32", "33"], "time": [2383, 2415, 2731, 2914, 3164, 4000, 5355, 5773, 8026]}, "edge": {"target": [], "time": []}}, "mouseout": {"state": {"target": ["10", "2", "23", "24", "25", "26", "29", "33", "30", "32", "33"], "time": [782, 832, 2398, 2468, 2833, 2947, 3918, 5183, 5666, 6877, 10292]}, "edge": {"target": [], "time": []}}}, "displayed_time": "15.72", "trialTime": 16643, "trial_type": "mouselab-mdp", "trial_index": 45, "time_elapsed": 1276022, "internal_node_id": "0.0-4.0-1.0-36.0"}}, {"uniqueid": "w36699951:a43420750", "current_trial": 46, "dateTime": 1691161246004, "trialdata": {"revealed_states": [], "clicked_states": ["9", "11"], "num_clicks_accrued": [0, 0, 0, 0, 0, 0, 0, 0, 0, 0, 0, 0, 0], "stateRewards": ["", -2, -1, -3, -1, -78, -6, 2, -1, 22, -88, 32, 2, 2, -7, -8, -51, -17, 54, 2, -44, 54, 75, 2, -2, -8, -15, -29, 12, -67, 15, -1, -47, -47], "withholdReward": false, "trial_id": "mdp_trial_38", "block": "test", "trialIndex": 39, "score": 20.7, "costs": -4.3, "simulationMode": [null, null, null, null, null], "rewards": [-2, -1, -3, -1, 32], "path": ["0", "0", "1", "2", "3", "8", "11"], "rt": [9401, 161, 197, 517, 46], "actions": ["up", "up", "up", "left", "left"], "actionTimes": [11425, 12104, 12807, 13843, 14403], "queries": {"click": {"state": {"target": ["9", "11"], "time": [3508, 7357]}, "edge": {"target": [], "time": []}}, "mouseover": {"state": {"target": ["2", "9", "11", "11"], "time": [2398, 3115, 4455, 6995]}, "edge": {"target": [], "time": []}}, "mouseout": {"state": {"target": ["0", "0", "2", "9", "11", "11"], "time": [1035, 2352, 2432, 4401, 4565, 8015]}, "edge": {"target": [], "time": []}}}, "displayed_time": "16.03", "trialTime": 17584, "trial_type": "mouselab-mdp", "trial_index": 46, "time_elapsed": 1294115, "internal_node_id": "0.0-4.0-1.0-37.0"}}, {"uniqueid": "w36699951:a43420750", "current_trial": 47, "dateTime": 1691161263396, "trialdata": {"revealed_states": [], "clicked_states": ["33", "27", "9"], "num_clicks_accrued": [0, 0, 0, 0, 0, 0, 0, 0, 0, 0, 0, 0, 0], "stateRewards": ["", -2, 2, 8, -6, -25, 3, 87, 2, -62, -2, 74, -2, -1, 2, -1, 79, 49, -37, -14, 5, 67, -9, -1, 2, -2, 5, 15, 38, 32, -14, -38, -38, 30], "withholdReward": false, "trial_id": "mdp_trial_39", "block": "test", "trialIndex": 40, "score": -59.45, "costs": -6.449999999999999, "simulationMode": [null, null, null, null, null], "rewards": [-1, 2, -2, -14, -38], "path": ["0", "0", "23", "24", "25", "30", "32"], "rt": [10871, 83, 266, 5, 213], "actions": ["left", "left", "left", "down", "down"], "actionTimes": [12723, 13349, 14125, 14644, 15384], "queries": {"click": {"state": {"target": ["33", "27", "9"], "time": [3316, 6191, 9010]}, "edge": {"target": [], "time": []}}, "mouseover": {"state": {"target": ["23", "25", "33", "32", "30", "27", "8", "9"], "time": [2200, 2413, 2696, 4413, 4579, 5030, 7896, 8246]}, "edge": {"target": [], "time": []}}, "mouseout": {"state": {"target": ["27", "0", "0", "23", "25", "33", "32", "30", "27", "8", "9", "9"], "time": [647, 1030, 1363, 2216, 2514, 3540, 4563, 4596, 7050, 8180, 9232, 9628]}, "edge": {"target": [], "time": []}}}, "displayed_time": "15.89", "trialTime": 16938, "trial_type": "mouselab-mdp", "trial_index": 47, "time_elapsed": 1311506, "internal_node_id": "0.0-4.0-1.0-38.0"}}, {"uniqueid": "w36699951:a43420750", "current_trial": 48, "dateTime": 1691161281095, "trialdata": {"revealed_states": [], "clicked_states": ["9"], "num_clicks_accrued": [0, 0, 0, 0, 0, 0, 0, 0, 0, 0, 0, 0, 0], "stateRewards": ["", 2, -1, -1, 7, 11, -40, -22, -2, 69, 37, 8, -2, 4, -8, -12, -2, -72, -3, -12, 17, 63, 12, 1, 3, -7, 6, 25, 61, 61, -9, 28, -17, 27], "withholdReward": false, "trial_id": "mdp_trial_40", "block": "test", "trialIndex": 41, "score": 64.85, "costs": -2.15, "simulationMode": [null, null, null, null, null], "rewards": [2, -1, -1, -2, 69], "path": ["0", "0", "1", "2", "3", "8", "9"], "rt": [6927, 55, 664, 368, 84], "actions": ["up", "up", "up", "left", "up"], "actionTimes": [8977, 9546, 10736, 11621, 12220], "queries": {"click": {"state": {"target": ["9"], "time": [4137]}, "edge": {"target": [], "time": []}}, "mouseover": {"state": {"target": ["1", "28", "11", "9", "8", "11", "11"], "time": [2443, 2860, 3326, 3791, 7405, 7438, 7704]}, "edge": {"target": [], "time": []}}, "mouseout": {"state": {"target": ["10", "2", "1", "28", "11", "9", "8", "11", "11"], "time": [894, 928, 2464, 2942, 3342, 4728, 7421, 7522, 7921]}, "edge": {"target": [], "time": []}}}, "displayed_time": "16.05", "trialTime": 17249, "trial_type": "mouselab-mdp", "trial_index": 48, "time_elapsed": 1329206, "internal_node_id": "0.0-4.0-1.0-39.0"}}, {"uniqueid": "w36699951:a43420750", "current_trial": 49, "dateTime": 1691161333182, "trialdata": {"rt": 52082, "response": {"Q0": "$-2 to $2", "Q1": "$-16 to $16", "Q2": "$-88 to $88", "Q3": "The cost for clicking on nodes varied between nodes.", "Q4": "Very motivated"}, "question_order": [0, 1, 2, 3, 4], "trial_id": "final_quiz_control", "trial_type": "survey-multi-choice", "trial_index": 49, "time_elapsed": 1381293, "internal_node_id": "0.0-4.0-2.0"}}, {"uniqueid": "w36699951:a43420750", "current_trial": 50, "dateTime": 1691161494833, "trialdata": {"rt": 161644, "response": {"Q0": "i had none at first but i began used nodes for the edges and seeing which had the largest values", "Q1": "If i checked too many nodes and all the results were bad, i then moved to unchecked edges and that slightly improved my results", "Q2": "the only thing that made it difficult was that my right arrow on the keyboard did not work. Other than that it was fairly understandable"}, "trial_id": "self_report_control", "trial_type": "survey-text", "trial_index": 50, "time_elapsed": 1542944, "internal_node_id": "0.0-4.0-3.0"}}, {"uniqueid": "w36699951:a43420750", "current_trial": 51, "dateTime": 1691161542083, "trialdata": {"rt": 47242, "response": {"Q0": "Agree", "Q1": "Disagree", "Q2": "Agree", "Q3": "Agree", "Q4": "Strongly disagree", "Q5": "Agree", "Q6": "Strongly disagree"}, "question_order": [0, 1, 2, 3, 4, 5, 6], "trial_id": "self_report_2", "trial_type": "survey-multi-choice", "trial_index": 51, "time_elapsed": 1590194, "internal_node_id": "0.0-4.0-4.0"}}, {"uniqueid": "w36699951:a43420750", "current_trial": 52, "dateTime": 1691161566467, "trialdata": {"rt": 24378, "response": {"gender": "male", "age": "22", "colorblind": "0", "effort": "0"}, "trial_type": "survey-html-form", "trial_index": 52, "time_elapsed": 1614578, "internal_node_id": "0.0-4.0-5.0"}}, {"uniqueid": "w36699951:a43420750", "current_trial": 53, "dateTime": 1691161609872, "trialdata": {"rt": 43397, "response": {"Q0": "It was all understandable", "Q1": "Haha no I never knew that lol", "Q2": ""}, "trial_type": "survey-text", "trial_index": 53, "time_elapsed": 1657983, "internal_node_id": "0.0-4.0-6.0"}}, {"uniqueid": "w36699951:a43420750", "current_trial": 54, "dateTime": 1691161612096, "trialdata": {"rt": 2220, "stimulus": "Press 'Finish HIT' in order to reach the completion code. Once the data has been saved, you will receive the code either in this window or in the original browser window where you started the experiment.\n", "response": 0, "trial_type": "html-button-response", "trial_index": 54, "time_elapsed": 1660207, "internal_node_id": "0.0-5.0"}}, {"uniqueid": "w36699951:a43420750", "current_trial": 55, "dateTime": 1691161613100, "trialdata": {"success": true, "trial_type": "fullscreen", "trial_index": 55, "time_elapsed": 1661211, "internal_node_id": "0.0-6.0"}}], "questiondata": {"params": {"CODE": "C6DMOQA6", "MIN_TIME": 14, "inspectCost": 1, "startTime": "Fri Aug 04 2023 16:39:08 GMT+0200 (South Africa Standard Time)", "bonusRate": 0.002, "variance": "1_2_4_8_44", "branching": "31123"}, "final_score": 604.95}, "eventdata": [{"eventtype": "initialized", "value": null, "timestamp": 1691159948075, "interval": 0}, {"eventtype": "window_resize", "value": [1028, 752], "timestamp": 1691159948075, "interval": 0}, {"eventtype": "window_resize", "value": [1028, 752], "timestamp": 1691159948543, "interval": 468}, {"eventtype": "window_resize", "value": [1536, 864], "timestamp": 1691159957038, "interval": 8495}, {"eventtype": "window_resize", "value": [1028, 752], "timestamp": 1691161612359, "interval": 1655321}], "useragent": "Mozilla/5.0 (Windows NT 10.0; Win64; x64) AppleWebKit/537.36 (KHTML, like Gecko) Chrome/115.0.0.0 Safari/537.36", "mode": "live", "id": "w36699951:a43420750", "status": "user data saved", "Beginhit": "2023-08-04 14:39:03.439223", "Beginexp": "2023-08-04 14:39:17.929863", "Endhit": "2023-08-04 15:06:54.16471", "psiturkStatus": 3, "browser": "<redacted>", "platform": "windows", "language": "en-GB"}