{"condition": 1, "counterbalance": 0, "assignmentId": "a41684262", "workerId": "w19374751", "hitId": "h17244863", "currenttrial": 56, "bonus": 0, "data": [{"uniqueid": "w19374751:a41684262", "current_trial": 0, "dateTime": 1691141877352, "trialdata": {"success": true, "trial_type": "fullscreen", "trial_index": 0, "time_elapsed": 5141, "internal_node_id": "0.0-0.0"}}, {"uniqueid": "w19374751:a41684262", "current_trial": 1, "dateTime": 1691141904777, "trialdata": {"view_history": [{"page_index": 0, "viewing_time": 27409}], "rt": 27411, "trial_id": "exp_instructions_misaligned", "trial_type": "instructions", "trial_index": 1, "time_elapsed": 32567, "internal_node_id": "0.0-1.0"}}, {"uniqueid": "w19374751:a41684262", "current_trial": 2, "dateTime": 1691141910412, "trialdata": {"success": true, "trial_type": "fullscreen", "trial_index": 2, "time_elapsed": 38202, "internal_node_id": "0.0-2.0-0.0"}}, {"uniqueid": "w19374751:a41684262", "current_trial": 3, "dateTime": 1691142170598, "trialdata": {"view_history": [{"page_index": 0, "viewing_time": 94896}, {"page_index": 1, "viewing_time": 91475}, {"page_index": 2, "viewing_time": 22456}, {"page_index": 3, "viewing_time": 51353}], "rt": 260181, "trial_id": "mouselab_instructions_1_misaligned", "trial_type": "instructions", "trial_index": 3, "time_elapsed": 298388, "internal_node_id": "0.0-2.0-1.0"}}, {"uniqueid": "w19374751:a41684262", "current_trial": 4, "dateTime": 1691142201320, "trialdata": {"revealed_states": [], "clicked_states": ["1", "7", "3", "2"], "num_clicks_accrued": [0, 0, 0, 0, 0, 0, 0, 0, 0, 0, 0, 0, 0], "stateRewards": ["", 10, 10, -10, 10, 10, 10, 10, -10, -10, 10, 10, -10, 10, -10, -10, -10, -10, 10, -10, -10, 10, -10, -10, 10, 10, -10, 10, -10, -10, -10, -10, 10, -10], "withholdReward": false, "trial_id": "practice_1", "block": "test", "trialIndex": 0, "score": 31.5, "costs": -2, "simulationMode": [null, null, null, null, null], "rewards": [10, 10, -10, 10, 10], "path": ["0", "0", "1", "2", "3", "4", "5"], "rt": [15563, 530, 416, 1145, 1694], "actions": ["up", "up", "up", "right", "up"], "actionTimes": [19624, 20662, 21596, 23258, 25472], "queries": {"click": {"state": {"target": ["1", "7", "3", "2"], "time": [6528, 7909, 11472, 14930]}, "edge": {"target": [], "time": []}}, "mouseover": {"state": {"target": ["1", "2", "1", "2", "7", "2", "3", "2", "1"], "time": [5094, 5178, 5778, 6992, 7260, 9481, 10440, 13239, 16591]}, "edge": {"target": [], "time": []}}, "mouseout": {"state": {"target": ["0", "1", "2", "1", "2", "7", "2", "3", "2", "2", "1"], "time": [2971, 5144, 5719, 6725, 7042, 8113, 10346, 12704, 15133, 15902, 18103]}, "edge": {"target": [], "time": []}}}, "displayed_time": "26.00", "trialTime": 28948, "trial_type": "mouselab-mdp", "trial_index": 4, "time_elapsed": 329108, "internal_node_id": "0.0-2.0-2.0-0.0"}}, {"uniqueid": "w19374751:a41684262", "current_trial": 5, "dateTime": 1691142219055, "trialdata": {"revealed_states": [], "clicked_states": ["8", "4"], "num_clicks_accrued": [0, 0, 0, 0, 0, 0, 0, 0, 0, 0, 0, 0, 0], "stateRewards": ["", -10, -10, 10, -10, 10, 10, 10, 10, 10, -10, 10, -10, -10, 10, 10, 10, 10, 10, 10, 10, -10, 10, -10, 10, 10, -10, 10, 10, -10, 10, -10, 10, 10], "withholdReward": false, "trial_id": "practice_2", "block": "test", "trialIndex": 1, "score": 12.5, "costs": -1, "simulationMode": [null, null, null, null, null], "rewards": [-10, -10, 10, 10, 10], "path": ["0", "0", "1", "2", "3", "8", "9"], "rt": [7585, 302, 216, 315, 572], "actions": ["up", "up", "up", "left", "up"], "actionTimes": [9483, 10300, 11027, 11857, 12946], "queries": {"click": {"state": {"target": ["8", "4"], "time": [4519, 6398]}, "edge": {"target": [], "time": []}}, "mouseover": {"state": {"target": ["1", "2", "8", "3", "4", "1"], "time": [2773, 3151, 4004, 5414, 5681, 7902]}, "edge": {"target": [], "time": []}}, "mouseout": {"state": {"target": ["0", "0", "1", "2", "8", "3", "4"], "time": [772, 2501, 3019, 3368, 5047, 5596, 7197]}, "edge": {"target": [], "time": []}}}, "displayed_time": "13.46", "trialTime": 17433, "trial_type": "mouselab-mdp", "trial_index": 5, "time_elapsed": 346844, "internal_node_id": "0.0-2.0-2.0-1.0"}}, {"uniqueid": "w19374751:a41684262", "current_trial": 6, "dateTime": 1691142268377, "trialdata": {"view_history": [{"page_index": 0, "viewing_time": 32258}, {"page_index": 1, "viewing_time": 17056}], "rt": 49315, "trial_id": "mouselab_instructions_2_misaligned", "trial_type": "instructions", "trial_index": 6, "time_elapsed": 396167, "internal_node_id": "0.0-2.0-3.0"}}, {"uniqueid": "w19374751:a41684262", "current_trial": 7, "dateTime": 1691142326455, "trialdata": {"rt": 58066, "response": {"Q0": "The cost for clicking on nodes may vary between nodes.", "Q1": "The better I perform the higher my bonus will be.", "Q2": "No, the amount of cash at each node of the web may be different each time.", "Q3": "To get the highest total score.", "Q4": "Only before moving the spider.", "Q5": "3 seconds"}, "question_order": [0, 1, 2, 3, 4, 5], "correct": {"Q0": "The cost for clicking on nodes may vary between nodes.", "Q1": "The better I perform the higher my bonus will be.", "Q2": "No, the amount of cash at each node of the web may be different each time.", "Q3": "To get the highest total score.", "Q4": "Only before moving the spider.", "Q5": "3 seconds"}, "trial_id": "mouselab_quiz_misaligned", "trial_type": "survey-multi-choice", "trial_index": 7, "time_elapsed": 454245, "internal_node_id": "0.0-2.0-4.0"}}, {"uniqueid": "w19374751:a41684262", "current_trial": 8, "dateTime": 1691142343120, "trialdata": {"rt": 16640, "stimulus": "\n<h1> Get ready to start the game! </h1>\n\nThank you for reading the instructions. Get ready start with the 40 rounds of this game.\n<br><br>\nIf you need to take a break, feel free to take one after the end of a round, before continuing to the next one.\n<br><br>\nRemember, the more money the spider gets, the bigger your bonus will be!\n<br><br>\n<div style='text-align: center;'>Press <code>space</code> to begin.</div>\n\n<br><br>\n(If, at any point, the <code>space</code> key does not take you to the next page, click once on the text and try again.)", "response": " ", "trial_id": "mdp_ready", "trial_type": "html-keyboard-response", "trial_index": 8, "time_elapsed": 470909, "internal_node_id": "0.0-4.0-0.0"}}, {"uniqueid": "w19374751:a41684262", "current_trial": 9, "dateTime": 1691142363597, "trialdata": {"revealed_states": [], "clicked_states": ["1", "12", "8", "4"], "num_clicks_accrued": [0, 0, 0, 0, 0, 0, 0, 0, 0, 0, 0, 0, 0], "stateRewards": ["", -2, -3, 4, 1, 33, -53, 15, 9, -12, 61, -6, -2, 4, 6, -11, 47, -43, -7, -11, 46, 23, -28, -1, -1, 3, -10, 11, 76, -76, 10, 18, -38, 87], "withholdReward": false, "trial_id": "mdp_trial_1", "block": "test", "trialIndex": 2, "score": -6.6, "costs": -2.6, "simulationMode": [null, null, null, null, null], "rewards": [-2, -3, 4, 9, -12], "path": ["0", "0", "1", "2", "3", "8", "9"], "rt": [8775, 255, 156, 303, 430], "actions": ["up", "up", "up", "left", "up"], "actionTimes": [12429, 13195, 13845, 14662, 15601], "queries": {"click": {"state": {"target": ["1", "12", "8", "4"], "time": [5097, 6313, 8683, 10181]}, "edge": {"target": [], "time": []}}, "mouseover": {"state": {"target": ["1", "12", "0", "9", "8", "3", "4", "7", "1"], "time": [4519, 5912, 7160, 7480, 7763, 9310, 9476, 10690, 11073]}, "edge": {"target": [], "time": []}}, "mouseout": {"state": {"target": ["1", "12", "0", "1", "9", "8", "3", "4", "7"], "time": [5549, 6521, 7227, 7331, 7731, 9192, 9425, 10674, 10774]}, "edge": {"target": [], "time": []}}}, "displayed_time": "17.66", "trialTime": 20146, "trial_type": "mouselab-mdp", "trial_index": 9, "time_elapsed": 491385, "internal_node_id": "0.0-4.0-1.0-0.0"}}, {"uniqueid": "w19374751:a41684262", "current_trial": 10, "dateTime": 1691142385586, "trialdata": {"revealed_states": [], "clicked_states": ["1", "12", "13", "8"], "num_clicks_accrued": [0, 0, 0, 0, 0, 0, 0, 0, 0, 0, 0, 0, 0], "stateRewards": ["", 1, -3, 4, 13, -72, 52, 5, 5, -58, 5, 14, 2, 1, 3, -14, -86, -4, 73, 6, -58, -50, 49, 2, -3, -4, 2, 33, -41, 42, -11, 81, 45, 53], "withholdReward": false, "trial_id": "mdp_trial_2", "block": "test", "trialIndex": 3, "score": -52.4, "costs": -1.4, "simulationMode": [null, null, null, null, null], "rewards": [1, -3, 4, 5, -58], "path": ["0", "0", "1", "2", "3", "8", "9"], "rt": [8279, 612, 269, 448, 813], "actions": ["up", "up", "up", "left", "up"], "actionTimes": [12517, 13643, 14433, 15394, 16727], "queries": {"click": {"state": {"target": ["1", "12", "13", "8"], "time": [5460, 6797, 8430, 10289]}, "edge": {"target": [], "time": []}}, "mouseover": {"state": {"target": ["1", "12", "13", "3", "8", "1"], "time": [4905, 6408, 7883, 9498, 9853, 11414]}, "edge": {"target": [], "time": []}}, "mouseout": {"state": {"target": ["1", "0", "1", "12", "13", "3", "8", "1"], "time": [3180, 4783, 6103, 7686, 9187, 9598, 11149, 11447]}, "edge": {"target": [], "time": []}}}, "displayed_time": "18.24", "trialTime": 21683, "trial_type": "mouselab-mdp", "trial_index": 10, "time_elapsed": 513376, "internal_node_id": "0.0-4.0-1.0-1.0"}}, {"uniqueid": "w19374751:a41684262", "current_trial": 11, "dateTime": 1691142405756, "trialdata": {"revealed_states": [], "clicked_states": ["4", "8", "1", "2"], "num_clicks_accrued": [0, 0, 0, 0, 0, 0, 0, 0, 0, 0, 0, 0, 0], "stateRewards": ["", 1, -2, -2, 10, -31, -77, 35, 9, -47, 8, 48, -2, 1, -4, -3, -26, -50, 43, -11, 76, -38, 17, 1, -1, 6, 10, 15, -9, 12, -8, 85, 11, -55], "withholdReward": false, "trial_id": "mdp_trial_3", "block": "test", "trialIndex": 4, "score": -27.2, "costs": -3.2, "simulationMode": [null, null, null, null, null], "rewards": [1, -2, -2, 10, -31], "path": ["0", "0", "1", "2", "3", "4", "5"], "rt": [8507, 113, 135, 353, 595], "actions": ["up", "up", "up", "right", "up"], "actionTimes": [10555, 11192, 11849, 12712, 13821], "queries": {"click": {"state": {"target": ["4", "8", "1", "2"], "time": [3335, 4685, 7450, 9007]}, "edge": {"target": [], "time": []}}, "mouseover": {"state": {"target": ["7", "4", "3", "8", "10", "2", "1", "12", "1", "2"], "time": [2617, 2842, 3968, 4150, 5780, 5903, 5982, 6214, 6765, 8545]}, "edge": {"target": [], "time": []}}, "mouseout": {"state": {"target": ["0", "7", "4", "3", "8", "10", "2", "1", "12", "1", "1", "1", "2", "1"], "time": [2506, 2672, 3934, 4033, 5566, 5797, 5920, 6134, 6719, 7646, 8064, 8329, 9511, 9795]}, "edge": {"target": [], "time": []}}}, "displayed_time": "16.05", "trialTime": 19851, "trial_type": "mouselab-mdp", "trial_index": 11, "time_elapsed": 533545, "internal_node_id": "0.0-4.0-1.0-2.0"}}, {"uniqueid": "w19374751:a41684262", "current_trial": 12, "dateTime": 1691142424842, "trialdata": {"revealed_states": [], "clicked_states": ["23", "12", "2", "1", "8", "4"], "num_clicks_accrued": [0, 0, 0, 0, 0, 0, 0, 0, 0, 0, 0, 0, 0], "stateRewards": ["", 1, -4, -6, -1, -21, 17, -72, 10, 77, 67, -46, -1, 4, -2, 14, -66, -49, -45, -15, -52, 23, -67, 2, -2, -2, 15, -3, 45, -64, 5, -44, 83, 61], "withholdReward": false, "trial_id": "mdp_trial_4", "block": "test", "trialIndex": 5, "score": 75.3, "costs": -2.7, "simulationMode": [null, null, null, null, null], "rewards": [1, -4, -6, 10, 77], "path": ["0", "0", "1", "2", "3", "8", "9"], "rt": [10257, 151, 161, 543, 367], "actions": ["up", "up", "up", "left", "up"], "actionTimes": [12828, 13494, 14165, 15230, 16137], "queries": {"click": {"state": {"target": ["23", "12", "2", "1", "8", "4"], "time": [4067, 5179, 6758, 7902, 9697, 10964]}, "edge": {"target": [], "time": []}}, "mouseover": {"state": {"target": ["23", "12", "2", "2", "1", "3", "8", "3", "4", "2"], "time": [3581, 4745, 5777, 6209, 7576, 8774, 9224, 10140, 10240, 12176]}, "edge": {"target": [], "time": []}}, "mouseout": {"state": {"target": ["23", "12", "2", "2", "1", "1", "2", "3", "8", "3", "4", "4"], "time": [4496, 5610, 6009, 7312, 8112, 8524, 8741, 9111, 10106, 10206, 11271, 11488]}, "edge": {"target": [], "time": []}}}, "displayed_time": "16.65", "trialTime": 18769, "trial_type": "mouselab-mdp", "trial_index": 12, "time_elapsed": 552631, "internal_node_id": "0.0-4.0-1.0-3.0"}}, {"uniqueid": "w19374751:a41684262", "current_trial": 13, "dateTime": 1691142448696, "trialdata": {"revealed_states": [], "clicked_states": ["23", "3", "8", "12", "13", "14", "15", "16"], "num_clicks_accrued": [0, 0, 0, 0, 0, 0, 0, 0, 0, 0, 0, 0, 0], "stateRewards": ["", -1, -2, -8, 8, -27, -82, 19, -14, -62, 4, 1, -2, 2, 6, 10, 73, -51, -2, 2, 73, -48, 54, -1, 2, -4, 11, -25, 47, 86, 15, 33, 43, -42], "withholdReward": false, "trial_id": "mdp_trial_5", "block": "test", "trialIndex": 6, "score": 82, "costs": -7, "simulationMode": [null, null, null, null, null, null], "rewards": [-2, 2, 6, 10, 73], "path": ["0", "0", "12", "13", "14", "15", "16"], "rt": [14073, 509, 249, 214, 621, 97], "actions": ["right", "right", "right", "right", "up", "up"], "actionTimes": [17564, 18076, 18849, 19582, 20715, 21324], "queries": {"click": {"state": {"target": ["23", "3", "8", "12", "13", "14", "15", "16"], "time": [4762, 6855, 7945, 9591, 11168, 12170, 13992, 15134]}, "edge": {"target": [], "time": []}}, "mouseover": {"state": {"target": ["23", "1", "2", "3", "3", "8", "2", "12", "13", "14", "15", "16", "0"], "time": [4310, 5440, 5641, 5973, 6375, 7489, 8571, 8721, 10701, 11818, 13404, 14732, 16813]}, "edge": {"target": [], "time": []}}, "mouseout": {"state": {"target": ["2", "1", "0", "23", "1", "2", "3", "3", "8", "2", "12", "13", "14", "15", "16"], "time": [2047, 2276, 4218, 5357, 5541, 5730, 6005, 7439, 8521, 8604, 10569, 11718, 12950, 14186, 15883]}, "edge": {"target": [], "time": []}}}, "displayed_time": "21.84", "trialTime": 23555, "trial_type": "mouselab-mdp", "trial_index": 13, "time_elapsed": 576485, "internal_node_id": "0.0-4.0-1.0-4.0"}}, {"uniqueid": "w19374751:a41684262", "current_trial": 14, "dateTime": 1691142472663, "trialdata": {"revealed_states": [], "clicked_states": ["15", "24", "16", "8", "3", "9"], "num_clicks_accrued": [0, 0, 0, 0, 0, 0, 0, 0, 0, 0, 0, 0, 0], "stateRewards": ["", -2, 3, 8, -9, 59, 41, -50, -1, 82, 66, 33, 2, -2, 7, 8, 1, -38, 12, -16, 24, -37, 67, 1, 4, -2, 5, 35, -83, 28, 8, -27, 69, -64], "withholdReward": false, "trial_id": "mdp_trial_6", "block": "test", "trialIndex": 7, "score": 81.3, "costs": -8.7, "simulationMode": [null, null, null, null, null], "rewards": [-2, 3, 8, -1, 82], "path": ["0", "0", "1", "2", "3", "8", "9"], "rt": [15540, 68, 152, 374, 489], "actions": ["up", "up", "up", "left", "up"], "actionTimes": [17771, 18351, 19032, 19922, 20920], "queries": {"click": {"state": {"target": ["15", "24", "16", "8", "3", "9"], "time": [3345, 5047, 6352, 10404, 11452, 12716]}, "edge": {"target": [], "time": []}}, "mouseover": {"state": {"target": ["12", "15", "13", "12", "0", "23", "24", "16", "18", "7", "3", "8", "3", "9", "2", "1"], "time": [2598, 2730, 4012, 4046, 4079, 4162, 4312, 5926, 6993, 7558, 7907, 10008, 10960, 12169, 14985, 16418]}, "edge": {"target": [], "time": []}}, "mouseout": {"state": {"target": ["0", "12", "15", "13", "12", "0", "23", "24", "16", "18", "7", "3", "8", "3", "3", "8", "9", "2", "1"], "time": [2582, 2614, 3996, 4029, 4062, 4111, 4215, 5527, 6942, 7292, 7658, 9792, 10905, 11669, 12004, 12120, 13237, 16374, 16634]}, "edge": {"target": [], "time": []}}}, "displayed_time": "21.43", "trialTime": 23631, "trial_type": "mouselab-mdp", "trial_index": 14, "time_elapsed": 600451, "internal_node_id": "0.0-4.0-1.0-5.0"}}, {"uniqueid": "w19374751:a41684262", "current_trial": 15, "dateTime": 1691142492130, "trialdata": {"revealed_states": [], "clicked_states": ["4", "8", "5", "9"], "num_clicks_accrued": [0, 0, 0, 0, 0, 0, 0, 0, 0, 0, 0, 0, 0], "stateRewards": ["", -2, 2, -5, 1, 42, -63, -58, -6, 2, 16, 81, -2, 4, 7, -10, 33, 3, -33, -2, -52, -84, -27, 2, -3, -3, 15, -74, -14, -5, -5, -84, 79, -31], "withholdReward": false, "trial_id": "mdp_trial_7", "block": "test", "trialIndex": 8, "score": 30.6, "costs": -7.4, "simulationMode": [null, null, null, null, null], "rewards": [-2, 2, -5, 1, 42], "path": ["0", "0", "1", "2", "3", "4", "5"], "rt": [11483, 85, 106, 497, 193], "actions": ["up", "up", "up", "right", "up"], "actionTimes": [13357, 13960, 14577, 15585, 16295], "queries": {"click": {"state": {"target": ["4", "8", "5", "9"], "time": [3216, 4335, 5604, 9201]}, "edge": {"target": [], "time": []}}, "mouseover": {"state": {"target": ["7", "4", "3", "8", "5", "9", "8", "2"], "time": [2532, 2787, 3746, 3896, 5178, 8025, 12624, 12760]}, "edge": {"target": [], "time": []}}, "mouseout": {"state": {"target": ["0", "0", "7", "4", "3", "8", "5", "5", "9", "8"], "time": [1066, 2400, 2599, 3730, 3813, 4895, 5811, 6044, 9724, 12645]}, "edge": {"target": [], "time": []}}}, "displayed_time": "16.80", "trialTime": 19142, "trial_type": "mouselab-mdp", "trial_index": 15, "time_elapsed": 619919, "internal_node_id": "0.0-4.0-1.0-6.0"}}, {"uniqueid": "w19374751:a41684262", "current_trial": 16, "dateTime": 1691142516451, "trialdata": {"revealed_states": [], "clicked_states": ["4", "8", "5", "9", "2"], "num_clicks_accrued": [0, 0, 0, 0, 0, 0, 0, 0, 0, 0, 0, 0, 0], "stateRewards": ["", 2, 4, -5, 7, 81, 35, 6, 11, 14, -72, 42, -1, 2, 3, -7, -77, -44, -40, -15, -85, 51, -32, -2, -1, -5, 7, -74, 47, 52, 16, -49, 48, -46], "withholdReward": false, "trial_id": "mdp_trial_8", "block": "test", "trialIndex": 9, "score": 81.25, "costs": -7.75, "simulationMode": [null, null, null, null, null], "rewards": [2, 4, -5, 7, 81], "path": ["0", "0", "1", "2", "3", "4", "5"], "rt": [15369, 21, 43, 467, 233], "actions": ["up", "up", "up", "right", "up"], "actionTimes": [17290, 17832, 18399, 19395, 20139], "queries": {"click": {"state": {"target": ["4", "8", "5", "9", "2"], "time": [4024, 5586, 6743, 10239, 13673]}, "edge": {"target": [], "time": []}}, "mouseover": {"state": {"target": ["1", "2", "4", "5", "4", "3", "8", "5", "9", "3", "2"], "time": [2978, 3146, 3256, 3290, 3595, 4836, 5085, 6235, 8049, 11779, 12828]}, "edge": {"target": [], "time": []}}, "mouseout": {"state": {"target": ["2", "1", "1", "2", "4", "5", "4", "3", "8", "5", "9", "3", "2"], "time": [897, 1040, 3071, 3238, 3274, 3322, 4786, 4853, 6068, 7350, 11496, 12412, 13882]}, "edge": {"target": [], "time": []}}}, "displayed_time": "20.66", "trialTime": 24021, "trial_type": "mouselab-mdp", "trial_index": 16, "time_elapsed": 644240, "internal_node_id": "0.0-4.0-1.0-7.0"}}, {"uniqueid": "w19374751:a41684262", "current_trial": 17, "dateTime": 1691142538718, "trialdata": {"revealed_states": [], "clicked_states": ["5", "9", "11"], "num_clicks_accrued": [0, 0, 0, 0, 0, 0, 0, 0, 0, 0, 0, 0, 0], "stateRewards": ["", 2, -3, -5, 5, 11, -9, -33, 6, 67, 6, -30, -1, -2, -6, 13, 55, 13, 72, -14, 75, 21, -66, -2, -4, 6, 15, -1, -35, 60, 2, 51, -73, 12], "withholdReward": false, "trial_id": "mdp_trial_9", "block": "test", "trialIndex": 10, "score": 60.55, "costs": -6.449999999999999, "simulationMode": [null, null, null, null, null], "rewards": [2, -3, -5, 6, 67], "path": ["0", "0", "1", "2", "3", "8", "9"], "rt": [13246, 36, 21, 602, 260], "actions": ["up", "up", "up", "left", "up"], "actionTimes": [15184, 15738, 16271, 17385, 18160], "queries": {"click": {"state": {"target": ["5", "9", "11"], "time": [3010, 7435, 11040]}, "edge": {"target": [], "time": []}}, "mouseover": {"state": {"target": ["1", "4", "5", "4", "7", "8", "9", "11", "8"], "time": [2297, 2379, 2464, 3728, 4195, 6743, 6978, 10541, 14261]}, "edge": {"target": [], "time": []}}, "mouseout": {"state": {"target": ["2", "1", "0", "1", "4", "5", "4", "7", "8", "9", "11", "8"], "time": [820, 1019, 2262, 2313, 2413, 3646, 3981, 6635, 6917, 10139, 12787, 14370]}, "edge": {"target": [], "time": []}}}, "displayed_time": "18.71", "trialTime": 21937, "trial_type": "mouselab-mdp", "trial_index": 17, "time_elapsed": 666506, "internal_node_id": "0.0-4.0-1.0-8.0"}}, {"uniqueid": "w19374751:a41684262", "current_trial": 18, "dateTime": 1691142569722, "trialdata": {"revealed_states": [], "clicked_states": ["16", "5", "9", "11", "27"], "num_clicks_accrued": [0, 0, 0, 0, 0, 0, 0, 0, 0, 0, 0, 0, 0], "stateRewards": ["", 1, 4, 5, -5, 58, -80, 75, 6, 25, -39, 46, 2, -2, 4, 2, 59, 31, -22, -12, -61, 15, 72, 1, -2, -7, 8, 77, 76, -23, -7, 71, -15, -3], "withholdReward": false, "trial_id": "mdp_trial_10", "block": "test", "trialIndex": 11, "score": 66.25, "costs": -10.75, "simulationMode": [null, null, null, null, null], "rewards": [1, -2, -7, 8, 77], "path": ["0", "0", "23", "24", "25", "26", "27"], "rt": [22099, 272, 150, 630, 625], "actions": ["left", "left", "left", "up", "up"], "actionTimes": [24160, 24957, 25627, 26774, 27919], "queries": {"click": {"state": {"target": ["16", "5", "9", "11", "27"], "time": [4214, 8078, 11659, 15302, 18691]}, "edge": {"target": [], "time": []}}, "mouseover": {"state": {"target": ["12", "13", "14", "16", "4", "5", "9", "11", "27", "3", "3"], "time": [2651, 2686, 3058, 3384, 7564, 7615, 10008, 14840, 17900, 19202, 19482]}, "edge": {"target": [], "time": []}}, "mouseout": {"state": {"target": ["1", "0", "12", "13", "14", "16", "16", "4", "5", "9", "11", "27", "3"], "time": [1201, 2623, 2668, 2704, 3086, 4418, 7105, 7582, 9559, 14676, 17434, 19115, 19266]}, "edge": {"target": [], "time": []}}}, "displayed_time": "28.46", "trialTime": 30669, "trial_type": "mouselab-mdp", "trial_index": 18, "time_elapsed": 697512, "internal_node_id": "0.0-4.0-1.0-9.0"}}, {"uniqueid": "w19374751:a41684262", "current_trial": 19, "dateTime": 1691142594736, "trialdata": {"revealed_states": [], "clicked_states": ["27", "32", "9", "5"], "num_clicks_accrued": [0, 0, 0, 0, 0, 0, 0, 0, 0, 0, 0, 0, 0], "stateRewards": ["", 1, 2, 7, 13, 88, -71, 27, 3, 60, 5, -53, -2, 2, -6, -1, -30, 79, 47, -4, -14, 46, 68, 1, 1, 8, 10, -14, 86, 48, -11, -67, -44, 5], "withholdReward": false, "trial_id": "mdp_trial_11", "block": "test", "trialIndex": 12, "score": 102.4, "costs": -8.6, "simulationMode": [null, null, null, null, null], "rewards": [1, 2, 7, 13, 88], "path": ["0", "0", "1", "2", "3", "4", "5"], "rt": [16129, 172, 175, 275, 234], "actions": ["up", "up", "up", "right", "up"], "actionTimes": [18788, 19473, 20157, 20972, 21712], "queries": {"click": {"state": {"target": ["27", "32", "9", "5"], "time": [4560, 8033, 11365, 14528]}, "edge": {"target": [], "time": []}}, "mouseover": {"state": {"target": ["23", "24", "26", "27", "26", "25", "30", "32", "30", "28", "8", "9", "5", "6"], "time": [3633, 3670, 3979, 4046, 5626, 5759, 5843, 6042, 8990, 9472, 9639, 9705, 12336, 15983]}, "edge": {"target": [], "time": []}}, "mouseout": {"state": {"target": ["3", "2", "1", "0", "23", "24", "26", "27", "26", "25", "30", "32", "30", "28", "8", "9", "5", "6", "4", "7"], "time": [1646, 1695, 1731, 2113, 3654, 3853, 4013, 5543, 5709, 5812, 5909, 8960, 9272, 9506, 9655, 11803, 15383, 23315, 23426, 23528]}, "edge": {"target": [], "time": []}}}, "displayed_time": "22.23", "trialTime": 24673, "trial_type": "mouselab-mdp", "trial_index": 19, "time_elapsed": 722525, "internal_node_id": "0.0-4.0-1.0-10.0"}}, {"uniqueid": "w19374751:a41684262", "current_trial": 20, "dateTime": 1691142630693, "trialdata": {"revealed_states": [], "clicked_states": ["5", "6", "9", "11", "27", "32", "16"], "num_clicks_accrued": [0, 0, 0, 0, 0, 0, 0, 0, 0, 0, 0, 0, 0], "stateRewards": ["", 1, 2, 2, -15, -84, 28, -26, 13, 31, 86, 30, -2, 1, -1, -8, 66, -40, -1, -10, -32, 57, -17, 1, 2, -2, 9, -23, 77, 85, 12, -32, -62, -35], "withholdReward": false, "trial_id": "mdp_trial_12", "block": "test", "trialIndex": 13, "score": 40.95, "costs": -15.05, "simulationMode": [null, null, null, null, null], "rewards": [-2, 1, -1, -8, 66], "path": ["0", "0", "12", "13", "14", "15", "16"], "rt": [26807, 146, 63, 189, 93], "actions": ["right", "right", "right", "up", "up"], "actionTimes": [30290, 30949, 31534, 32241, 32845], "queries": {"click": {"state": {"target": ["5", "6", "9", "11", "27", "32", "16"], "time": [5078, 8426, 11768, 15023, 18421, 21675, 26180]}, "edge": {"target": [], "time": []}}, "mouseover": {"state": {"target": ["1", "4", "5", "6", "4", "3", "9", "9", "11", "27", "26", "30", "32", "31", "0", "12", "15", "16", "15"], "time": [4246, 4429, 4630, 6775, 8823, 8856, 9006, 9456, 12536, 15617, 18881, 18997, 19118, 22427, 22779, 25281, 25427, 25607, 29788]}, "edge": {"target": [], "time": []}}, "mouseout": {"state": {"target": ["0", "1", "4", "5", "5", "6", "4", "3", "9", "9", "9", "11", "27", "27", "26", "30", "32", "31", "0", "12", "15", "16", "15"], "time": [4117, 4279, 4496, 5271, 6292, 8807, 8839, 8908, 9156, 11980, 12287, 15417, 18629, 18865, 18915, 19032, 22293, 22544, 22849, 25316, 25576, 29728, 29870]}, "edge": {"target": [], "time": []}}}, "displayed_time": "33.35", "trialTime": 35606, "trial_type": "mouselab-mdp", "trial_index": 20, "time_elapsed": 758482, "internal_node_id": "0.0-4.0-1.0-11.0"}}, {"uniqueid": "w19374751:a41684262", "current_trial": 21, "dateTime": 1691142673520, "trialdata": {"revealed_states": [], "clicked_states": ["9", "11", "5", "6", "7", "21", "16", "32", "27"], "num_clicks_accrued": [0, 0, 0, 0, 0, 0, 0, 0, 0, 0, 0, 0, 0], "stateRewards": ["", 1, 2, -8, 9, 18, -83, -11, 6, -64, -48, 17, -2, -2, -5, -3, -24, -3, -86, -2, 48, -41, -22, -2, 4, 7, 8, 81, 13, -48, 10, 61, 19, 57], "withholdReward": false, "trial_id": "mdp_trial_13", "block": "test", "trialIndex": 14, "score": 78.65, "costs": -19.349999999999998, "simulationMode": [null, null, null, null, null], "rewards": [-2, 4, 7, 8, 81], "path": ["0", "0", "23", "24", "25", "26", "27"], "rt": [34584, 174, 141, 588, 118], "actions": ["left", "left", "left", "up", "up"], "actionTimes": [37415, 38097, 38749, 39842, 40473], "queries": {"click": {"state": {"target": ["9", "11", "5", "6", "7", "21", "16", "32", "27"], "time": [4311, 7561, 10883, 14072, 17828, 21096, 24935, 29203, 32894]}, "edge": {"target": [], "time": []}}, "mouseover": {"state": {"target": ["1", "2", "3", "9", "11", "5", "6", "7", "13", "19", "21", "19", "14", "15", "16", "18", "31", "32", "32", "30", "25", "26", "27", "26"], "time": [3549, 3586, 3671, 3874, 5622, 8467, 11665, 15094, 18642, 18757, 19422, 21803, 21937, 23835, 24239, 28140, 28199, 28232, 28799, 31611, 31777, 31943, 32347, 36245]}, "edge": {"target": [], "time": []}}, "mouseout": {"state": {"target": ["12", "1", "2", "3", "9", "9", "11", "5", "5", "6", "7", "13", "19", "21", "19", "14", "15", "16", "18", "31", "32", "32", "30", "25", "26", "27", "26"], "time": [2125, 3574, 3637, 3787, 4519, 5154, 7967, 11092, 11498, 14844, 18525, 18708, 19257, 21737, 21871, 21953, 23970, 28117, 28152, 28217, 28263, 29403, 31716, 31844, 32109, 36215, 36292]}, "edge": {"target": [], "time": []}}}, "displayed_time": "40.98", "trialTime": 42495, "trial_type": "mouselab-mdp", "trial_index": 21, "time_elapsed": 801309, "internal_node_id": "0.0-4.0-1.0-12.0"}}, {"uniqueid": "w19374751:a41684262", "current_trial": 22, "dateTime": 1691142705478, "trialdata": {"revealed_states": [], "clicked_states": ["5", "9", "27", "29", "32"], "num_clicks_accrued": [0, 0, 0, 0, 0, 0, 0, 0, 0, 0, 0, 0, 0], "stateRewards": ["", -2, -1, 3, -3, 71, -58, -21, 7, -10, -75, -37, 2, 4, -1, -12, -79, -29, -48, 3, -41, -10, -30, -1, -2, 1, -15, 13, 66, 22, -1, -42, -86, -55], "withholdReward": false, "trial_id": "mdp_trial_14", "block": "test", "trialIndex": 15, "score": 57.25, "costs": -10.75, "simulationMode": [null, null, null, null, null, null], "rewards": [-2, -1, 3, -3, 71], "path": ["0", "0", "1", "2", "3", "4", "5"], "rt": [19180, 4313, 270, 153, 316, 585], "actions": ["up", "up", "up", "up", "right", "up"], "actionTimes": [21273, 25589, 26371, 27039, 27865, 28966], "queries": {"click": {"state": {"target": ["5", "9", "27", "29", "32"], "time": [3622, 7500, 11085, 14832, 18634]}, "edge": {"target": [], "time": []}}, "mouseover": {"state": {"target": ["1", "4", "5", "9", "11", "27", "29", "33", "30", "32", "0"], "time": [2656, 2704, 3204, 6958, 9782, 10485, 14312, 17574, 17672, 17960, 24674]}, "edge": {"target": [], "time": []}}, "mouseout": {"state": {"target": ["13", "22", "0", "1", "4", "5", "9", "11", "27", "29", "33", "30", "32"], "time": [1028, 1174, 2613, 2673, 2721, 6571, 9649, 9997, 14139, 17341, 17593, 17842, 23700]}, "edge": {"target": [], "time": []}}}, "displayed_time": "29.48", "trialTime": 31627, "trial_type": "mouselab-mdp", "trial_index": 22, "time_elapsed": 833266, "internal_node_id": "0.0-4.0-1.0-13.0"}}, {"uniqueid": "w19374751:a41684262", "current_trial": 23, "dateTime": 1691142742712, "trialdata": {"revealed_states": [], "clicked_states": ["6", "5", "9", "11", "27", "29", "32", "16"], "num_clicks_accrued": [0, 0, 0, 0, 0, 0, 0, 0, 0, 0, 0, 0, 0], "stateRewards": ["", 2, -4, -8, -15, 71, -43, -41, 7, -17, 20, 67, -1, -1, -4, 6, 37, -24, -47, 9, 34, 57, 45, 1, 2, -4, -5, -23, 88, -5, 13, -40, 43, 44], "withholdReward": false, "trial_id": "mdp_trial_15", "block": "test", "trialIndex": 16, "score": 28.799999999999997, "costs": -17.2, "simulationMode": [null, null, null, null, null], "rewards": [2, -4, -8, -15, 71], "path": ["0", "0", "1", "2", "3", "4", "5"], "rt": [28766, 2, 147, 392, 751], "actions": ["up", "up", "up", "right", "up"], "actionTimes": [30720, 31241, 31918, 32830, 34092], "queries": {"click": {"state": {"target": ["6", "5", "9", "11", "27", "29", "32", "16"], "time": [2929, 6204, 9723, 13031, 16591, 19953, 23669, 27031]}, "edge": {"target": [], "time": []}}, "mouseover": {"state": {"target": ["7", "6", "5", "9", "11", "27", "29", "30", "32", "31", "0", "12", "13", "14", "15", "16"], "time": [2298, 2347, 4512, 8741, 12238, 15602, 19380, 22363, 23136, 24428, 24577, 24643, 24726, 24860, 24993, 25059]}, "edge": {"target": [], "time": []}}, "mouseout": {"state": {"target": ["0", "7", "6", "5", "9", "11", "27", "29", "29", "30", "32", "31", "0", "12", "13", "14", "15", "16"], "time": [1070, 2313, 3141, 8242, 11856, 15435, 18965, 20155, 20680, 22612, 23870, 24478, 24609, 24693, 24778, 24943, 25027, 29357]}, "edge": {"target": [], "time": []}}}, "displayed_time": "34.60", "trialTime": 36886, "trial_type": "mouselab-mdp", "trial_index": 23, "time_elapsed": 870501, "internal_node_id": "0.0-4.0-1.0-14.0"}}, {"uniqueid": "w19374751:a41684262", "current_trial": 24, "dateTime": 1691142761087, "trialdata": {"revealed_states": [], "clicked_states": ["1", "2", "12", "16"], "num_clicks_accrued": [0, 0, 0, 0, 0, 0, 0, 0, 0, 0, 0, 0, 0], "stateRewards": ["", -2, 4, -7, -3, -76, 39, -28, 10, 14, 12, 60, 2, -3, 6, -10, 88, -34, -41, -3, 72, -13, -56, 1, 3, 2, 8, -51, 23, -57, 1, 14, -46, -16], "withholdReward": false, "trial_id": "mdp_trial_16", "block": "test", "trialIndex": 17, "score": 81, "costs": -2, "simulationMode": [null, null, null, null, null], "rewards": [2, -3, 6, -10, 88], "path": ["0", "0", "12", "13", "14", "15", "16"], "rt": [10122, 217, 175, 429, 64], "actions": ["right", "right", "right", "up", "up"], "actionTimes": [11993, 12727, 13416, 14355, 14936], "queries": {"click": {"state": {"target": ["1", "2", "12", "16"], "time": [3128, 4541, 6331, 7752]}, "edge": {"target": [], "time": []}}, "mouseover": {"state": {"target": ["1", "2", "12", "12", "18", "16", "4", "5", "2", "1", "0"], "time": [2689, 4115, 5498, 5912, 6980, 7086, 9260, 9460, 11143, 11207, 11291]}, "edge": {"target": [], "time": []}}, "mouseout": {"state": {"target": ["1", "2", "1", "12", "12", "18", "16", "4", "5", "2", "1", "0"], "time": [3998, 5230, 5368, 5646, 6935, 7013, 9113, 9326, 11076, 11177, 11240, 11307]}, "edge": {"target": [], "time": []}}}, "displayed_time": "15.87", "trialTime": 18017, "trial_type": "mouselab-mdp", "trial_index": 24, "time_elapsed": 888876, "internal_node_id": "0.0-4.0-1.0-15.0"}}, {"uniqueid": "w19374751:a41684262", "current_trial": 25, "dateTime": 1691142809917, "trialdata": {"revealed_states": [], "clicked_states": ["5", "16", "21", "9", "11", "27", "32", "33", "29", "24"], "num_clicks_accrued": [0, 0, 0, 0, 0, 0, 0, 0, 0, 0, 0, 0, 0], "stateRewards": ["", -1, 1, 8, -3, -24, 11, -65, -6, -77, 48, 44, -2, 1, -2, -7, -55, -35, 33, 8, -28, 19, -53, -1, -1, -5, -5, -70, 10, 44, 8, -58, -70, 51], "withholdReward": false, "trial_id": "mdp_trial_17", "block": "test", "trialIndex": 18, "score": 32.3, "costs": -19.7, "simulationMode": [null, null, null, null, null], "rewards": [-1, -1, -5, 8, 51], "path": ["0", "0", "23", "24", "25", "30", "33"], "rt": [40110, 194, 212, 560, 159], "actions": ["left", "left", "left", "down", "left"], "actionTimes": [42391, 43103, 43823, 44903, 45582], "queries": {"click": {"state": {"target": ["5", "16", "21", "9", "11", "27", "32", "33", "29", "24"], "time": [4883, 8144, 11400, 16089, 19477, 22881, 26410, 29873, 33436, 37348]}, "edge": {"target": [], "time": []}}, "mouseover": {"state": {"target": ["1", "4", "5", "6", "16", "15", "14", "19", "21", "22", "13", "2", "9", "11", "27", "26", "25", "30", "32", "33", "29", "28", "24", "28", "31", "0", "1"], "time": [3203, 4164, 4262, 6411, 6627, 10224, 10340, 10457, 10724, 14455, 14776, 15504, 15755, 18865, 22195, 25276, 25425, 25509, 25948, 28922, 32535, 35748, 36648, 39144, 39946, 40629, 41199]}, "edge": {"target": [], "time": []}}, "mouseout": {"state": {"target": ["0", "1", "4", "5", "6", "16", "15", "14", "19", "21", "22", "13", "2", "9", "9", "11", "27", "26", "25", "30", "32", "33", "29", "29", "28", "24", "28", "24", "31", "0"], "time": [1333, 3233, 4196, 6261, 6478, 10173, 10290, 10407, 10627, 14361, 14476, 15427, 15524, 16299, 18615, 21812, 25259, 25293, 25442, 25691, 28822, 30086, 33642, 35166, 36518, 38879, 39715, 39885, 40550, 40963]}, "edge": {"target": [], "time": []}}}, "displayed_time": "46.09", "trialTime": 48478, "trial_type": "mouselab-mdp", "trial_index": 25, "time_elapsed": 937705, "internal_node_id": "0.0-4.0-1.0-16.0"}}, {"uniqueid": "w19374751:a41684262", "current_trial": 26, "dateTime": 1691142852232, "trialdata": {"revealed_states": [], "clicked_states": ["5", "9", "32", "27", "11", "16", "21"], "num_clicks_accrued": [0, 0, 0, 0, 0, 0, 0, 0, 0, 0, 0, 0, 0], "stateRewards": ["", 1, 4, 7, -16, -84, -6, -46, -12, -7, -49, -26, -1, 2, -4, 2, 22, 37, -64, 1, 88, -13, -10, 1, -4, -2, 5, 2, -10, -34, 9, 66, 55, 38], "withholdReward": false, "trial_id": "mdp_trial_18", "block": "test", "trialIndex": 19, "score": 43.95, "costs": -15.05, "simulationMode": [null, null, null, null, null], "rewards": [1, -4, -2, 9, 55], "path": ["0", "0", "23", "24", "25", "30", "32"], "rt": [29935, 100, 175, 617, 186], "actions": ["left", "left", "left", "down", "down"], "actionTimes": [36160, 36775, 37466, 38593, 39297], "queries": {"click": {"state": {"target": ["5", "9", "32", "27", "11", "16", "21"], "time": [8060, 11416, 15040, 18998, 23165, 27536, 32001]}, "edge": {"target": [], "time": []}}, "mouseover": {"state": {"target": ["4", "5", "9", "11", "27", "26", "33", "32", "33", "26", "27", "11", "2", "18", "15", "16", "16", "15", "14", "19", "21", "22"], "time": [7375, 7438, 9168, 12349, 12416, 12448, 12882, 14569, 17311, 18265, 18630, 22639, 24437, 24487, 24787, 24837, 25269, 31070, 31117, 31213, 31603, 34776]}, "edge": {"target": [], "time": []}}, "mouseout": {"state": {"target": ["1", "0", "4", "5", "9", "9", "11", "27", "26", "33", "32", "33", "26", "27", "11", "2", "18", "15", "16", "16", "15", "14", "19", "21", "22"], "time": [3245, 3591, 7405, 8836, 11621, 12333, 12366, 12432, 12498, 14064, 15247, 18080, 18399, 22327, 24404, 24453, 24520, 24803, 25074, 31054, 31099, 31147, 31313, 32200, 35310]}, "edge": {"target": [], "time": []}}}, "displayed_time": "39.81", "trialTime": 41936, "trial_type": "mouselab-mdp", "trial_index": 26, "time_elapsed": 980021, "internal_node_id": "0.0-4.0-1.0-17.0"}}, {"uniqueid": "w19374751:a41684262", "current_trial": 27, "dateTime": 1691142890004, "trialdata": {"revealed_states": [], "clicked_states": ["5", "9", "16", "17", "32", "33"], "num_clicks_accrued": [0, 0, 0, 0, 0, 0, 0, 0, 0, 0, 0, 0, 0], "stateRewards": ["", 1, 2, 3, 16, 63, -25, 16, -4, -14, 82, -66, -1, -3, -3, -11, -14, 19, 46, 3, -34, -82, 66, -2, -3, 4, -5, -63, 77, -37, -1, -45, -41, 84], "withholdReward": false, "trial_id": "mdp_trial_19", "block": "test", "trialIndex": 20, "score": 69.1, "costs": -12.9, "simulationMode": [null, null, null, null, null], "rewards": [-2, -3, 4, -1, 84], "path": ["0", "0", "23", "24", "25", "30", "33"], "rt": [24469, 221, 177, 501, 234], "actions": ["left", "left", "left", "down", "left"], "actionTimes": [31060, 31800, 32493, 33516, 34261], "queries": {"click": {"state": {"target": ["5", "9", "16", "17", "32", "33"], "time": [8544, 12049, 15552, 18749, 23281, 26616]}, "edge": {"target": [], "time": []}}, "mouseover": {"state": {"target": ["1", "2", "4", "5", "3", "9", "3", "4", "16", "15", "17", "14", "22", "24", "31", "32", "33", "25", "24", "23"], "time": [7367, 7703, 7800, 8100, 9950, 10931, 14378, 14400, 14843, 16826, 17425, 19374, 19539, 22558, 22604, 22918, 25667, 27066, 27099, 27182]}, "edge": {"target": [], "time": []}}, "mouseout": {"state": {"target": ["1", "2", "4", "5", "3", "9", "3", "4", "16", "15", "17", "14", "22", "24", "31", "32", "33", "25", "24"], "time": [7517, 7722, 8017, 9699, 10782, 14362, 14396, 14413, 16709, 17078, 19323, 19407, 19623, 22587, 22636, 23493, 26813, 27082, 27149]}, "edge": {"target": [], "time": []}}}, "displayed_time": "34.78", "trialTime": 37381, "trial_type": "mouselab-mdp", "trial_index": 27, "time_elapsed": 1017793, "internal_node_id": "0.0-4.0-1.0-18.0"}}, {"uniqueid": "w19374751:a41684262", "current_trial": 28, "dateTime": 1691142909660, "trialdata": {"revealed_states": [], "clicked_states": ["32", "5", "23", "30"], "num_clicks_accrued": [0, 0, 0, 0, 0, 0, 0, 0, 0, 0, 0, 0, 0], "stateRewards": ["", -2, 2, -2, -7, -50, -62, -45, 7, 36, -24, -72, -1, -1, 8, -1, -67, 20, -52, 2, 35, -50, 80, -1, 1, 6, -6, -70, 6, 88, 8, -47, 74, -19], "withholdReward": false, "trial_id": "mdp_trial_20", "block": "test", "trialIndex": 21, "score": 82.4, "costs": -5.6, "simulationMode": [null, null, null, null, null], "rewards": [-1, 1, 6, 8, 74], "path": ["0", "0", "23", "24", "25", "30", "32"], "rt": [11866, 83, 172, 425, 135], "actions": ["left", "left", "left", "down", "down"], "actionTimes": [13536, 14138, 14823, 15758, 16400], "queries": {"click": {"state": {"target": ["32", "5", "23", "30"], "time": [3519, 6842, 10270, 11861]}, "edge": {"target": [], "time": []}}, "mouseover": {"state": {"target": ["23", "30", "32", "30", "24", "28", "10", "3", "5", "3", "23", "24", "30", "24"], "time": [2470, 2797, 2962, 4196, 4236, 4276, 4325, 4442, 4826, 8672, 9554, 11270, 11440, 12567]}, "edge": {"target": [], "time": []}}, "mouseout": {"state": {"target": ["23", "1", "0", "23", "30", "32", "30", "24", "28", "10", "3", "5", "3", "23", "24", "30", "24"], "time": [665, 831, 1170, 2512, 2930, 4179, 4214, 4253, 4290, 4359, 4459, 8456, 9021, 11221, 11302, 12485, 12751]}, "edge": {"target": [], "time": []}}}, "displayed_time": "16.91", "trialTime": 19261, "trial_type": "mouselab-mdp", "trial_index": 28, "time_elapsed": 1037448, "internal_node_id": "0.0-4.0-1.0-19.0"}}, {"uniqueid": "w19374751:a41684262", "current_trial": 29, "dateTime": 1691142938069, "trialdata": {"revealed_states": [], "clicked_states": ["4", "5", "30", "32", "33", "31"], "num_clicks_accrued": [0, 0, 0, 0, 0, 0, 0, 0, 0, 0, 0, 0, 0], "stateRewards": ["", 1, 2, -5, 14, 54, -14, -25, 16, -5, -87, 78, -1, 1, 3, -3, 52, 53, 53, -10, 73, -69, -48, 2, 3, 1, 8, -62, -7, 85, 7, 82, 52, -28], "withholdReward": false, "trial_id": "mdp_trial_21", "block": "test", "trialIndex": 22, "score": 83.3, "costs": -11.700000000000001, "simulationMode": [null, null, null, null, null], "rewards": [2, 3, 1, 7, 82], "path": ["0", "0", "23", "24", "25", "30", "31"], "rt": [19856, 166, 197, 551, 124], "actions": ["left", "left", "left", "down", "right"], "actionTimes": [21753, 22439, 23153, 24224, 24862], "queries": {"click": {"state": {"target": ["4", "5", "30", "32", "33", "31"], "time": [3260, 4426, 8592, 9800, 14033, 18101]}, "edge": {"target": [], "time": []}}, "mouseover": {"state": {"target": ["1", "4", "2", "5", "3", "2", "24", "30", "32", "25", "25", "33", "31"], "time": [2575, 2690, 3792, 4007, 5022, 5123, 7954, 8203, 9367, 11049, 13220, 13487, 17745]}, "edge": {"target": [], "time": []}}, "mouseout": {"state": {"target": ["23", "1", "4", "2", "5", "3", "2", "24", "30", "32", "30", "25", "25", "33"], "time": [926, 2608, 3463, 3940, 4977, 5055, 7744, 8025, 9301, 10933, 10999, 11133, 13315, 14962]}, "edge": {"target": [], "time": []}}}, "displayed_time": "25.37", "trialTime": 28021, "trial_type": "mouselab-mdp", "trial_index": 29, "time_elapsed": 1065858, "internal_node_id": "0.0-4.0-1.0-20.0"}}, {"uniqueid": "w19374751:a41684262", "current_trial": 30, "dateTime": 1691142973053, "trialdata": {"revealed_states": [], "clicked_states": ["5", "6", "9", "33", "29", "27", "26", "25"], "num_clicks_accrued": [0, 0, 0, 0, 0, 0, 0, 0, 0, 0, 0, 0, 0], "stateRewards": ["", -2, 1, -8, 12, -65, -79, 16, 7, -80, -17, -45, -2, 2, -5, -2, -85, 23, -4, -7, 48, 27, -76, 2, 3, 5, 2, 43, 71, -13, 7, -49, 59, -31], "withholdReward": false, "trial_id": "mdp_trial_22", "block": "test", "trialIndex": 23, "score": 39.6, "costs": -15.4, "simulationMode": [null, null, null, null, null], "rewards": [2, 3, 5, 2, 43], "path": ["0", "0", "23", "24", "25", "26", "27"], "rt": [27038, 79, 164, 410, 110], "actions": ["left", "left", "left", "up", "up"], "actionTimes": [29220, 29822, 30504, 31434, 32050], "queries": {"click": {"state": {"target": ["5", "6", "9", "33", "29", "27", "26", "25"], "time": [4481, 7789, 11138, 14549, 17971, 21353, 25960, 27263]}, "edge": {"target": [], "time": []}}, "mouseover": {"state": {"target": ["4", "5", "6", "9", "11", "28", "30", "33", "26", "29", "27", "10", "16", "24", "25", "26", "25", "1"], "time": [3774, 3966, 5332, 9333, 11907, 11991, 12441, 14464, 16270, 17036, 20735, 22285, 23513, 25131, 25197, 25363, 26827, 28442]}, "edge": {"target": [], "time": []}}, "mouseout": {"state": {"target": ["31", "23", "4", "5", "6", "9", "11", "28", "30", "33", "26", "29", "27", "10", "16", "24", "25", "26", "25"], "time": [791, 1102, 3934, 5065, 9322, 11857, 11925, 12024, 12524, 15455, 16386, 18173, 22233, 22316, 25037, 25163, 25263, 26593, 27468]}, "edge": {"target": [], "time": []}}}, "displayed_time": "32.56", "trialTime": 34611, "trial_type": "mouselab-mdp", "trial_index": 30, "time_elapsed": 1100842, "internal_node_id": "0.0-4.0-1.0-21.0"}}, {"uniqueid": "w19374751:a41684262", "current_trial": 31, "dateTime": 1691142999548, "trialdata": {"revealed_states": [], "clicked_states": ["16", "21", "19", "14"], "num_clicks_accrued": [0, 0, 0, 0, 0, 0, 0, 0, 0, 0, 0, 0, 0], "stateRewards": ["", 2, 3, 3, 10, 19, -21, 6, 9, 54, 68, 16, 2, 2, -6, -8, 40, -2, -75, -2, -42, 55, 59, -1, 2, 4, -14, 11, -34, -30, -6, 61, -53, 13], "withholdReward": false, "trial_id": "mdp_trial_23", "block": "test", "trialIndex": 24, "score": 23.2, "costs": -6.8, "simulationMode": [null, null, null, null, null], "rewards": [2, 2, -6, -8, 40], "path": ["0", "0", "12", "13", "14", "15", "16"], "rt": [17997, 45, 401, 510, 617], "actions": ["right", "right", "right", "up", "up"], "actionTimes": [19059, 19614, 20551, 21577, 22704], "queries": {"click": {"state": {"target": ["16", "21", "19", "14"], "time": [2482, 5887, 11437, 13555]}, "edge": {"target": [], "time": []}}, "mouseover": {"state": {"target": ["18", "16", "15", "21", "19", "19", "14", "13", "18", "13", "18", "16", "15"], "time": [1608, 2009, 3367, 4199, 7878, 11065, 12524, 14389, 15088, 15621, 16020, 16136, 16386]}, "edge": {"target": [], "time": []}}, "mouseout": {"state": {"target": ["1", "0", "18", "16", "15", "21", "19", "19", "14", "13", "18", "13", "18", "16"], "time": [null, 808, 1751, 3317, 3417, 6103, 7979, 11640, 14357, 14439, 15323, 15969, 16036, 16271]}, "edge": {"target": [], "time": []}}}, "displayed_time": "23.21", "trialTime": 24823, "trial_type": "mouselab-mdp", "trial_index": 31, "time_elapsed": 1127337, "internal_node_id": "0.0-4.0-1.0-22.0"}}, {"uniqueid": "w19374751:a41684262", "current_trial": 32, "dateTime": 1691143026340, "trialdata": {"revealed_states": [], "clicked_states": ["8", "5", "9", "16", "33"], "num_clicks_accrued": [0, 0, 0, 0, 0, 0, 0, 0, 0, 0, 0, 0, 0], "stateRewards": ["", 2, 3, 6, -5, -74, -53, 17, -12, 46, 44, 18, -2, 4, 1, -8, 22, -23, -49, 9, -45, 55, 81, 1, -1, -7, -16, -83, -71, -45, 2, 51, 82, 61], "withholdReward": false, "trial_id": "mdp_trial_24", "block": "test", "trialIndex": 25, "score": 45.85, "costs": -10.15, "simulationMode": [null, null, null, null, null], "rewards": [1, -1, -7, 2, 61], "path": ["0", "0", "23", "24", "25", "30", "33"], "rt": [19038, 78, 147, 327, 141], "actions": ["left", "left", "left", "down", "left"], "actionTimes": [20895, 21484, 22154, 22999, 23678], "queries": {"click": {"state": {"target": ["8", "5", "9", "16", "33"], "time": [3373, 5200, 9051, 13100, 17013]}, "edge": {"target": [], "time": []}}, "mouseover": {"state": {"target": ["1", "2", "8", "3", "5", "3", "4", "4", "9", "3", "4", "16", "23", "30", "33"], "time": [2497, 2607, 2930, 4472, 4643, 6486, 6569, 8354, 8624, 10515, 12438, 12618, 15194, 16330, 16633]}, "edge": {"target": [], "time": []}}, "mouseout": {"state": {"target": ["15", "18", "1", "2", "8", "3", "5", "5", "3", "4", "4", "9", "9", "3", "4", "16", "23", "30", "33"], "time": [680, 811, 2540, 2706, 4372, 4540, 5414, 6020, 6502, 6623, 8387, 9261, 10249, 10600, 12466, 15044, 15261, 16497, 20190]}, "edge": {"target": [], "time": []}}}, "displayed_time": "24.19", "trialTime": 26429, "trial_type": "mouselab-mdp", "trial_index": 32, "time_elapsed": 1154129, "internal_node_id": "0.0-4.0-1.0-23.0"}}, {"uniqueid": "w19374751:a41684262", "current_trial": 33, "dateTime": 1691143052302, "trialdata": {"revealed_states": [], "clicked_states": ["33", "5", "9", "3", "2", "4"], "num_clicks_accrued": [0, 0, 0, 0, 0, 0, 0, 0, 0, 0, 0, 0, 0], "stateRewards": ["", 1, -1, 1, 13, 31, -56, 72, 2, 41, 5, 63, -2, -3, -2, 3, -71, -26, 52, 13, -31, 24, -67, 2, -2, 5, 4, 66, 43, 72, 9, 86, -26, 44], "withholdReward": false, "trial_id": "mdp_trial_25", "block": "test", "trialIndex": 26, "score": 35.7, "costs": -9.299999999999999, "simulationMode": [null, null, null, null, null], "rewards": [1, -1, 1, 13, 31], "path": ["0", "0", "1", "2", "3", "4", "5"], "rt": [17071, 43, 101, 331, 306], "actions": ["up", "up", "up", "right", "up"], "actionTimes": [20079, 20643, 21252, 22097, 22922], "queries": {"click": {"state": {"target": ["33", "5", "9", "3", "2", "4"], "time": [4224, 8680, 12078, 15510, 16997, 18772]}, "edge": {"target": [], "time": []}}, "mouseover": {"state": {"target": ["23", "24", "33", "25", "28", "10", "3", "4", "5", "5", "9", "8", "3", "2", "1", "4"], "time": [3516, 3569, 3748, 7012, 7148, 7331, 7447, 7527, 7765, 8302, 10778, 14388, 14605, 16520, 17935, 18252]}, "edge": {"target": [], "time": []}}, "mouseout": {"state": {"target": ["25", "24", "23", "23", "24", "33", "25", "28", "10", "3", "4", "5", "5", "9", "8", "3", "2", "1", "4", "4"], "time": [1922, 2001, 2218, 3550, 3581, 4420, 7060, 7246, 7378, 7478, 7681, 7814, 10641, 14238, 14422, 16387, 17869, 18191, 18976, 19551]}, "edge": {"target": [], "time": []}}}, "displayed_time": "23.43", "trialTime": 25578, "trial_type": "mouselab-mdp", "trial_index": 33, "time_elapsed": 1180091, "internal_node_id": "0.0-4.0-1.0-24.0"}}, {"uniqueid": "w19374751:a41684262", "current_trial": 34, "dateTime": 1691143080863, "trialdata": {"revealed_states": [], "clicked_states": ["1", "5", "9", "11", "33", "27"], "num_clicks_accrued": [0, 0, 0, 0, 0, 0, 0, 0, 0, 0, 0, 0, 0], "stateRewards": ["", 1, -3, -4, -11, -56, 61, -47, -16, -28, -9, 69, -2, -3, -4, -8, 40, -86, 59, -4, 80, 27, 54, -1, 3, -1, 8, 67, 23, 50, 6, 83, -43, -29], "withholdReward": false, "trial_id": "mdp_trial_26", "block": "test", "trialIndex": 27, "score": 65.5, "costs": -10.5, "simulationMode": [null, null, null, null, null], "rewards": [-1, 3, -1, 8, 67], "path": ["0", "0", "23", "24", "25", "26", "27"], "rt": [21666, 45, 87, 261, 20], "actions": ["left", "left", "left", "up", "up"], "actionTimes": [23348, 23906, 24530, 25304, 25849], "queries": {"click": {"state": {"target": ["1", "5", "9", "11", "33", "27"], "time": [3427, 4974, 8284, 11839, 15782, 19326]}, "edge": {"target": [], "time": []}}, "mouseover": {"state": {"target": ["1", "2", "5", "9", "11", "26", "25", "33", "25", "26", "27"], "time": [2683, 4279, 4429, 7093, 11406, 14989, 15121, 15323, 18332, 18432, 18750]}, "edge": {"target": [], "time": []}}, "mouseout": {"state": {"target": ["2", "1", "1", "2", "5", "9", "11", "26", "25", "33", "25", "26"], "time": [672, 915, 4262, 4312, 6676, 11156, 14553, 15072, 15140, 18232, 18365, 18581]}, "edge": {"target": [], "time": []}}}, "displayed_time": "26.37", "trialTime": 28177, "trial_type": "mouselab-mdp", "trial_index": 34, "time_elapsed": 1208651, "internal_node_id": "0.0-4.0-1.0-25.0"}}, {"uniqueid": "w19374751:a41684262", "current_trial": 35, "dateTime": 1691143116254, "trialdata": {"revealed_states": [], "clicked_states": ["5", "6", "16", "9", "11", "27", "33"], "num_clicks_accrued": [0, 0, 0, 0, 0, 0, 0, 0, 0, 0, 0, 0, 0], "stateRewards": ["", -1, 4, 3, 12, -27, 34, -33, 3, -63, 1, 6, 2, 2, -6, -11, -77, -85, 68, -6, 51, 81, -60, -2, -2, 1, 15, 20, 15, 68, -10, -14, 6, -4], "withholdReward": false, "trial_id": "mdp_trial_27", "block": "test", "trialIndex": 28, "score": 36.95, "costs": -15.05, "simulationMode": [null, null, null, null, null], "rewards": [-1, 4, 3, 12, 34], "path": ["0", "0", "1", "2", "3", "4", "6"], "rt": [27557, 20, 65, 200, 54], "actions": ["up", "up", "up", "right", "right"], "actionTimes": [29359, 29898, 30486, 31208, 31778], "queries": {"click": {"state": {"target": ["5", "6", "16", "9", "11", "27", "33"], "time": [3328, 6607, 9908, 14694, 18194, 21532, 25600]}, "edge": {"target": [], "time": []}}, "mouseover": {"state": {"target": ["1", "2", "4", "5", "6", "16", "13", "12", "7", "4", "3", "9", "11", "27", "26", "25", "30", "33"], "time": [2553, 2600, 2685, 2864, 5940, 7327, 13245, 13605, 13739, 13839, 14172, 14322, 17802, 20765, 24652, 24779, 25043, 25297]}, "edge": {"target": [], "time": []}}, "mouseout": {"state": {"target": ["27", "28", "23", "1", "2", "4", "5", "5", "6", "16", "16", "13", "12", "7", "4", "3", "9", "9", "11", "11", "27", "26", "25", "30"], "time": [733, 848, 1034, 2584, 2615, 2832, 3528, 5563, 7161, 10106, 12606, 13572, 13623, 13775, 14128, 14222, 14894, 17151, 18406, 20664, 24186, 24683, 24927, 25062]}, "edge": {"target": [], "time": []}}}, "displayed_time": "32.30", "trialTime": 35034, "trial_type": "mouselab-mdp", "trial_index": 35, "time_elapsed": 1244044, "internal_node_id": "0.0-4.0-1.0-26.0"}}, {"uniqueid": "w19374751:a41684262", "current_trial": 36, "dateTime": 1691143150862, "trialdata": {"revealed_states": [], "clicked_states": ["5", "21", "16", "32", "27", "33", "31"], "num_clicks_accrued": [0, 0, 0, 0, 0, 0, 0, 0, 0, 0, 0, 0, 0], "stateRewards": ["", 2, -2, 7, -11, -76, -65, -23, 16, -58, 30, 81, 1, 2, 7, 14, 9, 55, -2, 6, 11, -15, 31, -1, -1, -3, 2, 15, 2, 46, 15, 18, 45, -34], "withholdReward": false, "trial_id": "mdp_trial_28", "block": "test", "trialIndex": 29, "score": 39.95, "costs": -15.05, "simulationMode": [null, null, null, null, null], "rewards": [-1, -1, -3, 15, 45], "path": ["0", "0", "23", "24", "25", "30", "32"], "rt": [25816, 577, 286, 520, 165], "actions": ["left", "left", "left", "down", "down"], "actionTimes": [27920, 29019, 29826, 30856, 31532], "queries": {"click": {"state": {"target": ["5", "21", "16", "32", "27", "33", "31"], "time": [3980, 7287, 10598, 13916, 17500, 21183, 24624]}, "edge": {"target": [], "time": []}}, "mouseover": {"state": {"target": ["1", "4", "5", "7", "13", "22", "21", "12", "18", "15", "16", "1", "23", "31", "32", "30", "27", "33", "31"], "time": [2893, 3248, 3594, 4975, 5162, 5444, 6440, 9587, 9670, 9703, 9870, 11135, 11168, 11252, 11602, 16413, 16780, 20778, 24096]}, "edge": {"target": [], "time": []}}, "mouseout": {"state": {"target": ["33", "25", "23", "0", "1", "4", "5", "7", "13", "22", "21", "12", "18", "15", "16", "1", "23", "31", "32", "30", "27", "27", "33"], "time": [827, 943, 1227, 2843, 2927, 3311, 4891, 5012, 5427, 5492, 7498, 9604, 9686, 9737, 11086, 11152, 11218, 11284, 16380, 16446, 17699, 20261, 21382]}, "edge": {"target": [], "time": []}}}, "displayed_time": "32.05", "trialTime": 34220, "trial_type": "mouselab-mdp", "trial_index": 36, "time_elapsed": 1278651, "internal_node_id": "0.0-4.0-1.0-27.0"}}, {"uniqueid": "w19374751:a41684262", "current_trial": 37, "dateTime": 1691143177865, "trialdata": {"revealed_states": [], "clicked_states": ["9", "5", "27", "32", "25", "26", "23"], "num_clicks_accrued": [0, 0, 0, 0, 0, 0, 0, 0, 0, 0, 0, 0, 0], "stateRewards": ["", 1, 3, 1, -13, 52, -28, 67, -14, 3, 63, -70, -1, -4, 7, -11, -10, 47, -18, 6, 69, -9, -61, 2, 3, -6, 10, 63, -34, 40, -6, -79, -35, -32], "withholdReward": false, "trial_id": "mdp_trial_29", "block": "test", "trialIndex": 30, "score": 61.15, "costs": -10.85, "simulationMode": [null, null, null, null, null], "rewards": [2, 3, -6, 10, 63], "path": ["0", "0", "23", "24", "25", "26", "27"], "rt": [19204, 162, 251, 234, 79], "actions": ["left", "left", "left", "up", "up"], "actionTimes": [20897, 21573, 22341, 23091, 23684], "queries": {"click": {"state": {"target": ["9", "5", "27", "32", "25", "26", "23"], "time": [3109, 6499, 9761, 13099, 16344, 18071, 19700]}, "edge": {"target": [], "time": []}}, "mouseover": {"state": {"target": ["1", "3", "9", "5", "3", "8", "27", "27", "26", "25", "30", "32", "30", "24", "25", "24", "26", "24", "23"], "time": [2359, 2496, 2657, 5771, 7138, 7170, 7287, 7553, 10267, 10334, 10450, 10749, 14746, 15078, 15378, 17343, 17611, 18842, 19140]}, "edge": {"target": [], "time": []}}, "mouseout": {"state": {"target": ["31", "23", "1", "3", "9", "5", "3", "8", "27", "27", "26", "25", "30", "32", "30", "24", "25", "24", "26", "24"], "time": [580, 660, 2391, 2591, 5471, 7120, 7154, 7186, 7436, 10251, 10300, 10400, 10583, 13307, 14781, 15294, 17176, 17562, 18675, 19074]}, "edge": {"target": [], "time": []}}}, "displayed_time": "24.22", "trialTime": 26604, "trial_type": "mouselab-mdp", "trial_index": 37, "time_elapsed": 1305653, "internal_node_id": "0.0-4.0-1.0-28.0"}}, {"uniqueid": "w19374751:a41684262", "current_trial": 38, "dateTime": 1691143196995, "trialdata": {"revealed_states": [], "clicked_states": ["9", "6", "3", "8"], "num_clicks_accrued": [0, 0, 0, 0, 0, 0, 0, 0, 0, 0, 0, 0, 0], "stateRewards": ["", -2, -3, 8, -4, -30, 31, 69, 9, 66, 87, 64, -2, 2, 8, 5, 47, 16, -39, -8, -54, 51, -19, 1, -2, -2, -11, -25, -26, 43, -9, 19, -84, 86], "withholdReward": false, "trial_id": "mdp_trial_30", "block": "test", "trialIndex": 31, "score": 71.2, "costs": -6.8, "simulationMode": [null, null, null, null, null], "rewards": [-2, -3, 8, 9, 66], "path": ["0", "0", "1", "2", "3", "8", "9"], "rt": [11253, 94, 176, 378, 163], "actions": ["up", "up", "up", "left", "up"], "actionTimes": [13043, 13664, 14377, 15263, 15948], "queries": {"click": {"state": {"target": ["9", "6", "3", "8"], "time": [3124, 6461, 10389, 12035]}, "edge": {"target": [], "time": []}}, "mouseover": {"state": {"target": ["1", "2", "3", "9", "5", "6", "4", "3", "8"], "time": [2385, 2431, 2456, 2747, 5043, 5460, 8973, 9590, 11658]}, "edge": {"target": [], "time": []}}, "mouseout": {"state": {"target": ["23", "1", "2", "3", "9", "5", "6", "4", "3"], "time": [684, 2412, 2446, 2511, 4827, 5143, 8857, 9239, 11436]}, "edge": {"target": [], "time": []}}}, "displayed_time": "16.47", "trialTime": 18733, "trial_type": "mouselab-mdp", "trial_index": 38, "time_elapsed": 1324783, "internal_node_id": "0.0-4.0-1.0-29.0"}}, {"uniqueid": "w19374751:a41684262", "current_trial": 39, "dateTime": 1691143221328, "trialdata": {"revealed_states": [], "clicked_states": ["25", "27", "32", "9"], "num_clicks_accrued": [0, 0, 0, 0, 0, 0, 0, 0, 0, 0, 0, 0, 0], "stateRewards": ["", 2, 1, -3, 7, 46, 11, -36, 16, 71, 5, 1, 2, -2, -8, -3, -4, 6, 55, 7, 68, -54, 2, 1, 1, 6, -6, 42, -4, -84, -11, -65, 63, 25], "withholdReward": false, "trial_id": "mdp_trial_31", "block": "test", "trialIndex": 32, "score": 79.6, "costs": -7.4, "simulationMode": [null, null, null, null, null], "rewards": [2, 1, -3, 16, 71], "path": ["0", "0", "1", "2", "3", "8", "9"], "rt": [15293, 67, 148, 288, 272], "actions": ["up", "up", "up", "left", "up"], "actionTimes": [16975, 17555, 18221, 19026, 19811], "queries": {"click": {"state": {"target": ["25", "27", "32", "9"], "time": [3236, 4677, 7950, 12222]}, "edge": {"target": [], "time": []}}, "mouseover": {"state": {"target": ["0", "23", "24", "25", "26", "27", "26", "30", "32", "30", "24", "28", "10", "8", "9", "3"], "time": [2308, 2355, 2485, 2867, 4100, 4201, 5383, 5782, 6499, 10829, 10976, 11458, 11562, 11644, 11727, 16273]}, "edge": {"target": [], "time": []}}, "mouseout": {"state": {"target": ["8", "1", "0", "23", "24", "25", "26", "27", "26", "25", "30", "32", "30", "24", "28", "10", "8", "9", "9"], "time": [620, 921, 2339, 2402, 2702, 4068, 4150, 5333, 5467, 5700, 6232, 8152, 10848, 11435, 11472, 11598, 11677, 12420, 16212]}, "edge": {"target": [], "time": []}}}, "displayed_time": "20.32", "trialTime": 23925, "trial_type": "mouselab-mdp", "trial_index": 39, "time_elapsed": 1349117, "internal_node_id": "0.0-4.0-1.0-30.0"}}, {"uniqueid": "w19374751:a41684262", "current_trial": 40, "dateTime": 1691143244475, "trialdata": {"revealed_states": [], "clicked_states": ["11", "32", "5", "25"], "num_clicks_accrued": [0, 0, 0, 0, 0, 0, 0, 0, 0, 0, 0, 0, 0], "stateRewards": ["", 1, 1, -5, 10, -31, 73, 14, -8, -23, 63, -70, -1, 2, 8, 7, 25, -59, 27, -10, -40, -71, -15, -2, 3, -8, -5, -19, 77, -34, 7, 67, 63, 19], "withholdReward": false, "trial_id": "mdp_trial_32", "block": "test", "trialIndex": 33, "score": 55.6, "costs": -7.3999999999999995, "simulationMode": [null, null, null, null, null], "rewards": [-2, 3, -8, 7, 63], "path": ["0", "0", "23", "24", "25", "30", "32"], "rt": [15976, 134, 227, 318, 36], "actions": ["left", "left", "left", "down", "down"], "actionTimes": [17829, 18472, 19214, 20039, 20588], "queries": {"click": {"state": {"target": ["11", "32", "5", "25"], "time": [3444, 6791, 10136, 13432]}, "edge": {"target": [], "time": []}}, "mouseover": {"state": {"target": ["1", "8", "11", "27", "26", "32", "30", "28", "9", "5", "28", "25", "25", "31", "31", "24"], "time": [2568, 2858, 3069, 4067, 4086, 4566, 7598, 7647, 7714, 8246, 10827, 10927, 11210, 14007, 15805, 15906]}, "edge": {"target": [], "time": []}}, "mouseout": {"state": {"target": ["3", "2", "1", "0", "1", "8", "11", "27", "26", "32", "30", "28", "9", "5", "28", "25", "25", "31", "31", "24", "23"], "time": [725, 869, 1056, 2518, 2586, 2988, 4051, 4084, 4100, 7563, 7613, 7663, 7766, 10677, 10843, 11010, 13957, 14023, 15838, 21943, 22017]}, "edge": {"target": [], "time": []}}}, "displayed_time": "21.10", "trialTime": 22762, "trial_type": "mouselab-mdp", "trial_index": 40, "time_elapsed": 1372264, "internal_node_id": "0.0-4.0-1.0-31.0"}}, {"uniqueid": "w19374751:a41684262", "current_trial": 41, "dateTime": 1691143290136, "trialdata": {"revealed_states": [], "clicked_states": ["5", "21", "31", "27", "9", "10", "32", "33", "29", "28"], "num_clicks_accrued": [0, 0, 0, 0, 0, 0, 0, 0, 0, 0, 0, 0, 0], "stateRewards": ["", 2, 2, 3, -15, 23, -14, 73, -7, -32, -20, -6, 1, 1, -5, -12, 73, 6, -84, 11, -81, -57, 13, -2, -1, -4, -8, -52, -58, 49, 13, 5, -41, -41], "withholdReward": false, "trial_id": "mdp_trial_33", "block": "test", "trialIndex": 34, "score": 12.5, "costs": -21.499999999999996, "simulationMode": [null, null, null, null, null], "rewards": [-2, -1, -4, -8, 49], "path": ["0", "0", "23", "24", "25", "26", "29"], "rt": [38506, 148, 148, 303, 34], "actions": ["left", "left", "left", "up", "left"], "actionTimes": [40265, 40924, 41590, 42411, 42959], "queries": {"click": {"state": {"target": ["5", "21", "31", "27", "9", "10", "32", "33", "29", "28"], "time": [3255, 6557, 10537, 14357, 17727, 21410, 25621, 29409, 33576, 37129]}, "edge": {"target": [], "time": []}}, "mouseover": {"state": {"target": ["1", "4", "5", "3", "2", "22", "21", "31", "30", "26", "27", "11", "9", "8", "10", "24", "30", "32", "33", "25", "26", "29", "26", "28"], "time": [2511, 2666, 2780, 4310, 4328, 4826, 5144, 10157, 12752, 13789, 13867, 16482, 16881, 18329, 18596, 24222, 24724, 25206, 28904, 30986, 32771, 33166, 34713, 34913]}, "edge": {"target": [], "time": []}}, "mouseout": {"state": {"target": ["0", "1", "4", "5", "3", "2", "22", "21", "31", "30", "26", "27", "11", "9", "8", "10", "24", "30", "32", "33", "25", "26", "29", "26"], "time": [2467, 2545, 2697, 4276, 4326, 4376, 4876, 9005, 10749, 13400, 13834, 16417, 16498, 18296, 18464, 23625, 24272, 25130, 27139, 29601, 31067, 32851, 34664, 34797]}, "edge": {"target": [], "time": []}}}, "displayed_time": "43.47", "trialTime": 45289, "trial_type": "mouselab-mdp", "trial_index": 41, "time_elapsed": 1417925, "internal_node_id": "0.0-4.0-1.0-32.0"}}, {"uniqueid": "w19374751:a41684262", "current_trial": 42, "dateTime": 1691143311859, "trialdata": {"revealed_states": [], "clicked_states": ["5", "6", "9", "4", "1"], "num_clicks_accrued": [0, 0, 0, 0, 0, 0, 0, 0, 0, 0, 0, 0, 0], "stateRewards": ["", 1, 2, -3, 6, -88, 74, -45, 7, -46, 40, -77, 1, -4, 4, 3, 22, -25, -59, 8, -83, 19, -60, -1, -1, -1, -8, 26, -29, 64, -7, -88, -51, -55], "withholdReward": false, "trial_id": "mdp_trial_34", "block": "test", "trialIndex": 35, "score": 72.25, "costs": -7.749999999999999, "simulationMode": [null, null, null, null, null], "rewards": [1, 2, -3, 6, 74], "path": ["0", "0", "1", "2", "3", "4", "6"], "rt": [14289, 75, 113, 226, 76], "actions": ["up", "up", "up", "right", "right"], "actionTimes": [15987, 16574, 17196, 17945, 18544], "queries": {"click": {"state": {"target": ["5", "6", "9", "4", "1"], "time": [3232, 6577, 9913, 13192, 14745]}, "edge": {"target": [], "time": []}}, "mouseover": {"state": {"target": ["1", "2", "5", "4", "6", "4", "3", "9", "3", "2", "3", "4", "2", "1"], "time": [2419, 2466, 2846, 3994, 4327, 7091, 7190, 7623, 11170, 11653, 12002, 12552, 13951, 14150]}, "edge": {"target": [], "time": []}}, "mouseout": {"state": {"target": ["28", "1", "1", "2", "5", "4", "6", "4", "3", "9", "9", "3", "2", "3", "4", "2", "1"], "time": [731, 832, 2455, 2495, 3960, 4077, 7074, 7141, 7224, 10143, 10986, 11536, 11936, 12302, 13694, 14017, 14948]}, "edge": {"target": [], "time": []}}}, "displayed_time": "19.06", "trialTime": 21307, "trial_type": "mouselab-mdp", "trial_index": 42, "time_elapsed": 1439647, "internal_node_id": "0.0-4.0-1.0-33.0"}}, {"uniqueid": "w19374751:a41684262", "current_trial": 43, "dateTime": 1691143331289, "trialdata": {"revealed_states": [], "clicked_states": ["11", "6", "5"], "num_clicks_accrued": [0, 0, 0, 0, 0, 0, 0, 0, 0, 0, 0, 0, 0], "stateRewards": ["", -1, 2, 7, 8, 75, 67, -11, 6, 52, -17, 38, -1, 4, -8, 14, 74, -37, -17, -12, 52, 55, 71, -2, -1, -5, 2, 21, 6, -88, -14, 64, -61, -47], "withholdReward": false, "trial_id": "mdp_trial_35", "block": "test", "trialIndex": 36, "score": 84.55, "costs": -6.449999999999999, "simulationMode": [null, null, null, null, null], "rewards": [-1, 2, 7, 8, 75], "path": ["0", "0", "1", "2", "3", "4", "5"], "rt": [12236, 95, 108, 386, 180], "actions": ["up", "up", "up", "right", "up"], "actionTimes": [13985, 14599, 15227, 16123, 16819], "queries": {"click": {"state": {"target": ["11", "6", "5"], "time": [3534, 6965, 10727]}, "edge": {"target": [], "time": []}}, "mouseover": {"state": {"target": ["11", "8", "3", "4", "6", "7", "5", "4"], "time": [3048, 4928, 5012, 5144, 5378, 8025, 9997, 11572]}, "edge": {"target": [], "time": []}}, "mouseout": {"state": {"target": ["1", "11", "8", "3", "4", "6", "7", "5", "5", "4"], "time": [832, 4911, 4978, 5078, 5278, 7910, 8259, 10929, 11406, 11622]}, "edge": {"target": [], "time": []}}}, "displayed_time": "17.34", "trialTime": 19011, "trial_type": "mouselab-mdp", "trial_index": 43, "time_elapsed": 1459078, "internal_node_id": "0.0-4.0-1.0-34.0"}}, {"uniqueid": "w19374751:a41684262", "current_trial": 44, "dateTime": 1691143353439, "trialdata": {"revealed_states": [], "clicked_states": ["5", "6", "7", "3"], "num_clicks_accrued": [0, 0, 0, 0, 0, 0, 0, 0, 0, 0, 0, 0, 0], "stateRewards": ["", -1, 1, 6, -6, 70, 66, 67, -16, -75, -35, 37, -1, 4, 4, -6, 47, -9, 63, 15, 21, -63, 13, 1, 3, -6, 10, 79, -29, 18, -15, 9, -67, -19], "withholdReward": false, "trial_id": "mdp_trial_36", "block": "test", "trialIndex": 37, "score": 62.6, "costs": -7.3999999999999995, "simulationMode": [null, null, null, null, null], "rewards": [-1, 1, 6, -6, 70], "path": ["0", "0", "1", "2", "3", "4", "5"], "rt": [13697, 106, 88, 414, 122], "actions": ["up", "up", "up", "right", "up"], "actionTimes": [16284, 16898, 17496, 18422, 19061], "queries": {"click": {"state": {"target": ["5", "6", "7", "3"], "time": [4098, 7303, 10696, 14031]}, "edge": {"target": [], "time": []}}, "mouseover": {"state": {"target": ["1", "4", "5", "5", "6", "7", "3", "2"], "time": [3361, 3397, 3423, 3710, 5635, 9830, 11829, 14826]}, "edge": {"target": [], "time": []}}, "mouseout": {"state": {"target": ["1", "1", "4", "5", "5", "5", "6", "7", "3", "2"], "time": [1822, 3383, 3411, 3437, 4298, 5285, 9598, 11546, 14759, 15511]}, "edge": {"target": [], "time": []}}}, "displayed_time": "19.58", "trialTime": 21754, "trial_type": "mouselab-mdp", "trial_index": 44, "time_elapsed": 1481228, "internal_node_id": "0.0-4.0-1.0-35.0"}}, {"uniqueid": "w19374751:a41684262", "current_trial": 45, "dateTime": 1691143375036, "trialdata": {"revealed_states": [], "clicked_states": ["11", "9", "10", "2"], "num_clicks_accrued": [0, 0, 0, 0, 0, 0, 0, 0, 0, 0, 0, 0, 0], "stateRewards": ["", -1, 1, -6, -1, 80, 23, 2, -11, 73, -81, 59, 1, 3, 5, -1, -26, 28, -3, 16, -59, -13, -50, -2, -2, 2, 15, -50, 86, 17, -4, 37, 35, 44], "withholdReward": false, "trial_id": "mdp_trial_37", "block": "test", "trialIndex": 38, "score": 49.2, "costs": -6.799999999999999, "simulationMode": [null, null, null, null, null], "rewards": [-1, 1, -6, -11, 73], "path": ["0", "0", "1", "2", "3", "8", "9"], "rt": [13474, 130, 163, 296, 169], "actions": ["up", "up", "up", "left", "up"], "actionTimes": [15784, 16428, 17104, 17920, 18608], "queries": {"click": {"state": {"target": ["11", "9", "10", "2"], "time": [4335, 7793, 11052, 14262]}, "edge": {"target": [], "time": []}}, "mouseover": {"state": {"target": ["10", "11", "8", "9", "3", "10", "3", "2"], "time": [3622, 3905, 6052, 6283, 9130, 10329, 11845, 12411]}, "edge": {"target": [], "time": []}}, "mouseout": {"state": {"target": ["2", "1", "0", "0", "10", "11", "8", "9", "9", "3", "10", "3"], "time": [659, 756, 974, 1340, 3639, 5484, 6101, 7988, 8881, 9947, 11745, 12194]}, "edge": {"target": [], "time": []}}}, "displayed_time": "19.12", "trialTime": 21172, "trial_type": "mouselab-mdp", "trial_index": 45, "time_elapsed": 1502825, "internal_node_id": "0.0-4.0-1.0-36.0"}}, {"uniqueid": "w19374751:a41684262", "current_trial": 46, "dateTime": 1691143399288, "trialdata": {"revealed_states": [], "clicked_states": ["16", "5", "9", "11", "8"], "num_clicks_accrued": [0, 0, 0, 0, 0, 0, 0, 0, 0, 0, 0, 0, 0], "stateRewards": ["", -1, 2, -7, -12, -62, 12, -13, 5, 77, -71, 83, 1, -4, 7, 15, -42, -87, -4, 5, -25, 44, 88, -1, 4, -5, -8, 14, 51, 8, -5, 83, -24, -19], "withholdReward": false, "trial_id": "mdp_trial_38", "block": "test", "trialIndex": 39, "score": 71.85, "costs": -10.15, "simulationMode": [null, null, null, null, null], "rewards": [-1, 2, -7, 5, 83], "path": ["0", "0", "1", "2", "3", "8", "11"], "rt": [16716, 14, 185, 483, 151], "actions": ["up", "up", "up", "left", "left"], "actionTimes": [18510, 19032, 19751, 20766, 21435], "queries": {"click": {"state": {"target": ["16", "5", "9", "11", "8"], "time": [3404, 6720, 9987, 13386, 16686]}, "edge": {"target": [], "time": []}}, "mouseover": {"state": {"target": ["18", "15", "16", "1", "3", "5", "8", "9", "11", "8", "8"], "time": [2616, 2666, 2956, 4517, 4746, 5180, 7544, 7867, 11273, 13888, 14414]}, "edge": {"target": [], "time": []}}, "mouseout": {"state": {"target": ["2", "1", "0", "18", "15", "16", "16", "1", "3", "5", "8", "9", "9", "11", "8", "8"], "time": [638, 838, 2344, 2634, 2787, 3622, 4370, 4630, 4763, 7462, 7611, 10193, 10957, 13577, 13937, 17568]}, "edge": {"target": [], "time": []}}}, "displayed_time": "21.95", "trialTime": 23857, "trial_type": "mouselab-mdp", "trial_index": 46, "time_elapsed": 1527076, "internal_node_id": "0.0-4.0-1.0-37.0"}}, {"uniqueid": "w19374751:a41684262", "current_trial": 47, "dateTime": 1691143428352, "trialdata": {"revealed_states": [], "clicked_states": ["9", "5", "32", "33", "29", "25", "24"], "num_clicks_accrued": [0, 0, 0, 0, 0, 0, 0, 0, 0, 0, 0, 0, 0], "stateRewards": ["", -2, -4, 2, 10, -17, 18, 73, 11, -32, 23, -13, -2, -4, 7, 12, -25, 66, -23, 15, 40, -76, -9, 1, 2, -7, -5, -20, 24, 3, -5, 16, -73, 70], "withholdReward": false, "trial_id": "mdp_trial_39", "block": "test", "trialIndex": 40, "score": 48.95, "costs": -12.049999999999999, "simulationMode": [null, null, null, null, null], "rewards": [1, 2, -7, -5, 70], "path": ["0", "0", "23", "24", "25", "30", "33"], "rt": [21685, 153, 195, 400, 130], "actions": ["left", "left", "left", "down", "left"], "actionTimes": [23560, 24246, 24955, 25876, 26521], "queries": {"click": {"state": {"target": ["9", "5", "32", "33", "29", "25", "24"], "time": [4780, 8121, 11322, 14595, 17784, 21005, 22357]}, "edge": {"target": [], "time": []}}, "mouseover": {"state": {"target": ["1", "2", "8", "9", "5", "3", "10", "28", "30", "32", "30", "33", "25", "26", "29", "25", "30", "25", "24"], "time": [4018, 4061, 4279, 4362, 6177, 8640, 8757, 9723, 9889, 9991, 11978, 12804, 15235, 15733, 16283, 18547, 18730, 19396, 21678]}, "edge": {"target": [], "time": []}}, "mouseout": {"state": {"target": ["1", "1", "2", "8", "9", "9", "5", "5", "3", "10", "28", "30", "32", "30", "33", "25", "26", "29", "25", "30", "25", "24", "25"], "time": [949, 4048, 4165, 4312, 4983, 5727, 8317, 8607, 8691, 9707, 9740, 9939, 11943, 12045, 15135, 15417, 16034, 18464, 18614, 19180, 21628, 22551, 22926]}, "edge": {"target": [], "time": []}}}, "displayed_time": "27.04", "trialTime": 28641, "trial_type": "mouselab-mdp", "trial_index": 47, "time_elapsed": 1556140, "internal_node_id": "0.0-4.0-1.0-38.0"}}, {"uniqueid": "w19374751:a41684262", "current_trial": 48, "dateTime": 1691143468036, "trialdata": {"revealed_states": [], "clicked_states": ["32", "33", "24", "25", "13", "16", "19", "21", "5", "9"], "num_clicks_accrued": [0, 0, 0, 0, 0, 0, 0, 0, 0, 0, 0, 0, 0], "stateRewards": ["", -1, 1, -1, 2, 19, 85, -18, 2, -3, -26, 36, 2, 4, 7, -9, -18, 70, 72, -5, 35, -20, -28, 1, -2, -4, -3, -59, -11, -63, -2, -72, 59, -69], "withholdReward": false, "trial_id": "mdp_trial_40", "block": "test", "trialIndex": 41, "score": -30.1, "costs": -16.1, "simulationMode": [null, null, null, null, null], "rewards": [2, 4, 7, -9, -18], "path": ["0", "0", "12", "13", "14", "15", "16"], "rt": [29744, 138, 31, 182, 508], "actions": ["right", "right", "right", "up", "up"], "actionTimes": [33594, 34239, 34779, 35479, 36507], "queries": {"click": {"state": {"target": ["32", "33", "24", "25", "13", "16", "19", "21", "5", "9"], "time": [5191, 8466, 11724, 13334, 15614, 16918, 20678, 21944, 25849, 29487]}, "edge": {"target": [], "time": []}}, "mouseover": {"state": {"target": ["23", "31", "30", "32", "30", "33", "25", "28", "23", "24", "25", "1", "13", "13", "15", "16", "15", "14", "19", "21", "22", "13", "7", "4", "5", "9", "9", "8", "2", "2", "7"], "time": [4328, 4394, 4544, 4748, 6076, 6177, 9041, 9174, 9574, 10189, 12872, 14102, 14503, 14784, 16217, 16383, 18981, 19979, 20181, 21545, 22759, 22812, 23592, 23708, 25393, 26855, 28673, 30118, 30352, 33034, 33050]}, "edge": {"target": [], "time": []}}, "mouseout": {"state": {"target": ["12", "23", "31", "30", "32", "30", "33", "25", "28", "23", "24", "25", "1", "13", "13", "15", "16", "15", "14", "19", "21", "22", "13", "7", "4", "5", "9", "9", "8", "2", "2", "7"], "time": [2913, 4347, 4428, 4560, 5820, 6143, 8679, 9074, 9323, 9584, 12787, 13802, 14185, 14570, 16116, 16300, 18848, 19712, 20115, 21428, 22152, 22809, 22826, 23642, 23809, 26555, 27322, 30053, 30136, 31102, 33048, 33065]}, "edge": {"target": [], "time": []}}}, "displayed_time": "37.01", "trialTime": 39255, "trial_type": "mouselab-mdp", "trial_index": 48, "time_elapsed": 1595825, "internal_node_id": "0.0-4.0-1.0-39.0"}}, {"uniqueid": "w19374751:a41684262", "current_trial": 49, "dateTime": 1691143552542, "trialdata": {"rt": 84492, "response": {"Q0": "$-2 to $2", "Q1": "$-32 to $32", "Q2": "$-88 to $88", "Q3": "The cost for clicking on nodes varied between nodes.", "Q4": "Slightly motivated"}, "question_order": [0, 1, 2, 3, 4], "trial_id": "final_quiz_control", "trial_type": "survey-multi-choice", "trial_index": 49, "time_elapsed": 1680331, "internal_node_id": "0.0-4.0-2.0"}}, {"uniqueid": "w19374751:a41684262", "current_trial": 50, "dateTime": 1691143748483, "trialdata": {"rt": 195780, "response": {"Q0": "I inspected the furthest nodes first, then the nodes at bifurcations to decide whether the high value at further node is worth it.", "Q1": "Yes. I then decided to check how the first step nodes are distributed then the last node so I can get as many points as possible", "Q2": "Difficult. I always struggled to not factor in what happened in the previous round while making decisions for the current"}, "trial_id": "self_report_control", "trial_type": "survey-text", "trial_index": 50, "time_elapsed": 1876273, "internal_node_id": "0.0-4.0-3.0"}}, {"uniqueid": "w19374751:a41684262", "current_trial": 51, "dateTime": 1691143805829, "trialdata": {"rt": 57333, "response": {"Q0": "Disagree", "Q1": "Disagree", "Q2": "Agree", "Q3": "Agree", "Q4": "Neither disagree nor agree", "Q5": "Agree", "Q6": "Disagree"}, "question_order": [0, 1, 2, 3, 4, 5, 6], "trial_id": "self_report_2", "trial_type": "survey-multi-choice", "trial_index": 51, "time_elapsed": 1933619, "internal_node_id": "0.0-4.0-4.0"}}, {"uniqueid": "w19374751:a41684262", "current_trial": 52, "dateTime": 1691143843268, "trialdata": {"rt": 37309, "response": {"gender": "male", "age": "23", "colorblind": "0", "effort": "0"}, "trial_type": "survey-html-form", "trial_index": 52, "time_elapsed": 1971058, "internal_node_id": "0.0-4.0-5.0"}}, {"uniqueid": "w19374751:a41684262", "current_trial": 53, "dateTime": 1691143863205, "trialdata": {"rt": 19898, "response": {"Q0": "No", "Q1": "No", "Q2": "None"}, "trial_type": "survey-text", "trial_index": 53, "time_elapsed": 1990994, "internal_node_id": "0.0-4.0-6.0"}}, {"uniqueid": "w19374751:a41684262", "current_trial": 54, "dateTime": 1691143869084, "trialdata": {"rt": 5762, "stimulus": "Press 'Finish HIT' in order to reach the completion code. Once the data has been saved, you will receive the code either in this window or in the original browser window where you started the experiment.\n", "response": 0, "trial_type": "html-button-response", "trial_index": 54, "time_elapsed": 1996874, "internal_node_id": "0.0-5.0"}}, {"uniqueid": "w19374751:a41684262", "current_trial": 55, "dateTime": 1691143870111, "trialdata": {"success": true, "trial_type": "fullscreen", "trial_index": 55, "time_elapsed": 1997900, "internal_node_id": "0.0-6.0"}}], "questiondata": {"params": {"CODE": "C6DMOQA6", "MIN_TIME": 14, "inspectCost": 1, "startTime": "Fri Aug 04 2023 11:37:50 GMT+0200 (South Africa Standard Time)", "bonusRate": 0.002, "variance": "1_2_4_8_44", "branching": "31123"}, "final_score": 2017.25}, "eventdata": [{"eventtype": "initialized", "value": null, "timestamp": 1691141870031, "interval": 0}, {"eventtype": "window_resize", "value": [1536, 766], "timestamp": 1691141870031, "interval": 0}, {"eventtype": "window_resize", "value": [1536, 766], "timestamp": 1691141870541, "interval": 510}, {"eventtype": "window_resize", "value": [1536, 864], "timestamp": 1691141876602, "interval": 6061}, {"eventtype": "window_resize", "value": [1536, 766], "timestamp": 1691143869395, "interval": 1992793}], "useragent": "Mozilla/5.0 (Windows NT 10.0; Win64; x64) AppleWebKit/537.36 (KHTML, like Gecko) Chrome/115.0.0.0 Safari/537.36", "mode": "live", "id": "w19374751:a41684262", "status": "user data saved", "Beginhit": "2023-08-04 09:37:47.46457", "Beginexp": "2023-08-04 09:37:57.498396", "Endhit": "2023-08-04 10:11:11.68082", "psiturkStatus": 3, "browser": "<redacted>", "platform": "windows", "language": "en-US"}