{"condition": 0, "counterbalance": 0, "assignmentId": "a91040769", "workerId": "w98151451", "hitId": "h61998089", "currenttrial": 67, "bonus": 0, "data": [{"uniqueid": "w98151451:a91040769", "current_trial": 0, "dateTime": 1693564759706, "trialdata": {"success": true, "trial_type": "fullscreen", "trial_index": 0, "time_elapsed": 7610, "internal_node_id": "0.0-0.0"}}, {"uniqueid": "w98151451:a91040769", "current_trial": 1, "dateTime": 1693564777867, "trialdata": {"view_history": [{"page_index": 0, "viewing_time": 18153}], "rt": 18154, "trial_id": "exp_instructions_control", "trial_type": "instructions", "trial_index": 1, "time_elapsed": 25771, "internal_node_id": "0.0-1.0"}}, {"uniqueid": "w98151451:a91040769", "current_trial": 2, "dateTime": 1693564935379, "trialdata": {"view_history": [{"page_index": 0, "viewing_time": 50491}, {"page_index": 1, "viewing_time": 63296}, {"page_index": 2, "viewing_time": 13821}, {"page_index": 3, "viewing_time": 29900}], "rt": 157508, "trial_id": "mouselab_instructions_1_control", "trial_type": "instructions", "trial_index": 2, "time_elapsed": 183283, "internal_node_id": "0.0-2.0-1.0"}}, {"uniqueid": "w98151451:a91040769", "current_trial": 3, "dateTime": 1693564958880, "trialdata": {"revealed_states": [], "clicked_states": [], "num_clicks_accrued": [0, 0, 0, 0, 0, 0, 0, 0, 0, 0, 0, 0, 0], "stateRewards": ["", 10, -10, 10, -10, -10, -10, 10, 10, 10, 10, -10, -10, -10, -10, 10, 10, 10, 10, 10, -10, 10, -10, -10, 10, 10, -10, 10, 10, -10, 10, -10, 10, 10], "withholdReward": false, "trial_id": "practice_1", "block": "test", "trialIndex": 0, "score": 13.5, "costs": 0, "simulationMode": [null, null, null, null, null], "rewards": [-10, 10, 10, -10, 10], "path": ["0", "0", "23", "24", "25", "26", "27"], "rt": [5494, 1472, 377, 191, 123], "actions": ["left", "left", "left", "up", "up"], "actionTimes": [11991, 13974, 14862, 15559, 16190], "queries": {"click": {"state": {"target": [], "time": []}, "edge": {"target": [], "time": []}}, "mouseover": {"state": {"target": [], "time": []}, "edge": {"target": [], "time": []}}, "mouseout": {"state": {"target": ["0"], "time": [7637]}, "edge": {"target": [], "time": []}}}, "displayed_time": "16.72", "trialTime": 22848, "trial_type": "mouselab-mdp", "trial_index": 3, "time_elapsed": 206783, "internal_node_id": "0.0-2.0-2.0-0.0"}}, {"uniqueid": "w98151451:a91040769", "current_trial": 4, "dateTime": 1693564971809, "trialdata": {"revealed_states": [], "clicked_states": [], "num_clicks_accrued": [0, 0, 0, 0, 0, 0, 0, 0, 0, 0, 0, 0, 0], "stateRewards": ["", -10, -10, -10, 10, -10, 10, 10, -10, 10, 10, 10, 10, -10, -10, -10, 10, -10, 10, 10, -10, -10, -10, -10, 10, -10, -10, -10, 10, 10, 10, -10, 10, -10], "withholdReward": false, "trial_id": "practice_2", "block": "test", "trialIndex": 1, "score": 13.5, "costs": 0, "simulationMode": [null, null, null, null, null], "rewards": [-10, 10, -10, 10, 10], "path": ["0", "0", "23", "24", "25", "30", "32"], "rt": [3746, 141, 114, 94, 125], "actions": ["left", "left", "left", "down", "down"], "actionTimes": [7564, 8233, 8855, 9470, 10100], "queries": {"click": {"state": {"target": [], "time": []}, "edge": {"target": [], "time": []}}, "mouseover": {"state": {"target": [], "time": []}, "edge": {"target": [], "time": []}}, "mouseout": {"state": {"target": ["0", "0", "0"], "time": [1938, 3036, 12102]}, "edge": {"target": [], "time": []}}}, "displayed_time": "10.63", "trialTime": 12702, "trial_type": "mouselab-mdp", "trial_index": 4, "time_elapsed": 219712, "internal_node_id": "0.0-2.0-2.0-1.0"}}, {"uniqueid": "w98151451:a91040769", "current_trial": 5, "dateTime": 1693565007881, "trialdata": {"view_history": [{"page_index": 0, "viewing_time": 26113}, {"page_index": 1, "viewing_time": 9954}], "rt": 36068, "trial_id": "mouselab_instructions_2_control", "trial_type": "instructions", "trial_index": 5, "time_elapsed": 255785, "internal_node_id": "0.0-2.0-3.0"}}, {"uniqueid": "w98151451:a91040769", "current_trial": 6, "dateTime": 1693565048723, "trialdata": {"rt": 40832, "response": {"Q0": "The cost for clicking on nodes may vary between nodes.", "Q1": "The better I perform the higher my bonus will be.", "Q2": "No, the structure of the web will be different each time.", "Q3": "To click on the least number of nodes.", "Q4": "Only before moving the spider.", "Q5": "3 seconds"}, "question_order": [0, 1, 2, 3, 4, 5], "correct": {"Q0": "The cost for clicking on nodes may vary between nodes.", "Q1": "The better I perform the higher my bonus will be.", "Q2": "No, the amount of cash at each node of the web may be different each time.", "Q3": "To get the highest total score.", "Q4": "Only before moving the spider.", "Q5": "3 seconds"}, "trial_id": "mouselab_quiz_control", "trial_type": "survey-multi-choice", "trial_index": 6, "time_elapsed": 296627, "internal_node_id": "0.0-2.0-4.0"}}, {"uniqueid": "w98151451:a91040769", "current_trial": 7, "dateTime": 1693565059297, "trialdata": {"success": true, "trial_type": "fullscreen", "trial_index": 7, "time_elapsed": 307201, "internal_node_id": "0.0-2.1-0.1-0.1"}}, {"uniqueid": "w98151451:a91040769", "current_trial": 8, "dateTime": 1693565078205, "trialdata": {"view_history": [{"page_index": 0, "viewing_time": 10507}, {"page_index": 1, "viewing_time": 4207}, {"page_index": 2, "viewing_time": 2294}, {"page_index": 3, "viewing_time": 1895}], "rt": 18905, "trial_id": "mouselab_instructions_1_control", "trial_type": "instructions", "trial_index": 8, "time_elapsed": 326109, "internal_node_id": "0.0-2.1-1.1"}}, {"uniqueid": "w98151451:a91040769", "current_trial": 9, "dateTime": 1693565089526, "trialdata": {"revealed_states": [], "clicked_states": [], "num_clicks_accrued": [0, 0, 0, 0, 0, 0, 0, 0, 0, 0, 0, 0, 0], "stateRewards": ["", 10, -10, 10, -10, -10, -10, 10, 10, 10, 10, -10, -10, -10, -10, 10, 10, 10, 10, 10, -10, 10, -10, -10, 10, 10, -10, 10, 10, -10, 10, -10, 10, 10], "withholdReward": false, "trial_id": "practice_1", "block": "test", "trialIndex": 2, "score": 13.5, "costs": 0, "simulationMode": [null, null, null, null, null], "rewards": [-10, 10, 10, -10, 10], "path": ["0", "0", "23", "24", "25", "26", "27"], "rt": [2723, 304, 128, 25, 483], "actions": ["left", "left", "left", "up", "up"], "actionTimes": [6054, 6872, 7509, 8040, 9065], "queries": {"click": {"state": {"target": [], "time": []}, "edge": {"target": [], "time": []}}, "mouseover": {"state": {"target": [], "time": []}, "edge": {"target": [], "time": []}}, "mouseout": {"state": {"target": ["1", "12", "13", "22"], "time": [9712, 9793, 10092, 10512]}, "edge": {"target": [], "time": []}}}, "displayed_time": "9.57", "trialTime": 11065, "trial_type": "mouselab-mdp", "trial_index": 9, "time_elapsed": 337429, "internal_node_id": "0.0-2.1-2.1-0.1"}}, {"uniqueid": "w98151451:a91040769", "current_trial": 10, "dateTime": 1693565096528, "trialdata": {"revealed_states": [], "clicked_states": [], "num_clicks_accrued": [0, 0, 0, 0, 0, 0, 0, 0, 0, 0, 0, 0, 0], "stateRewards": ["", -10, -10, -10, 10, -10, 10, 10, -10, 10, 10, 10, 10, -10, -10, -10, 10, -10, 10, 10, -10, -10, -10, -10, 10, -10, -10, -10, 10, 10, 10, -10, 10, -10], "withholdReward": false, "trial_id": "practice_2", "block": "test", "trialIndex": 3, "score": 13.5, "costs": 0, "simulationMode": [null, null, null, null, null], "rewards": [-10, 10, -10, 10, 10], "path": ["0", "0", "23", "24", "25", "30", "32"], "rt": [561, 243, 637, 157, 68], "actions": ["left", "left", "left", "down", "down"], "actionTimes": [2209, 2960, 4103, 4759, 5335], "queries": {"click": {"state": {"target": [], "time": []}, "edge": {"target": [], "time": []}}, "mouseover": {"state": {"target": [], "time": []}, "edge": {"target": [], "time": []}}, "mouseout": {"state": {"target": [], "time": []}, "edge": {"target": [], "time": []}}}, "displayed_time": "5.85", "trialTime": 6736, "trial_type": "mouselab-mdp", "trial_index": 10, "time_elapsed": 344430, "internal_node_id": "0.0-2.1-2.1-1.1"}}, {"uniqueid": "w98151451:a91040769", "current_trial": 11, "dateTime": 1693565101257, "trialdata": {"view_history": [{"page_index": 0, "viewing_time": 2799}, {"page_index": 1, "viewing_time": 1925}], "rt": 4724, "trial_id": "mouselab_instructions_2_control", "trial_type": "instructions", "trial_index": 11, "time_elapsed": 349161, "internal_node_id": "0.0-2.1-3.1"}}, {"uniqueid": "w98151451:a91040769", "current_trial": 12, "dateTime": 1693565129951, "trialdata": {"rt": 28688, "response": {"Q0": "The cost for clicking on nodes may vary between nodes.", "Q1": "The better I perform the higher my bonus will be.", "Q2": "No, the structure of the web will be different each time.", "Q3": "To get the highest total score.", "Q4": "Only before moving the spider.", "Q5": "3 seconds"}, "question_order": [0, 1, 2, 3, 4, 5], "correct": {"Q0": "The cost for clicking on nodes may vary between nodes.", "Q1": "The better I perform the higher my bonus will be.", "Q2": "No, the amount of cash at each node of the web may be different each time.", "Q3": "To get the highest total score.", "Q4": "Only before moving the spider.", "Q5": "3 seconds"}, "trial_id": "mouselab_quiz_control", "trial_type": "survey-multi-choice", "trial_index": 12, "time_elapsed": 377855, "internal_node_id": "0.0-2.1-4.1"}}, {"uniqueid": "w98151451:a91040769", "current_trial": 13, "dateTime": 1693565135931, "trialdata": {"success": true, "trial_type": "fullscreen", "trial_index": 13, "time_elapsed": 383835, "internal_node_id": "0.0-2.2-0.2-0.2"}}, {"uniqueid": "w98151451:a91040769", "current_trial": 14, "dateTime": 1693565166144, "trialdata": {"view_history": [{"page_index": 0, "viewing_time": 9496}, {"page_index": 1, "viewing_time": 10019}, {"page_index": 2, "viewing_time": 4817}, {"page_index": 3, "viewing_time": 5878}], "rt": 30210, "trial_id": "mouselab_instructions_1_control", "trial_type": "instructions", "trial_index": 14, "time_elapsed": 414048, "internal_node_id": "0.0-2.2-1.2"}}, {"uniqueid": "w98151451:a91040769", "current_trial": 15, "dateTime": 1693565174377, "trialdata": {"revealed_states": [], "clicked_states": [], "num_clicks_accrued": [0, 0, 0, 0, 0, 0, 0, 0, 0, 0, 0, 0, 0], "stateRewards": ["", 10, -10, 10, -10, -10, -10, 10, 10, 10, 10, -10, -10, -10, -10, 10, 10, 10, 10, 10, -10, 10, -10, -10, 10, 10, -10, 10, 10, -10, 10, -10, 10, 10], "withholdReward": false, "trial_id": "practice_1", "block": "test", "trialIndex": 4, "score": 13.5, "costs": 0, "simulationMode": [null, null, null, null, null], "rewards": [-10, 10, 10, -10, 10], "path": ["0", "0", "23", "24", "25", "26", "27"], "rt": [315, 391, 52, 2, 404], "actions": ["left", "left", "left", "up", "up"], "actionTimes": [2956, 3863, 4421, 4936, 5873], "queries": {"click": {"state": {"target": [], "time": []}, "edge": {"target": [], "time": []}}, "mouseover": {"state": {"target": [], "time": []}, "edge": {"target": [], "time": []}}, "mouseout": {"state": {"target": ["0", "0"], "time": [6928, 6969]}, "edge": {"target": [], "time": []}}}, "displayed_time": "6.39", "trialTime": 7810, "trial_type": "mouselab-mdp", "trial_index": 15, "time_elapsed": 422279, "internal_node_id": "0.0-2.2-2.2-0.2"}}, {"uniqueid": "w98151451:a91040769", "current_trial": 16, "dateTime": 1693565180303, "trialdata": {"revealed_states": [], "clicked_states": [], "num_clicks_accrued": [0, 0, 0, 0, 0, 0, 0, 0, 0, 0, 0, 0, 0], "stateRewards": ["", -10, -10, -10, 10, -10, 10, 10, -10, 10, 10, 10, 10, -10, -10, -10, 10, -10, 10, 10, -10, -10, -10, -10, 10, -10, -10, -10, 10, 10, 10, -10, 10, -10], "withholdReward": false, "trial_id": "practice_2", "block": "test", "trialIndex": 5, "score": 13.5, "costs": 0, "simulationMode": [null, null, null, null, null], "rewards": [-10, 10, -10, 10, 10], "path": ["0", "0", "23", "24", "25", "30", "32"], "rt": [335, 87, 208, 334, 2], "actions": ["left", "left", "left", "down", "down"], "actionTimes": [1502, 2104, 2823, 3681, 4201], "queries": {"click": {"state": {"target": [], "time": []}, "edge": {"target": [], "time": []}}, "mouseover": {"state": {"target": [], "time": []}, "edge": {"target": [], "time": []}}, "mouseout": {"state": {"target": ["12"], "time": [627]}, "edge": {"target": [], "time": []}}}, "displayed_time": "4.73", "trialTime": 5532, "trial_type": "mouselab-mdp", "trial_index": 16, "time_elapsed": 428207, "internal_node_id": "0.0-2.2-2.2-1.2"}}, {"uniqueid": "w98151451:a91040769", "current_trial": 17, "dateTime": 1693565193848, "trialdata": {"view_history": [{"page_index": 0, "viewing_time": 11324}, {"page_index": 1, "viewing_time": 2214}], "rt": 13539, "trial_id": "mouselab_instructions_2_control", "trial_type": "instructions", "trial_index": 17, "time_elapsed": 441752, "internal_node_id": "0.0-2.2-3.2"}}, {"uniqueid": "w98151451:a91040769", "current_trial": 18, "dateTime": 1693565216741, "trialdata": {"rt": 22887, "response": {"Q0": "The cost for clicking on nodes may vary between nodes.", "Q1": "The better I perform the higher my bonus will be.", "Q2": "No, the amount of cash at each node of the web may be different each time.", "Q3": "To get the highest total score.", "Q4": "Only before moving the spider.", "Q5": "3 seconds"}, "question_order": [0, 1, 2, 3, 4, 5], "correct": {"Q0": "The cost for clicking on nodes may vary between nodes.", "Q1": "The better I perform the higher my bonus will be.", "Q2": "No, the amount of cash at each node of the web may be different each time.", "Q3": "To get the highest total score.", "Q4": "Only before moving the spider.", "Q5": "3 seconds"}, "trial_id": "mouselab_quiz_control", "trial_type": "survey-multi-choice", "trial_index": 18, "time_elapsed": 464645, "internal_node_id": "0.0-2.2-4.2"}}, {"uniqueid": "w98151451:a91040769", "current_trial": 19, "dateTime": 1693565220929, "trialdata": {"rt": 4174, "response": {"Q0": "No"}, "question_order": [0], "trial_id": "repeat_check", "trial_type": "survey-multi-choice", "trial_index": 19, "time_elapsed": 468832, "internal_node_id": "0.0-4.0-0.0"}}, {"uniqueid": "w98151451:a91040769", "current_trial": 20, "dateTime": 1693565235956, "trialdata": {"rt": 15016, "stimulus": "\n<h1> Get ready to start the game! </h1>\n\nThank you for reading the instructions. Get ready start with the 40 rounds of this game.\n<br><br>\nIf you need to take a break, feel free to take one after the end of a round, before continuing to the next one.\n<br><br>\nRemember, the more money the spider gets, the bigger your bonus will be!\n<br><br>\n<div style='text-align: center;'>Press <code>space</code> to begin.</div>\n\n<br><br>\n(If, at any point, the <code>space</code> key does not take you to the next page, click once on the text and try again.)", "response": " ", "trial_id": "mdp_ready", "trial_type": "html-keyboard-response", "trial_index": 20, "time_elapsed": 483860, "internal_node_id": "0.0-6.0-0.0"}}, {"uniqueid": "w98151451:a91040769", "current_trial": 21, "dateTime": 1693565258237, "trialdata": {"revealed_states": [], "clicked_states": [], "num_clicks_accrued": [0, 0, 0, 0, 0, 0, 0, 0, 0, 0, 0, 0, 0], "stateRewards": ["", -1, 1, -6, -1, 80, 23, 2, -11, 73, -81, 59, 1, 3, 5, -1, -26, 28, -3, 16, -59, -13, -50, -2, -2, 2, 15, -50, 86, 17, -4, 37, 35, 44], "withholdReward": false, "trial_id": "mdp_trial_1", "block": "test", "trialIndex": 6, "score": -18, "costs": 0, "simulationMode": [null, null, null, null, null], "rewards": [1, 3, 5, -1, -26], "path": ["0", "0", "12", "13", "14", "15", "16"], "rt": [3070, 281, 214, 107, 30], "actions": ["right", "right", "right", "up", "up"], "actionTimes": [6742, 7541, 8272, 8899, 9455], "queries": {"click": {"state": {"target": [], "time": []}, "edge": {"target": [], "time": []}}, "mouseover": {"state": {"target": [], "time": []}, "edge": {"target": [], "time": []}}, "mouseout": {"state": {"target": ["5", "4", "1", "0", "0", "0"], "time": [667, 735, 968, 1718, 2768, 11639]}, "edge": {"target": [], "time": []}}}, "displayed_time": "17.67", "trialTime": 22010, "trial_type": "mouselab-mdp", "trial_index": 21, "time_elapsed": 506140, "internal_node_id": "0.0-6.0-1.0-0.0"}}, {"uniqueid": "w98151451:a91040769", "current_trial": 22, "dateTime": 1693565278229, "trialdata": {"revealed_states": [], "clicked_states": [], "num_clicks_accrued": [0, 0, 0, 0, 0, 0, 0, 0, 0, 0, 0, 0, 0], "stateRewards": ["", 1, -3, -4, -11, -56, 61, -47, -16, -28, -9, 69, -2, -3, -4, -8, 40, -86, 59, -4, 80, 27, 54, -1, 3, -1, 8, 67, 23, 50, 6, 83, -43, -29], "withholdReward": false, "trial_id": "mdp_trial_2", "block": "test", "trialIndex": 7, "score": -64, "costs": 0, "simulationMode": [null, null, null, null, null], "rewards": [1, -3, -4, -11, -47], "path": ["0", "0", "1", "2", "3", "4", "7"], "rt": [7994, 1274, 214, 151, 112], "actions": ["up", "up", "up", "right", "down"], "actionTimes": [12163, 13953, 14692, 15363, 15992], "queries": {"click": {"state": {"target": [], "time": []}, "edge": {"target": [], "time": []}}, "mouseover": {"state": {"target": [], "time": []}, "edge": {"target": [], "time": []}}, "mouseout": {"state": {"target": ["1", "0", "0", "0", "1", "18"], "time": [727, 1506, 2490, 17306, 17422, 18805]}, "edge": {"target": [], "time": []}}}, "displayed_time": "18.17", "trialTime": 19609, "trial_type": "mouselab-mdp", "trial_index": 22, "time_elapsed": 526132, "internal_node_id": "0.0-6.0-1.0-1.0"}}, {"uniqueid": "w98151451:a91040769", "current_trial": 23, "dateTime": 1693565296474, "trialdata": {"revealed_states": [], "clicked_states": [], "num_clicks_accrued": [0, 0, 0, 0, 0, 0, 0, 0, 0, 0, 0, 0, 0], "stateRewards": ["", -1, -3, 1, 13, -64, -29, 12, -4, -33, 50, 56, 2, -3, 4, 11, -64, -58, -55, 12, 47, 38, -25, -2, 2, 5, -15, 85, 7, 84, 10, 8, 57, 26], "withholdReward": false, "trial_id": "mdp_trial_3", "block": "test", "trialIndex": 8, "score": 75, "costs": 0, "simulationMode": [null, null, null, null, null], "rewards": [-2, 2, 5, -15, 85], "path": ["0", "0", "23", "24", "25", "26", "27"], "rt": [3089, 2170, 68, 109, 605], "actions": ["left", "left", "left", "up", "up"], "actionTimes": [5452, 8148, 8730, 9355, 10467], "queries": {"click": {"state": {"target": [], "time": []}, "edge": {"target": [], "time": []}}, "mouseover": {"state": {"target": ["0"], "time": [3804]}, "edge": {"target": [], "time": []}}, "mouseout": {"state": {"target": ["18", "12", "0", "0"], "time": [405, 1223, 1782, 3839]}, "edge": {"target": [], "time": []}}}, "displayed_time": "16.36", "trialTime": 17921, "trial_type": "mouselab-mdp", "trial_index": 23, "time_elapsed": 544377, "internal_node_id": "0.0-6.0-1.0-2.0"}}, {"uniqueid": "w98151451:a91040769", "current_trial": 24, "dateTime": 1693565314381, "trialdata": {"revealed_states": [], "clicked_states": [], "num_clicks_accrued": [0, 0, 0, 0, 0, 0, 0, 0, 0, 0, 0, 0, 0], "stateRewards": ["", -1, -2, -1, -10, -57, 73, -72, -16, 75, -14, -46, -2, -3, -7, -1, -61, -60, 76, -4, 50, 4, 14, 2, 2, -7, 12, -65, -32, 15, -8, -76, -25, -61], "withholdReward": false, "trial_id": "mdp_trial_4", "block": "test", "trialIndex": 9, "score": -73, "costs": 0, "simulationMode": [null, null, null, null, null], "rewards": [-2, -3, -7, -1, -60], "path": ["0", "0", "12", "13", "14", "15", "17"], "rt": [227, 713, 4787, 155, 1244], "actions": ["right", "right", "right", "up", "right"], "actionTimes": [2293, 3535, 8838, 9506, 11278], "queries": {"click": {"state": {"target": [], "time": []}, "edge": {"target": [], "time": []}}, "mouseover": {"state": {"target": [], "time": []}, "edge": {"target": [], "time": []}}, "mouseout": {"state": {"target": ["0", "12", "13", "14", "14"], "time": [5464, 5545, 7395, 7479, 14429]}, "edge": {"target": [], "time": []}}}, "displayed_time": "16.07", "trialTime": 17518, "trial_type": "mouselab-mdp", "trial_index": 24, "time_elapsed": 562285, "internal_node_id": "0.0-6.0-1.0-3.0"}}, {"uniqueid": "w98151451:a91040769", "current_trial": 25, "dateTime": 1693565334242, "trialdata": {"revealed_states": [], "clicked_states": [], "num_clicks_accrued": [0, 0, 0, 0, 0, 0, 0, 0, 0, 0, 0, 0, 0], "stateRewards": ["", 1, -1, 8, 4, 76, -33, -17, -3, -1, -54, -74, -2, 2, -5, 13, -51, 63, 83, 1, 84, 29, -36, 2, -1, 7, -12, -10, -44, -43, -14, 8, -69, 19], "withholdReward": false, "trial_id": "mdp_trial_5", "block": "test", "trialIndex": 10, "score": 13, "costs": 0, "simulationMode": [null, null, null, null, null], "rewards": [2, -1, 7, -14, 19], "path": ["0", "0", "23", "24", "25", "30", "33"], "rt": [1819, 2763, 322, 339, 84], "actions": ["left", "left", "left", "down", "left"], "actionTimes": [5742, 9022, 9861, 10710, 11313], "queries": {"click": {"state": {"target": [], "time": []}, "edge": {"target": [], "time": []}}, "mouseover": {"state": {"target": [], "time": []}, "edge": {"target": [], "time": []}}, "mouseout": {"state": {"target": ["13", "0"], "time": [970, 15289]}, "edge": {"target": [], "time": []}}}, "displayed_time": "17.92", "trialTime": 19503, "trial_type": "mouselab-mdp", "trial_index": 25, "time_elapsed": 582145, "internal_node_id": "0.0-6.0-1.0-4.0"}}, {"uniqueid": "w98151451:a91040769", "current_trial": 26, "dateTime": 1693565352944, "trialdata": {"revealed_states": [], "clicked_states": [], "num_clicks_accrued": [0, 0, 0, 0, 0, 0, 0, 0, 0, 0, 0, 0, 0], "stateRewards": ["", -1, -3, 4, -10, -5, 79, -87, -2, 53, 29, -20, -2, -1, -5, 10, 27, 86, 46, -16, -29, 40, 3, 2, 4, -1, -6, 37, 79, -29, 7, 86, -62, 29], "withholdReward": false, "trial_id": "mdp_trial_6", "block": "test", "trialIndex": 11, "score": 51, "costs": 0, "simulationMode": [null, null, null, null, null], "rewards": [-1, -3, 4, -2, 53], "path": ["0", "0", "1", "2", "3", "8", "9"], "rt": [3824, 1704, 483, 669, 374], "actions": ["up", "up", "up", "left", "up"], "actionTimes": [6737, 8951, 9950, 11136, 12025], "queries": {"click": {"state": {"target": [], "time": []}, "edge": {"target": [], "time": []}}, "mouseover": {"state": {"target": [], "time": []}, "edge": {"target": [], "time": []}}, "mouseout": {"state": {"target": ["0", "0"], "time": [14028, 14679]}, "edge": {"target": [], "time": []}}}, "displayed_time": "16.91", "trialTime": 18397, "trial_type": "mouselab-mdp", "trial_index": 26, "time_elapsed": 600847, "internal_node_id": "0.0-6.0-1.0-5.0"}}, {"uniqueid": "w98151451:a91040769", "current_trial": 27, "dateTime": 1693565371741, "trialdata": {"revealed_states": [], "clicked_states": [], "num_clicks_accrued": [0, 0, 0, 0, 0, 0, 0, 0, 0, 0, 0, 0, 0], "stateRewards": ["", 2, 4, -3, 16, -58, 30, -35, 11, -60, 47, 27, -2, -1, -7, -16, 23, -70, 68, -10, -65, -43, -34, -2, 1, 7, 9, -63, 34, -31, -8, -12, -86, 59], "withholdReward": false, "trial_id": "mdp_trial_7", "block": "test", "trialIndex": 12, "score": -54, "costs": 0, "simulationMode": [null, null, null, null, null], "rewards": [-2, -1, -7, -10, -34], "path": ["0", "0", "12", "13", "14", "19", "22"], "rt": [529, 123, 496, 343, 122], "actions": ["right", "right", "right", "down", "left"], "actionTimes": [3701, 4349, 5369, 6235, 6880], "queries": {"click": {"state": {"target": [], "time": []}, "edge": {"target": [], "time": []}}, "mouseover": {"state": {"target": [], "time": []}, "edge": {"target": [], "time": []}}, "mouseout": {"state": {"target": ["0", "0", "1", "13", "0", "1", "18", "13"], "time": [2735, 9403, 9435, 9685, 10970, 11035, 11169, 11756]}, "edge": {"target": [], "time": []}}}, "displayed_time": "17.17", "trialTime": 18370, "trial_type": "mouselab-mdp", "trial_index": 27, "time_elapsed": 619644, "internal_node_id": "0.0-6.0-1.0-6.0"}}, {"uniqueid": "w98151451:a91040769", "current_trial": 28, "dateTime": 1693565389332, "trialdata": {"revealed_states": [], "clicked_states": [], "num_clicks_accrued": [0, 0, 0, 0, 0, 0, 0, 0, 0, 0, 0, 0, 0], "stateRewards": ["", -1, 2, -6, 6, 43, 78, 78, -2, 55, -29, -17, -2, -4, 1, -15, 13, 7, -79, 8, -28, -68, 36, -1, -3, 3, -16, 84, -18, 87, 10, 32, 13, -81], "withholdReward": false, "trial_id": "mdp_trial_8", "block": "test", "trialIndex": 13, "score": -24, "costs": 0, "simulationMode": [null, null, null, null, null], "rewards": [-1, 2, -6, -2, -17], "path": ["0", "0", "1", "2", "3", "8", "11"], "rt": [373, 63, 299, 3862, 191], "actions": ["up", "up", "up", "left", "left"], "actionTimes": [2733, 3326, 4145, 8526, 9250], "queries": {"click": {"state": {"target": [], "time": []}, "edge": {"target": [], "time": []}}, "mouseover": {"state": {"target": [], "time": []}, "edge": {"target": [], "time": []}}, "mouseout": {"state": {"target": ["18", "13", "12", "0"], "time": [1441, 1756, 1823, 7424]}, "edge": {"target": [], "time": []}}}, "displayed_time": "16.36", "trialTime": 17250, "trial_type": "mouselab-mdp", "trial_index": 28, "time_elapsed": 637235, "internal_node_id": "0.0-6.0-1.0-7.0"}}, {"uniqueid": "w98151451:a91040769", "current_trial": 29, "dateTime": 1693565412149, "trialdata": {"revealed_states": [], "clicked_states": [], "num_clicks_accrued": [0, 0, 0, 0, 0, 0, 0, 0, 0, 0, 0, 0, 0], "stateRewards": ["", 2, 4, 7, -6, -76, -81, 2, 5, -66, -3, 36, -2, -4, 6, -2, -69, 4, -49, -6, 67, 38, -67, 2, 1, 1, 6, -68, -21, 52, -16, -16, 6, -70], "withholdReward": false, "trial_id": "mdp_trial_9", "block": "test", "trialIndex": 14, "score": 62, "costs": 0, "simulationMode": [null, null, null, null, null], "rewards": [2, 1, 1, 6, 52], "path": ["0", "0", "23", "24", "25", "26", "29"], "rt": [886, 95, 149, 378, 211], "actions": ["left", "left", "left", "up", "left"], "actionTimes": [3930, 4544, 5217, 6115, 6843], "queries": {"click": {"state": {"target": [], "time": []}, "edge": {"target": [], "time": []}}, "mouseover": {"state": {"target": [], "time": []}, "edge": {"target": [], "time": []}}, "mouseout": {"state": {"target": ["0", "0", "10", "10", "0"], "time": [2612, 8928, 9077, 9278, 9329]}, "edge": {"target": [], "time": []}}}, "displayed_time": "17.05", "trialTime": 22407, "trial_type": "mouselab-mdp", "trial_index": 29, "time_elapsed": 660052, "internal_node_id": "0.0-6.0-1.0-8.0"}}, {"uniqueid": "w98151451:a91040769", "current_trial": 30, "dateTime": 1693565430036, "trialdata": {"revealed_states": [], "clicked_states": [], "num_clicks_accrued": [0, 0, 0, 0, 0, 0, 0, 0, 0, 0, 0, 0, 0], "stateRewards": ["", -2, 2, 8, -6, -25, 3, 87, 2, -62, -2, 74, -2, -1, 2, -1, 79, 49, -37, -14, 5, 67, -9, -1, 2, -2, 5, 15, 38, 32, -14, -38, -38, 30], "withholdReward": false, "trial_id": "mdp_trial_10", "block": "test", "trialIndex": 15, "score": 42, "costs": 0, "simulationMode": [null, null, null, null, null], "rewards": [-1, 2, -2, 5, 38], "path": ["0", "0", "23", "24", "25", "26", "28"], "rt": [6025, 1201, 54, 26, 7], "actions": ["left", "left", "left", "up", "right"], "actionTimes": [7536, 9247, 9820, 10370, 10919], "queries": {"click": {"state": {"target": [], "time": []}, "edge": {"target": [], "time": []}}, "mouseover": {"state": {"target": [], "time": []}, "edge": {"target": [], "time": []}}, "mouseout": {"state": {"target": ["0", "0"], "time": [15941, 16457]}, "edge": {"target": [], "time": []}}}, "displayed_time": "15.51", "trialTime": 17424, "trial_type": "mouselab-mdp", "trial_index": 30, "time_elapsed": 677939, "internal_node_id": "0.0-6.0-1.0-9.0"}}, {"uniqueid": "w98151451:a91040769", "current_trial": 31, "dateTime": 1693565449843, "trialdata": {"revealed_states": [], "clicked_states": ["1", "12", "23", "26", "27"], "num_clicks_accrued": [0, 0, 0, 0, 0, 0, 0, 0, 0, 0, 0, 0, 0], "stateRewards": ["", -1, -4, -3, 1, -45, -67, -24, 14, 32, 22, 22, -1, 1, -5, -7, 72, 84, -79, -5, 19, -40, -2, -1, -2, 8, -3, 84, -25, -28, 11, 64, -66, 77], "withholdReward": false, "trial_id": "mdp_trial_11", "block": "test", "trialIndex": 16, "score": 21, "costs": -7, "simulationMode": [null, null, null, null, null, null], "rewards": [-1, -4, -3, 14, 22], "path": ["0", "0", "1", "2", "3", "8", "11"], "rt": [4011, 6464, 1375, 112, 367, 287], "actions": ["left", "up", "up", "up", "left", "left"], "actionTimes": [5728, 12198, 14085, 14722, 15611, 16414], "queries": {"click": {"state": {"target": ["1", "12", "23", "26", "27"], "time": [2203, 4281, 6505, 8627, 10364]}, "edge": {"target": [], "time": []}}, "mouseover": {"state": {"target": ["1", "23", "12", "23", "24", "26", "27", "10", "7", "17"], "time": [2005, 2907, 4091, 4956, 7026, 8489, 9627, 11382, 11408, 11445]}, "edge": {"target": [], "time": []}}, "mouseout": {"state": {"target": ["0", "0", "1", "23", "12", "23", "24", "26", "27", "10", "7", "17"], "time": [405, 1305, 2757, 3876, 4855, 6960, 8289, 8760, 11359, 11404, 11423, 11458]}, "edge": {"target": [], "time": []}}}, "displayed_time": "16.93", "trialTime": 19431, "trial_type": "mouselab-mdp", "trial_index": 31, "time_elapsed": 697746, "internal_node_id": "0.0-6.0-1.0-10.0"}}, {"uniqueid": "w98151451:a91040769", "current_trial": 32, "dateTime": 1693565466393, "trialdata": {"revealed_states": [], "clicked_states": ["3", "15", "12", "29"], "num_clicks_accrued": [0, 0, 0, 0, 0, 0, 0, 0, 0, 0, 0, 0, 0], "stateRewards": ["", -2, -3, 4, 1, 33, -53, 15, 9, -12, 61, -6, -2, 4, 6, -11, 47, -43, -7, -11, 46, 23, -28, -1, -1, 3, -10, 11, 76, -76, 10, 18, -38, 87], "withholdReward": false, "trial_id": "mdp_trial_12", "block": "test", "trialIndex": 17, "score": 27.4, "costs": -5.6, "simulationMode": [null, null, null, null, null, null], "rewards": [-2, -3, 4, 1, 33], "path": ["0", "0", "1", "2", "3", "4", "5"], "rt": [8047, 1072, 336, 90, 109, 170], "actions": ["up", "up", "up", "up", "right", "up"], "actionTimes": [9234, 10310, 11167, 11773, 12391, 13086], "queries": {"click": {"state": {"target": ["3", "15", "12", "29"], "time": [1997, 4537, 6513, 8143]}, "edge": {"target": [], "time": []}}, "mouseover": {"state": {"target": ["1", "2", "3", "15", "18", "15", "13", "12", "28", "26", "29", "27", "10", "2"], "time": [1544, 1644, 1760, 2463, 3254, 4211, 5028, 5116, 6980, 7039, 7409, 9843, 9976, 10128]}, "edge": {"target": [], "time": []}}, "mouseout": {"state": {"target": ["0", "1", "2", "3", "15", "18", "15", "13", "12", "28", "26", "29", "27", "10", "2"], "time": [876, 1562, 1694, 2385, 3232, 3627, 4964, 5060, 6880, 7020, 7146, 8276, 9874, 10027, 14098]}, "edge": {"target": [], "time": []}}}, "displayed_time": "15.19", "trialTime": 16137, "trial_type": "mouselab-mdp", "trial_index": 32, "time_elapsed": 714296, "internal_node_id": "0.0-6.0-1.0-11.0"}}, {"uniqueid": "w98151451:a91040769", "current_trial": 33, "dateTime": 1693565483660, "trialdata": {"revealed_states": [], "clicked_states": ["21", "27", "9", "5"], "num_clicks_accrued": [0, 0, 0, 0, 0, 0, 0, 0, 0, 0, 0, 0, 0], "stateRewards": ["", 2, -1, 5, 6, 10, 86, 55, 10, -45, 63, -71, 1, -2, 5, -8, -50, -72, 36, 15, 61, 12, 33, -1, -4, 6, 5, 79, -56, -21, -16, -87, 60, -81], "withholdReward": false, "trial_id": "mdp_trial_13", "block": "test", "trialIndex": 18, "score": 79.4, "costs": -5.6, "simulationMode": [null, null, null, null, null], "rewards": [-1, -4, 6, 5, 79], "path": ["0", "0", "23", "24", "25", "26", "27"], "rt": [10021, 266, 88, 4, 282], "actions": ["left", "left", "left", "up", "up"], "actionTimes": [12146, 12942, 13528, 14062, 14874], "queries": {"click": {"state": {"target": ["21", "27", "9", "5"], "time": [2959, 4814, 6427, 8449]}, "edge": {"target": [], "time": []}}, "mouseover": {"state": {"target": ["22", "19", "21", "22", "23", "28", "26", "27", "11", "9", "5", "4", "3", "5", "17", "15"], "time": [2452, 2551, 2769, 3380, 3423, 3505, 3708, 3870, 5202, 5273, 6988, 7319, 7374, 8270, 11101, 11200]}, "edge": {"target": [], "time": []}}, "mouseout": {"state": {"target": ["0", "0", "22", "19", "21", "22", "23", "28", "26", "27", "11", "9", "5", "4", "3", "5", "17", "15", "16", "15", "14", "19"], "time": [1500, 2370, 2485, 2701, 3364, 3399, 3456, 3690, 3726, 5151, 5220, 6903, 7253, 7350, 7393, 10720, 11186, 11234, 15618, 15970, 16002, 16035]}, "edge": {"target": [], "time": []}}}, "displayed_time": "16.13", "trialTime": 16846, "trial_type": "mouselab-mdp", "trial_index": 33, "time_elapsed": 731564, "internal_node_id": "0.0-6.0-1.0-12.0"}}, {"uniqueid": "w98151451:a91040769", "current_trial": 34, "dateTime": 1693565500444, "trialdata": {"revealed_states": [], "clicked_states": ["16", "32", "9", "21"], "num_clicks_accrued": [0, 0, 0, 0, 0, 0, 0, 0, 0, 0, 0, 0, 0], "stateRewards": ["", 1, -3, -6, -5, 47, 80, -29, 11, -71, 10, -29, -2, 3, -6, 12, 2, -78, -6, 8, 34, -16, -5, -1, 3, 3, -13, 84, -36, -62, -3, -27, 66, 15], "withholdReward": false, "trial_id": "mdp_trial_14", "block": "test", "trialIndex": 19, "score": 62.4, "costs": -5.6, "simulationMode": [null, null, null, null, null, null], "rewards": [-1, 3, 3, -3, 66], "path": ["0", "0", "23", "24", "25", "30", "32"], "rt": [6757, 335, 118, 35, 301, 10], "actions": ["left", "left", "left", "left", "down", "down"], "actionTimes": [8421, 8759, 9407, 9957, 10772, 11299], "queries": {"click": {"state": {"target": ["16", "32", "9", "21"], "time": [2461, 4550, 6073, 7591]}, "edge": {"target": [], "time": []}}, "mouseover": {"state": {"target": ["12", "13", "14", "15", "16", "23", "31", "30", "32", "10", "3", "3", "3", "9", "18", "14", "19", "21"], "time": [1867, 1966, 2018, 2099, 2282, 2866, 2889, 2910, 3184, 5002, 5085, 5185, 5336, 5771, 7068, 7098, 7261, 7378]}, "edge": {"target": [], "time": []}}, "mouseout": {"state": {"target": ["12", "12", "13", "14", "15", "16", "23", "31", "30", "32", "10", "3", "3", "3", "9", "9", "18", "14", "19", "21"], "time": [884, 1931, 1999, 2065, 2165, 2819, 2885, 2906, 2925, 4968, 5020, 5106, 5207, 5735, 6198, 7016, 7090, 7132, 7359, 12384]}, "edge": {"target": [], "time": []}}}, "displayed_time": "15.66", "trialTime": 16360, "trial_type": "mouselab-mdp", "trial_index": 34, "time_elapsed": 748347, "internal_node_id": "0.0-6.0-1.0-13.0"}}, {"uniqueid": "w98151451:a91040769", "current_trial": 35, "dateTime": 1693565517695, "trialdata": {"revealed_states": [], "clicked_states": ["32", "5", "9", "29", "17"], "num_clicks_accrued": [0, 0, 0, 0, 0, 0, 0, 0, 0, 0, 0, 0, 0], "stateRewards": ["", -1, 2, -2, 5, 80, -61, -27, 12, 44, -26, -75, -2, -4, 1, -16, 42, -49, -50, 4, -44, 2, 80, -2, -2, 5, -2, 59, 10, 24, 7, -48, -86, -44], "withholdReward": false, "trial_id": "mdp_trial_15", "block": "test", "trialIndex": 20, "score": 48, "costs": -7, "simulationMode": [null, null, null, null, null], "rewards": [-1, 2, -2, 12, 44], "path": ["0", "0", "1", "2", "3", "8", "9"], "rt": [10191, 126, 30, 227, 89], "actions": ["up", "up", "up", "left", "up"], "actionTimes": [11177, 11829, 12390, 13156, 13752], "queries": {"click": {"state": {"target": ["32", "5", "9", "29", "17"], "time": [2234, 3946, 5688, 7259, 9220]}, "edge": {"target": [], "time": []}}, "mouseover": {"state": {"target": ["23", "24", "25", "30", "32", "24", "5", "9", "11", "27", "29", "26", "18", "15", "17", "21", "22"], "time": [1458, 1490, 1558, 1740, 2008, 2560, 2635, 4379, 6109, 6180, 6413, 7678, 7760, 7789, 8061, 9996, 10636]}, "edge": {"target": [], "time": []}}, "mouseout": {"state": {"target": ["12", "23", "24", "25", "30", "32", "24", "5", "9", "11", "27", "29", "26", "18", "15", "17", "21", "22", "16", "17", "19"], "time": [573, 1473, 1524, 1707, 1825, 2543, 2578, 4260, 6080, 6162, 6358, 7657, 7698, 7773, 7975, 9794, 10616, 10653, 14774, 15442, 15807]}, "edge": {"target": [], "time": []}}}, "displayed_time": "14.99", "trialTime": 16871, "trial_type": "mouselab-mdp", "trial_index": 35, "time_elapsed": 765598, "internal_node_id": "0.0-6.0-1.0-14.0"}}, {"uniqueid": "w98151451:a91040769", "current_trial": 36, "dateTime": 1693565534553, "trialdata": {"revealed_states": [], "clicked_states": ["21", "16"], "num_clicks_accrued": [0, 0, 0, 0, 0, 0, 0, 0, 0, 0, 0, 0, 0], "stateRewards": ["", 2, -4, -8, -15, 71, -43, -41, 7, -17, 20, 67, -1, -1, -4, 6, 37, -24, -47, 9, 34, 57, 45, 1, 2, -4, -5, -23, 88, -5, 13, -40, 43, 44], "withholdReward": false, "trial_id": "mdp_trial_16", "block": "test", "trialIndex": 21, "score": 57.2, "costs": -2.8, "simulationMode": [null, null, null, null, null, null], "rewards": [-1, -1, -4, 9, 57], "path": ["0", "0", "12", "13", "14", "19", "21"], "rt": [3740, 275, 68, 485, 143, 202], "actions": ["right", "right", "right", "right", "down", "down"], "actionTimes": [5481, 5763, 6348, 7334, 7986, 8716], "queries": {"click": {"state": {"target": ["21", "16"], "time": [2416, 4107]}, "edge": {"target": [], "time": []}}, "mouseover": {"state": {"target": ["22", "19", "21", "19", "14", "15", "16", "17", "20", "19", "20"], "time": [1956, 2008, 2191, 2793, 2856, 2915, 3079, 4545, 4746, 4955, 5116]}, "edge": {"target": [], "time": []}}, "mouseout": {"state": {"target": ["0", "22", "19", "21", "19", "14", "15", "16", "16", "17", "20", "19", "20", "19", "12", "14", "19", "13", "19", "13", "18", "15", "14", "13", "12", "0"], "time": [1891, 1994, 2090, 2564, 2821, 2886, 2993, 4281, 4475, 4594, 4840, 5077, 9507, 9541, 9607, 10440, 10524, 13191, 13708, 13757, 13791, 13875, 14959, 15024, 16104, 16137]}, "edge": {"target": [], "time": []}}}, "displayed_time": "15.74", "trialTime": 16446, "trial_type": "mouselab-mdp", "trial_index": 36, "time_elapsed": 782456, "internal_node_id": "0.0-6.0-1.0-15.0"}}, {"uniqueid": "w98151451:a91040769", "current_trial": 37, "dateTime": 1693565551365, "trialdata": {"revealed_states": [], "clicked_states": [], "num_clicks_accrued": [0, 0, 0, 0, 0, 0, 0, 0, 0, 0, 0, 0, 0], "stateRewards": ["", -2, 1, -3, -16, -39, -52, 30, -7, -41, -59, 11, 2, 1, 8, 2, -11, -26, -42, -13, 87, -59, -48, -1, -1, -1, 16, -79, 31, 50, -1, -84, 34, -82], "withholdReward": false, "trial_id": "mdp_trial_17", "block": "test", "trialIndex": 22, "score": -88, "costs": 0, "simulationMode": [null, null, null, null, null], "rewards": [-1, -1, -1, -1, -84], "path": ["0", "0", "23", "24", "25", "30", "31"], "rt": [297, 123, 242, 375, 43], "actions": ["left", "left", "left", "down", "right"], "actionTimes": [1984, 2636, 3405, 4307, 4869], "queries": {"click": {"state": {"target": [], "time": []}, "edge": {"target": [], "time": []}}, "mouseover": {"state": {"target": [], "time": []}, "edge": {"target": [], "time": []}}, "mouseout": {"state": {"target": ["0", "0"], "time": [509, 1373]}, "edge": {"target": [], "time": []}}}, "displayed_time": "15.69", "trialTime": 16492, "trial_type": "mouselab-mdp", "trial_index": 37, "time_elapsed": 799268, "internal_node_id": "0.0-6.0-1.0-16.0"}}, {"uniqueid": "w98151451:a91040769", "current_trial": 38, "dateTime": 1693565567965, "trialdata": {"revealed_states": [], "clicked_states": ["9", "5", "21", "17", "18"], "num_clicks_accrued": [0, 0, 0, 0, 0, 0, 0, 0, 0, 0, 0, 0, 0], "stateRewards": ["", 2, 4, 4, -8, -36, -33, 38, 16, -51, 57, 57, 1, 3, 4, -6, 45, 68, 87, 1, 63, 24, -55, -2, 2, -6, -13, -63, -50, 8, 2, 80, 6, 60], "withholdReward": false, "trial_id": "mdp_trial_18", "block": "test", "trialIndex": 23, "score": 82, "costs": -7, "simulationMode": [null, null, null, null, null, null], "rewards": [1, 3, 4, -6, 87], "path": ["0", "0", "12", "13", "14", "15", "18"], "rt": [8301, 273, 189, 89, 369, 148], "actions": ["right", "right", "right", "right", "up", "left"], "actionTimes": [9871, 10150, 10852, 11485, 12382, 13047], "queries": {"click": {"state": {"target": ["9", "5", "21", "17", "18"], "time": [2152, 3836, 5540, 7381, 9256]}, "edge": {"target": [], "time": []}}, "mouseover": {"state": {"target": ["3", "9", "5", "18", "13", "22", "21", "17", "15", "18"], "time": [1592, 2009, 2494, 4175, 4216, 4243, 4560, 6185, 7743, 7877]}, "edge": {"target": [], "time": []}}, "mouseout": {"state": {"target": ["0", "3", "9", "5", "18", "13", "22", "21", "17", "15", "18", "13", "22"], "time": [441, 1641, 2430, 4143, 4196, 4239, 4260, 5877, 7710, 7809, 13761, 14358, 14376]}, "edge": {"target": [], "time": []}}}, "displayed_time": "15.57", "trialTime": 16228, "trial_type": "mouselab-mdp", "trial_index": 38, "time_elapsed": 815868, "internal_node_id": "0.0-6.0-1.0-17.0"}}, {"uniqueid": "w98151451:a91040769", "current_trial": 39, "dateTime": 1693565584353, "trialdata": {"revealed_states": [], "clicked_states": ["31", "11"], "num_clicks_accrued": [0, 0, 0, 0, 0, 0, 0, 0, 0, 0, 0, 0, 0], "stateRewards": ["", -2, 2, 5, -14, -56, 64, 84, -5, 52, 39, 85, -2, 1, 7, 8, 21, 29, -78, -9, -10, -69, 10, -2, -1, -7, 15, 72, 20, 41, -2, 52, 80, 22], "withholdReward": false, "trial_id": "mdp_trial_19", "block": "test", "trialIndex": 24, "score": 82.2, "costs": -2.8, "simulationMode": [null, null, null, null, null], "rewards": [-2, 2, 5, -5, 85], "path": ["0", "0", "1", "2", "3", "8", "11"], "rt": [6171, 322, 201, 230, 101], "actions": ["up", "up", "up", "left", "left"], "actionTimes": [7363, 8209, 8924, 9670, 10291], "queries": {"click": {"state": {"target": ["31", "11"], "time": [2736, 4491]}, "edge": {"target": [], "time": []}}, "mouseover": {"state": {"target": ["23", "31", "25", "25", "30", "32", "31", "8", "11", "8", "3", "4", "6"], "time": [1352, 1451, 1701, 1935, 2151, 2234, 2535, 3153, 3421, 5007, 5089, 5214, 5487]}, "edge": {"target": [], "time": []}}, "mouseout": {"state": {"target": ["0", "23", "31", "25", "25", "30", "32", "31", "8", "11", "8", "3", "4", "6", "18"], "time": [1317, 1385, 1517, 1767, 2118, 2203, 2384, 3068, 3175, 4972, 5051, 5194, 5237, 11468, 11586]}, "edge": {"target": [], "time": []}}}, "displayed_time": "15.19", "trialTime": 16025, "trial_type": "mouselab-mdp", "trial_index": 39, "time_elapsed": 832256, "internal_node_id": "0.0-6.0-1.0-18.0"}}, {"uniqueid": "w98151451:a91040769", "current_trial": 40, "dateTime": 1693565615606, "trialdata": {"revealed_states": [], "clicked_states": ["29", "27", "18", "21", "33", "31", "20", "5", "7", "11", "9", "6"], "num_clicks_accrued": [0, 0, 0, 0, 0, 0, 0, 0, 0, 0, 0, 0, 0], "stateRewards": ["", 1, 1, -6, -2, 7, 77, 3, 16, -16, 66, 31, -1, 3, -8, -6, 33, -50, -48, 7, -60, -66, 36, 2, -3, 3, -7, -12, -61, -79, -4, 8, 74, -70], "withholdReward": false, "trial_id": "mdp_trial_20", "block": "test", "trialIndex": 25, "score": 54.2, "costs": -16.8, "simulationMode": [null, null, null, null, null, null], "rewards": [1, 1, -6, -2, 77], "path": ["0", "0", "1", "2", "3", "4", "6"], "rt": [23387, 898, 6, 63, 77, 51], "actions": ["up", "up", "up", "up", "right", "right"], "actionTimes": [24701, 25607, 26142, 26713, 27311, 27884], "queries": {"click": {"state": {"target": ["29", "27", "18", "21", "33", "31", "20", "5", "7", "11", "9", "6"], "time": [2243, 4008, 5879, 7666, 10388, 12112, 14177, 15765, 17563, 20168, 21935, 23465]}, "edge": {"target": [], "time": []}}, "mouseover": {"state": {"target": ["23", "29", "27", "27", "10", "15", "17", "15", "18", "13", "19", "21", "32", "30", "33", "30", "31", "20", "20", "14", "6", "4", "5", "4", "7", "6", "4", "3", "8", "11", "11", "8", "9", "6"], "time": [1498, 1948, 2938, 3829, 4301, 4363, 4414, 5073, 5165, 6370, 6415, 6692, 8732, 10030, 10147, 10814, 10869, 12971, 13200, 14580, 14865, 14982, 15533, 16278, 16538, 18637, 19428, 19464, 19511, 19613, 19995, 20580, 20698, 22376]}, "edge": {"target": [], "time": []}}, "mouseout": {"state": {"target": ["0", "23", "29", "27", "27", "10", "15", "17", "15", "18", "13", "19", "21", "32", "30", "33", "30", "31", "20", "20", "14", "6", "4", "5", "4", "7", "6", "4", "3", "8", "11", "11", "8", "9", "6", "19"], "time": [1398, 1565, 2389, 3629, 4280, 4316, 4397, 4865, 5141, 6347, 6393, 6438, 8315, 9928, 10044, 10796, 10848, 12782, 13078, 14550, 14634, 14886, 15479, 16250, 16349, 17747, 19416, 19444, 19497, 19544, 19680, 20563, 20604, 22281, 28864, 29628]}, "edge": {"target": [], "time": []}}}, "displayed_time": "28.40", "trialTime": 30908, "trial_type": "mouselab-mdp", "trial_index": 40, "time_elapsed": 863509, "internal_node_id": "0.0-6.0-1.0-19.0"}}, {"uniqueid": "w98151451:a91040769", "current_trial": 41, "dateTime": 1693565632102, "trialdata": {"revealed_states": [], "clicked_states": ["21", "32", "27", "9", "5"], "num_clicks_accrued": [0, 0, 0, 0, 0, 0, 0, 0, 0, 0, 0, 0, 0], "stateRewards": ["", 2, -3, 5, 11, -79, 54, 11, -9, -78, 33, 22, -2, -1, 2, 14, 43, 34, 1, 10, 49, -65, 39, -1, 1, -1, 3, -16, -2, 11, 2, 12, 48, -65], "withholdReward": false, "trial_id": "mdp_trial_21", "block": "test", "trialIndex": 26, "score": 42, "costs": -7, "simulationMode": [null, null, null, null, null, null], "rewards": [-1, 1, -1, 2, 48], "path": ["0", "0", "23", "24", "25", "30", "32"], "rt": [8430, 1333, 34, 168, 22, 68], "actions": ["left", "left", "left", "left", "down", "down"], "actionTimes": [9743, 11078, 11624, 12309, 12847, 13440], "queries": {"click": {"state": {"target": ["21", "32", "27", "9", "5"], "time": [2295, 4053, 5682, 7242, 8776]}, "edge": {"target": [], "time": []}}, "mouseover": {"state": {"target": ["21", "21", "32", "30", "30", "32", "27", "3", "9", "5", "4", "7"], "time": [1854, 2152, 3023, 3622, 3841, 3890, 4888, 6272, 6501, 7837, 10601, 10651]}, "edge": {"target": [], "time": []}}, "mouseout": {"state": {"target": ["0", "21", "21", "32", "30", "30", "32", "27", "3", "9", "5", "4", "7"], "time": [1489, 1920, 2742, 3608, 3652, 3875, 4372, 6159, 6306, 7702, 10572, 10637, 10670]}, "edge": {"target": [], "time": []}}}, "displayed_time": "15.32", "trialTime": 16129, "trial_type": "mouselab-mdp", "trial_index": 41, "time_elapsed": 880005, "internal_node_id": "0.0-6.0-1.0-20.0"}}, {"uniqueid": "w98151451:a91040769", "current_trial": 42, "dateTime": 1693565648413, "trialdata": {"revealed_states": [], "clicked_states": ["20", "28", "27", "5"], "num_clicks_accrued": [0, 0, 0, 0, 0, 0, 0, 0, 0, 0, 0, 0, 0], "stateRewards": ["", -2, 2, -2, -7, -50, -62, -45, 7, 36, -24, -72, -1, -1, 8, -1, -67, 20, -52, 2, 35, -50, 80, -1, 1, 6, -6, -70, 6, 88, 8, -47, 74, -19], "withholdReward": false, "trial_id": "mdp_trial_22", "block": "test", "trialIndex": 27, "score": 37.4, "costs": -5.6, "simulationMode": [null, null, null, null, null], "rewards": [-1, -1, 8, 2, 35], "path": ["0", "0", "12", "13", "14", "19", "20"], "rt": [9950, 85, 246, 313, 141], "actions": ["right", "right", "right", "down", "right"], "actionTimes": [11025, 11631, 12394, 13239, 13886], "queries": {"click": {"state": {"target": ["20", "28", "27", "5"], "time": [2728, 4684, 6720, 8800]}, "edge": {"target": [], "time": []}}, "mouseover": {"state": {"target": ["14", "20", "19", "26", "29", "26", "28", "13", "13", "1", "27", "11", "8", "3", "4", "5", "6", "16", "14", "14"], "time": [2143, 2409, 3096, 3192, 3244, 4279, 4360, 5291, 5551, 5593, 5680, 7184, 7210, 7232, 7312, 8135, 9201, 9267, 9809, 9979]}, "edge": {"target": [], "time": []}}, "mouseout": {"state": {"target": ["0", "14", "20", "19", "26", "29", "26", "28", "13", "20", "20", "13", "1", "27", "11", "8", "3", "4", "5", "6", "16", "14", "14", "14"], "time": [1379, 2325, 3093, 3109, 3210, 4263, 4311, 5228, 5315, 5336, 5514, 5567, 5611, 6801, 7207, 7227, 7294, 7475, 9182, 9229, 9311, 9877, 10374, 15326]}, "edge": {"target": [], "time": []}}}, "displayed_time": "15.08", "trialTime": 15914, "trial_type": "mouselab-mdp", "trial_index": 42, "time_elapsed": 896316, "internal_node_id": "0.0-6.0-1.0-21.0"}}, {"uniqueid": "w98151451:a91040769", "current_trial": 43, "dateTime": 1693565665159, "trialdata": {"revealed_states": [], "clicked_states": ["32"], "num_clicks_accrued": [0, 0, 0, 0, 0, 0, 0, 0, 0, 0, 0, 0, 0], "stateRewards": ["", 2, -1, -1, -9, -81, -30, 55, -6, 78, 25, 62, 2, 4, -1, 9, -85, 1, -19, 1, -60, 12, -34, 1, 4, -1, -13, -24, -16, -83, -8, 16, 43, 9], "withholdReward": false, "trial_id": "mdp_trial_23", "block": "test", "trialIndex": 28, "score": 37.6, "costs": -1.4, "simulationMode": [null, null, null, null, null], "rewards": [1, 4, -1, -8, 43], "path": ["0", "0", "23", "24", "25", "30", "32"], "rt": [3254, 129, 129, 90, 143], "actions": ["left", "left", "left", "down", "down"], "actionTimes": [5276, 5933, 6582, 7195, 7866], "queries": {"click": {"state": {"target": ["32"], "time": [3357]}, "edge": {"target": [], "time": []}}, "mouseover": {"state": {"target": ["31", "30", "32", "32", "31", "23", "2", "3", "5"], "time": [2333, 2382, 2568, 3116, 3687, 3709, 3747, 3908, 4169]}, "edge": {"target": [], "time": []}}, "mouseout": {"state": {"target": ["0", "1", "0", "31", "30", "32", "32", "31", "23", "2", "3", "5", "6", "18", "7"], "time": [1396, 1515, 2282, 2367, 2449, 2633, 3684, 3706, 3729, 3838, 4034, 8633, 8698, 9700, 14299]}, "edge": {"target": [], "time": []}}}, "displayed_time": "16.02", "trialTime": 16367, "trial_type": "mouselab-mdp", "trial_index": 43, "time_elapsed": 913062, "internal_node_id": "0.0-6.0-1.0-22.0"}}, {"uniqueid": "w98151451:a91040769", "current_trial": 44, "dateTime": 1693565684220, "trialdata": {"revealed_states": [], "clicked_states": ["5", "22", "31", "29", "11"], "num_clicks_accrued": [0, 0, 0, 0, 0, 0, 0, 0, 0, 0, 0, 0, 0], "stateRewards": ["", 2, -4, 1, -12, -59, -53, -74, 16, -88, -66, 66, 1, -2, 8, -9, -14, 22, 25, -1, -39, 47, -14, -1, -1, -2, 1, -4, 52, -26, 15, -7, 46, 43], "withholdReward": false, "trial_id": "mdp_trial_24", "block": "test", "trialIndex": 29, "score": 74, "costs": -7, "simulationMode": [null, null, null, null, null], "rewards": [2, -4, 1, 16, 66], "path": ["0", "0", "1", "2", "3", "8", "11"], "rt": [11669, 91, 293, 39, 52], "actions": ["up", "up", "up", "left", "left"], "actionTimes": [13757, 14369, 15191, 15754, 16348], "queries": {"click": {"state": {"target": ["5", "22", "31", "29", "11"], "time": [2927, 5394, 7333, 9280, 11627]}, "edge": {"target": [], "time": []}}, "mouseover": {"state": {"target": ["1", "5", "4", "22", "22", "31", "25", "26", "29", "28", "11", "9"], "time": [2390, 2707, 3224, 3711, 4046, 5944, 7988, 8082, 8599, 10440, 11305, 12836]}, "edge": {"target": [], "time": []}}, "mouseout": {"state": {"target": ["12", "1", "0", "1", "5", "4", "22", "22", "31", "25", "26", "29", "29", "28", "11", "9", "8", "2", "1", "0"], "time": [239, 1335, 2372, 2409, 3222, 3237, 3906, 5776, 7943, 8006, 8163, 9403, 9923, 10572, 12657, 14791, 17640, 17690, 17723, 18107]}, "edge": {"target": [], "time": []}}}, "displayed_time": "16.88", "trialTime": 18604, "trial_type": "mouselab-mdp", "trial_index": 44, "time_elapsed": 932123, "internal_node_id": "0.0-6.0-1.0-23.0"}}, {"uniqueid": "w98151451:a91040769", "current_trial": 45, "dateTime": 1693565700261, "trialdata": {"revealed_states": [], "clicked_states": ["16", "32"], "num_clicks_accrued": [0, 0, 0, 0, 0, 0, 0, 0, 0, 0, 0, 0, 0], "stateRewards": ["", -2, -3, 8, -4, -30, 31, 69, 9, 66, 87, 64, -2, 2, 8, 5, 47, 16, -39, -8, -54, 51, -19, 1, -2, -2, -11, -25, -26, 43, -9, 19, -84, 86], "withholdReward": false, "trial_id": "mdp_trial_25", "block": "test", "trialIndex": 30, "score": 57.2, "costs": -2.8, "simulationMode": [null, null, null, null, null, null], "rewards": [-2, 2, 8, 5, 47], "path": ["0", "0", "12", "13", "14", "15", "16"], "rt": [3757, 233, 118, 95, 36, 13], "actions": ["right", "right", "right", "right", "up", "up"], "actionTimes": [4933, 5170, 5799, 6422, 6981, 7510], "queries": {"click": {"state": {"target": ["16", "32"], "time": [2668, 4355]}, "edge": {"target": [], "time": []}}, "mouseover": {"state": {"target": ["0", "12", "18", "15", "16", "23", "31", "30", "32"], "time": [1277, 1593, 1628, 1670, 1993, 3092, 3144, 3253, 3372]}, "edge": {"target": [], "time": []}}, "mouseout": {"state": {"target": ["23", "0", "0", "12", "18", "15", "16", "23", "31", "30", "32", "30", "31", "31", "23", "0"], "time": [290, 726, 1291, 1611, 1647, 1696, 3045, 3111, 3163, 3330, 8384, 8398, 8428, 8992, 9059, 9348]}, "edge": {"target": [], "time": []}}}, "displayed_time": "15.18", "trialTime": 15580, "trial_type": "mouselab-mdp", "trial_index": 45, "time_elapsed": 948164, "internal_node_id": "0.0-6.0-1.0-24.0"}}, {"uniqueid": "w98151451:a91040769", "current_trial": 46, "dateTime": 1693565718850, "trialdata": {"revealed_states": [], "clicked_states": ["20", "10", "7", "5", "32", "29"], "num_clicks_accrued": [0, 0, 0, 0, 0, 0, 0, 0, 0, 0, 0, 0, 0], "stateRewards": ["", 1, -3, 4, 13, -72, 52, 5, 5, -58, 5, 14, 2, 1, 3, -14, -86, -4, 73, 6, -58, -50, 49, 2, -3, -4, 2, 33, -41, 42, -11, 81, 45, 53], "withholdReward": false, "trial_id": "mdp_trial_26", "block": "test", "trialIndex": 31, "score": 20.6, "costs": -8.4, "simulationMode": [null, null, null, null, null], "rewards": [2, -3, -4, -11, 45], "path": ["0", "0", "23", "24", "25", "30", "32"], "rt": [12518, 25, 193, 9, 7], "actions": ["left", "left", "left", "down", "down"], "actionTimes": [14007, 14529, 15244, 15764, 16296], "queries": {"click": {"state": {"target": ["20", "10", "7", "5", "32", "29"], "time": [2384, 4188, 5959, 7806, 10384, 12210]}, "edge": {"target": [], "time": []}}, "mouseover": {"state": {"target": ["19", "19", "20", "14", "18", "7", "10", "2", "6", "7", "4", "5", "3", "2", "1", "23", "31", "32", "25", "29"], "time": [1506, 1883, 2149, 2717, 2747, 2816, 3287, 4567, 4872, 5289, 6614, 6836, 8221, 8298, 8380, 8732, 8799, 10194, 10937, 11221]}, "edge": {"target": [], "time": []}}, "mouseout": {"state": {"target": ["0", "19", "19", "20", "14", "18", "7", "10", "2", "6", "7", "4", "5", "3", "2", "1", "23", "31", "32", "25", "29", "29", "25", "31"], "time": [982, 1548, 2116, 2686, 2733, 2765, 2883, 4551, 4600, 5235, 6557, 6718, 8178, 8278, 8359, 8682, 8768, 8839, 10787, 10958, 12325, 17500, 17550, 17750]}, "edge": {"target": [], "time": []}}}, "displayed_time": "16.84", "trialTime": 18178, "trial_type": "mouselab-mdp", "trial_index": 46, "time_elapsed": 966754, "internal_node_id": "0.0-6.0-1.0-25.0"}}, {"uniqueid": "w98151451:a91040769", "current_trial": 47, "dateTime": 1693565735029, "trialdata": {"revealed_states": [], "clicked_states": ["29"], "num_clicks_accrued": [0, 0, 0, 0, 0, 0, 0, 0, 0, 0, 0, 0, 0], "stateRewards": ["", 2, -1, -1, 7, 11, -40, -22, -2, 69, 37, 8, -2, 4, -8, -12, -2, -72, -3, -12, 17, 63, 12, 1, 3, -7, 6, 25, 61, 61, -9, 28, -17, 27], "withholdReward": false, "trial_id": "mdp_trial_27", "block": "test", "trialIndex": 32, "score": 62.6, "costs": -1.4, "simulationMode": [null, null, null, null, null], "rewards": [1, 3, -7, 6, 61], "path": ["0", "0", "23", "24", "25", "26", "29"], "rt": [3327, 75, 159, 143, 81], "actions": ["left", "left", "left", "up", "left"], "actionTimes": [4578, 5158, 5823, 6494, 7095], "queries": {"click": {"state": {"target": ["29"], "time": [2466]}, "edge": {"target": [], "time": []}}, "mouseover": {"state": {"target": ["0", "23", "24", "25", "26", "26", "29", "28", "28", "27"], "time": [1577, 1661, 1794, 1860, 1912, 2179, 2311, 2869, 3127, 3381]}, "edge": {"target": [], "time": []}}, "mouseout": {"state": {"target": ["31", "12", "0", "23", "24", "25", "26", "26", "29", "28", "28", "27", "26", "24"], "time": [192, 609, 1626, 1760, 1844, 1877, 2044, 2211, 2830, 2889, 3196, 7949, 8278, 8310]}, "edge": {"target": [], "time": []}}}, "displayed_time": "15.25", "trialTime": 15768, "trial_type": "mouselab-mdp", "trial_index": 47, "time_elapsed": 982932, "internal_node_id": "0.0-6.0-1.0-26.0"}}, {"uniqueid": "w98151451:a91040769", "current_trial": 48, "dateTime": 1693565751743, "trialdata": {"revealed_states": [], "clicked_states": ["17", "9"], "num_clicks_accrued": [0, 0, 0, 0, 0, 0, 0, 0, 0, 0, 0, 0, 0], "stateRewards": ["", -1, 2, 6, 11, 21, -21, -21, -6, 48, -71, 88, -1, -3, 3, 7, 64, 2, 9, -4, 37, -67, 72, 2, 2, -8, -8, -10, 71, -40, -3, 73, 80, 47], "withholdReward": false, "trial_id": "mdp_trial_28", "block": "test", "trialIndex": 33, "score": 46.2, "costs": -2.8, "simulationMode": [null, null, null, null, null], "rewards": [-1, 2, 6, -6, 48], "path": ["0", "0", "1", "2", "3", "8", "9"], "rt": [4845, 109, 86, 91, 53], "actions": ["up", "up", "up", "left", "up"], "actionTimes": [6286, 6922, 7528, 8116, 8694], "queries": {"click": {"state": {"target": ["17", "9"], "time": [2133, 4102]}, "edge": {"target": [], "time": []}}, "mouseover": {"state": {"target": ["12", "13", "14", "17", "4", "3", "9", "3", "21"], "time": [1655, 1675, 1722, 1905, 2637, 2669, 2789, 4822, 5239]}, "edge": {"target": [], "time": []}}, "mouseout": {"state": {"target": ["13", "14", "13", "18", "0", "12", "13", "14", "17", "4", "3", "9", "3", "21", "21", "21"], "time": [404, 521, 605, 638, 970, 1670, 1690, 1771, 2575, 2652, 2702, 4804, 4841, 9721, 14502, 14652]}, "edge": {"target": [], "time": []}}}, "displayed_time": "15.44", "trialTime": 16246, "trial_type": "mouselab-mdp", "trial_index": 48, "time_elapsed": 999647, "internal_node_id": "0.0-6.0-1.0-27.0"}}, {"uniqueid": "w98151451:a91040769", "current_trial": 49, "dateTime": 1693565767419, "trialdata": {"revealed_states": [], "clicked_states": ["7", "10", "28"], "num_clicks_accrued": [0, 0, 0, 0, 0, 0, 0, 0, 0, 0, 0, 0, 0], "stateRewards": ["", -1, 4, -5, 9, 29, -75, -42, -16, 24, -28, -41, 2, -3, 1, 10, 60, 47, 55, -1, -53, 22, -40, 2, -3, -6, 4, -26, 44, 54, 15, -76, 42, 14], "withholdReward": false, "trial_id": "mdp_trial_29", "block": "test", "trialIndex": 34, "score": 36.8, "costs": -4.199999999999999, "simulationMode": [null, null, null, null, null], "rewards": [2, -3, -6, 4, 44], "path": ["0", "0", "23", "24", "25", "26", "28"], "rt": [7177, 77, 5, 7, 161], "actions": ["left", "left", "left", "up", "right"], "actionTimes": [8162, 8745, 9257, 9778, 10481], "queries": {"click": {"state": {"target": ["7", "10", "28"], "time": [2047, 3972, 5868]}, "edge": {"target": [], "time": []}}, "mouseover": {"state": {"target": ["12", "18", "6", "7", "2", "10", "28", "28", "24", "31"], "time": [1028, 1085, 1613, 1962, 2470, 2565, 4813, 5126, 6466, 6654]}, "edge": {"target": [], "time": []}}, "mouseout": {"state": {"target": ["0", "12", "18", "6", "7", "2", "10", "28", "28", "24", "31", "22", "19", "22"], "time": [1014, 1051, 1146, 1682, 2191, 2510, 4777, 4846, 6447, 6485, 11382, 12546, 12728, 12846]}, "edge": {"target": [], "time": []}}}, "displayed_time": "14.99", "trialTime": 15333, "trial_type": "mouselab-mdp", "trial_index": 49, "time_elapsed": 1015323, "internal_node_id": "0.0-6.0-1.0-28.0"}}, {"uniqueid": "w98151451:a91040769", "current_trial": 50, "dateTime": 1693565783998, "trialdata": {"revealed_states": [], "clicked_states": ["5", "6", "17"], "num_clicks_accrued": [0, 0, 0, 0, 0, 0, 0, 0, 0, 0, 0, 0, 0], "stateRewards": ["", 1, 1, 1, -3, -7, -1, -41, -10, 20, -72, -63, 1, -4, -2, 2, -66, 30, -84, -2, 49, 23, 71, -1, -4, 4, -12, 67, 5, 18, -16, 88, 56, -5], "withholdReward": false, "trial_id": "mdp_trial_30", "block": "test", "trialIndex": 35, "score": 22.8, "costs": -4.199999999999999, "simulationMode": [null, null, null, null, null], "rewards": [1, -4, -2, 2, 30], "path": ["0", "0", "12", "13", "14", "15", "17"], "rt": [7091, 37, 159, 59, 70], "actions": ["right", "right", "right", "up", "right"], "actionTimes": [8825, 9374, 10073, 10640, 11235], "queries": {"click": {"state": {"target": ["5", "6", "17"], "time": [2832, 4723, 6572]}, "edge": {"target": [], "time": []}}, "mouseover": {"state": {"target": ["5", "6", "6", "16", "17", "21"], "time": [2643, 3191, 3731, 5086, 5226, 7149]}, "edge": {"target": [], "time": []}}, "mouseout": {"state": {"target": ["0", "5", "6", "6", "16", "17", "21"], "time": [607, 3146, 3393, 5067, 5109, 6877, 12243]}, "edge": {"target": [], "time": []}}}, "displayed_time": "15.73", "trialTime": 16240, "trial_type": "mouselab-mdp", "trial_index": 50, "time_elapsed": 1031901, "internal_node_id": "0.0-6.0-1.0-29.0"}}, {"uniqueid": "w98151451:a91040769", "current_trial": 51, "dateTime": 1693565806820, "trialdata": {"revealed_states": [], "clicked_states": ["32", "31", "29", "9", "18", "22", "20"], "num_clicks_accrued": [0, 0, 0, 0, 0, 0, 0, 0, 0, 0, 0, 0, 0], "stateRewards": ["", -2, 3, -5, -7, 66, 43, -60, -4, -70, -75, 4, -1, 2, 2, -13, 54, 11, -40, -1, 77, 32, 15, -2, 3, -8, -9, -35, 83, -27, 6, -74, -34, 44], "withholdReward": false, "trial_id": "mdp_trial_31", "block": "test", "trialIndex": 36, "score": 69.2, "costs": -9.8, "simulationMode": [null, null, null, null, null], "rewards": [-1, 2, 2, -1, 77], "path": ["0", "0", "12", "13", "14", "19", "20"], "rt": [14492, 13, 67, 137, 156], "actions": ["right", "right", "right", "down", "right"], "actionTimes": [17651, 18177, 18781, 19422, 20096], "queries": {"click": {"state": {"target": ["32", "31", "29", "9", "18", "22", "20"], "time": [4020, 5887, 7867, 9782, 11638, 13480, 15358]}, "edge": {"target": [], "time": []}}, "mouseover": {"state": {"target": ["0", "23", "31", "32", "31", "24", "28", "26", "29", "26", "8", "8", "9", "4", "6", "18", "14", "22", "19", "20", "21", "17"], "time": [3495, 3527, 3579, 3762, 4494, 6410, 6635, 7315, 7443, 8288, 8395, 8533, 8589, 10387, 10409, 10754, 12332, 12557, 14198, 14470, 16405, 17080]}, "edge": {"target": [], "time": []}}, "mouseout": {"state": {"target": ["0", "0", "0", "0", "0", "23", "31", "32", "31", "24", "28", "26", "29", "26", "8", "8", "9", "4", "6", "18", "14", "22", "19", "20", "21", "20", "17", "14", "12"], "time": [1281, 1676, 2194, 3362, 3512, 3544, 3645, 4152, 6386, 6450, 7297, 7402, 8266, 8303, 8427, 8555, 10363, 10405, 10429, 12287, 12422, 14179, 14386, 16370, 16620, 16657, 17393, 21095, 21900]}, "edge": {"target": [], "time": []}}}, "displayed_time": "20.61", "trialTime": 22398, "trial_type": "mouselab-mdp", "trial_index": 51, "time_elapsed": 1054723, "internal_node_id": "0.0-6.0-1.0-30.0"}}, {"uniqueid": "w98151451:a91040769", "current_trial": 52, "dateTime": 1693565831112, "trialdata": {"revealed_states": [], "clicked_states": ["10", "31", "22", "18", "21", "29", "27", "28", "32"], "num_clicks_accrued": [0, 0, 0, 0, 0, 0, 0, 0, 0, 0, 0, 0, 0], "stateRewards": ["", -2, 2, -5, 1, 42, -63, -58, -6, 2, 16, 81, -2, 4, 7, -10, 33, 3, -33, -2, -52, -84, -27, 2, -3, -3, 15, -74, -14, -5, -5, -84, 79, -31], "withholdReward": false, "trial_id": "mdp_trial_32", "block": "test", "trialIndex": 37, "score": 57.4, "costs": -12.600000000000001, "simulationMode": [null, null, null, null, null], "rewards": [2, -3, -3, -5, 79], "path": ["0", "0", "23", "24", "25", "30", "32"], "rt": [17820, 35, 108, 378, 5], "actions": ["left", "left", "left", "down", "down"], "actionTimes": [19344, 19908, 20554, 21457, 21969], "queries": {"click": {"state": {"target": ["10", "31", "22", "18", "21", "29", "27", "28", "32"], "time": [2352, 4562, 6457, 8285, 10133, 12010, 13818, 15634, 17285]}, "edge": {"target": [], "time": []}}, "mouseover": {"state": {"target": ["1", "10", "10", "2", "7", "1", "23", "31", "22", "13", "18", "15", "19", "21", "19", "13", "1", "23", "24", "26", "29", "27", "28", "30", "32", "32", "33"], "time": [1642, 1827, 2148, 2678, 3160, 3371, 3459, 4075, 5182, 7017, 7338, 8860, 9261, 9395, 10638, 10704, 10765, 10810, 11108, 11230, 11394, 13082, 14710, 16011, 16192, 16384, 18033]}, "edge": {"target": [], "time": []}}, "mouseout": {"state": {"target": ["0", "1", "10", "10", "2", "7", "1", "23", "31", "22", "13", "18", "15", "19", "21", "19", "13", "1", "23", "24", "26", "29", "27", "27", "28", "30", "32", "32", "33", "32"], "time": [1609, 1678, 1877, 2477, 2734, 3347, 3388, 3903, 4848, 6996, 7219, 8444, 8952, 9311, 10286, 10699, 10721, 10790, 10830, 11158, 11281, 13007, 13972, 14528, 15959, 16060, 16220, 17745, 22881, 23294]}, "edge": {"target": [], "time": []}}}, "displayed_time": "22.50", "trialTime": 23841, "trial_type": "mouselab-mdp", "trial_index": 52, "time_elapsed": 1079015, "internal_node_id": "0.0-6.0-1.0-31.0"}}, {"uniqueid": "w98151451:a91040769", "current_trial": 53, "dateTime": 1693565849809, "trialdata": {"revealed_states": [], "clicked_states": ["5", "7", "13", "24", "32", "21"], "num_clicks_accrued": [0, 0, 0, 0, 0, 0, 0, 0, 0, 0, 0, 0, 0], "stateRewards": ["", 1, -4, -6, -1, -21, 17, -72, 10, 77, 67, -46, -1, 4, -2, 14, -66, -49, -45, -15, -52, 23, -67, 2, -2, -2, 15, -3, 45, -64, 5, -44, 83, 61], "withholdReward": false, "trial_id": "mdp_trial_33", "block": "test", "trialIndex": 38, "score": 77.6, "costs": -8.4, "simulationMode": [null, null, null, null, null, null], "rewards": [2, -2, -2, 5, 83], "path": ["0", "0", "23", "24", "25", "30", "32"], "rt": [12059, 156, 20, 15, 9, 57], "actions": ["left", "left", "left", "left", "down", "down"], "actionTimes": [13717, 13884, 14445, 14975, 15523, 16105], "queries": {"click": {"state": {"target": ["5", "7", "13", "24", "32", "21"], "time": [2879, 4658, 6378, 9214, 11128, 12919]}, "edge": {"target": [], "time": []}}, "mouseover": {"state": {"target": ["1", "2", "3", "3", "5", "4", "7", "12", "13", "22", "24", "24", "31", "32", "21"], "time": [1926, 1958, 2088, 2274, 2642, 3273, 3492, 5224, 5784, 7109, 8756, 9073, 9685, 10764, 11906]}, "edge": {"target": [], "time": []}}, "mouseout": {"state": {"target": ["0", "1", "2", "3", "3", "5", "5", "4", "7", "12", "13", "22", "24", "24", "31", "32", "21", "22"], "time": [1274, 1956, 2041, 2158, 2559, 2984, 3257, 3345, 4975, 5523, 7040, 8641, 8808, 9670, 10567, 11588, 13329, 17258]}, "edge": {"target": [], "time": []}}}, "displayed_time": "16.63", "trialTime": 18252, "trial_type": "mouselab-mdp", "trial_index": 53, "time_elapsed": 1097712, "internal_node_id": "0.0-6.0-1.0-32.0"}}, {"uniqueid": "w98151451:a91040769", "current_trial": 54, "dateTime": 1693565867396, "trialdata": {"revealed_states": [], "clicked_states": ["28", "20", "17", "5"], "num_clicks_accrued": [0, 0, 0, 0, 0, 0, 0, 0, 0, 0, 0, 0, 0], "stateRewards": ["", 2, -2, 7, -11, -76, -65, -23, 16, -58, 30, 81, 1, 2, 7, 14, 9, 55, -2, 6, 11, -15, 31, -1, -1, -3, 2, 15, 2, 46, 15, 18, 45, -34], "withholdReward": false, "trial_id": "mdp_trial_34", "block": "test", "trialIndex": 39, "score": 73.4, "costs": -5.6, "simulationMode": [null, null, null, null, null, null], "rewards": [1, 2, 7, 14, 55], "path": ["0", "0", "12", "13", "14", "15", "17"], "rt": [7693, 160, 61, 102, 141, 47], "actions": ["right", "right", "right", "right", "up", "right"], "actionTimes": [8823, 8990, 9591, 10215, 10880, 11453], "queries": {"click": {"state": {"target": ["28", "20", "17", "5"], "time": [1891, 3850, 5887, 8030]}, "edge": {"target": [], "time": []}}, "mouseover": {"state": {"target": ["28", "1", "12", "22", "20", "17", "17", "6", "5", "4", "5", "6"], "time": [1668, 2449, 2550, 2701, 3140, 4351, 4762, 6458, 6809, 7228, 7565, 8503]}, "edge": {"target": [], "time": []}}, "mouseout": {"state": {"target": ["0", "28", "1", "12", "22", "20", "17", "17", "6", "5", "4", "5", "5", "6", "14", "19", "21"], "time": [914, 2384, 2466, 2600, 2720, 4234, 4374, 6383, 6491, 6891, 7289, 8177, 8485, 8521, 13598, 13663, 13733]}, "edge": {"target": [], "time": []}}}, "displayed_time": "15.13", "trialTime": 17216, "trial_type": "mouselab-mdp", "trial_index": 54, "time_elapsed": 1115299, "internal_node_id": "0.0-6.0-1.0-33.0"}}, {"uniqueid": "w98151451:a91040769", "current_trial": 55, "dateTime": 1693565883682, "trialdata": {"revealed_states": [], "clicked_states": ["20", "29", "11", "6"], "num_clicks_accrued": [0, 0, 0, 0, 0, 0, 0, 0, 0, 0, 0, 0, 0], "stateRewards": ["", -1, -3, 3, 5, 56, 39, 50, -1, -80, 33, -46, 1, -2, -6, -8, 87, 48, 54, -11, -20, -64, -54, -2, 3, -7, -3, 12, 88, 35, -16, -46, -70, -3], "withholdReward": false, "trial_id": "mdp_trial_35", "block": "test", "trialIndex": 40, "score": 37.4, "costs": -5.6, "simulationMode": [null, null, null, null, null], "rewards": [-1, -3, 3, 5, 39], "path": ["0", "0", "1", "2", "3", "4", "6"], "rt": [9368, 121, 127, 8, 74], "actions": ["up", "up", "up", "right", "right"], "actionTimes": [10458, 11105, 11746, 12277, 12891], "queries": {"click": {"state": {"target": ["20", "29", "11", "6"], "time": [2412, 4271, 6439, 8310]}, "edge": {"target": [], "time": []}}, "mouseover": {"state": {"target": ["12", "22", "20", "27", "29", "10", "8", "9", "11", "6", "6", "32"], "time": [1265, 1330, 2179, 2872, 3088, 4931, 5048, 5229, 6232, 7029, 7279, 9458]}, "edge": {"target": [], "time": []}}, "mouseout": {"state": {"target": ["0", "12", "22", "20", "27", "29", "10", "8", "9", "11", "6", "6", "32", "32"], "time": [596, 1281, 1363, 2765, 2895, 4833, 4981, 5210, 6063, 6588, 7065, 8805, 9614, 15201]}, "edge": {"target": [], "time": []}}}, "displayed_time": "15.09", "trialTime": 15866, "trial_type": "mouselab-mdp", "trial_index": 55, "time_elapsed": 1131585, "internal_node_id": "0.0-6.0-1.0-34.0"}}, {"uniqueid": "w98151451:a91040769", "current_trial": 56, "dateTime": 1693565900054, "trialdata": {"revealed_states": [], "clicked_states": ["32", "11", "10", "7"], "num_clicks_accrued": [0, 0, 0, 0, 0, 0, 0, 0, 0, 0, 0, 0, 0], "stateRewards": ["", 2, 3, -1, 6, 44, -4, -59, -14, -3, 64, 16, 1, -3, 3, 6, 3, 49, 19, 3, -49, -14, -86, 1, 2, -3, -8, -33, 14, 32, -13, -77, -47, -67], "withholdReward": false, "trial_id": "mdp_trial_36", "block": "test", "trialIndex": 41, "score": 48.4, "costs": -5.6, "simulationMode": [null, null, null, null, null, null], "rewards": [2, 3, -1, -14, 64], "path": ["0", "0", "1", "2", "3", "8", "10"], "rt": [8093, 355, 109, 117, 90, 29], "actions": ["up", "up", "up", "up", "left", "down"], "actionTimes": [9066, 9427, 10064, 10710, 11293, 11816], "queries": {"click": {"state": {"target": ["32", "11", "10", "7"], "time": [1619, 4436, 6270, 8540]}, "edge": {"target": [], "time": []}}, "mouseover": {"state": {"target": ["0", "31", "32", "21", "21", "10", "11", "8", "7", "2", "10", "2", "7"], "time": [1185, 1368, 1438, 2217, 2598, 3523, 4302, 4751, 4843, 5965, 5999, 6680, 6929]}, "edge": {"target": [], "time": []}}, "mouseout": {"state": {"target": ["0", "31", "32", "21", "21", "10", "11", "8", "7", "2", "10", "2", "7"], "time": [1288, 1386, 1923, 2356, 3201, 3536, 4736, 4769, 5934, 5984, 6657, 6704, 12828]}, "edge": {"target": [], "time": []}}}, "displayed_time": "14.97", "trialTime": 15861, "trial_type": "mouselab-mdp", "trial_index": 56, "time_elapsed": 1147958, "internal_node_id": "0.0-6.0-1.0-35.0"}}, {"uniqueid": "w98151451:a91040769", "current_trial": 57, "dateTime": 1693565915806, "trialdata": {"revealed_states": [], "clicked_states": ["32", "31", "28"], "num_clicks_accrued": [0, 0, 0, 0, 0, 0, 0, 0, 0, 0, 0, 0, 0], "stateRewards": ["", 1, 2, -6, -13, -51, 22, -4, -12, -44, -12, 6, -2, -2, -2, -14, -46, -4, -77, -2, 36, -79, 41, 2, -4, 2, -6, -55, 59, 70, -5, 39, -19, 24], "withholdReward": false, "trial_id": "mdp_trial_37", "block": "test", "trialIndex": 42, "score": 48.8, "costs": -4.199999999999999, "simulationMode": [null, null, null, null, null, null], "rewards": [2, -4, 2, -6, 59], "path": ["0", "0", "23", "24", "25", "26", "28"], "rt": [4380, 197, 119, 90, 116, 60], "actions": ["left", "left", "left", "left", "up", "right"], "actionTimes": [5350, 5549, 6200, 6806, 7444, 8025], "queries": {"click": {"state": {"target": ["32", "31", "28"], "time": [1739, 3331, 5018]}, "edge": {"target": [], "time": []}}, "mouseover": {"state": {"target": ["23", "31", "32", "31", "23", "28"], "time": [1110, 1260, 1459, 2189, 4443, 4663]}, "edge": {"target": [], "time": []}}, "mouseout": {"state": {"target": ["22", "0", "23", "31", "32", "31", "23", "28"], "time": [311, 659, 1127, 1309, 1927, 4264, 4477, 8951]}, "edge": {"target": [], "time": []}}}, "displayed_time": "14.97", "trialTime": 15306, "trial_type": "mouselab-mdp", "trial_index": 57, "time_elapsed": 1163709, "internal_node_id": "0.0-6.0-1.0-36.0"}}, {"uniqueid": "w98151451:a91040769", "current_trial": 58, "dateTime": 1693565932031, "trialdata": {"revealed_states": [], "clicked_states": ["17"], "num_clicks_accrued": [0, 0, 0, 0, 0, 0, 0, 0, 0, 0, 0, 0, 0], "stateRewards": ["", -1, -4, -6, -15, 21, -67, -63, 9, 51, 69, -14, -1, 3, 8, -8, 39, 72, 63, 15, 19, 47, 15, 1, 4, 5, 16, -18, 34, 35, -14, -80, 40, 1], "withholdReward": false, "trial_id": "mdp_trial_38", "block": "test", "trialIndex": 43, "score": 72.6, "costs": -1.4, "simulationMode": [null, null, null, null, null], "rewards": [-1, 3, 8, -8, 72], "path": ["0", "0", "12", "13", "14", "15", "17"], "rt": [2980, 97, 153, 135, 23], "actions": ["right", "right", "right", "up", "right"], "actionTimes": [4205, 4822, 5476, 6115, 6670], "queries": {"click": {"state": {"target": ["17"], "time": [2319]}, "edge": {"target": [], "time": []}}, "mouseover": {"state": {"target": ["12", "22", "14", "15", "17", "16"], "time": [1268, 1335, 1620, 1912, 2085, 2809]}, "edge": {"target": [], "time": []}}, "mouseout": {"state": {"target": ["0", "12", "22", "14", "15", "17", "16", "12"], "time": [834, 1285, 1536, 1638, 2019, 2618, 7651, 8222]}, "edge": {"target": [], "time": []}}}, "displayed_time": "15.23", "trialTime": 15706, "trial_type": "mouselab-mdp", "trial_index": 58, "time_elapsed": 1179934, "internal_node_id": "0.0-6.0-1.0-37.0"}}, {"uniqueid": "w98151451:a91040769", "current_trial": 59, "dateTime": 1693565950291, "trialdata": {"revealed_states": [], "clicked_states": ["27", "9", "10", "22", "31", "29"], "num_clicks_accrued": [0, 0, 0, 0, 0, 0, 0, 0, 0, 0, 0, 0, 0], "stateRewards": ["", -1, 3, 8, 10, -86, 61, -36, 10, 17, -60, 24, -1, -3, 3, 11, 50, 60, 33, -3, -20, 58, -6, 1, -4, -4, 13, -70, -71, 43, 14, 52, 82, -11], "withholdReward": false, "trial_id": "mdp_trial_39", "block": "test", "trialIndex": 44, "score": 50.6, "costs": -8.4, "simulationMode": [null, null, null, null, null, null], "rewards": [1, -4, -4, 14, 52], "path": ["0", "0", "23", "24", "25", "30", "31"], "rt": [11657, 163, 104, 91, 120, 99], "actions": ["left", "left", "left", "left", "down", "right"], "actionTimes": [13122, 13287, 13906, 14510, 15140, 15769], "queries": {"click": {"state": {"target": ["27", "9", "10", "22", "31", "29"], "time": [2325, 4456, 6606, 8415, 10273, 12185]}, "edge": {"target": [], "time": []}}, "mouseover": {"state": {"target": ["27", "10", "3", "9", "7", "2", "10", "15", "14", "19", "22", "22", "19", "21", "31", "25", "29", "24"], "time": [2000, 2766, 3192, 4325, 5066, 5603, 5815, 7174, 7223, 7265, 7608, 7783, 8798, 8931, 9648, 10750, 11083, 12613]}, "edge": {"target": [], "time": []}}, "mouseout": {"state": {"target": ["0", "0", "27", "10", "3", "9", "7", "2", "10", "15", "14", "19", "22", "22", "19", "21", "31", "25", "29", "24"], "time": [348, 1577, 2632, 3064, 3285, 4768, 5598, 5635, 6761, 7202, 7244, 7606, 7760, 8765, 8835, 9003, 10449, 10962, 12585, 16649]}, "edge": {"target": [], "time": []}}}, "displayed_time": "16.27", "trialTime": 17848, "trial_type": "mouselab-mdp", "trial_index": 59, "time_elapsed": 1198194, "internal_node_id": "0.0-6.0-1.0-38.0"}}, {"uniqueid": "w98151451:a91040769", "current_trial": 60, "dateTime": 1693565966563, "trialdata": {"revealed_states": [], "clicked_states": ["9", "7", "16"], "num_clicks_accrued": [0, 0, 0, 0, 0, 0, 0, 0, 0, 0, 0, 0, 0], "stateRewards": ["", 2, 4, 4, 9, -88, -10, 44, 16, -54, 64, 78, 1, 2, 5, 16, 80, 36, 7, -4, 9, -47, -70, -1, -3, 6, -16, 11, 80, 28, 8, -1, 34, -17], "withholdReward": false, "trial_id": "mdp_trial_40", "block": "test", "trialIndex": 45, "score": 99.8, "costs": -4.199999999999999, "simulationMode": [null, null, null, null, null], "rewards": [1, 2, 5, 16, 80], "path": ["0", "0", "12", "13", "14", "15", "16"], "rt": [7418, 29, 139, 29, 139], "actions": ["right", "right", "right", "up", "up"], "actionTimes": [8582, 9136, 9800, 10362, 11009], "queries": {"click": {"state": {"target": ["9", "7", "16"], "time": [1895, 4531, 6716]}, "edge": {"target": [], "time": []}}, "mouseover": {"state": {"target": ["0", "12", "2", "3", "9", "3", "7", "7", "18", "16"], "time": [1210, 1236, 1454, 1491, 1705, 2191, 2442, 4383, 4888, 6454]}, "edge": {"target": [], "time": []}}, "mouseout": {"state": {"target": ["1", "0", "12", "2", "3", "9", "3", "7", "7", "18", "16", "1", "0"], "time": [588, 1234, 1438, 1475, 1506, 2171, 2255, 3925, 4837, 6412, 6830, 12123, 12405]}, "edge": {"target": [], "time": []}}}, "displayed_time": "15.17", "trialTime": 15743, "trial_type": "mouselab-mdp", "trial_index": 60, "time_elapsed": 1214466, "internal_node_id": "0.0-6.0-1.0-39.0"}}, {"uniqueid": "w98151451:a91040769", "current_trial": 61, "dateTime": 1693566017819, "trialdata": {"rt": 51246, "response": {"Q0": "$-2 to $2", "Q1": "$-16 to $16", "Q2": "$-16 to $16", "Q3": "The cost was always $1.4.", "Q4": "Very motivated"}, "question_order": [0, 1, 2, 3, 4], "trial_id": "final_quiz_control", "trial_type": "survey-multi-choice", "trial_index": 61, "time_elapsed": 1265723, "internal_node_id": "0.0-6.0-2.0"}}, {"uniqueid": "w98151451:a91040769", "current_trial": 62, "dateTime": 1693566145281, "trialdata": {"rt": 127441, "response": {"Q0": "I used the end nodules most of the time as this is the nodule I wanted to end up on, I used a different one in every level of the game and continuously changed strategies.", "Q1": "Yes, I took note of any possible patterns and I chose a different nodule every round instead of using the same one", "Q2": "It was not difficult and I got the hang of it after a few rounds of playing"}, "trial_id": "self_report_control", "trial_type": "survey-text", "trial_index": 62, "time_elapsed": 1393184, "internal_node_id": "0.0-6.0-3.0"}}, {"uniqueid": "w98151451:a91040769", "current_trial": 63, "dateTime": 1693566164065, "trialdata": {"rt": 18770, "response": {"gender": "female", "age": "20", "colorblind": "0", "effort": "0"}, "trial_type": "survey-html-form", "trial_index": 63, "time_elapsed": 1411969, "internal_node_id": "0.0-6.0-4.0"}}, {"uniqueid": "w98151451:a91040769", "current_trial": 64, "dateTime": 1693566198633, "trialdata": {"rt": 34554, "response": {"Q0": " No, the instructions were a bit long but the practice game really helped with that.", "Q1": "No", "Q2": ""}, "trial_type": "survey-text", "trial_index": 64, "time_elapsed": 1446536, "internal_node_id": "0.0-6.0-5.0"}}, {"uniqueid": "w98151451:a91040769", "current_trial": 65, "dateTime": 1693566224711, "trialdata": {"rt": 26067, "stimulus": "<h1>Completion Code Instructions (1/2)</h1>\n<br><br><br><br>\nYou have reached the end of the experiment! The completion code consists of two parts: (1) a code with 2 characters (2) a code with 6 characters. On this page, you will receive the second part of the code. The first part of the completion code will be on the next page.\n<br><br>\nThe second part of your completion code is: <b>EWEK22</b>\n<br><br>\nPlease note this down. Then, press 'Finish HIT' in order to find the first part of your completion code. Once the data has been saved, you will receive this code either in this window or in the original browser window where you started the experiment.\n", "response": 0, "trial_type": "html-button-response", "trial_index": 65, "time_elapsed": 1472615, "internal_node_id": "0.0-6.0-6.0"}}, {"uniqueid": "w98151451:a91040769", "current_trial": 66, "dateTime": 1693566225718, "trialdata": {"success": true, "trial_type": "fullscreen", "trial_index": 66, "time_elapsed": 1473622, "internal_node_id": "0.0-7.0"}}], "questiondata": {"params": {"CODE": "C6DMOQA6", "MIN_TIME": 14, "inspectCost": 1, "startTime": "Fri Sep 01 2023 12:39:09 GMT+0200 (South Africa Standard Time)", "bonusRate": 0.002, "variance": "1_2_4_8_44", "branching": "31123"}, "final_score": 1508.2}, "eventdata": [{"eventtype": "initialized", "value": null, "timestamp": 1693564748409, "interval": 0}, {"eventtype": "window_resize", "value": [1280, 614], "timestamp": 1693564748409, "interval": 0}, {"eventtype": "window_resize", "value": [1280, 614], "timestamp": 1693564748930, "interval": 521}, {"eventtype": "window_resize", "value": [1280, 720], "timestamp": 1693564758957, "interval": 10027}, {"eventtype": "focus", "value": "off", "timestamp": 1693565056634, "interval": 297677}, {"eventtype": "focus", "value": "on", "timestamp": 1693565056635, "interval": 1}, {"eventtype": "window_resize", "value": [1280, 614], "timestamp": 1693565056843, "interval": 208}, {"eventtype": "window_resize", "value": [1280, 720], "timestamp": 1693565058568, "interval": 1725}, {"eventtype": "focus", "value": "off", "timestamp": 1693565133319, "interval": 74751}, {"eventtype": "focus", "value": "on", "timestamp": 1693565133320, "interval": 1}, {"eventtype": "window_resize", "value": [1280, 614], "timestamp": 1693565133533, "interval": 213}, {"eventtype": "window_resize", "value": [1280, 720], "timestamp": 1693565135196, "interval": 1663}, {"eventtype": "window_resize", "value": [1280, 614], "timestamp": 1693566224973, "interval": 1089777}], "useragent": "Mozilla/5.0 (Windows NT 10.0; Win64; x64) AppleWebKit/537.36 (KHTML, like Gecko) Chrome/116.0.0.0 Safari/537.36", "mode": "live", "id": "w98151451:a91040769", "status": "user data saved", "Beginhit": "2023-09-01 10:39:05.065524", "Beginexp": "2023-09-01 10:39:20.629561", "Endhit": "2023-09-01 11:03:50.623357", "psiturkStatus": 3, "browser": "<redacted>", "platform": "windows", "language": "en-ZA"}