{"condition": 0, "counterbalance": 0, "assignmentId": "a25160429", "workerId": "w83337711", "hitId": "h11157926", "currenttrial": 55, "bonus": 0, "data": [{"uniqueid": "w83337711:a25160429", "current_trial": 0, "dateTime": 1691142606457, "trialdata": {"success": true, "trial_type": "fullscreen", "trial_index": 0, "time_elapsed": 16891, "internal_node_id": "0.0-0.0"}}, {"uniqueid": "w83337711:a25160429", "current_trial": 1, "dateTime": 1691142683777, "trialdata": {"view_history": [{"page_index": 0, "viewing_time": 77316}], "rt": 77317, "trial_id": "exp_instructions_control", "trial_type": "instructions", "trial_index": 1, "time_elapsed": 94210, "internal_node_id": "0.0-1.0"}}, {"uniqueid": "w83337711:a25160429", "current_trial": 2, "dateTime": 1691142694367, "trialdata": {"success": true, "trial_type": "fullscreen", "trial_index": 2, "time_elapsed": 104801, "internal_node_id": "0.0-2.0-0.0"}}, {"uniqueid": "w83337711:a25160429", "current_trial": 3, "dateTime": 1691143204489, "trialdata": {"view_history": [{"page_index": 0, "viewing_time": 184383}, {"page_index": 1, "viewing_time": 175084}, {"page_index": 2, "viewing_time": 46558}, {"page_index": 3, "viewing_time": 104095}], "rt": 510121, "trial_id": "mouselab_instructions_1_control", "trial_type": "instructions", "trial_index": 3, "time_elapsed": 614923, "internal_node_id": "0.0-2.0-1.0"}}, {"uniqueid": "w83337711:a25160429", "current_trial": 4, "dateTime": 1691143247189, "trialdata": {"revealed_states": [], "clicked_states": ["1"], "num_clicks_accrued": [0, 0, 0, 0, 0, 0, 0, 0, 0, 0, 0, 0, 0], "stateRewards": ["", -10, -10, -10, 10, -10, -10, 10, -10, 10, 10, 10, -10, -10, -10, 10, 10, 10, 10, -10, -10, 10, 10, 10, 10, 10, 10, 10, 10, 10, 10, 10, -10, 10], "withholdReward": false, "trial_id": "practice_1", "block": "test", "trialIndex": 0, "score": -27, "costs": -0.5, "simulationMode": [null, null, null, null, null], "rewards": [-10, -10, -10, -10, 10], "path": ["0", "0", "12", "13", "14", "19", "22"], "rt": [11688, 4467, 512, 5922, 661], "actions": ["right", "right", "right", "down", "left"], "actionTimes": [19742, 24738, 25778, 32222, 33403], "queries": {"click": {"state": {"target": ["1"], "time": [10862]}, "edge": {"target": [], "time": []}}, "mouseover": {"state": {"target": ["12", "1"], "time": [9896, 10661]}, "edge": {"target": [], "time": []}}, "mouseout": {"state": {"target": ["0", "12", "0", "0", "12", "1", "12", "18", "15", "13", "13", "13"], "time": [737, 1586, 3634, 9846, 10462, 12943, 27031, 27113, 29312, 29362, 31226, 41035]}, "edge": {"target": [], "time": []}}}, "displayed_time": "33.93", "trialTime": 41511, "trial_type": "mouselab-mdp", "trial_index": 4, "time_elapsed": 657622, "internal_node_id": "0.0-2.0-2.0-0.0"}}, {"uniqueid": "w83337711:a25160429", "current_trial": 5, "dateTime": 1691143277002, "trialdata": {"revealed_states": [], "clicked_states": ["23"], "num_clicks_accrued": [0, 0, 0, 0, 0, 0, 0, 0, 0, 0, 0, 0, 0], "stateRewards": ["", 10, -10, -10, 10, 10, -10, 10, -10, 10, -10, 10, 10, -10, -10, 10, -10, -10, -10, 10, -10, 10, -10, 10, 10, 10, -10, 10, 10, 10, -10, -10, -10, 10], "withholdReward": false, "trial_id": "practice_2", "block": "test", "trialIndex": 1, "score": 33, "costs": -0.5, "simulationMode": [null, null, null, null, null], "rewards": [10, 10, 10, -10, 10], "path": ["0", "0", "23", "24", "25", "30", "33"], "rt": [5387, 670, 430, 3978, 6609], "actions": ["left", "left", "left", "down", "left"], "actionTimes": [9849, 11039, 11999, 16512, 23655], "queries": {"click": {"state": {"target": ["23"], "time": [6259]}, "edge": {"target": [], "time": []}}, "mouseover": {"state": {"target": ["23"], "time": [5723]}, "edge": {"target": [], "time": []}}, "mouseout": {"state": {"target": ["12", "0", "23"], "time": [4007, 5638, 8369]}, "edge": {"target": [], "time": []}}}, "displayed_time": "24.19", "trialTime": 29585, "trial_type": "mouselab-mdp", "trial_index": 5, "time_elapsed": 687436, "internal_node_id": "0.0-2.0-2.0-1.0"}}, {"uniqueid": "w83337711:a25160429", "current_trial": 6, "dateTime": 1691143536946, "trialdata": {"view_history": [{"page_index": 0, "viewing_time": 90805}, {"page_index": 1, "viewing_time": 169138}], "rt": 259943, "trial_id": "mouselab_instructions_2_control", "trial_type": "instructions", "trial_index": 6, "time_elapsed": 947380, "internal_node_id": "0.0-2.0-3.0"}}, {"uniqueid": "w83337711:a25160429", "current_trial": 7, "dateTime": 1691143647428, "trialdata": {"rt": 110478, "response": {"Q0": "The cost for clicking on nodes may vary between nodes.", "Q1": "The better I perform the higher my bonus will be.", "Q2": "No, the amount of cash at each node of the web may be different each time.", "Q3": "To get the highest total score.", "Q4": "Only before moving the spider.", "Q5": "3 seconds"}, "question_order": [0, 1, 2, 3, 4, 5], "correct": {"Q0": "The cost for clicking on nodes may vary between nodes.", "Q1": "The better I perform the higher my bonus will be.", "Q2": "No, the amount of cash at each node of the web may be different each time.", "Q3": "To get the highest total score.", "Q4": "Only before moving the spider.", "Q5": "3 seconds"}, "trial_id": "mouselab_quiz_control", "trial_type": "survey-multi-choice", "trial_index": 7, "time_elapsed": 1057862, "internal_node_id": "0.0-2.0-4.0"}}, {"uniqueid": "w83337711:a25160429", "current_trial": 8, "dateTime": 1691143690436, "trialdata": {"rt": 43004, "stimulus": "\n<h1> Get ready to start the game! </h1>\n\nThank you for reading the instructions. Get ready start with the 40 rounds of this game.\n<br><br>\nIf you need to take a break, feel free to take one after the end of a round, before continuing to the next one.\n<br><br>\nRemember, the more money the spider gets, the bigger your bonus will be!\n<br><br>\n<div style='text-align: center;'>Press <code>space</code> to begin.</div>\n\n<br><br>\n(If, at any point, the <code>space</code> key does not take you to the next page, click once on the text and try again.)", "response": " ", "trial_id": "mdp_ready", "trial_type": "html-keyboard-response", "trial_index": 8, "time_elapsed": 1100870, "internal_node_id": "0.0-4.0-0.0"}}, {"uniqueid": "w83337711:a25160429", "current_trial": 9, "dateTime": 1691143723479, "trialdata": {"revealed_states": [], "clicked_states": ["12"], "num_clicks_accrued": [0, 0, 0, 0, 0, 0, 0, 0, 0, 0, 0, 0, 0], "stateRewards": ["", 2, 3, -3, 4, 72, -28, 34, -12, 57, -64, -15, 2, 1, -4, -15, 2, 49, 31, -1, -42, -58, 31, -2, 1, -2, -13, -75, -19, -22, -6, 61, 10, -56], "withholdReward": false, "trial_id": "mdp_trial_1", "block": "test", "trialIndex": 2, "score": 38.6, "costs": -1.4, "simulationMode": [null, null, null, null, null], "rewards": [2, 3, -3, 4, 34], "path": ["0", "0", "1", "2", "3", "4", "7"], "rt": [7492, 310, 455, 2508, 3220], "actions": ["up", "up", "up", "right", "down"], "actionTimes": [12294, 13125, 14104, 17139, 20881], "queries": {"click": {"state": {"target": ["12"], "time": [7139]}, "edge": {"target": [], "time": []}}, "mouseover": {"state": {"target": ["12", "1"], "time": [6870, 8469]}, "edge": {"target": [], "time": []}}, "mouseout": {"state": {"target": ["16", "7", "1", "0", "12"], "time": [1191, 1291, 1691, 6638, 7486]}, "edge": {"target": [], "time": []}}}, "displayed_time": "21.41", "trialTime": 32809, "trial_type": "mouselab-mdp", "trial_index": 9, "time_elapsed": 1133913, "internal_node_id": "0.0-4.0-1.0-0.0"}}, {"uniqueid": "w83337711:a25160429", "current_trial": 10, "dateTime": 1691143747339, "trialdata": {"revealed_states": [], "clicked_states": ["1"], "num_clicks_accrued": [0, 0, 0, 0, 0, 0, 0, 0, 0, 0, 0, 0, 0], "stateRewards": ["", -2, -1, -4, -15, -14, -67, 32, -3, -59, 63, 31, 2, -1, -7, -15, 71, -66, -27, -3, -54, -39, 72, 2, 1, 1, -13, 77, -40, 35, -9, 35, 75, 57], "withholdReward": false, "trial_id": "mdp_trial_2", "block": "test", "trialIndex": 3, "score": 24.6, "costs": -1.4, "simulationMode": [null, null, null, null, null], "rewards": [2, 1, 1, -13, 35], "path": ["0", "0", "23", "24", "25", "26", "29"], "rt": [8017, 383, 251, 809, 2161], "actions": ["left", "left", "left", "up", "left"], "actionTimes": [9886, 10792, 11575, 12917, 15601], "queries": {"click": {"state": {"target": ["1"], "time": [4025]}, "edge": {"target": [], "time": []}}, "mouseover": {"state": {"target": ["23", "1"], "time": [2731, 3663]}, "edge": {"target": [], "time": []}}, "mouseout": {"state": {"target": ["1", "0", "23"], "time": [982, 2548, 3613]}, "edge": {"target": [], "time": []}}}, "displayed_time": "16.12", "trialTime": 23624, "trial_type": "mouselab-mdp", "trial_index": 10, "time_elapsed": 1157773, "internal_node_id": "0.0-4.0-1.0-1.0"}}, {"uniqueid": "w83337711:a25160429", "current_trial": 11, "dateTime": 1691143775438, "trialdata": {"revealed_states": [], "clicked_states": ["23"], "num_clicks_accrued": [0, 0, 0, 0, 0, 0, 0, 0, 0, 0, 0, 0, 0], "stateRewards": ["", -2, 1, -3, -16, -39, -52, 30, -7, -41, -59, 11, 2, 1, 8, 2, -11, -26, -42, -13, 87, -59, -48, -1, -1, -1, 16, -79, 31, 50, -1, -84, 34, -82], "withholdReward": false, "trial_id": "mdp_trial_3", "block": "test", "trialIndex": 4, "score": -62.4, "costs": -1.4, "simulationMode": [null, null, null, null, null], "rewards": [2, 1, 8, -13, -59], "path": ["0", "0", "12", "13", "14", "19", "21"], "rt": [6943, 2066, 1, 1722, 4388], "actions": ["right", "right", "right", "down", "down"], "actionTimes": [10552, 13149, 13681, 15936, 20849], "queries": {"click": {"state": {"target": ["23"], "time": [5323]}, "edge": {"target": [], "time": []}}, "mouseover": {"state": {"target": ["23", "0"], "time": [4837, 5669]}, "edge": {"target": [], "time": []}}, "mouseout": {"state": {"target": ["1", "0", "23", "0"], "time": [774, 4604, 5653, 5769]}, "edge": {"target": [], "time": []}}}, "displayed_time": "21.37", "trialTime": 27787, "trial_type": "mouselab-mdp", "trial_index": 11, "time_elapsed": 1185872, "internal_node_id": "0.0-4.0-1.0-2.0"}}, {"uniqueid": "w83337711:a25160429", "current_trial": 12, "dateTime": 1691143795855, "trialdata": {"revealed_states": [], "clicked_states": ["12"], "num_clicks_accrued": [0, 0, 0, 0, 0, 0, 0, 0, 0, 0, 0, 0, 0], "stateRewards": ["", 1, 2, 3, 16, 63, -25, 16, -4, -14, 82, -66, -1, -3, -3, -11, -14, 19, 46, 3, -34, -82, 66, -2, -3, 4, -5, -63, 77, -37, -1, -45, -41, 84], "withholdReward": false, "trial_id": "mdp_trial_4", "block": "test", "trialIndex": 5, "score": -33.4, "costs": -1.4, "simulationMode": [null, null, null, null, null], "rewards": [-1, -3, -3, -11, -14], "path": ["0", "0", "12", "13", "14", "15", "16"], "rt": [6074, 65, 708, 64, 562], "actions": ["right", "right", "right", "up", "up"], "actionTimes": [7963, 8553, 9795, 10383, 11465], "queries": {"click": {"state": {"target": ["12"], "time": [3322]}, "edge": {"target": [], "time": []}}, "mouseover": {"state": {"target": ["1", "12"], "time": [2875, 3058]}, "edge": {"target": [], "time": []}}, "mouseout": {"state": {"target": ["1", "23", "0", "1", "12"], "time": [1093, 1410, 2510, 2992, 3991]}, "edge": {"target": [], "time": []}}}, "displayed_time": "15.89", "trialTime": 20184, "trial_type": "mouselab-mdp", "trial_index": 12, "time_elapsed": 1206289, "internal_node_id": "0.0-4.0-1.0-3.0"}}, {"uniqueid": "w83337711:a25160429", "current_trial": 13, "dateTime": 1691143820455, "trialdata": {"revealed_states": [], "clicked_states": ["23"], "num_clicks_accrued": [0, 0, 0, 0, 0, 0, 0, 0, 0, 0, 0, 0, 0], "stateRewards": ["", -1, -3, 4, -10, -5, 79, -87, -2, 53, 29, -20, -2, -1, -5, 10, 27, 86, 46, -16, -29, 40, 3, 2, 4, -1, -6, 37, 79, -29, 7, 86, -62, 29], "withholdReward": false, "trial_id": "mdp_trial_5", "block": "test", "trialIndex": 6, "score": -16.4, "costs": -1.4, "simulationMode": [null, null, null, null, null], "rewards": [-1, -3, 4, -10, -5], "path": ["0", "0", "1", "2", "3", "4", "5"], "rt": [7588, 234, 28, 1459, 8093], "actions": ["up", "up", "up", "right", "up"], "actionTimes": [8859, 9626, 10185, 12167, 20782], "queries": {"click": {"state": {"target": ["23"], "time": [2623]}, "edge": {"target": [], "time": []}}, "mouseover": {"state": {"target": ["23"], "time": [2414]}, "edge": {"target": [], "time": []}}, "mouseout": {"state": {"target": ["0", "23"], "time": [2331, 2947]}, "edge": {"target": [], "time": []}}}, "displayed_time": "21.31", "trialTime": 24358, "trial_type": "mouselab-mdp", "trial_index": 13, "time_elapsed": 1230889, "internal_node_id": "0.0-4.0-1.0-4.0"}}, {"uniqueid": "w83337711:a25160429", "current_trial": 14, "dateTime": 1691143840745, "trialdata": {"revealed_states": [], "clicked_states": ["1"], "num_clicks_accrued": [0, 0, 0, 0, 0, 0, 0, 0, 0, 0, 0, 0, 0], "stateRewards": ["", -1, -3, -6, -2, -7, 80, -45, -3, -38, -72, 76, 2, 1, 7, 4, -62, 14, -74, 14, -87, -21, -88, -2, 1, -7, -10, 66, 56, -76, 10, -29, -72, -70], "withholdReward": false, "trial_id": "mdp_trial_6", "block": "test", "trialIndex": 7, "score": -65.4, "costs": -1.4, "simulationMode": [null, null, null, null, null], "rewards": [2, 1, 7, 14, -88], "path": ["0", "0", "12", "13", "14", "19", "22"], "rt": [8231, 140, 60, 2476, 1732], "actions": ["right", "right", "right", "down", "left"], "actionTimes": [9608, 10275, 10861, 13860, 16112], "queries": {"click": {"state": {"target": ["1"], "time": [3143]}, "edge": {"target": [], "time": []}}, "mouseover": {"state": {"target": ["23", "1"], "time": [2624, 2840]}, "edge": {"target": [], "time": []}}, "mouseout": {"state": {"target": ["0", "23", "1"], "time": [1092, 2757, 3356]}, "edge": {"target": [], "time": []}}}, "displayed_time": "16.64", "trialTime": 20032, "trial_type": "mouselab-mdp", "trial_index": 14, "time_elapsed": 1251179, "internal_node_id": "0.0-4.0-1.0-5.0"}}, {"uniqueid": "w83337711:a25160429", "current_trial": 15, "dateTime": 1691143865590, "trialdata": {"revealed_states": [], "clicked_states": [], "num_clicks_accrued": [0, 0, 0, 0, 0, 0, 0, 0, 0, 0, 0, 0, 0], "stateRewards": ["", -2, 2, -1, -6, 22, 6, 6, -5, 70, -42, 65, 1, 3, 5, -6, -67, -9, 3, 14, 7, -62, -13, -2, 4, 1, 16, 42, -21, -52, -8, 32, 53, 81], "withholdReward": false, "trial_id": "mdp_trial_7", "block": "test", "trialIndex": 8, "score": -48, "costs": 0, "simulationMode": [null, null, null, null, null], "rewards": [-2, 2, -1, -5, -42], "path": ["0", "0", "1", "2", "3", "8", "10"], "rt": [15188, 154, 488, 24, 419], "actions": ["up", "up", "up", "left", "down"], "actionTimes": [17818, 18496, 19517, 20065, 21009], "queries": {"click": {"state": {"target": [], "time": []}, "edge": {"target": [], "time": []}}, "mouseover": {"state": {"target": ["12", "0", "0"], "time": [5520, 8866, 9515]}, "edge": {"target": [], "time": []}}, "mouseout": {"state": {"target": ["0", "12", "0", "0"], "time": [2172, 5986, 8899, 9865]}, "edge": {"target": [], "time": []}}}, "displayed_time": "21.54", "trialTime": 24593, "trial_type": "mouselab-mdp", "trial_index": 15, "time_elapsed": 1276024, "internal_node_id": "0.0-4.0-1.0-6.0"}}, {"uniqueid": "w83337711:a25160429", "current_trial": 16, "dateTime": 1691143885897, "trialdata": {"revealed_states": [], "clicked_states": ["12"], "num_clicks_accrued": [0, 0, 0, 0, 0, 0, 0, 0, 0, 0, 0, 0, 0], "stateRewards": ["", -2, 2, 3, -7, 76, 63, 21, 15, 35, -8, -44, 1, 1, -2, -12, 23, 24, 76, -9, 46, 66, -49, -2, -1, 7, 12, 40, -71, -45, -6, 38, -49, 46], "withholdReward": false, "trial_id": "mdp_trial_8", "block": "test", "trialIndex": 9, "score": -30.4, "costs": -1.4, "simulationMode": [null, null, null, null, null], "rewards": [-2, -1, 7, 12, -45], "path": ["0", "0", "23", "24", "25", "26", "29"], "rt": [8219, 553, 33, 1490, 1721], "actions": ["left", "left", "left", "up", "left"], "actionTimes": [10034, 11114, 11677, 13700, 15946], "queries": {"click": {"state": {"target": ["12"], "time": [2833]}, "edge": {"target": [], "time": []}}, "mouseover": {"state": {"target": ["0", "12"], "time": [2235, 2385]}, "edge": {"target": [], "time": []}}, "mouseout": {"state": {"target": ["0", "0", "12"], "time": [1252, 2268, 5033]}, "edge": {"target": [], "time": []}}}, "displayed_time": "16.47", "trialTime": 20069, "trial_type": "mouselab-mdp", "trial_index": 16, "time_elapsed": 1296331, "internal_node_id": "0.0-4.0-1.0-7.0"}}, {"uniqueid": "w83337711:a25160429", "current_trial": 17, "dateTime": 1691143905910, "trialdata": {"revealed_states": [], "clicked_states": ["23"], "num_clicks_accrued": [0, 0, 0, 0, 0, 0, 0, 0, 0, 0, 0, 0, 0], "stateRewards": ["", -2, 2, 8, -6, -25, 3, 87, 2, -62, -2, 74, -2, -1, 2, -1, 79, 49, -37, -14, 5, 67, -9, -1, 2, -2, 5, 15, 38, 32, -14, -38, -38, 30], "withholdReward": false, "trial_id": "mdp_trial_9", "block": "test", "trialIndex": 10, "score": -54.4, "costs": -1.4, "simulationMode": [null, null, null, null, null], "rewards": [-1, 2, -2, -14, -38], "path": ["0", "0", "23", "24", "25", "30", "31"], "rt": [3393, 384, 142, 419, 381], "actions": ["left", "left", "left", "down", "right"], "actionTimes": [4730, 5638, 6312, 7255, 8166], "queries": {"click": {"state": {"target": ["23"], "time": [1971]}, "edge": {"target": [], "time": []}}, "mouseover": {"state": {"target": ["23", "0"], "time": [1840, 2339]}, "edge": {"target": [], "time": []}}, "mouseout": {"state": {"target": ["0", "23", "0"], "time": [1773, 2068, 2375]}, "edge": {"target": [], "time": []}}}, "displayed_time": "15.34", "trialTime": 19805, "trial_type": "mouselab-mdp", "trial_index": 17, "time_elapsed": 1316343, "internal_node_id": "0.0-4.0-1.0-8.0"}}, {"uniqueid": "w83337711:a25160429", "current_trial": 18, "dateTime": 1691143928030, "trialdata": {"revealed_states": [], "clicked_states": ["12"], "num_clicks_accrued": [0, 0, 0, 0, 0, 0, 0, 0, 0, 0, 0, 0, 0], "stateRewards": ["", -2, 2, -5, -6, 10, -66, -58, -10, -11, -63, -70, -1, -4, -5, 7, 66, -64, -43, -3, 45, -37, 4, -2, -2, -6, -4, -30, 33, 43, 15, -32, -65, -59], "withholdReward": false, "trial_id": "mdp_trial_10", "block": "test", "trialIndex": 11, "score": -86.4, "costs": -1.4, "simulationMode": [null, null, null, null, null], "rewards": [-2, 2, -5, -10, -70], "path": ["0", "0", "1", "2", "3", "8", "11"], "rt": [6207, 88, 162, 800, 390], "actions": ["up", "up", "up", "left", "left"], "actionTimes": [7690, 8301, 8991, 10311, 11233], "queries": {"click": {"state": {"target": ["12"], "time": [3054]}, "edge": {"target": [], "time": []}}, "mouseover": {"state": {"target": ["12"], "time": [2933]}, "edge": {"target": [], "time": []}}, "mouseout": {"state": {"target": ["0", "12"], "time": [2900, 3849]}, "edge": {"target": [], "time": []}}}, "displayed_time": "15.48", "trialTime": 21888, "trial_type": "mouselab-mdp", "trial_index": 18, "time_elapsed": 1338464, "internal_node_id": "0.0-4.0-1.0-9.0"}}, {"uniqueid": "w83337711:a25160429", "current_trial": 19, "dateTime": 1691143958707, "trialdata": {"revealed_states": [], "clicked_states": ["12"], "num_clicks_accrued": [0, 0, 0, 0, 0, 0, 0, 0, 0, 0, 0, 0, 0], "stateRewards": ["", 2, -1, -2, -5, -47, -57, -33, -11, 31, -18, -72, -2, 1, -4, -8, -46, -53, -50, 15, -85, -9, 39, -2, -2, 1, 14, -1, -8, 53, -12, -41, -74, 62], "withholdReward": false, "trial_id": "mdp_trial_11", "block": "test", "trialIndex": 12, "score": -57.4, "costs": -1.4, "simulationMode": [null, null, null, null, null], "rewards": [-2, -2, 1, -12, -41], "path": ["0", "0", "23", "24", "25", "30", "31"], "rt": [13911, 191, 1082, 1613, 2969], "actions": ["left", "left", "left", "down", "right"], "actionTimes": [16219, 16935, 18542, 20688, 24192], "queries": {"click": {"state": {"target": ["12"], "time": [4189]}, "edge": {"target": [], "time": []}}, "mouseover": {"state": {"target": ["12"], "time": [3954]}, "edge": {"target": [], "time": []}}, "mouseout": {"state": {"target": ["0", "12", "0"], "time": [3705, 7401, 29397]}, "edge": {"target": [], "time": []}}}, "displayed_time": "24.72", "trialTime": 30425, "trial_type": "mouselab-mdp", "trial_index": 19, "time_elapsed": 1369141, "internal_node_id": "0.0-4.0-1.0-10.0"}}, {"uniqueid": "w83337711:a25160429", "current_trial": 20, "dateTime": 1691143977298, "trialdata": {"revealed_states": [], "clicked_states": ["23"], "num_clicks_accrued": [0, 0, 0, 0, 0, 0, 0, 0, 0, 0, 0, 0, 0], "stateRewards": ["", -1, 4, -3, 3, 57, -61, 5, -11, 23, -1, 34, -2, -4, -1, -13, 27, 38, -36, 4, -45, 21, 88, 1, -2, -1, 1, -69, -5, -78, -12, -9, 38, -54], "withholdReward": false, "trial_id": "mdp_trial_12", "block": "test", "trialIndex": 13, "score": -24.4, "costs": -1.4, "simulationMode": [null, null, null, null, null], "rewards": [1, -2, -1, -12, -9], "path": ["0", "0", "23", "24", "25", "30", "31"], "rt": [3730, 17, 654, 477, 470], "actions": ["left", "left", "left", "down", "right"], "actionTimes": [5028, 5574, 6760, 7765, 8758], "queries": {"click": {"state": {"target": ["23"], "time": [3046]}, "edge": {"target": [], "time": []}}, "mouseover": {"state": {"target": ["23"], "time": [2876]}, "edge": {"target": [], "time": []}}, "mouseout": {"state": {"target": ["0", "23", "23"], "time": [2825, 3094, 3374]}, "edge": {"target": [], "time": []}}}, "displayed_time": "15.30", "trialTime": 18364, "trial_type": "mouselab-mdp", "trial_index": 20, "time_elapsed": 1387731, "internal_node_id": "0.0-4.0-1.0-11.0"}}, {"uniqueid": "w83337711:a25160429", "current_trial": 21, "dateTime": 1691143996940, "trialdata": {"revealed_states": [], "clicked_states": ["1"], "num_clicks_accrued": [0, 0, 0, 0, 0, 0, 0, 0, 0, 0, 0, 0, 0], "stateRewards": ["", -2, 4, 3, 5, -61, 4, 30, 1, -47, 83, 10, 1, 4, 7, -14, 19, -74, -83, 6, -2, -2, -65, -1, -2, 4, -11, 12, -1, -68, 11, -38, -28, 66], "withholdReward": false, "trial_id": "mdp_trial_13", "block": "test", "trialIndex": 14, "score": -12.4, "costs": -1.4, "simulationMode": [null, null, null, null, null], "rewards": [-1, -2, 4, -11, -1], "path": ["0", "0", "23", "24", "25", "26", "28"], "rt": [6876, 575, 89, 1178, 502], "actions": ["left", "left", "left", "up", "right"], "actionTimes": [7892, 8997, 9610, 11315, 12339], "queries": {"click": {"state": {"target": ["1"], "time": [2281]}, "edge": {"target": [], "time": []}}, "mouseover": {"state": {"target": ["12", "1", "0"], "time": [1960, 2076, 2526]}, "edge": {"target": [], "time": []}}, "mouseout": {"state": {"target": ["0", "12", "1", "0"], "time": [860, 2026, 2476, 2559]}, "edge": {"target": [], "time": []}}}, "displayed_time": "15.02", "trialTime": 19407, "trial_type": "mouselab-mdp", "trial_index": 21, "time_elapsed": 1407374, "internal_node_id": "0.0-4.0-1.0-12.0"}}, {"uniqueid": "w83337711:a25160429", "current_trial": 22, "dateTime": 1691144019622, "trialdata": {"revealed_states": [], "clicked_states": ["23"], "num_clicks_accrued": [0, 0, 0, 0, 0, 0, 0, 0, 0, 0, 0, 0, 0], "stateRewards": ["", 1, 4, 5, -5, 58, -80, 75, 6, 25, -39, 46, 2, -2, 4, 2, 59, 31, -22, -12, -61, 15, 72, 1, -2, -7, 8, 77, 76, -23, -7, 71, -15, -3], "withholdReward": false, "trial_id": "mdp_trial_14", "block": "test", "trialIndex": 15, "score": 78.6, "costs": -1.4, "simulationMode": [null, null, null, null, null], "rewards": [1, 4, 5, -5, 75], "path": ["0", "0", "1", "2", "3", "4", "7"], "rt": [6131, 87, 135, 1324, 2864], "actions": ["up", "up", "up", "right", "down"], "actionTimes": [7808, 8427, 9090, 10945, 14335], "queries": {"click": {"state": {"target": ["23"], "time": [4529]}, "edge": {"target": [], "time": []}}, "mouseover": {"state": {"target": ["0", "0", "23"], "time": [2345, 3193, 4459]}, "edge": {"target": [], "time": []}}, "mouseout": {"state": {"target": ["0", "0", "0", "23", "23", "12", "7", "7", "7", "7"], "time": [1477, 2411, 4242, 4578, 5141, 20627, 20844, 21127, 21426, 21792]}, "edge": {"target": [], "time": []}}}, "displayed_time": "15.68", "trialTime": 22459, "trial_type": "mouselab-mdp", "trial_index": 22, "time_elapsed": 1430055, "internal_node_id": "0.0-4.0-1.0-13.0"}}, {"uniqueid": "w83337711:a25160429", "current_trial": 23, "dateTime": 1691144039014, "trialdata": {"revealed_states": [], "clicked_states": ["12"], "num_clicks_accrued": [0, 0, 0, 0, 0, 0, 0, 0, 0, 0, 0, 0, 0], "stateRewards": ["", 1, 4, 5, 8, -55, -11, 8, 16, -37, 77, -22, -2, 3, -8, -10, 45, 87, -67, 4, 17, -33, -22, -1, -3, 7, 6, -39, -85, 75, -1, 7, -48, 45], "withholdReward": false, "trial_id": "mdp_trial_15", "block": "test", "trialIndex": 16, "score": 24.6, "costs": -1.4, "simulationMode": [null, null, null, null, null], "rewards": [1, 4, 5, 8, 8], "path": ["0", "0", "1", "2", "3", "4", "7"], "rt": [5772, 30, 107, 490, 446], "actions": ["up", "up", "up", "right", "down"], "actionTimes": [7151, 7705, 8349, 9363, 10334], "queries": {"click": {"state": {"target": ["12"], "time": [3605]}, "edge": {"target": [], "time": []}}, "mouseover": {"state": {"target": ["12"], "time": [3410]}, "edge": {"target": [], "time": []}}, "mouseout": {"state": {"target": ["0", "12", "12"], "time": [3360, 3652, 4009]}, "edge": {"target": [], "time": []}}}, "displayed_time": "15.38", "trialTime": 19156, "trial_type": "mouselab-mdp", "trial_index": 23, "time_elapsed": 1449447, "internal_node_id": "0.0-4.0-1.0-14.0"}}, {"uniqueid": "w83337711:a25160429", "current_trial": 24, "dateTime": 1691144057185, "trialdata": {"revealed_states": [], "clicked_states": ["23"], "num_clicks_accrued": [0, 0, 0, 0, 0, 0, 0, 0, 0, 0, 0, 0, 0], "stateRewards": ["", -2, 1, -7, 9, 8, 25, 61, -7, -17, 69, -81, 1, 4, -4, -11, 16, 67, 44, 3, 6, -45, -54, -2, 3, 6, -11, -15, 32, -47, 3, -39, -6, -88], "withholdReward": false, "trial_id": "mdp_trial_16", "block": "test", "trialIndex": 17, "score": 60.6, "costs": -1.4, "simulationMode": [null, null, null, null, null], "rewards": [-2, 1, -7, 9, 61], "path": ["0", "0", "1", "2", "3", "4", "7"], "rt": [4747, 15, 71, 339, 95], "actions": ["up", "up", "up", "right", "down"], "actionTimes": [5915, 6452, 7058, 7925, 8547], "queries": {"click": {"state": {"target": ["23"], "time": [2859]}, "edge": {"target": [], "time": []}}, "mouseover": {"state": {"target": ["1", "23"], "time": [2240, 2707]}, "edge": {"target": [], "time": []}}, "mouseout": {"state": {"target": ["0", "1", "23", "23"], "time": [2007, 2523, 2935, 3255]}, "edge": {"target": [], "time": []}}}, "displayed_time": "15.17", "trialTime": 17925, "trial_type": "mouselab-mdp", "trial_index": 24, "time_elapsed": 1467619, "internal_node_id": "0.0-4.0-1.0-15.0"}}, {"uniqueid": "w83337711:a25160429", "current_trial": 25, "dateTime": 1691144077206, "trialdata": {"revealed_states": [], "clicked_states": ["23"], "num_clicks_accrued": [0, 0, 0, 0, 0, 0, 0, 0, 0, 0, 0, 0, 0], "stateRewards": ["", -1, -3, -3, 1, -38, 2, -53, -2, -1, -81, 70, -1, 1, -5, -9, 46, 15, 35, -1, -22, 38, 59, -2, 4, -8, 13, 1, -83, -43, 4, 76, 13, 48], "withholdReward": false, "trial_id": "mdp_trial_17", "block": "test", "trialIndex": 18, "score": -60.4, "costs": -1.4, "simulationMode": [null, null, null, null, null], "rewards": [-1, -3, -3, 1, -53], "path": ["0", "0", "1", "2", "3", "4", "7"], "rt": [4092, 136, 18, 215, 43], "actions": ["up", "up", "up", "right", "down"], "actionTimes": [5854, 6522, 7070, 7816, 8394], "queries": {"click": {"state": {"target": ["23"], "time": [3454]}, "edge": {"target": [], "time": []}}, "mouseover": {"state": {"target": ["23"], "time": [3238]}, "edge": {"target": [], "time": []}}, "mouseout": {"state": {"target": ["0", "23"], "time": [1156, 3872]}, "edge": {"target": [], "time": []}}}, "displayed_time": "15.76", "trialTime": 19761, "trial_type": "mouselab-mdp", "trial_index": 25, "time_elapsed": 1487640, "internal_node_id": "0.0-4.0-1.0-16.0"}}, {"uniqueid": "w83337711:a25160429", "current_trial": 26, "dateTime": 1691144109319, "trialdata": {"revealed_states": [], "clicked_states": ["1"], "num_clicks_accrued": [0, 0, 0, 0, 0, 0, 0, 0, 0, 0, 0, 0, 0], "stateRewards": ["", -2, -3, -3, 9, 79, 67, 22, -15, -56, 27, -85, -2, 4, -4, -15, -20, -32, 60, 15, 71, 57, 17, 1, 2, -8, 15, -37, -81, 82, 15, 21, -3, 2], "withholdReward": false, "trial_id": "mdp_trial_18", "block": "test", "trialIndex": 19, "score": -72.4, "costs": -1.4, "simulationMode": [null, null, null, null, null], "rewards": [1, 2, -8, 15, -81], "path": ["0", "0", "23", "24", "25", "26", "28"], "rt": [13861, 435, 57, 7991, 2894], "actions": ["left", "left", "left", "up", "right"], "actionTimes": [15283, 16252, 16839, 25357, 28785], "queries": {"click": {"state": {"target": ["1"], "time": [3444]}, "edge": {"target": [], "time": []}}, "mouseover": {"state": {"target": ["1", "12"], "time": [3094, 3795]}, "edge": {"target": [], "time": []}}, "mouseout": {"state": {"target": ["0", "1", "12"], "time": [2778, 3745, 3844]}, "edge": {"target": [], "time": []}}}, "displayed_time": "29.30", "trialTime": 31867, "trial_type": "mouselab-mdp", "trial_index": 26, "time_elapsed": 1519753, "internal_node_id": "0.0-4.0-1.0-17.0"}}, {"uniqueid": "w83337711:a25160429", "current_trial": 27, "dateTime": 1691144129711, "trialdata": {"revealed_states": [], "clicked_states": ["4"], "num_clicks_accrued": [0, 0, 0, 0, 0, 0, 0, 0, 0, 0, 0, 0, 0], "stateRewards": ["", -2, 3, 8, -9, 59, 41, -50, -1, 82, 66, 33, 2, -2, 7, 8, 1, -38, 12, -16, 24, -37, 67, 1, 4, -2, 5, 35, -83, 28, 8, -27, 69, -64], "withholdReward": false, "trial_id": "mdp_trial_19", "block": "test", "trialIndex": 20, "score": 88.6, "costs": -1.4, "simulationMode": [null, null, null, null, null], "rewards": [-2, 3, 8, -1, 82], "path": ["0", "0", "1", "2", "3", "8", "9"], "rt": [8869, 278, 456, 376, 387], "actions": ["up", "up", "up", "left", "up"], "actionTimes": [10223, 11030, 12007, 12909, 13819], "queries": {"click": {"state": {"target": ["4"], "time": [3324]}, "edge": {"target": [], "time": []}}, "mouseover": {"state": {"target": ["1", "2", "4", "7", "1", "23", "0"], "time": [2291, 2491, 2874, 3825, 7403, 7486, 8353]}, "edge": {"target": [], "time": []}}, "mouseout": {"state": {"target": ["0", "1", "2", "4", "7", "1", "23", "0"], "time": [2208, 2425, 2641, 3808, 3858, 7420, 7654, 8386]}, "edge": {"target": [], "time": []}}}, "displayed_time": "15.36", "trialTime": 20152, "trial_type": "mouselab-mdp", "trial_index": 27, "time_elapsed": 1540145, "internal_node_id": "0.0-4.0-1.0-18.0"}}, {"uniqueid": "w83337711:a25160429", "current_trial": 28, "dateTime": 1691144152400, "trialdata": {"revealed_states": [], "clicked_states": ["13"], "num_clicks_accrued": [0, 0, 0, 0, 0, 0, 0, 0, 0, 0, 0, 0, 0], "stateRewards": ["", 2, 4, -5, 7, 81, 35, 6, 11, 14, -72, 42, -1, 2, 3, -7, -77, -44, -40, -15, -85, 51, -32, -2, -1, -5, 7, -74, 47, 52, 16, -49, 48, -46], "withholdReward": false, "trial_id": "mdp_trial_20", "block": "test", "trialIndex": 21, "score": -81.4, "costs": -1.4, "simulationMode": [null, null, null, null, null], "rewards": [-1, 2, 3, -7, -77], "path": ["0", "0", "12", "13", "14", "15", "16"], "rt": [6739, 127, 556, 243, 13], "actions": ["right", "right", "right", "up", "up"], "actionTimes": [8657, 9309, 10387, 11156, 11692], "queries": {"click": {"state": {"target": ["13"], "time": [4500]}, "edge": {"target": [], "time": []}}, "mouseover": {"state": {"target": ["12", "13", "22", "22"], "time": [4101, 4318, 5068, 5485]}, "edge": {"target": [], "time": []}}, "mouseout": {"state": {"target": ["0", "12", "13", "13", "22", "22", "0"], "time": [1654, 4284, 4561, 5052, 5101, 5501, 21735]}, "edge": {"target": [], "time": []}}}, "displayed_time": "15.92", "trialTime": 22387, "trial_type": "mouselab-mdp", "trial_index": 28, "time_elapsed": 1562834, "internal_node_id": "0.0-4.0-1.0-19.0"}}, {"uniqueid": "w83337711:a25160429", "current_trial": 29, "dateTime": 1691144170495, "trialdata": {"revealed_states": [], "clicked_states": ["6"], "num_clicks_accrued": [0, 0, 0, 0, 0, 0, 0, 0, 0, 0, 0, 0, 0], "stateRewards": ["", -1, -3, 3, 5, 56, 39, 50, -1, -80, 33, -46, 1, -2, -6, -8, 87, 48, 54, -11, -20, -64, -54, -2, 3, -7, -3, 12, 88, 35, -16, -46, -70, -3], "withholdReward": false, "trial_id": "mdp_trial_21", "block": "test", "trialIndex": 22, "score": 41.6, "costs": -1.4, "simulationMode": [null, null, null, null, null], "rewards": [-1, -3, 3, 5, 39], "path": ["0", "0", "1", "2", "3", "4", "6"], "rt": [6108, 92, 109, 39, 248], "actions": ["up", "up", "up", "right", "right"], "actionTimes": [7210, 7833, 8468, 9029, 9804], "queries": {"click": {"state": {"target": ["6"], "time": [3749]}, "edge": {"target": [], "time": []}}, "mouseover": {"state": {"target": ["1", "2", "3", "4", "6"], "time": [2362, 2446, 2779, 2979, 3511]}, "edge": {"target": [], "time": []}}, "mouseout": {"state": {"target": ["0", "1", "2", "3", "4", "6", "12"], "time": [2330, 2412, 2529, 2962, 3479, 4178, 16066]}, "edge": {"target": [], "time": []}}}, "displayed_time": "15.10", "trialTime": 17846, "trial_type": "mouselab-mdp", "trial_index": 29, "time_elapsed": 1580929, "internal_node_id": "0.0-4.0-1.0-20.0"}}, {"uniqueid": "w83337711:a25160429", "current_trial": 30, "dateTime": 1691144187236, "trialdata": {"revealed_states": [], "clicked_states": ["11"], "num_clicks_accrued": [0, 0, 0, 0, 0, 0, 0, 0, 0, 0, 0, 0, 0], "stateRewards": ["", 2, 1, -3, 7, 46, 11, -36, 16, 71, 5, 1, 2, -2, -8, -3, -4, 6, 55, 7, 68, -54, 2, 1, 1, 6, -6, 42, -4, -84, -11, -65, 63, 25], "withholdReward": false, "trial_id": "mdp_trial_22", "block": "test", "trialIndex": 23, "score": 85.6, "costs": -1.4, "simulationMode": [null, null, null, null, null], "rewards": [2, 1, -3, 16, 71], "path": ["0", "0", "1", "2", "3", "8", "9"], "rt": [6351, 111, 156, 478, 161], "actions": ["up", "up", "up", "left", "up"], "actionTimes": [7274, 7909, 8586, 9591, 10273], "queries": {"click": {"state": {"target": ["11"], "time": [2744]}, "edge": {"target": [], "time": []}}, "mouseover": {"state": {"target": ["10", "10", "8", "11", "10", "1"], "time": [1853, 2202, 2251, 2601, 3201, 3218]}, "edge": {"target": [], "time": []}}, "mouseout": {"state": {"target": ["0", "10", "10", "8", "11", "10", "1", "22"], "time": [736, 2035, 2235, 2452, 2805, 3217, 3234, 16122]}, "edge": {"target": [], "time": []}}}, "displayed_time": "14.93", "trialTime": 16443, "trial_type": "mouselab-mdp", "trial_index": 30, "time_elapsed": 1597669, "internal_node_id": "0.0-4.0-1.0-21.0"}}, {"uniqueid": "w83337711:a25160429", "current_trial": 31, "dateTime": 1691144213955, "trialdata": {"revealed_states": [], "clicked_states": ["1", "23", "24", "30", "32", "31"], "num_clicks_accrued": [0, 0, 0, 0, 0, 0, 0, 0, 0, 0, 0, 0, 0], "stateRewards": ["", -1, -1, 7, -15, -43, -21, -84, -9, -45, -66, 2, 1, -2, 2, 8, -27, 44, -52, -5, -84, 11, 53, 1, 4, -4, 16, 83, -82, -15, -16, 68, -43, 81], "withholdReward": false, "trial_id": "mdp_trial_23", "block": "test", "trialIndex": 24, "score": 44.6, "costs": -8.4, "simulationMode": [null, null, null, null, null], "rewards": [1, 4, -4, -16, 68], "path": ["0", "0", "23", "24", "25", "30", "31"], "rt": [20109, 187, 98, 448, 51], "actions": ["left", "left", "left", "down", "right"], "actionTimes": [21708, 22417, 23045, 24029, 24613], "queries": {"click": {"state": {"target": ["1", "23", "24", "30", "32", "31"], "time": [4189, 8247, 11155, 13799, 15803, 18533]}, "edge": {"target": [], "time": []}}, "mouseover": {"state": {"target": ["0", "1", "18", "12", "23", "0", "0", "24", "30", "32", "31", "30", "33", "30"], "time": [2282, 3997, 5280, 7743, 8077, 8728, 10790, 11090, 13571, 15619, 18385, 19761, 19849, 20598]}, "edge": {"target": [], "time": []}}, "mouseout": {"state": {"target": ["0", "0", "1", "18", "12", "23", "0", "0", "23", "24", "30", "32", "31", "31", "30", "33", "30"], "time": [1316, 2531, 4244, 7711, 7976, 8302, 9077, 10840, 10940, 13255, 15586, 17601, 18587, 19735, 19782, 20581, 20631]}, "edge": {"target": [], "time": []}}}, "displayed_time": "25.15", "trialTime": 26375, "trial_type": "mouselab-mdp", "trial_index": 31, "time_elapsed": 1624389, "internal_node_id": "0.0-4.0-1.0-22.0"}}, {"uniqueid": "w83337711:a25160429", "current_trial": 32, "dateTime": 1691144230679, "trialdata": {"revealed_states": [], "clicked_states": ["19", "20", "21"], "num_clicks_accrued": [0, 0, 0, 0, 0, 0, 0, 0, 0, 0, 0, 0, 0], "stateRewards": ["", 2, -1, 8, -2, -16, 69, -39, -7, -13, -27, -86, 2, -2, 2, 13, -34, -16, -20, -5, 19, 81, 32, -2, -1, 2, -14, 20, 80, 58, 4, 70, 12, 73], "withholdReward": false, "trial_id": "mdp_trial_24", "block": "test", "trialIndex": 25, "score": 73.8, "costs": -4.199999999999999, "simulationMode": [null, null, null, null, null], "rewards": [2, -2, 2, -5, 81], "path": ["0", "0", "12", "13", "14", "19", "21"], "rt": [7701, 99, 498, 64, 28], "actions": ["right", "right", "right", "down", "down"], "actionTimes": [8791, 9424, 10455, 11054, 11601], "queries": {"click": {"state": {"target": ["19", "20", "21"], "time": [1863, 3776, 5589]}, "edge": {"target": [], "time": []}}, "mouseover": {"state": {"target": ["12", "13", "19", "20", "21", "22"], "time": [1464, 1515, 1665, 2731, 4213, 6393]}, "edge": {"target": [], "time": []}}, "mouseout": {"state": {"target": ["12", "13", "19", "20", "21", "22"], "time": [1498, 1548, 2381, 4146, 6027, 7892]}, "edge": {"target": [], "time": []}}}, "displayed_time": "15.09", "trialTime": 16456, "trial_type": "mouselab-mdp", "trial_index": 32, "time_elapsed": 1641113, "internal_node_id": "0.0-4.0-1.0-23.0"}}, {"uniqueid": "w83337711:a25160429", "current_trial": 33, "dateTime": 1691144248276, "trialdata": {"revealed_states": [], "clicked_states": ["16", "17", "18"], "num_clicks_accrued": [0, 0, 0, 0, 0, 0, 0, 0, 0, 0, 0, 0, 0], "stateRewards": ["", -2, -3, 1, -14, 48, -49, 67, -1, -35, -48, 3, -2, 1, -4, -5, 86, -84, 39, 1, 48, 41, -42, -1, -4, 2, -7, 18, -86, 17, 7, -9, 57, -69], "withholdReward": false, "trial_id": "mdp_trial_25", "block": "test", "trialIndex": 26, "score": 71.8, "costs": -4.199999999999999, "simulationMode": [null, null, null, null, null], "rewards": [-2, 1, -4, -5, 86], "path": ["0", "0", "12", "13", "14", "15", "16"], "rt": [8574, 129, 311, 134, 124], "actions": ["right", "right", "right", "up", "up"], "actionTimes": [9532, 10195, 11027, 11683, 12339], "queries": {"click": {"state": {"target": ["16", "17", "18"], "time": [2242, 4830, 7168]}, "edge": {"target": [], "time": []}}, "mouseover": {"state": {"target": ["18", "15", "15", "16", "18", "15", "17", "14", "18"], "time": [1457, 1490, 1740, 2041, 2639, 3855, 3922, 5504, 6785]}, "edge": {"target": [], "time": []}}, "mouseout": {"state": {"target": ["0", "18", "15", "15", "16", "18", "15", "17", "14", "18", "12"], "time": [1374, 1474, 1507, 1990, 2589, 3821, 3888, 5453, 6386, 16260, 16859]}, "edge": {"target": [], "time": []}}}, "displayed_time": "14.96", "trialTime": 17361, "trial_type": "mouselab-mdp", "trial_index": 33, "time_elapsed": 1658710, "internal_node_id": "0.0-4.0-1.0-24.0"}}, {"uniqueid": "w83337711:a25160429", "current_trial": 34, "dateTime": 1691144276170, "trialdata": {"revealed_states": [], "clicked_states": ["27", "29", "28", "9", "11", "10", "5", "6"], "num_clicks_accrued": [0, 0, 0, 0, 0, 0, 0, 0, 0, 0, 0, 0, 0], "stateRewards": ["", -2, -3, 8, 14, -73, 73, 84, -12, -2, -50, -17, 2, 1, -2, -9, -44, -27, -33, 16, -63, -47, -66, -2, 1, 4, -5, -33, -11, 50, 9, 38, -79, 31], "withholdReward": false, "trial_id": "mdp_trial_26", "block": "test", "trialIndex": 27, "score": 78.8, "costs": -11.200000000000001, "simulationMode": [null, null, null, null, null], "rewards": [-2, -3, 8, 14, 73], "path": ["0", "0", "1", "2", "3", "4", "6"], "rt": [19809, 113, 162, 4, 312], "actions": ["up", "up", "up", "right", "right"], "actionTimes": [21038, 21681, 22363, 22887, 23732], "queries": {"click": {"state": {"target": ["27", "29", "28", "9", "11", "10", "5", "6"], "time": [2720, 4489, 6431, 8735, 10667, 12530, 14486, 16313]}, "edge": {"target": [], "time": []}}, "mouseover": {"state": {"target": ["31", "24", "27", "29", "26", "29", "26", "28", "10", "8", "9", "11", "11", "10", "3", "4", "5", "6", "7", "2", "10", "26", "26"], "time": [1786, 2018, 2534, 3335, 4034, 4234, 4949, 4983, 7948, 8013, 8612, 10261, 10544, 11410, 12925, 13058, 13791, 15074, 16805, 17689, 18038, 18120, 19070]}, "edge": {"target": [], "time": []}}, "mouseout": {"state": {"target": ["0", "31", "24", "27", "29", "26", "29", "26", "28", "10", "8", "9", "11", "11", "10", "3", "4", "5", "6", "6", "7", "2", "10", "26", "26"], "time": [1702, 2002, 2052, 3019, 3968, 4184, 4587, 4966, 7215, 7980, 8329, 9130, 10361, 11110, 12875, 12942, 13108, 15025, 16361, 16722, 17656, 18020, 18054, 18170, 19103]}, "edge": {"target": [], "time": []}}}, "displayed_time": "24.27", "trialTime": 27650, "trial_type": "mouselab-mdp", "trial_index": 34, "time_elapsed": 1686604, "internal_node_id": "0.0-4.0-1.0-25.0"}}, {"uniqueid": "w83337711:a25160429", "current_trial": 35, "dateTime": 1691144298642, "trialdata": {"revealed_states": [], "clicked_states": ["17", "16", "18", "20", "21", "22"], "num_clicks_accrued": [0, 0, 0, 0, 0, 0, 0, 0, 0, 0, 0, 0, 0], "stateRewards": ["", 1, 2, 2, -15, -84, 28, -26, 13, 31, 86, 30, -2, 1, -1, -8, 66, -40, -1, -10, -32, 57, -17, 1, 2, -2, 9, -23, 77, 85, 12, -32, -62, -35], "withholdReward": false, "trial_id": "mdp_trial_27", "block": "test", "trialIndex": 28, "score": 47.6, "costs": -8.4, "simulationMode": [null, null, null, null, null], "rewards": [-2, 1, -1, -8, 66], "path": ["0", "0", "12", "13", "14", "15", "16"], "rt": [14973, 74, 43, 738, 112], "actions": ["right", "right", "right", "up", "up"], "actionTimes": [16577, 17185, 17754, 19015, 19654], "queries": {"click": {"state": {"target": ["17", "16", "18", "20", "21", "22"], "time": [3079, 5496, 7280, 9265, 11147, 13840]}, "edge": {"target": [], "time": []}}, "mouseover": {"state": {"target": ["12", "13", "17", "16", "18", "15", "14", "20", "21", "22", "19"], "time": [2141, 2524, 2624, 3973, 5921, 7719, 7919, 8386, 10300, 12249, 14363]}, "edge": {"target": [], "time": []}}, "mouseout": {"state": {"target": ["1", "12", "13", "17", "16", "18", "15", "14", "20", "21", "22", "19"], "time": [1158, 2490, 2540, 3806, 5838, 7704, 7836, 7986, 9767, 11700, 14346, 14379]}, "edge": {"target": [], "time": []}}}, "displayed_time": "20.18", "trialTime": 22237, "trial_type": "mouselab-mdp", "trial_index": 35, "time_elapsed": 1709076, "internal_node_id": "0.0-4.0-1.0-26.0"}}, {"uniqueid": "w83337711:a25160429", "current_trial": 36, "dateTime": 1691144317768, "trialdata": {"revealed_states": [], "clicked_states": ["9", "11", "10", "5", "6"], "num_clicks_accrued": [0, 0, 0, 0, 0, 0, 0, 0, 0, 0, 0, 0, 0], "stateRewards": ["", 1, 2, -3, -6, 50, -7, 7, -7, -80, 21, -1, 2, 2, 4, -1, 33, 84, 1, 14, -53, 81, 6, -2, -2, -3, -9, -87, -38, -59, -5, -74, -3, -71], "withholdReward": false, "trial_id": "mdp_trial_28", "block": "test", "trialIndex": 29, "score": 37, "costs": -7, "simulationMode": [null, null, null, null, null], "rewards": [1, 2, -3, -6, 50], "path": ["0", "0", "1", "2", "3", "4", "5"], "rt": [11862, 60, 113, 80, 185], "actions": ["up", "up", "up", "right", "up"], "actionTimes": [13257, 13852, 14487, 15087, 15791], "queries": {"click": {"state": {"target": ["9", "11", "10", "5", "6"], "time": [2744, 4669, 6574, 8579, 10448]}, "edge": {"target": [], "time": []}}, "mouseover": {"state": {"target": ["1", "2", "3", "9", "11", "10", "3", "5", "5", "6", "18", "13"], "time": [1903, 1951, 2002, 2501, 3134, 5065, 6997, 7030, 7396, 9066, 12342, 12493]}, "edge": {"target": [], "time": []}}, "mouseout": {"state": {"target": ["1", "2", "3", "9", "11", "10", "3", "5", "5", "6", "18", "13", "12"], "time": [1935, 1968, 2268, 3084, 5015, 6980, 7013, 7047, 9012, 12292, 12425, 12508, 18004]}, "edge": {"target": [], "time": []}}}, "displayed_time": "16.32", "trialTime": 18878, "trial_type": "mouselab-mdp", "trial_index": 36, "time_elapsed": 1728201, "internal_node_id": "0.0-4.0-1.0-27.0"}}, {"uniqueid": "w83337711:a25160429", "current_trial": 37, "dateTime": 1691144334800, "trialdata": {"revealed_states": [], "clicked_states": ["27", "29", "28", "33"], "num_clicks_accrued": [0, 0, 0, 0, 0, 0, 0, 0, 0, 0, 0, 0, 0], "stateRewards": ["", 1, 3, -2, 15, 51, 15, -19, 11, 67, -45, -73, 2, 4, -2, -13, 36, 9, -28, 10, -30, 31, 16, 1, 2, -1, -16, 14, -22, 36, -1, 88, -5, 45], "withholdReward": false, "trial_id": "mdp_trial_29", "block": "test", "trialIndex": 30, "score": 40.4, "costs": -5.6, "simulationMode": [null, null, null, null, null], "rewards": [1, 2, -1, -1, 45], "path": ["0", "0", "23", "24", "25", "30", "33"], "rt": [10366, 122, 87, 553, 131], "actions": ["left", "left", "left", "down", "left"], "actionTimes": [11421, 12067, 12680, 13763, 14423], "queries": {"click": {"state": {"target": ["27", "29", "28", "33"], "time": [2222, 4099, 6096, 8484]}, "edge": {"target": [], "time": []}}, "mouseover": {"state": {"target": ["23", "26", "27", "29", "26", "28", "24", "30", "33", "32"], "time": [1537, 1636, 2036, 3036, 4452, 4885, 6583, 8130, 8380, 9845]}, "edge": {"target": [], "time": []}}, "mouseout": {"state": {"target": ["0", "23", "26", "27", "29", "26", "28", "24", "30", "33", "33", "32"], "time": [1519, 1553, 1705, 2654, 4418, 4534, 6565, 6648, 8230, 8533, 9246, 10628]}, "edge": {"target": [], "time": []}}}, "displayed_time": "15.06", "trialTime": 16779, "trial_type": "mouselab-mdp", "trial_index": 37, "time_elapsed": 1745233, "internal_node_id": "0.0-4.0-1.0-28.0"}}, {"uniqueid": "w83337711:a25160429", "current_trial": 38, "dateTime": 1691144352816, "trialdata": {"revealed_states": [], "clicked_states": ["6", "5"], "num_clicks_accrued": [0, 0, 0, 0, 0, 0, 0, 0, 0, 0, 0, 0, 0], "stateRewards": ["", -2, 4, -5, -12, 85, -24, -18, -15, -78, -22, 26, -1, -1, 2, 14, -45, 52, -23, 7, -33, 24, -6, -2, -4, 5, -7, -16, 36, -39, 5, 71, -87, -23], "withholdReward": false, "trial_id": "mdp_trial_30", "block": "test", "trialIndex": 31, "score": 67.2, "costs": -2.8, "simulationMode": [null, null, null, null, null], "rewards": [-2, 4, -5, -12, 85], "path": ["0", "0", "1", "2", "3", "4", "5"], "rt": [8268, 25, 147, 181, 238], "actions": ["up", "up", "up", "right", "up"], "actionTimes": [9305, 9849, 10522, 11238, 12011], "queries": {"click": {"state": {"target": ["6", "5"], "time": [3759, 5672]}, "edge": {"target": [], "time": []}}, "mouseover": {"state": {"target": ["1", "7", "6", "5", "4", "7"], "time": [2747, 2863, 3196, 4429, 6010, 6710]}, "edge": {"target": [], "time": []}}, "mouseout": {"state": {"target": ["0", "1", "7", "6", "5", "4", "7", "18", "12"], "time": [2230, 2813, 2880, 4246, 5944, 6360, 15901, 17133, 17166]}, "edge": {"target": [], "time": []}}}, "displayed_time": "15.04", "trialTime": 17772, "trial_type": "mouselab-mdp", "trial_index": 38, "time_elapsed": 1763250, "internal_node_id": "0.0-4.0-1.0-29.0"}}, {"uniqueid": "w83337711:a25160429", "current_trial": 39, "dateTime": 1691144371209, "trialdata": {"revealed_states": [], "clicked_states": ["12", "13", "16", "17"], "num_clicks_accrued": [0, 0, 0, 0, 0, 0, 0, 0, 0, 0, 0, 0, 0], "stateRewards": ["", 1, -1, 8, -3, 38, 85, -20, -4, 8, 23, 73, 2, -4, 6, -13, 44, 7, -28, -11, -77, 45, -69, 1, -1, -7, -11, 75, -51, -87, 7, 36, -53, -26], "withholdReward": false, "trial_id": "mdp_trial_31", "block": "test", "trialIndex": 32, "score": 29.4, "costs": -5.6, "simulationMode": [null, null, null, null, null], "rewards": [2, -4, 6, -13, 44], "path": ["0", "0", "12", "13", "14", "15", "16"], "rt": [11281, 117, 128, 205, 161], "actions": ["right", "right", "right", "up", "up"], "actionTimes": [13065, 13709, 14369, 15095, 15784], "queries": {"click": {"state": {"target": ["12", "13", "16", "17"], "time": [4401, 6448, 8376, 10438]}, "edge": {"target": [], "time": []}}, "mouseover": {"state": {"target": ["12", "13", "14", "15", "16", "15", "17"], "time": [4299, 5882, 7113, 7613, 8012, 8729, 8795]}, "edge": {"target": [], "time": []}}, "mouseout": {"state": {"target": ["0", "12", "13", "14", "15", "16", "15", "17", "14"], "time": [4200, 5049, 6896, 7580, 7680, 8695, 8745, 17404, 17487]}, "edge": {"target": [], "time": []}}}, "displayed_time": "16.31", "trialTime": 18136, "trial_type": "mouselab-mdp", "trial_index": 39, "time_elapsed": 1781643, "internal_node_id": "0.0-4.0-1.0-30.0"}}, {"uniqueid": "w83337711:a25160429", "current_trial": 40, "dateTime": 1691144391205, "trialdata": {"revealed_states": [], "clicked_states": ["20"], "num_clicks_accrued": [0, 0, 0, 0, 0, 0, 0, 0, 0, 0, 0, 0, 0], "stateRewards": ["", -2, -1, -6, -14, -55, 78, -13, 11, 14, -71, 59, 2, 2, 6, -6, 9, 38, 14, 7, 85, 11, 68, 1, -4, -1, -3, -63, -85, 9, -2, 63, -86, -10], "withholdReward": false, "trial_id": "mdp_trial_32", "block": "test", "trialIndex": 33, "score": 100.6, "costs": -1.4, "simulationMode": [null, null, null, null, null], "rewards": [2, 2, 6, 7, 85], "path": ["0", "0", "12", "13", "14", "19", "20"], "rt": [4920, 39, 223, 21, 168], "actions": ["right", "right", "right", "down", "right"], "actionTimes": [5965, 6537, 7286, 7835, 8530], "queries": {"click": {"state": {"target": ["20"], "time": [2568]}, "edge": {"target": [], "time": []}}, "mouseover": {"state": {"target": ["12", "13", "19", "20", "21"], "time": [1734, 2101, 2151, 2417, 3400]}, "edge": {"target": [], "time": []}}, "mouseout": {"state": {"target": ["0", "12", "13", "19", "20", "21", "16", "15", "13"], "time": [1701, 2084, 2117, 2167, 2985, 4733, 17020, 17270, 17286]}, "edge": {"target": [], "time": []}}}, "displayed_time": "15.04", "trialTime": 19732, "trial_type": "mouselab-mdp", "trial_index": 40, "time_elapsed": 1801639, "internal_node_id": "0.0-4.0-1.0-31.0"}}, {"uniqueid": "w83337711:a25160429", "current_trial": 41, "dateTime": 1691144419807, "trialdata": {"revealed_states": [], "clicked_states": ["16", "18", "17", "20", "21", "22", "32"], "num_clicks_accrued": [0, 0, 0, 0, 0, 0, 0, 0, 0, 0, 0, 0, 0], "stateRewards": ["", -2, -4, 6, 14, -34, 49, 36, -8, -3, 32, -4, 1, -2, 1, -8, -20, -71, -57, -7, -86, -62, -16, -2, -3, -5, 11, 23, -21, 53, 5, -5, 85, 73], "withholdReward": false, "trial_id": "mdp_trial_33", "block": "test", "trialIndex": 34, "score": 70.2, "costs": -9.8, "simulationMode": [null, null, null, null, null], "rewards": [-2, -3, -5, 5, 85], "path": ["0", "0", "23", "24", "25", "30", "32"], "rt": [18580, 176, 21, 3, 138], "actions": ["left", "left", "left", "down", "down"], "actionTimes": [23110, 23817, 24362, 24893, 25561], "queries": {"click": {"state": {"target": ["16", "18", "17", "20", "21", "22", "32"], "time": [6507, 8525, 10403, 12266, 14249, 16452, 18963]}, "edge": {"target": [], "time": []}}, "mouseover": {"state": {"target": ["12", "13", "15", "16", "18", "15", "17", "20", "21", "22", "32"], "time": [5773, 5973, 6206, 6340, 7340, 8936, 8987, 11269, 13883, 16197, 18877]}, "edge": {"target": [], "time": []}}, "mouseout": {"state": {"target": ["0", "12", "13", "15", "16", "18", "15", "17", "20", "21", "22", "32"], "time": [1278, 5940, 6006, 6223, 6924, 8904, 8953, 10836, 12650, 15715, 17013, 19878]}, "edge": {"target": [], "time": []}}}, "displayed_time": "26.09", "trialTime": 28312, "trial_type": "mouselab-mdp", "trial_index": 41, "time_elapsed": 1830241, "internal_node_id": "0.0-4.0-1.0-32.0"}}, {"uniqueid": "w83337711:a25160429", "current_trial": 42, "dateTime": 1691144439927, "trialdata": {"revealed_states": [], "clicked_states": ["9", "11", "10", "5", "6"], "num_clicks_accrued": [0, 0, 0, 0, 0, 0, 0, 0, 0, 0, 0, 0, 0], "stateRewards": ["", 1, 1, 7, -11, 80, -20, -53, -14, 3, 31, 27, 2, -1, -8, -10, 33, 41, 86, 9, 78, -37, -13, -1, -2, -6, -8, -80, 75, 4, -16, -49, -74, 24], "withholdReward": false, "trial_id": "mdp_trial_34", "block": "test", "trialIndex": 35, "score": 71, "costs": -7, "simulationMode": [null, null, null, null, null], "rewards": [1, 1, 7, -11, 80], "path": ["0", "0", "1", "2", "3", "4", "5"], "rt": [11824, 101, 102, 486, 124], "actions": ["up", "up", "up", "right", "up"], "actionTimes": [13037, 13658, 14291, 15308, 15962], "queries": {"click": {"state": {"target": ["9", "11", "10", "5", "6"], "time": [2515, 4419, 6275, 8713, 10555]}, "edge": {"target": [], "time": []}}, "mouseover": {"state": {"target": ["1", "2", "3", "9", "11", "10", "4", "5", "6"], "time": [1900, 1933, 1966, 2316, 3882, 5280, 6961, 8260, 9577]}, "edge": {"target": [], "time": []}}, "mouseout": {"state": {"target": ["0", "1", "2", "3", "9", "11", "10", "4", "5", "6", "18"], "time": [1850, 1916, 1950, 1983, 3016, 4864, 6878, 7744, 9244, 17219, 18151]}, "edge": {"target": [], "time": []}}}, "displayed_time": "16.49", "trialTime": 19715, "trial_type": "mouselab-mdp", "trial_index": 42, "time_elapsed": 1850360, "internal_node_id": "0.0-4.0-1.0-33.0"}}, {"uniqueid": "w83337711:a25160429", "current_trial": 43, "dateTime": 1691144459732, "trialdata": {"revealed_states": [], "clicked_states": ["6", "5"], "num_clicks_accrued": [0, 0, 0, 0, 0, 0, 0, 0, 0, 0, 0, 0, 0], "stateRewards": ["", -1, 4, -8, 12, 14, 69, -8, 5, -72, -14, 56, -1, -1, -1, 9, 67, 19, 11, -9, -88, -58, 3, 2, -4, -8, 4, 62, 77, -74, 5, -31, 65, 88], "withholdReward": false, "trial_id": "mdp_trial_35", "block": "test", "trialIndex": 36, "score": 73.2, "costs": -2.8, "simulationMode": [null, null, null, null, null], "rewards": [-1, 4, -8, 12, 69], "path": ["0", "0", "1", "2", "3", "4", "6"], "rt": [5261, 151, 126, 140, 119], "actions": ["up", "up", "up", "right", "right"], "actionTimes": [8857, 9526, 10185, 10847, 11492], "queries": {"click": {"state": {"target": ["6", "5"], "time": [5199, 7050]}, "edge": {"target": [], "time": []}}, "mouseover": {"state": {"target": ["1", "6", "5"], "time": [4279, 4929, 5562]}, "edge": {"target": [], "time": []}}, "mouseout": {"state": {"target": ["0", "1", "6", "5", "1", "0"], "time": [4262, 4295, 5243, 18716, 18782, 18799]}, "edge": {"target": [], "time": []}}}, "displayed_time": "17.60", "trialTime": 19570, "trial_type": "mouselab-mdp", "trial_index": 43, "time_elapsed": 1870165, "internal_node_id": "0.0-4.0-1.0-34.0"}}, {"uniqueid": "w83337711:a25160429", "current_trial": 44, "dateTime": 1691144492928, "trialdata": {"revealed_states": [], "clicked_states": ["23", "33", "32", "31", "28", "27", "29", "9", "11", "10"], "num_clicks_accrued": [0, 0, 0, 0, 0, 0, 0, 0, 0, 0, 0, 0, 0], "stateRewards": ["", -1, -2, 4, 9, 10, -75, 39, 16, -43, 88, -19, -1, 1, 2, 4, -31, 10, 73, 12, 41, -64, -81, -2, 2, -6, 1, -81, -1, -26, 3, -59, -3, -20], "withholdReward": false, "trial_id": "mdp_trial_36", "block": "test", "trialIndex": 37, "score": 91, "costs": -14.000000000000002, "simulationMode": [null, null, null, null, null], "rewards": [-1, -2, 4, 16, 88], "path": ["0", "0", "1", "2", "3", "8", "10"], "rt": [22730, 108, 78, 513, 24], "actions": ["up", "up", "up", "left", "down"], "actionTimes": [25561, 26204, 26805, 27840, 28383], "queries": {"click": {"state": {"target": ["23", "33", "32", "31", "28", "27", "29", "9", "11", "10"], "time": [3556, 5900, 7735, 9620, 11518, 13383, 15267, 17656, 19569, 21396]}, "edge": {"target": [], "time": []}}, "mouseover": {"state": {"target": ["23", "31", "30", "33", "32", "31", "24", "28", "28", "27", "26", "29", "26", "11", "9", "11", "10", "5"], "time": [3399, 5114, 5197, 5782, 7212, 8229, 10175, 10209, 10809, 12124, 13856, 14205, 15771, 17136, 17452, 19100, 20233, 22348]}, "edge": {"target": [], "time": []}}, "mouseout": {"state": {"target": ["0", "23", "31", "30", "33", "33", "32", "31", "24", "28", "28", "27", "26", "29", "26", "28", "11", "9", "11", "10", "5", "4", "7", "1", "0"], "time": [2583, 4281, 5130, 5647, 5977, 6381, 7799, 10159, 10192, 10225, 11891, 13822, 13872, 15755, 15788, 15888, 17170, 18218, 20100, 21833, 23663, 31539, 31572, 31972, 32005]}, "edge": {"target": [], "time": []}}}, "displayed_time": "28.91", "trialTime": 32887, "trial_type": "mouselab-mdp", "trial_index": 44, "time_elapsed": 1903362, "internal_node_id": "0.0-4.0-1.0-35.0"}}, {"uniqueid": "w83337711:a25160429", "current_trial": 45, "dateTime": 1691144511584, "trialdata": {"revealed_states": [], "clicked_states": ["17", "16", "18"], "num_clicks_accrued": [0, 0, 0, 0, 0, 0, 0, 0, 0, 0, 0, 0, 0], "stateRewards": ["", 1, 1, 1, 15, -76, 52, -32, 14, -57, 37, 49, 1, -4, -3, 6, 83, -76, 25, 9, 36, -1, -17, -1, 4, 4, -2, -22, -21, 58, -15, -57, 49, -24], "withholdReward": false, "trial_id": "mdp_trial_37", "block": "test", "trialIndex": 38, "score": 78.8, "costs": -4.199999999999999, "simulationMode": [null, null, null, null, null], "rewards": [1, -4, -3, 6, 83], "path": ["0", "0", "12", "13", "14", "15", "16"], "rt": [8582, 116, 155, 3, 146], "actions": ["right", "right", "right", "up", "up"], "actionTimes": [11306, 11947, 12636, 13166, 13843], "queries": {"click": {"state": {"target": ["17", "16", "18"], "time": [4843, 6699, 8584]}, "edge": {"target": [], "time": []}}, "mouseover": {"state": {"target": ["18", "15", "17", "16", "18"], "time": [4372, 4389, 4687, 5804, 7601]}, "edge": {"target": [], "time": []}}, "mouseout": {"state": {"target": ["0", "18", "15", "17", "16", "18", "6"], "time": [1623, 4388, 4421, 5390, 7168, 9235, 17558]}, "edge": {"target": [], "time": []}}}, "displayed_time": "16.72", "trialTime": 18381, "trial_type": "mouselab-mdp", "trial_index": 45, "time_elapsed": 1922017, "internal_node_id": "0.0-4.0-1.0-36.0"}}, {"uniqueid": "w83337711:a25160429", "current_trial": 46, "dateTime": 1691144530576, "trialdata": {"revealed_states": [], "clicked_states": ["20", "21", "22"], "num_clicks_accrued": [0, 0, 0, 0, 0, 0, 0, 0, 0, 0, 0, 0, 0], "stateRewards": ["", 2, 3, -1, 16, -78, -11, 46, 2, -20, 79, -67, 2, 3, 2, 11, -83, -42, -58, -11, -67, -22, 55, 2, -1, -1, -16, -83, -82, 23, -11, -29, 13, 13], "withholdReward": false, "trial_id": "mdp_trial_38", "block": "test", "trialIndex": 39, "score": 46.8, "costs": -4.199999999999999, "simulationMode": [null, null, null, null, null], "rewards": [2, 3, 2, -11, 55], "path": ["0", "0", "12", "13", "14", "19", "22"], "rt": [8973, 114, 229, 725, 2], "actions": ["right", "right", "right", "down", "left"], "actionTimes": [10521, 11164, 11929, 13173, 13699], "queries": {"click": {"state": {"target": ["20", "21", "22"], "time": [2956, 4998, 7208]}, "edge": {"target": [], "time": []}}, "mouseover": {"state": {"target": ["12", "13", "19", "20", "21", "22", "17", "14"], "time": [2207, 2256, 2390, 2690, 3674, 7052, 8701, 9517]}, "edge": {"target": [], "time": []}}, "mouseout": {"state": {"target": ["0", "12", "13", "19", "20", "21", "22", "17", "14", "14", "15", "16", "16", "13"], "time": [2190, 2240, 2273, 2623, 3440, 6769, 8301, 9483, 9533, 16543, 16577, 16593, 17342, 17376]}, "edge": {"target": [], "time": []}}}, "displayed_time": "15.55", "trialTime": 18741, "trial_type": "mouselab-mdp", "trial_index": 46, "time_elapsed": 1941009, "internal_node_id": "0.0-4.0-1.0-37.0"}}, {"uniqueid": "w83337711:a25160429", "current_trial": 47, "dateTime": 1691144555142, "trialdata": {"revealed_states": [], "clicked_states": ["5", "6", "7", "16", "17", "14", "20"], "num_clicks_accrued": [0, 0, 0, 0, 0, 0, 0, 0, 0, 0, 0, 0, 0], "stateRewards": ["", 2, 4, 7, -6, -76, -81, 2, 5, -66, -3, 36, -2, -4, 6, -2, -69, 4, -49, -6, 67, 38, -67, 2, 1, 1, 6, -68, -21, 52, -16, -16, 6, -70], "withholdReward": false, "trial_id": "mdp_trial_39", "block": "test", "trialIndex": 40, "score": 51.2, "costs": -9.8, "simulationMode": [null, null, null, null, null], "rewards": [-2, -4, 6, -6, 67], "path": ["0", "0", "12", "13", "14", "19", "20"], "rt": [16292, 3, 357, 109, 9], "actions": ["right", "right", "right", "down", "right"], "actionTimes": [18604, 19129, 20016, 20650, 21185], "queries": {"click": {"state": {"target": ["5", "6", "7", "16", "17", "14", "20"], "time": [3320, 5226, 7439, 9520, 11462, 13501, 15579]}, "edge": {"target": [], "time": []}}, "mouseover": {"state": {"target": ["1", "2", "5", "6", "7", "7", "16", "17", "14", "20", "21"], "time": [2758, 2775, 3040, 3724, 7103, 7303, 8786, 10483, 13297, 15563, 17460]}, "edge": {"target": [], "time": []}}, "mouseout": {"state": {"target": ["0", "1", "2", "5", "6", "6", "7", "7", "16", "17", "14", "20", "20", "21", "19", "22"], "time": [2757, 2774, 2790, 3674, 5259, 5738, 7120, 8103, 9901, 12049, 15229, 15640, 16113, 18027, 22822, 23255]}, "edge": {"target": [], "time": []}}}, "displayed_time": "21.71", "trialTime": 24309, "trial_type": "mouselab-mdp", "trial_index": 47, "time_elapsed": 1965576, "internal_node_id": "0.0-4.0-1.0-38.0"}}, {"uniqueid": "w83337711:a25160429", "current_trial": 48, "dateTime": 1691144575417, "trialdata": {"revealed_states": [], "clicked_states": ["7", "6", "5", "9", "11", "10"], "num_clicks_accrued": [0, 0, 0, 0, 0, 0, 0, 0, 0, 0, 0, 0, 0], "stateRewards": ["", -1, -3, 1, -4, -48, -63, -49, -2, -84, -19, 65, 2, -2, -2, -12, -4, 59, 9, 6, 75, 69, -13, -1, -3, -3, -2, -37, -68, -36, 13, 32, 18, -14], "withholdReward": false, "trial_id": "mdp_trial_40", "block": "test", "trialIndex": 41, "score": 51.6, "costs": -8.4, "simulationMode": [null, null, null, null, null], "rewards": [-1, -3, 1, -2, 65], "path": ["0", "0", "1", "2", "3", "8", "11"], "rt": [13957, 64, 300, 65, 40], "actions": ["up", "up", "up", "left", "left"], "actionTimes": [15237, 15822, 16658, 17255, 17830], "queries": {"click": {"state": {"target": ["7", "6", "5", "9", "11", "10"], "time": [3549, 5489, 7338, 9182, 10980, 12827]}, "edge": {"target": [], "time": []}}, "mouseover": {"state": {"target": ["1", "7", "7", "6", "5", "9", "11", "10", "2"], "time": [2186, 2885, 3370, 3985, 5901, 7882, 9629, 11644, 13609]}, "edge": {"target": [], "time": []}}, "mouseout": {"state": {"target": ["0", "1", "7", "7", "6", "5", "9", "11", "10", "2"], "time": [1087, 2852, 2919, 3936, 5851, 7820, 9562, 11278, 13576, 13642]}, "edge": {"target": [], "time": []}}}, "displayed_time": "18.36", "trialTime": 20020, "trial_type": "mouselab-mdp", "trial_index": 48, "time_elapsed": 1985851, "internal_node_id": "0.0-4.0-1.0-39.0"}}, {"uniqueid": "w83337711:a25160429", "current_trial": 49, "dateTime": 1691144658763, "trialdata": {"rt": 83340, "response": {"Q0": "$-2 to $2", "Q1": "$-16 to $16", "Q2": "$-88 to $88", "Q3": "The cost was always $1.4.", "Q4": "Very motivated"}, "question_order": [0, 1, 2, 3, 4], "trial_id": "final_quiz_control", "trial_type": "survey-multi-choice", "trial_index": 49, "time_elapsed": 2069197, "internal_node_id": "0.0-4.0-2.0"}}, {"uniqueid": "w83337711:a25160429", "current_trial": 50, "dateTime": 1691144944487, "trialdata": {"rt": 285713, "response": {"Q0": "I click on the last (5th) nodes to check the highest positive score. That's how I took my decisions as to which direction to move my spider.", "Q1": "Yes definitely, at first I did not understand the 3 second inspector rule. Then suddenly I clicked on numerous nodes in 3 seconds and that's were i was like ohhhhh. You have to click a new node in under 3 seconds.", "Q2": "It was not difficult but I just didn't understand the instructions fully. Otherwise it was a fun game indeed."}, "trial_id": "self_report_control", "trial_type": "survey-text", "trial_index": 50, "time_elapsed": 2354920, "internal_node_id": "0.0-4.0-3.0"}}, {"uniqueid": "w83337711:a25160429", "current_trial": 51, "dateTime": 1691144987417, "trialdata": {"rt": 42926, "response": {"gender": "male", "age": "28", "colorblind": "0", "effort": "0"}, "trial_type": "survey-html-form", "trial_index": 51, "time_elapsed": 2397851, "internal_node_id": "0.0-4.0-4.0"}}, {"uniqueid": "w83337711:a25160429", "current_trial": 52, "dateTime": 1691145154038, "trialdata": {"rt": 166616, "response": {"Q0": "Yeah, I think there needs to be more clarity on the 3 sec inspector rule.", "Q1": "Nah hadn't participated in a Web of Cash HIT before. But very interested on doing similar HITs.", "Q2": "Fun\nFun\nFun game for real!"}, "trial_type": "survey-text", "trial_index": 52, "time_elapsed": 2564472, "internal_node_id": "0.0-4.0-5.0"}}, {"uniqueid": "w83337711:a25160429", "current_trial": 53, "dateTime": 1691145167598, "trialdata": {"rt": 13557, "stimulus": "Press 'Finish HIT' in order to reach the completion code. Once the data has been saved, you will receive the code either in this window or in the original browser window where you started the experiment.\n", "response": 0, "trial_type": "html-button-response", "trial_index": 53, "time_elapsed": 2578032, "internal_node_id": "0.0-5.0"}}, {"uniqueid": "w83337711:a25160429", "current_trial": 54, "dateTime": 1691145168602, "trialdata": {"success": true, "trial_type": "fullscreen", "trial_index": 54, "time_elapsed": 2579036, "internal_node_id": "0.0-6.0"}}], "questiondata": {"params": {"CODE": "C6DMOQA6", "MIN_TIME": 14, "inspectCost": 1, "startTime": "Fri Aug 04 2023 11:49:47 GMT+0200 (South Africa Standard Time)", "bonusRate": 0.002, "variance": "1_2_4_8_44", "branching": "31123"}}, "eventdata": [{"eventtype": "initialized", "value": null, "timestamp": 1691142587155, "interval": 0}, {"eventtype": "window_resize", "value": [1536, 758], "timestamp": 1691142587155, "interval": 0}, {"eventtype": "window_resize", "value": [1536, 758], "timestamp": 1691142587640, "interval": 485}, {"eventtype": "window_resize", "value": [1536, 864], "timestamp": 1691142605693, "interval": 18053}, {"eventtype": "window_resize", "value": [1536, 758], "timestamp": 1691145167847, "interval": 2562154}], "useragent": "Mozilla/5.0 (Windows NT 10.0; Win64; x64) AppleWebKit/537.36 (KHTML, like Gecko) Chrome/115.0.0.0 Safari/537.36", "mode": "live", "id": "w83337711:a25160429", "status": "user data saved", "Beginhit": "2023-08-04 09:49:44.589662", "Beginexp": "2023-08-04 09:50:06.934921", "Endhit": "2023-08-04 10:32:51.862172", "psiturkStatus": 3, "browser": "<redacted>", "platform": "windows", "language": "en-US"}