{"condition": 0, "counterbalance": 0, "assignmentId": "a27638501", "workerId": "w29116851", "hitId": "h53224606", "currenttrial": 55, "bonus": 0, "data": [{"uniqueid": "w29116851:a27638501", "current_trial": 0, "dateTime": 1693580344042, "trialdata": {"success": true, "trial_type": "fullscreen", "trial_index": 0, "time_elapsed": 25968, "internal_node_id": "0.0-0.0"}}, {"uniqueid": "w29116851:a27638501", "current_trial": 1, "dateTime": 1693580376124, "trialdata": {"view_history": [{"page_index": 0, "viewing_time": 32069}], "rt": 32069, "trial_id": "exp_instructions_control", "trial_type": "instructions", "trial_index": 1, "time_elapsed": 58050, "internal_node_id": "0.0-1.0"}}, {"uniqueid": "w29116851:a27638501", "current_trial": 2, "dateTime": 1693580782751, "trialdata": {"view_history": [{"page_index": 0, "viewing_time": 153210}, {"page_index": 1, "viewing_time": 152272}, {"page_index": 2, "viewing_time": 52772}, {"page_index": 3, "viewing_time": 48361}], "rt": 406616, "trial_id": "mouselab_instructions_1_control", "trial_type": "instructions", "trial_index": 2, "time_elapsed": 464677, "internal_node_id": "0.0-2.0-1.0"}}, {"uniqueid": "w29116851:a27638501", "current_trial": 3, "dateTime": 1693580834734, "trialdata": {"revealed_states": [], "clicked_states": ["23", "24", "25", "30", "12", "13", "14", "19", "20", "21", "22", "15", "17", "16"], "num_clicks_accrued": [0, 0, 0, 0, 0, 0, 0, 0, 0, 0, 0, 0, 0], "stateRewards": ["", 10, 10, 10, -10, 10, -10, -10, 10, -10, -10, -10, -10, 10, 10, 10, 10, 10, 10, 10, -10, -10, -10, -10, -10, -10, 10, 10, 10, -10, -10, 10, -10, 10], "withholdReward": false, "trial_id": "practice_1", "block": "test", "trialIndex": 0, "score": 26.5, "costs": -7, "simulationMode": [null, null, null, null, null], "rewards": [-10, 10, 10, 10, 10], "path": ["0", "0", "12", "13", "14", "15", "17"], "rt": [34076, 1750, 1207, 897, 791], "actions": ["right", "right", "right", "up", "right"], "actionTimes": [38476, 40868, 42796, 44427, 45900], "queries": {"click": {"state": {"target": ["23", "24", "25", "30", "12", "13", "14", "19", "20", "21", "22", "15", "17", "16"], "time": [8290, 12033, 13809, 15408, 17079, 18634, 20970, 23254, 25002, 27456, 29085, 31279, 34132, 35674]}, "edge": {"target": [], "time": []}}, "mouseover": {"state": {"target": ["23", "23", "24", "25", "24", "25", "30", "13", "12", "13", "14", "19", "20", "21", "22", "15", "18", "17", "16", "18"], "time": [6057, 7898, 8850, 10291, 11342, 13068, 15059, 16424, 16705, 17997, 20015, 22693, 24103, 26978, 28747, 30670, 32379, 33639, 34959, 36691]}, "edge": {"target": [], "time": []}}, "mouseout": {"state": {"target": ["18", "1", "23", "23", "24", "25", "24", "25", "30", "13", "12", "13", "14", "19", "20", "19", "21", "22", "15", "18", "17", "16"], "time": [1034, 2456, 7452, 8846, 10215, 11234, 12983, 14709, 15742, 16628, 17697, 19798, 21663, 24043, 25918, 26743, 28369, 30528, 32291, 33457, 34738, 36630]}, "edge": {"target": [], "time": []}}}, "displayed_time": "46.51", "trialTime": 50200, "trial_type": "mouselab-mdp", "trial_index": 3, "time_elapsed": 516660, "internal_node_id": "0.0-2.0-2.0-0.0"}}, {"uniqueid": "w29116851:a27638501", "current_trial": 4, "dateTime": 1693580888422, "trialdata": {"revealed_states": [], "clicked_states": ["1", "2", "3", "4", "12", "13", "14", "15", "17", "23", "24", "25", "30", "32", "26", "28", "27", "29"], "num_clicks_accrued": [0, 0, 0, 0, 0, 0, 0, 0, 0, 0, 0, 0, 0], "stateRewards": ["", -10, -10, -10, -10, 10, 10, -10, -10, -10, -10, 10, -10, 10, 10, -10, -10, -10, -10, 10, 10, 10, -10, -10, 10, -10, -10, -10, 10, -10, 10, 10, 10, -10], "withholdReward": false, "trial_id": "practice_2", "block": "test", "trialIndex": 1, "score": 4.5, "costs": -9, "simulationMode": [null, null, null, null, null], "rewards": [-10, 10, -10, 10, 10], "path": ["0", "0", "23", "24", "25", "30", "32"], "rt": [37758, 756, 578, 369, 558], "actions": ["left", "left", "left", "down", "down"], "actionTimes": [42221, 43741, 45062, 46181, 47419], "queries": {"click": {"state": {"target": ["1", "2", "3", "4", "12", "13", "14", "15", "17", "23", "24", "25", "30", "32", "26", "28", "27", "29"], "time": [6490, 8356, 10205, 12015, 13919, 15723, 17606, 19612, 21678, 23569, 25343, 27417, 29317, 31449, 33474, 35339, 36781, 39886]}, "edge": {"target": [], "time": []}}, "mouseover": {"state": {"target": ["1", "2", "3", "4", "12", "13", "14", "15", "17", "23", "24", "25", "30", "32", "26", "28", "27", "29"], "time": [5582, 7439, 9267, 10775, 13054, 14562, 16598, 18742, 20566, 22709, 24529, 26013, 28678, 31024, 32784, 34532, 36280, 37807]}, "edge": {"target": [], "time": []}}, "mouseout": {"state": {"target": ["18", "16", "1", "23", "0", "1", "2", "3", "4", "12", "13", "14", "15", "17", "23", "24", "25", "30", "32", "26", "28", "27", "29"], "time": [655, 1617, 1717, 2010, 5303, 7072, 8988, 10759, 12782, 14492, 16591, 18629, 20321, 22455, 24210, 25987, 28292, 29626, 31675, 34380, 36056, 37627, 40855]}, "edge": {"target": [], "time": []}}}, "displayed_time": "48.18", "trialTime": 51078, "trial_type": "mouselab-mdp", "trial_index": 4, "time_elapsed": 570348, "internal_node_id": "0.0-2.0-2.0-1.0"}}, {"uniqueid": "w29116851:a27638501", "current_trial": 5, "dateTime": 1693580978569, "trialdata": {"view_history": [{"page_index": 0, "viewing_time": 78394}, {"page_index": 1, "viewing_time": 11748}], "rt": 90143, "trial_id": "mouselab_instructions_2_control", "trial_type": "instructions", "trial_index": 5, "time_elapsed": 660495, "internal_node_id": "0.0-2.0-3.0"}}, {"uniqueid": "w29116851:a27638501", "current_trial": 6, "dateTime": 1693581034902, "trialdata": {"rt": 56321, "response": {"Q0": "The cost for clicking on nodes may vary between nodes.", "Q1": "The better I perform the higher my bonus will be.", "Q2": "No, the amount of cash at each node of the web may be different each time.", "Q3": "To get the highest total score.", "Q4": "Only before moving the spider.", "Q5": "3 seconds"}, "question_order": [0, 1, 2, 3, 4, 5], "correct": {"Q0": "The cost for clicking on nodes may vary between nodes.", "Q1": "The better I perform the higher my bonus will be.", "Q2": "No, the amount of cash at each node of the web may be different each time.", "Q3": "To get the highest total score.", "Q4": "Only before moving the spider.", "Q5": "3 seconds"}, "trial_id": "mouselab_quiz_control", "trial_type": "survey-multi-choice", "trial_index": 6, "time_elapsed": 716828, "internal_node_id": "0.0-2.0-4.0"}}, {"uniqueid": "w29116851:a27638501", "current_trial": 7, "dateTime": 1693581051528, "trialdata": {"rt": 16612, "response": {"Q0": "No"}, "question_order": [0], "trial_id": "repeat_check", "trial_type": "survey-multi-choice", "trial_index": 7, "time_elapsed": 733454, "internal_node_id": "0.0-4.0-0.0"}}, {"uniqueid": "w29116851:a27638501", "current_trial": 8, "dateTime": 1693581073364, "trialdata": {"rt": 21824, "stimulus": "\n<h1> Get ready to start the game! </h1>\n\nThank you for reading the instructions. Get ready start with the 40 rounds of this game.\n<br><br>\nIf you need to take a break, feel free to take one after the end of a round, before continuing to the next one.\n<br><br>\nRemember, the more money the spider gets, the bigger your bonus will be!\n<br><br>\n<div style='text-align: center;'>Press <code>space</code> to begin.</div>\n\n<br><br>\n(If, at any point, the <code>space</code> key does not take you to the next page, click once on the text and try again.)", "response": " ", "trial_id": "mdp_ready", "trial_type": "html-keyboard-response", "trial_index": 8, "time_elapsed": 755290, "internal_node_id": "0.0-6.0-0.0"}}, {"uniqueid": "w29116851:a27638501", "current_trial": 9, "dateTime": 1693581125868, "trialdata": {"revealed_states": [], "clicked_states": ["12", "14", "13", "1", "2", "3", "4", "6", "8", "23", "24", "25", "30", "33"], "num_clicks_accrued": [0, 0, 0, 0, 0, 0, 0, 0, 0, 0, 0, 0, 0], "stateRewards": ["", 1, 2, -3, -5, 66, -50, -47, -5, 1, 28, -27, 1, 1, -1, -6, 37, -25, 56, 1, -82, -66, -40, -1, -4, -7, 15, -61, -23, 26, 10, 14, -56, 29], "withholdReward": false, "trial_id": "mdp_trial_1", "block": "test", "trialIndex": 2, "score": 7.400000000000002, "costs": -19.599999999999998, "simulationMode": [null, null, null, null, null], "rewards": [-1, -4, -7, 10, 29], "path": ["0", "0", "23", "24", "25", "30", "33"], "rt": [37038, 926, 681, 496, 547], "actions": ["left", "left", "left", "down", "left"], "actionTimes": [41505, 43120, 44426, 45698, 47013], "queries": {"click": {"state": {"target": ["12", "14", "13", "1", "2", "3", "4", "6", "8", "23", "24", "25", "30", "33"], "time": [6008, 8295, 12245, 14039, 16499, 18914, 21439, 23831, 26160, 28958, 31231, 33675, 35943, 38220]}, "edge": {"target": [], "time": []}}, "mouseover": {"state": {"target": ["12", "13", "14", "13", "13", "1", "2", "3", "4", "6", "8", "11", "23", "24", "25", "30", "33", "32", "31"], "time": [5648, 6707, 8045, 9721, 11792, 13385, 15391, 17843, 19953, 23068, 24678, 27027, 28448, 29626, 32173, 34843, 37010, 39629, 40652]}, "edge": {"target": [], "time": []}}, "mouseout": {"state": {"target": ["0", "12", "13", "14", "13", "13", "1", "2", "3", "4", "6", "8", "11", "23", "24", "25", "30", "33", "30", "32", "31"], "time": [4616, 6573, 7761, 9209, 11515, 13197, 15024, 17557, 19573, 23004, 24617, 26949, 28107, 29555, 31796, 34665, 36165, 39064, 39245, 40614, 40741]}, "edge": {"target": [], "time": []}}}, "displayed_time": "47.73", "trialTime": 50287, "trial_type": "mouselab-mdp", "trial_index": 9, "time_elapsed": 807794, "internal_node_id": "0.0-6.0-1.0-0.0"}}, {"uniqueid": "w29116851:a27638501", "current_trial": 10, "dateTime": 1693581161757, "trialdata": {"revealed_states": [], "clicked_states": ["23", "24", "25", "30", "33", "26", "29", "27"], "num_clicks_accrued": [0, 0, 0, 0, 0, 0, 0, 0, 0, 0, 0, 0, 0], "stateRewards": ["", -2, 2, 3, -7, 76, 63, 21, 15, 35, -8, -44, 1, 1, -2, -12, 23, 24, 76, -9, 46, 66, -49, -2, -1, 7, 12, 40, -71, -45, -6, 38, -49, 46], "withholdReward": false, "trial_id": "mdp_trial_2", "block": "test", "trialIndex": 3, "score": 32.8, "costs": -11.200000000000001, "simulationMode": [null, null, null, null, null], "rewards": [-2, -1, 7, -6, 46], "path": ["0", "0", "23", "24", "25", "30", "33"], "rt": [21358, 555, 451, 336, 132], "actions": ["left", "left", "left", "down", "left"], "actionTimes": [24261, 25482, 26548, 27543, 28584], "queries": {"click": {"state": {"target": ["23", "24", "25", "30", "33", "26", "29", "27"], "time": [4096, 6445, 8626, 10882, 13225, 15840, 18280, 20684]}, "edge": {"target": [], "time": []}}, "mouseover": {"state": {"target": ["23", "24", "25", "30", "33", "26", "25", "24", "29", "27", "28"], "time": [3651, 4927, 7208, 9392, 12134, 14143, 16420, 16895, 17632, 19323, 22603]}, "edge": {"target": [], "time": []}}, "mouseout": {"state": {"target": ["0", "16", "0", "23", "24", "25", "30", "33", "26", "25", "24", "29", "27", "28"], "time": [null, 781, 3278, 4865, 7135, 9343, 11801, 13890, 16391, 16760, 17384, 18536, 21263, 22947]}, "edge": {"target": [], "time": []}}}, "displayed_time": "29.28", "trialTime": 33448, "trial_type": "mouselab-mdp", "trial_index": 10, "time_elapsed": 843683, "internal_node_id": "0.0-6.0-1.0-1.0"}}, {"uniqueid": "w29116851:a27638501", "current_trial": 11, "dateTime": 1693581195009, "trialdata": {"revealed_states": [], "clicked_states": ["1", "2", "3", "4", "5", "6", "7"], "num_clicks_accrued": [0, 0, 0, 0, 0, 0, 0, 0, 0, 0, 0, 0, 0], "stateRewards": ["", 2, -1, 5, 6, 10, 86, 55, 10, -45, 63, -71, 1, -2, 5, -8, -50, -72, 36, 15, 61, 12, 33, -1, -4, 6, 5, 79, -56, -21, -16, -87, 60, -81], "withholdReward": false, "trial_id": "mdp_trial_3", "block": "test", "trialIndex": 4, "score": 88.2, "costs": -9.8, "simulationMode": [null, null, null, null, null], "rewards": [2, -1, 5, 6, 86], "path": ["0", "0", "1", "2", "3", "4", "6"], "rt": [18372, 270, 248, 378, 375], "actions": ["up", "up", "up", "right", "right"], "actionTimes": [22299, 23211, 24156, 25126, 26064], "queries": {"click": {"state": {"target": ["1", "2", "3", "4", "5", "6", "7"], "time": [5180, 7722, 10043, 12388, 14885, 17493, 19915]}, "edge": {"target": [], "time": []}}, "mouseover": {"state": {"target": ["1", "2", "3", "4", "5", "6", "7"], "time": [4244, 5945, 8528, 10926, 13921, 15926, 18410]}, "edge": {"target": [], "time": []}}, "mouseout": {"state": {"target": ["1", "0", "1", "2", "3", "4", "5", "6"], "time": [664, 4187, 5874, 8351, 10747, 13506, 15543, 18070]}, "edge": {"target": [], "time": []}}}, "displayed_time": "26.80", "trialTime": 30888, "trial_type": "mouselab-mdp", "trial_index": 11, "time_elapsed": 876935, "internal_node_id": "0.0-6.0-1.0-2.0"}}, {"uniqueid": "w29116851:a27638501", "current_trial": 12, "dateTime": 1693581229274, "trialdata": {"revealed_states": [], "clicked_states": ["12", "13", "14", "19", "21", "20", "22"], "num_clicks_accrued": [0, 0, 0, 0, 0, 0, 0, 0, 0, 0, 0, 0, 0], "stateRewards": ["", 1, 2, 8, -2, 23, -69, -18, -16, 54, -21, 71, -1, -4, 7, 11, 43, -6, 88, 6, -55, 72, 43, 1, -3, -2, -1, 68, -31, -54, 4, -8, 25, -2], "withholdReward": false, "trial_id": "mdp_trial_4", "block": "test", "trialIndex": 5, "score": 70.2, "costs": -9.8, "simulationMode": [null, null, null, null, null], "rewards": [-1, -4, 7, 6, 72], "path": ["0", "0", "12", "13", "14", "19", "21"], "rt": [19725, 454, 376, 208, 178], "actions": ["right", "right", "right", "down", "down"], "actionTimes": [24038, 25182, 26199, 27129, 28002], "queries": {"click": {"state": {"target": ["12", "13", "14", "19", "21", "20", "22"], "time": [5506, 7920, 10316, 12662, 15037, 19350, 21739]}, "edge": {"target": [], "time": []}}, "mouseover": {"state": {"target": ["12", "13", "14", "19", "21", "20", "22"], "time": [4747, 6368, 8708, 11406, 14046, 15787, 20392]}, "edge": {"target": [], "time": []}}, "mouseout": {"state": {"target": ["7", "1", "0", "12", "13", "14", "19", "21", "20", "22"], "time": [1196, 1472, 4685, 5772, 8667, 11349, 13862, 15770, 20209, 22242]}, "edge": {"target": [], "time": []}}}, "displayed_time": "28.75", "trialTime": 32209, "trial_type": "mouselab-mdp", "trial_index": 12, "time_elapsed": 911200, "internal_node_id": "0.0-6.0-1.0-3.0"}}, {"uniqueid": "w29116851:a27638501", "current_trial": 13, "dateTime": 1693581291039, "trialdata": {"revealed_states": [], "clicked_states": ["9", "5", "6", "7", "18", "16", "17", "20", "21", "22", "31", "32", "33", "29", "27", "28", "11", "10"], "num_clicks_accrued": [0, 0, 0, 0, 0, 0, 0, 0, 0, 0, 0, 0, 0], "stateRewards": ["", 2, -4, 1, -12, -59, -53, -74, 16, -88, -66, 66, 1, -2, 8, -9, -14, 22, 25, -1, -39, 47, -14, -1, -1, -2, 1, -4, 52, -26, 15, -7, 46, 43], "withholdReward": false, "trial_id": "mdp_trial_5", "block": "test", "trialIndex": 6, "score": 55.80000000000001, "costs": -25.199999999999992, "simulationMode": [null, null, null, null, null], "rewards": [2, -4, 1, 16, 66], "path": ["0", "0", "1", "2", "3", "8", "11"], "rt": [45226, 278, 242, 191, 263], "actions": ["up", "up", "up", "left", "left"], "actionTimes": [50611, 51660, 52709, 53714, 54733], "queries": {"click": {"state": {"target": ["9", "5", "6", "7", "18", "16", "17", "20", "21", "22", "31", "32", "33", "29", "27", "28", "11", "10"], "time": [7328, 9728, 11863, 14310, 16682, 19263, 21532, 23859, 26147, 28762, 31339, 34097, 36478, 38904, 41148, 43544, 46018, 48375]}, "edge": {"target": [], "time": []}}, "mouseover": {"state": {"target": ["9", "9", "5", "6", "7", "18", "16", "17", "20", "21", "22", "31", "32", "33", "29", "27", "28", "11", "10"], "time": [6244, 6760, 8054, 10546, 12570, 15566, 17708, 20554, 22458, 24854, 26920, 30027, 32479, 35188, 37549, 39812, 42115, 44661, 46906]}, "edge": {"target": [], "time": []}}, "mouseout": {"state": {"target": ["12", "0", "9", "9", "5", "6", "7", "18", "16", "17", "20", "21", "22", "31", "32", "33", "29", "27", "28", "11", "10"], "time": [2283, 5428, 6396, 8039, 10435, 12184, 15326, 17386, 19831, 21925, 24544, 26870, 29442, 31899, 34446, 36712, 39423, 41728, 44049, 46737, 56352]}, "edge": {"target": [], "time": []}}}, "displayed_time": "55.57", "trialTime": 58937, "trial_type": "mouselab-mdp", "trial_index": 13, "time_elapsed": 972965, "internal_node_id": "0.0-6.0-1.0-4.0"}}, {"uniqueid": "w29116851:a27638501", "current_trial": 14, "dateTime": 1693581342960, "trialdata": {"revealed_states": [], "clicked_states": ["5", "6", "7", "18", "16", "17", "20", "21", "22", "31", "32", "30", "25", "24", "23"], "num_clicks_accrued": [0, 0, 0, 0, 0, 0, 0, 0, 0, 0, 0, 0, 0], "stateRewards": ["", -2, -2, -3, -6, -15, -11, 41, -12, -63, -76, 2, -2, -3, 8, 9, -36, -2, -18, -16, -32, -85, -17, -2, 1, 5, -16, 82, 35, -88, -1, 80, -82, -20], "withholdReward": false, "trial_id": "mdp_trial_6", "block": "test", "trialIndex": 7, "score": 62, "costs": -20.999999999999996, "simulationMode": [null, null, null, null, null], "rewards": [-2, 1, 5, -1, 80], "path": ["0", "0", "23", "24", "25", "30", "31"], "rt": [37487, 311, 202, 204, 172], "actions": ["left", "left", "left", "down", "right"], "actionTimes": [42776, 43860, 44820, 45869, 46763], "queries": {"click": {"state": {"target": ["5", "6", "7", "18", "16", "17", "20", "21", "22", "31", "32", "30", "25", "24", "23"], "time": [6926, 9479, 11873, 14211, 16470, 18735, 20644, 24151, 26575, 28975, 31315, 33714, 35950, 38209, 40532]}, "edge": {"target": [], "time": []}}, "mouseover": {"state": {"target": ["1", "5", "6", "7", "7", "18", "16", "17", "20", "21", "22", "21", "22", "31", "32", "30", "25", "24", "23"], "time": [5967, 6372, 7764, 10180, 10455, 12869, 14956, 17252, 19723, 21809, 23339, 23863, 24835, 27330, 29952, 32141, 34685, 37003, 38893]}, "edge": {"target": [], "time": []}}, "mouseout": {"state": {"target": ["6", "7", "1", "5", "6", "7", "7", "18", "16", "17", "20", "21", "22", "21", "22", "31", "32", "30", "25", "24"], "time": [599, 1092, 6105, 7568, 10087, 10248, 12700, 14862, 17141, 19349, 21733, 23020, 23627, 24818, 27147, 29522, 31536, 34400, 36761, 38760]}, "edge": {"target": [], "time": []}}}, "displayed_time": "47.33", "trialTime": 49707, "trial_type": "mouselab-mdp", "trial_index": 14, "time_elapsed": 1024886, "internal_node_id": "0.0-6.0-1.0-5.0"}}, {"uniqueid": "w29116851:a27638501", "current_trial": 15, "dateTime": 1693581380970, "trialdata": {"revealed_states": [], "clicked_states": ["31", "32", "33", "29", "27", "28", "30", "25", "24", "23"], "num_clicks_accrued": [0, 0, 0, 0, 0, 0, 0, 0, 0, 0, 0, 0, 0], "stateRewards": ["", -1, 2, 6, 11, 21, -21, -21, -6, 48, -71, 88, -1, -3, 3, 7, 64, 2, 9, -4, 37, -67, 72, 2, 2, -8, -8, -10, 71, -40, -3, 73, 80, 47], "withholdReward": false, "trial_id": "mdp_trial_7", "block": "test", "trialIndex": 8, "score": 59, "costs": -14.000000000000002, "simulationMode": [null, null, null, null, null], "rewards": [2, 2, -8, -3, 80], "path": ["0", "0", "23", "24", "25", "30", "32"], "rt": [24315, 315, 225, 176, 266], "actions": ["left", "left", "left", "down", "down"], "actionTimes": [27285, 28283, 29192, 30124, 31039], "queries": {"click": {"state": {"target": ["31", "32", "33", "29", "27", "28", "30", "25", "24", "23"], "time": [4516, 6940, 9200, 11604, 13786, 16062, 18318, 20722, 23000, 25214]}, "edge": {"target": [], "time": []}}, "mouseover": {"state": {"target": ["31", "23", "24", "31", "32", "33", "29", "27", "28", "30", "25", "24", "23"], "time": [3155, 3773, 3975, 4237, 5393, 7595, 10429, 12500, 14720, 16777, 19372, 21543, 23953]}, "edge": {"target": [], "time": []}}, "mouseout": {"state": {"target": ["23", "31", "23", "24", "31", "32", "33", "29", "27", "28", "30", "25", "24", "23"], "time": [972, 3337, 3885, 4057, 5173, 7403, 10017, 12288, 14238, 16726, 19191, 21490, 23947, 25707]}, "edge": {"target": [], "time": []}}}, "displayed_time": "31.63", "trialTime": 35323, "trial_type": "mouselab-mdp", "trial_index": 15, "time_elapsed": 1062896, "internal_node_id": "0.0-6.0-1.0-6.0"}}, {"uniqueid": "w29116851:a27638501", "current_trial": 16, "dateTime": 1693581440981, "trialdata": {"revealed_states": [], "clicked_states": ["10", "11", "9", "5", "6", "7", "18", "16", "17", "20", "21", "22", "31", "32", "33", "29", "27", "28"], "num_clicks_accrued": [0, 0, 0, 0, 0, 0, 0, 0, 0, 0, 0, 0, 0], "stateRewards": ["", 2, -4, -4, 13, -80, 62, 13, -11, 57, -13, -44, 1, 4, 3, -4, -29, -88, 15, 16, -58, 68, -45, -1, -3, -1, -9, -44, -86, -19, -7, -36, 59, 66], "withholdReward": false, "trial_id": "mdp_trial_8", "block": "test", "trialIndex": 9, "score": 66.80000000000001, "costs": -25.199999999999992, "simulationMode": [null, null, null, null, null], "rewards": [1, 4, 3, 16, 68], "path": ["0", "0", "12", "13", "14", "19", "21"], "rt": [43708, 204, 150, 17, 321], "actions": ["right", "right", "right", "down", "down"], "actionTimes": [48284, 49134, 49988, 50769, 51774], "queries": {"click": {"state": {"target": ["10", "11", "9", "5", "6", "7", "18", "16", "17", "20", "21", "22", "31", "32", "33", "29", "27", "28"], "time": [6264, 8649, 10931, 13002, 15192, 17467, 19802, 22074, 24393, 26605, 29029, 31643, 34390, 36783, 39161, 41504, 43744, 46190]}, "edge": {"target": [], "time": []}}, "mouseover": {"state": {"target": ["11", "10", "11", "9", "5", "6", "7", "18", "16", "17", "20", "21", "22", "31", "32", "33", "29", "27", "28"], "time": [4698, 5851, 7285, 9597, 11698, 13906, 16128, 18538, 20740, 22989, 25337, 27442, 30008, 33743, 35475, 37551, 40076, 42265, 44632]}, "edge": {"target": [], "time": []}}, "mouseout": {"state": {"target": ["0", "0", "11", "10", "11", "9", "5", "6", "7", "18", "16", "17", "20", "21", "22", "31", "32", "33", "29", "27", "28"], "time": [169, 4631, 5673, 6862, 9210, 11570, 13624, 15824, 18218, 20368, 22677, 25029, 27349, 29342, 32985, 35133, 37501, 39872, 42226, 44395, 47050]}, "edge": {"target": [], "time": []}}}, "displayed_time": "52.48", "trialTime": 56412, "trial_type": "mouselab-mdp", "trial_index": 16, "time_elapsed": 1122907, "internal_node_id": "0.0-6.0-1.0-7.0"}}, {"uniqueid": "w29116851:a27638501", "current_trial": 17, "dateTime": 1693581469843, "trialdata": {"revealed_states": [], "clicked_states": ["18", "16", "15", "14", "13", "12"], "num_clicks_accrued": [0, 0, 0, 0, 0, 0, 0, 0, 0, 0, 0, 0, 0], "stateRewards": ["", 2, -1, 3, -12, -83, 6, -33, 9, 28, 24, -50, -2, -1, -2, -5, -87, 37, 82, 12, 80, -5, 10, -2, -3, -6, 9, 22, -1, 16, 9, 77, -62, 58], "withholdReward": false, "trial_id": "mdp_trial_9", "block": "test", "trialIndex": 10, "score": 63.6, "costs": -8.4, "simulationMode": [null, null, null, null, null], "rewards": [-2, -1, -2, -5, 82], "path": ["0", "0", "12", "13", "14", "15", "18"], "rt": [16141, 321, 217, 160, 201], "actions": ["right", "right", "right", "up", "left"], "actionTimes": [19623, 20568, 21415, 22285, 23191], "queries": {"click": {"state": {"target": ["18", "16", "15", "14", "13", "12"], "time": [5175, 7922, 10332, 12710, 15203, 17488]}, "edge": {"target": [], "time": []}}, "mouseover": {"state": {"target": ["18", "16", "17", "15", "14", "13", "12"], "time": [4783, 6240, 8982, 9381, 11120, 13590, 15983]}, "edge": {"target": [], "time": []}}, "mouseout": {"state": {"target": ["0", "18", "16", "17", "15", "14", "13"], "time": [3555, 5523, 8628, 9217, 10918, 13507, 15931]}, "edge": {"target": [], "time": []}}}, "displayed_time": "23.95", "trialTime": 26576, "trial_type": "mouselab-mdp", "trial_index": 17, "time_elapsed": 1151769, "internal_node_id": "0.0-6.0-1.0-8.0"}}, {"uniqueid": "w29116851:a27638501", "current_trial": 18, "dateTime": 1693581501634, "trialdata": {"revealed_states": [], "clicked_states": ["33", "32", "31", "29", "27", "28"], "num_clicks_accrued": [0, 0, 0, 0, 0, 0, 0, 0, 0, 0, 0, 0, 0], "stateRewards": ["", 1, 2, 7, 13, 88, -71, 27, 3, 60, 5, -53, -2, 2, -6, -1, -30, 79, 47, -4, -14, 46, 68, 1, 1, 8, 10, -14, 86, 48, -11, -67, -44, 5], "withholdReward": false, "trial_id": "mdp_trial_10", "block": "test", "trialIndex": 11, "score": 97.6, "costs": -8.4, "simulationMode": [null, null, null, null, null], "rewards": [1, 1, 8, 10, 86], "path": ["0", "0", "23", "24", "25", "26", "28"], "rt": [16800, 50, 519, 283, 352], "actions": ["left", "left", "left", "up", "right"], "actionTimes": [21256, 22094, 23197, 24113, 25096], "queries": {"click": {"state": {"target": ["33", "32", "31", "29", "27", "28"], "time": [5904, 8445, 10785, 13076, 15686, 18158]}, "edge": {"target": [], "time": []}}, "mouseover": {"state": {"target": ["24", "25", "33", "32", "31", "29", "27", "28", "22"], "time": [4919, 5080, 5492, 6938, 9145, 11686, 14059, 16512, 18882]}, "edge": {"target": [], "time": []}}, "mouseout": {"state": {"target": ["12", "0", "24", "25", "33", "32", "31", "29", "27", "28"], "time": [1082, 4834, 5034, 5168, 6824, 8958, 11624, 13796, 16346, 18689]}, "edge": {"target": [], "time": []}}}, "displayed_time": "25.77", "trialTime": 29397, "trial_type": "mouselab-mdp", "trial_index": 18, "time_elapsed": 1183560, "internal_node_id": "0.0-6.0-1.0-9.0"}}, {"uniqueid": "w29116851:a27638501", "current_trial": 19, "dateTime": 1693581552704, "trialdata": {"revealed_states": [], "clicked_states": ["5", "6", "7", "10", "11", "9", "27", "28", "29", "33", "32", "31"], "num_clicks_accrued": [0, 0, 0, 0, 0, 0, 0, 0, 0, 0, 0, 0, 0], "stateRewards": ["", -2, 2, -1, -6, 22, 6, 6, -5, 70, -42, 65, 1, 3, 5, -6, -67, -9, 3, 14, 7, -62, -13, -2, 4, 1, 16, 42, -21, -52, -8, 32, 53, 81], "withholdReward": false, "trial_id": "mdp_trial_11", "block": "test", "trialIndex": 12, "score": 59.2, "costs": -16.8, "simulationMode": [null, null, null, null, null], "rewards": [-2, 4, 1, -8, 81], "path": ["0", "0", "23", "24", "25", "30", "33"], "rt": [31919, 242, 288, 181, 292], "actions": ["left", "left", "left", "down", "left"], "actionTimes": [36718, 37613, 38618, 39581, 40510], "queries": {"click": {"state": {"target": ["5", "6", "7", "10", "11", "9", "27", "28", "29", "33", "32", "31"], "time": [6170, 8595, 10865, 13155, 15473, 18073, 20514, 23025, 25410, 27950, 31502, 33967]}, "edge": {"target": [], "time": []}}, "mouseover": {"state": {"target": ["4", "5", "6", "7", "10", "11", "9", "27", "28", "29", "33", "32", "31"], "time": [5086, 5668, 7305, 9367, 11439, 13896, 16061, 19561, 21765, 23945, 26607, 29659, 32272]}, "edge": {"target": [], "time": []}}, "mouseout": {"state": {"target": ["22", "7", "0", "4", "5", "6", "7", "10", "11", "9", "27", "28", "29", "33", "32", "31"], "time": [null, 684, 5009, 5615, 7159, 9295, 11435, 13873, 15750, 19041, 21386, 23267, 26148, 28518, 32267, 34841]}, "edge": {"target": [], "time": []}}}, "displayed_time": "41.14", "trialTime": 44378, "trial_type": "mouselab-mdp", "trial_index": 19, "time_elapsed": 1234629, "internal_node_id": "0.0-6.0-1.0-10.0"}}, {"uniqueid": "w29116851:a27638501", "current_trial": 20, "dateTime": 1693581587556, "trialdata": {"revealed_states": [], "clicked_states": ["33", "32", "31", "22", "21", "20"], "num_clicks_accrued": [0, 0, 0, 0, 0, 0, 0, 0, 0, 0, 0, 0, 0], "stateRewards": ["", -1, 1, 3, -8, -23, -15, -14, -11, -23, 58, 68, 1, 3, 5, 12, -17, -41, -7, -10, -4, 82, 10, 1, 4, -4, 11, 73, 55, -55, -1, -86, -86, 54], "withholdReward": false, "trial_id": "mdp_trial_12", "block": "test", "trialIndex": 13, "score": 72.6, "costs": -8.4, "simulationMode": [null, null, null, null, null], "rewards": [1, 3, 5, -10, 82], "path": ["0", "0", "12", "13", "14", "19", "21"], "rt": [18053, 228, 242, 266, 261], "actions": ["right", "right", "right", "down", "down"], "actionTimes": [22528, 23581, 24599, 25650, 26623], "queries": {"click": {"state": {"target": ["33", "32", "31", "22", "21", "20"], "time": [6027, 8702, 11121, 13653, 16068, 18654]}, "edge": {"target": [], "time": []}}, "mouseover": {"state": {"target": ["23", "30", "33", "32", "31", "22", "21", "20"], "time": [5205, 5337, 5631, 7450, 9602, 12849, 14484, 16640]}, "edge": {"target": [], "time": []}}, "mouseout": {"state": {"target": ["0", "23", "30", "33", "32", "31", "22", "21", "20"], "time": [5159, 5299, 5432, 7271, 9174, 12232, 14395, 16635, 20564]}, "edge": {"target": [], "time": []}}}, "displayed_time": "27.33", "trialTime": 31817, "trial_type": "mouselab-mdp", "trial_index": 20, "time_elapsed": 1269482, "internal_node_id": "0.0-6.0-1.0-11.0"}}, {"uniqueid": "w29116851:a27638501", "current_trial": 21, "dateTime": 1693581653537, "trialdata": {"revealed_states": [], "clicked_states": ["11", "9", "10", "5", "6", "7", "18", "16", "17", "20", "21", "22", "31", "32", "33", "29", "27", "28"], "num_clicks_accrued": [0, 0, 0, 0, 0, 0, 0, 0, 0, 0, 0, 0, 0], "stateRewards": ["", 1, 2, -6, -13, -51, 22, -4, -12, -44, -12, 6, -2, -2, -2, -14, -46, -4, -77, -2, 36, -79, 41, 2, -4, 2, -6, -55, 59, 70, -5, 39, -19, 24], "withholdReward": false, "trial_id": "mdp_trial_13", "block": "test", "trialIndex": 14, "score": 38.80000000000001, "costs": -25.199999999999992, "simulationMode": [null, null, null, null, null], "rewards": [2, -4, 2, -6, 70], "path": ["0", "0", "23", "24", "25", "26", "29"], "rt": [45147, 234, 116, 200, 111], "actions": ["left", "left", "left", "up", "left"], "actionTimes": [50237, 51120, 51941, 52807, 53642], "queries": {"click": {"state": {"target": ["11", "9", "10", "5", "6", "7", "18", "16", "17", "20", "21", "22", "31", "32", "33", "29", "27", "28"], "time": [6757, 9273, 11837, 14618, 17119, 19385, 21836, 24233, 26549, 28971, 31342, 33738, 36157, 38591, 41077, 43446, 45721, 48040]}, "edge": {"target": [], "time": []}}, "mouseover": {"state": {"target": ["11", "9", "10", "5", "3", "5", "6", "7", "18", "16", "17", "20", "21", "22", "31", "32", "33", "29", "27", "28"], "time": [6303, 7908, 10662, 12851, 13813, 14178, 15717, 17908, 20316, 22719, 25090, 27661, 29837, 32330, 34605, 37508, 39640, 42203, 44176, 46864]}, "edge": {"target": [], "time": []}}, "mouseout": {"state": {"target": ["0", "11", "9", "10", "5", "3", "5", "6", "7", "18", "16", "17", "20", "21", "22", "31", "32", "33", "29", "27", "28"], "time": [6099, 7902, 9465, 12846, 13801, 14007, 15422, 17845, 20000, 22633, 24799, 27392, 29793, 32027, 34598, 36955, 39570, 41806, 44155, 46587, 48252]}, "edge": {"target": [], "time": []}}}, "displayed_time": "54.27", "trialTime": 57330, "trial_type": "mouselab-mdp", "trial_index": 21, "time_elapsed": 1335463, "internal_node_id": "0.0-6.0-1.0-12.0"}}, {"uniqueid": "w29116851:a27638501", "current_trial": 22, "dateTime": 1693581686518, "trialdata": {"revealed_states": [], "clicked_states": ["5", "6", "7", "10", "11", "9", "28"], "num_clicks_accrued": [0, 0, 0, 0, 0, 0, 0, 0, 0, 0, 0, 0, 0], "stateRewards": ["", -2, 3, 8, -9, 59, 41, -50, -1, 82, 66, 33, 2, -2, 7, 8, 1, -38, 12, -16, 24, -37, 67, 1, 4, -2, 5, 35, -83, 28, 8, -27, 69, -64], "withholdReward": false, "trial_id": "mdp_trial_14", "block": "test", "trialIndex": 15, "score": 80.2, "costs": -9.8, "simulationMode": [null, null, null, null, null], "rewards": [-2, 3, 8, -1, 82], "path": ["0", "0", "1", "2", "3", "8", "9"], "rt": [18778, 248, 237, 301, 335], "actions": ["up", "up", "up", "left", "up"], "actionTimes": [21918, 22841, 23769, 24718, 25685], "queries": {"click": {"state": {"target": ["5", "6", "7", "10", "11", "9", "28"], "time": [4551, 7035, 9500, 12058, 14547, 17003, 19707]}, "edge": {"target": [], "time": []}}, "mouseover": {"state": {"target": ["5", "6", "7", "10", "11", "9", "28"], "time": [4047, 5734, 8029, 10429, 13053, 15440, 18152]}, "edge": {"target": [], "time": []}}, "mouseout": {"state": {"target": ["10", "0", "5", "6", "7", "10", "11", "9", "28"], "time": [644, 3837, 5685, 7665, 9725, 12771, 15250, 17678, 20004]}, "edge": {"target": [], "time": []}}}, "displayed_time": "26.35", "trialTime": 30203, "trial_type": "mouselab-mdp", "trial_index": 22, "time_elapsed": 1368444, "internal_node_id": "0.0-6.0-1.0-13.0"}}, {"uniqueid": "w29116851:a27638501", "current_trial": 23, "dateTime": 1693581743546, "trialdata": {"revealed_states": [], "clicked_states": ["5", "6", "7", "10", "11", "9", "28", "27", "29", "33", "32", "31", "22", "21", "20", "17", "16", "18"], "num_clicks_accrued": [0, 0, 0, 0, 0, 0, 0, 0, 0, 0, 0, 0, 0], "stateRewards": ["", 2, 3, -3, 4, 72, -28, 34, -12, 57, -64, -15, 2, 1, -4, -15, 2, 49, 31, -1, -42, -58, 31, -2, 1, -2, -13, -75, -19, -22, -6, 61, 10, -56], "withholdReward": false, "trial_id": "mdp_trial_15", "block": "test", "trialIndex": 16, "score": 52.80000000000001, "costs": -25.199999999999992, "simulationMode": [null, null, null, null, null], "rewards": [2, 3, -3, 4, 72], "path": ["0", "0", "1", "2", "3", "4", "5"], "rt": [42890, 181, 122, 90, 102], "actions": ["up", "up", "up", "right", "up"], "actionTimes": [46551, 47334, 48140, 48881, 49724], "queries": {"click": {"state": {"target": ["5", "6", "7", "10", "11", "9", "28", "27", "29", "33", "32", "31", "22", "21", "20", "17", "16", "18"], "time": [5354, 7796, 10116, 12597, 14713, 17019, 19353, 21583, 23912, 26173, 28353, 30660, 32911, 34932, 37252, 39427, 41602, 44136]}, "edge": {"target": [], "time": []}}, "mouseover": {"state": {"target": ["4", "5", "6", "7", "10", "11", "9", "28", "27", "29", "33", "32", "31", "22", "22", "21", "20", "17", "16", "18"], "time": [4577, 4969, 6231, 8714, 10990, 13179, 15962, 18363, 20219, 22571, 25276, 27350, 29251, 31634, 31961, 33958, 35849, 38242, 40105, 42641]}, "edge": {"target": [], "time": []}}, "mouseout": {"state": {"target": ["5", "5", "2", "1", "0", "4", "5", "6", "7", "10", "11", "9", "28", "27", "29", "33", "32", "31", "22", "22", "21", "20", "17", "16", "18"], "time": [null, 654, 759, 979, 4389, 4794, 6225, 8339, 10935, 13170, 14965, 17945, 20117, 22368, 24189, 27088, 29164, 31248, 31797, 33512, 35771, 37537, 40018, 42486, 44865]}, "edge": {"target": [], "time": []}}}, "displayed_time": "50.34", "trialTime": 52754, "trial_type": "mouselab-mdp", "trial_index": 23, "time_elapsed": 1425472, "internal_node_id": "0.0-6.0-1.0-14.0"}}, {"uniqueid": "w29116851:a27638501", "current_trial": 24, "dateTime": 1693581802398, "trialdata": {"revealed_states": [], "clicked_states": ["9", "5", "6", "7", "10", "11", "18", "16", "17", "20", "21", "22", "31", "32", "33", "29", "27"], "num_clicks_accrued": [0, 0, 0, 0, 0, 0, 0, 0, 0, 0, 0, 0, 0], "stateRewards": ["", 1, 2, -8, 9, 18, -83, -11, 6, -64, -48, 17, -2, -2, -5, -3, -24, -3, -86, -2, 48, -41, -22, -2, 4, 7, 8, 81, 13, -48, 10, 61, 19, 57], "withholdReward": false, "trial_id": "mdp_trial_16", "block": "test", "trialIndex": 17, "score": 74.2, "costs": -23.799999999999994, "simulationMode": [null, null, null, null, null], "rewards": [-2, 4, 7, 8, 81], "path": ["0", "0", "23", "24", "25", "26", "27"], "rt": [42492, 44, 182, 211, 65], "actions": ["left", "left", "left", "up", "up"], "actionTimes": [46295, 47005, 47856, 48931, 49775], "queries": {"click": {"state": {"target": ["9", "5", "6", "7", "10", "11", "18", "16", "17", "20", "21", "22", "31", "32", "33", "29", "27"], "time": [5769, 8141, 10164, 12531, 14798, 17056, 19394, 21586, 23938, 26442, 28599, 31050, 33396, 35817, 38074, 40460, 42768]}, "edge": {"target": [], "time": []}}, "mouseover": {"state": {"target": ["2", "9", "5", "6", "7", "10", "11", "15", "18", "16", "17", "20", "21", "22", "31", "32", "33", "29", "27", "28"], "time": [4641, 5221, 7166, 8962, 11065, 13576, 15549, 18174, 18639, 20137, 22556, 25168, 27630, 29506, 32081, 34464, 36520, 38965, 41291, 43867]}, "edge": {"target": [], "time": []}}, "mouseout": {"state": {"target": ["0", "0", "2", "9", "5", "6", "7", "10", "11", "15", "18", "16", "17", "20", "21", "22", "31", "32", "33", "29", "27", "28"], "time": [204, 4538, 4838, 6758, 8712, 11057, 13163, 15541, 17743, 18407, 20101, 22345, 24766, 26692, 29268, 31971, 34387, 36465, 38896, 41139, 43310, 45615]}, "edge": {"target": [], "time": []}}}, "displayed_time": "50.33", "trialTime": 53390, "trial_type": "mouselab-mdp", "trial_index": 24, "time_elapsed": 1484324, "internal_node_id": "0.0-6.0-1.0-15.0"}}, {"uniqueid": "w29116851:a27638501", "current_trial": 25, "dateTime": 1693581831894, "trialdata": {"revealed_states": [], "clicked_states": ["22", "21", "20", "17", "16", "18"], "num_clicks_accrued": [0, 0, 0, 0, 0, 0, 0, 0, 0, 0, 0, 0, 0], "stateRewards": ["", -2, -3, 1, -14, 48, -49, 67, -1, -35, -48, 3, -2, 1, -4, -5, 86, -84, 39, 1, 48, 41, -42, -1, -4, 2, -7, 18, -86, 17, 7, -9, 57, -69], "withholdReward": false, "trial_id": "mdp_trial_17", "block": "test", "trialIndex": 18, "score": 67.6, "costs": -8.4, "simulationMode": [null, null, null, null, null], "rewards": [-2, 1, -4, -5, 86], "path": ["0", "0", "12", "13", "14", "15", "16"], "rt": [15434, 207, 151, 117, 252], "actions": ["right", "right", "right", "up", "up"], "actionTimes": [19612, 20447, 21290, 22046, 22995], "queries": {"click": {"state": {"target": ["22", "21", "20", "17", "16", "18"], "time": [5695, 8099, 10422, 12705, 15077, 17552]}, "edge": {"target": [], "time": []}}, "mouseover": {"state": {"target": ["22", "21", "20", "17", "16", "16", "18"], "time": [5299, 6703, 8761, 11321, 13545, 13920, 15937]}, "edge": {"target": [], "time": []}}, "mouseout": {"state": {"target": ["27", "1", "0", "22", "21", "20", "17", "16", "16", "18"], "time": [989, 1269, 4956, 6621, 8756, 10695, 13481, 13712, 15922, 17819]}, "edge": {"target": [], "time": []}}}, "displayed_time": "23.71", "trialTime": 26773, "trial_type": "mouselab-mdp", "trial_index": 25, "time_elapsed": 1513819, "internal_node_id": "0.0-6.0-1.0-16.0"}}, {"uniqueid": "w29116851:a27638501", "current_trial": 26, "dateTime": 1693581873640, "trialdata": {"revealed_states": [], "clicked_states": ["32", "31", "33", "29", "27", "28", "22", "21", "20"], "num_clicks_accrued": [0, 0, 0, 0, 0, 0, 0, 0, 0, 0, 0, 0, 0], "stateRewards": ["", 1, 4, 7, -16, -84, -6, -46, -12, -7, -49, -26, -1, 2, -4, 2, 22, 37, -64, 1, 88, -13, -10, 1, -4, -2, 5, 2, -10, -34, 9, 66, 55, 38], "withholdReward": false, "trial_id": "mdp_trial_18", "block": "test", "trialIndex": 19, "score": 73.4, "costs": -12.600000000000001, "simulationMode": [null, null, null, null, null], "rewards": [-1, 2, -4, 1, 88], "path": ["0", "0", "12", "13", "14", "19", "20"], "rt": [24663, 102, 159, 64, 123], "actions": ["right", "right", "right", "down", "right"], "actionTimes": [28015, 28819, 29709, 30549, 31371], "queries": {"click": {"state": {"target": ["32", "31", "33", "29", "27", "28", "22", "21", "20"], "time": [5103, 7634, 10142, 12790, 15102, 17595, 19977, 22534, 24865]}, "edge": {"target": [], "time": []}}, "mouseover": {"state": {"target": ["32", "31", "33", "29", "27", "28", "22", "21", "20", "17"], "time": [4499, 6369, 8766, 10877, 13486, 16120, 18751, 21083, 23450, 26053]}, "edge": {"target": [], "time": []}}, "mouseout": {"state": {"target": ["18", "0", "32", "31", "33", "29", "27", "28", "22", "21", "20"], "time": [692, 4382, 6019, 8244, 10809, 13432, 15388, 18381, 20717, 23445, 25609]}, "edge": {"target": [], "time": []}}}, "displayed_time": "32.01", "trialTime": 35256, "trial_type": "mouselab-mdp", "trial_index": 26, "time_elapsed": 1555565, "internal_node_id": "0.0-6.0-1.0-17.0"}}, {"uniqueid": "w29116851:a27638501", "current_trial": 27, "dateTime": 1693581932967, "trialdata": {"revealed_states": [], "clicked_states": ["9", "11", "10", "7", "6", "5", "16", "18", "17", "20", "21", "22", "31", "32", "33", "29", "27", "28"], "num_clicks_accrued": [0, 0, 0, 0, 0, 0, 0, 0, 0, 0, 0, 0, 0], "stateRewards": ["", 2, -4, -8, -15, 71, -43, -41, 7, -17, 20, 67, -1, -1, -4, 6, 37, -24, -47, 9, 34, 57, 45, 1, 2, -4, -5, -23, 88, -5, 13, -40, 43, 44], "withholdReward": false, "trial_id": "mdp_trial_19", "block": "test", "trialIndex": 20, "score": 56.80000000000001, "costs": -25.199999999999992, "simulationMode": [null, null, null, null, null], "rewards": [1, 2, -4, -5, 88], "path": ["0", "0", "23", "24", "25", "26", "28"], "rt": [43854, 10, 21, 212, 296], "actions": ["left", "left", "left", "up", "right"], "actionTimes": [47591, 48417, 49334, 50295, 51174], "queries": {"click": {"state": {"target": ["9", "11", "10", "7", "6", "5", "16", "18", "17", "20", "21", "22", "31", "32", "33", "29", "27", "28"], "time": [5016, 7377, 9728, 12040, 14408, 16607, 18878, 21451, 23750, 25996, 28197, 30568, 33152, 35563, 37918, 40364, 42744, 44968]}, "edge": {"target": [], "time": []}}, "mouseover": {"state": {"target": ["9", "11", "10", "7", "6", "5", "16", "18", "17", "20", "21", "22", "31", "32", "33", "29", "27", "28"], "time": [4571, 6165, 8501, 10495, 12767, 15596, 17789, 20328, 22540, 24659, 26995, 29369, 31687, 34204, 36555, 38815, 41246, 43584]}, "edge": {"target": [], "time": []}}, "mouseout": {"state": {"target": ["17", "12", "0", "9", "11", "10", "7", "6", "5", "16", "18", "17", "20", "21", "22", "31", "32", "33", "29", "27"], "time": [761, 891, 4434, 5982, 8063, 10453, 12718, 15498, 17555, 19944, 22383, 24582, 26810, 29282, 31627, 34007, 36343, 38733, 41150, 42940]}, "edge": {"target": [], "time": []}}}, "displayed_time": "51.98", "trialTime": 54276, "trial_type": "mouselab-mdp", "trial_index": 27, "time_elapsed": 1614893, "internal_node_id": "0.0-6.0-1.0-18.0"}}, {"uniqueid": "w29116851:a27638501", "current_trial": 28, "dateTime": 1693581998016, "trialdata": {"revealed_states": [], "clicked_states": ["28", "18", "16", "21", "32", "27", "29", "33", "31", "20", "22", "17", "7", "6", "5", "9", "11", "10"], "num_clicks_accrued": [0, 0, 0, 0, 0, 0, 0, 0, 0, 0, 0, 0, 0], "stateRewards": ["", 2, -1, -4, -13, 74, 77, 3, 2, -43, -2, -11, 2, 3, 7, 11, -26, -29, -33, -3, -3, -13, -3, 1, 3, -7, 14, -59, 33, 9, -5, 34, 79, 68], "withholdReward": false, "trial_id": "mdp_trial_20", "block": "test", "trialIndex": 21, "score": 0.8000000000000114, "costs": -25.199999999999992, "simulationMode": [null, null, null, null, null], "rewards": [1, 3, -7, -5, 34], "path": ["0", "0", "23", "24", "25", "30", "31"], "rt": [47359, 49, 103, 44, 100], "actions": ["left", "left", "left", "down", "right"], "actionTimes": [50852, 51638, 52409, 53222, 54087], "queries": {"click": {"state": {"target": ["28", "18", "16", "21", "32", "27", "29", "33", "31", "20", "22", "17", "7", "6", "5", "9", "11", "10"], "time": [5123, 7582, 9845, 12444, 15720, 18446, 20757, 23313, 25663, 28877, 31416, 33820, 36375, 38718, 41145, 43713, 46010, 48608]}, "edge": {"target": [], "time": []}}, "mouseover": {"state": {"target": ["28", "18", "16", "21", "32", "32", "26", "27", "29", "33", "31", "19", "20", "22", "22", "17", "7", "6", "5", "9", "11", "10"], "time": [4660, 6753, 8755, 12020, 14915, 15375, 16748, 17081, 19237, 22149, 24237, 27416, 28122, 29688, 29991, 32422, 35071, 37048, 39523, 42353, 44509, 47023]}, "edge": {"target": [], "time": []}}, "mouseout": {"state": {"target": ["0", "28", "18", "16", "21", "32", "32", "26", "27", "29", "33", "31", "19", "20", "22", "22", "17", "7", "6", "5", "9", "11", "10"], "time": [4341, 6695, 8413, 11733, 13328, 15059, 16742, 17026, 19232, 21835, 23873, 26344, 27679, 29634, 29820, 32227, 34846, 36983, 39019, 42105, 44501, 46839, 49266]}, "edge": {"target": [], "time": []}}}, "displayed_time": "54.83", "trialTime": 59636, "trial_type": "mouselab-mdp", "trial_index": 28, "time_elapsed": 1679942, "internal_node_id": "0.0-6.0-1.0-19.0"}}, {"uniqueid": "w29116851:a27638501", "current_trial": 29, "dateTime": 1693582062473, "trialdata": {"revealed_states": [], "clicked_states": ["5", "10", "9", "7", "6", "11", "27", "28", "29", "32", "33", "31", "22", "20", "21", "16", "18", "17"], "num_clicks_accrued": [0, 0, 0, 0, 0, 0, 0, 0, 0, 0, 0, 0, 0], "stateRewards": ["", 2, 4, -3, 16, -58, 30, -35, 11, -60, 47, 27, -2, -1, -7, -16, 23, -70, 68, -10, -65, -43, -34, -2, 1, 7, 9, -63, 34, -31, -8, -12, -86, 59], "withholdReward": false, "trial_id": "mdp_trial_21", "block": "test", "trialIndex": 22, "score": 16.80000000000001, "costs": -25.199999999999992, "simulationMode": [null, null, null, null, null], "rewards": [-2, -1, -7, -16, 68], "path": ["0", "0", "12", "13", "14", "15", "18"], "rt": [44143, 130, 79, 32, 82], "actions": ["right", "right", "right", "up", "left"], "actionTimes": [49528, 50285, 51051, 51783, 52615], "queries": {"click": {"state": {"target": ["5", "10", "9", "7", "6", "11", "27", "28", "29", "32", "33", "31", "22", "20", "21", "16", "18", "17"], "time": [6708, 9118, 11630, 13861, 16102, 18341, 20981, 23396, 25676, 28112, 30399, 32757, 35241, 37668, 39981, 42436, 44794, 47339]}, "edge": {"target": [], "time": []}}, "mouseover": {"state": {"target": ["5", "3", "10", "9", "7", "6", "11", "27", "28", "29", "32", "33", "31", "22", "20", "21", "14", "16", "18", "17"], "time": [6178, 7776, 8087, 10157, 12657, 14882, 17069, 20556, 22265, 24156, 26646, 29486, 31224, 33758, 36373, 38890, 40707, 41150, 43261, 45868]}, "edge": {"target": [], "time": []}}, "mouseout": {"state": {"target": ["0", "0", "5", "3", "10", "9", "7", "6", "11", "27", "28", "29", "32", "33", "31", "22", "20", "21", "14", "16", "18"], "time": [1143, 6120, 7013, 8017, 9946, 12331, 14832, 16990, 20308, 21172, 24070, 26580, 29434, 31194, 33294, 36219, 38638, 40620, 40971, 43151, 45460]}, "edge": {"target": [], "time": []}}}, "displayed_time": "53.29", "trialTime": 58173, "trial_type": "mouselab-mdp", "trial_index": 29, "time_elapsed": 1744399, "internal_node_id": "0.0-6.0-1.0-20.0"}}, {"uniqueid": "w29116851:a27638501", "current_trial": 30, "dateTime": 1693582091454, "trialdata": {"revealed_states": [], "clicked_states": ["32", "31", "33"], "num_clicks_accrued": [0, 0, 0, 0, 0, 0, 0, 0, 0, 0, 0, 0, 0], "stateRewards": ["", -1, -4, -1, -5, -28, -23, -15, -15, -38, 59, -87, 2, 2, -5, 9, -55, -39, -71, -6, 85, -85, -11, -1, -2, 5, -10, 1, 25, 41, -4, 69, -35, 86], "withholdReward": false, "trial_id": "mdp_trial_22", "block": "test", "trialIndex": 23, "score": 79.8, "costs": -4.199999999999999, "simulationMode": [null, null, null, null, null], "rewards": [-1, -2, 5, -4, 86], "path": ["0", "0", "23", "24", "25", "30", "33"], "rt": [10738, 840, 61, 278, 398], "actions": ["left", "left", "left", "down", "left"], "actionTimes": [14018, 15717, 16513, 17384, 18466], "queries": {"click": {"state": {"target": ["32", "31", "33"], "time": [4843, 7931, 10409]}, "edge": {"target": [], "time": []}}, "mouseover": {"state": {"target": ["32", "31", "30", "33", "29", "29"], "time": [4220, 7582, 8867, 8935, 11289, 11508]}, "edge": {"target": [], "time": []}}, "mouseout": {"state": {"target": ["17", "0", "32", "31", "30", "33", "29"], "time": [832, 4094, 6025, 8725, 8882, 11107, 11306]}, "edge": {"target": [], "time": []}}}, "displayed_time": "19.18", "trialTime": 26043, "trial_type": "mouselab-mdp", "trial_index": 30, "time_elapsed": 1773379, "internal_node_id": "0.0-6.0-1.0-21.0"}}, {"uniqueid": "w29116851:a27638501", "current_trial": 31, "dateTime": 1693582135860, "trialdata": {"revealed_states": [], "clicked_states": ["5", "6", "7", "18", "16", "17", "20", "21", "22", "31"], "num_clicks_accrued": [0, 0, 0, 0, 0, 0, 0, 0, 0, 0, 0, 0, 0], "stateRewards": ["", 1, -1, 1, 13, 31, -56, 72, 2, 41, 5, 63, -2, -3, -2, 3, -71, -26, 52, 13, -31, 24, -67, 2, -2, 5, 4, 66, 43, 72, 9, 86, -26, 44], "withholdReward": false, "trial_id": "mdp_trial_23", "block": "test", "trialIndex": 24, "score": 86, "costs": -14.000000000000002, "simulationMode": [null, null, null, null, null], "rewards": [2, -2, 5, 9, 86], "path": ["0", "0", "23", "24", "25", "30", "31"], "rt": [26436, 4, 73, 146, 205], "actions": ["left", "left", "left", "down", "right"], "actionTimes": [29558, 30358, 31166, 31941, 32742], "queries": {"click": {"state": {"target": ["5", "6", "7", "18", "16", "17", "20", "21", "22", "31"], "time": [4690, 7166, 9559, 12154, 14519, 16876, 19481, 21839, 24173, 26592]}, "edge": {"target": [], "time": []}}, "mouseover": {"state": {"target": ["5", "6", "7", "18", "16", "17", "20", "21", "22", "31", "32"], "time": [4267, 5951, 7968, 10717, 13279, 15709, 18995, 20299, 22694, 25303, 27684]}, "edge": {"target": [], "time": []}}, "mouseout": {"state": {"target": ["0", "5", "6", "7", "18", "16", "17", "20", "21", "22", "31"], "time": [3947, 5747, 7798, 10520, 12901, 15496, 18364, 20261, 22647, 24996, 27502]}, "edge": {"target": [], "time": []}}}, "displayed_time": "33.42", "trialTime": 37048, "trial_type": "mouselab-mdp", "trial_index": 31, "time_elapsed": 1817786, "internal_node_id": "0.0-6.0-1.0-22.0"}}, {"uniqueid": "w29116851:a27638501", "current_trial": 32, "dateTime": 1693582187589, "trialdata": {"revealed_states": [], "clicked_states": ["11", "10", "9", "5", "7", "6", "27", "28", "29", "33", "32", "31"], "num_clicks_accrued": [0, 0, 0, 0, 0, 0, 0, 0, 0, 0, 0, 0, 0], "stateRewards": ["", 1, 4, 5, 8, -55, -11, 8, 16, -37, 77, -22, -2, 3, -8, -10, 45, 87, -67, 4, 17, -33, -22, -1, -3, 7, 6, -39, -85, 75, -1, 7, -48, 45], "withholdReward": false, "trial_id": "mdp_trial_24", "block": "test", "trialIndex": 25, "score": 86.2, "costs": -16.8, "simulationMode": [null, null, null, null, null], "rewards": [1, 4, 5, 16, 77], "path": ["0", "0", "1", "2", "3", "8", "10"], "rt": [31466, 127, 78, 154, 399], "actions": ["up", "up", "up", "left", "down"], "actionTimes": [35024, 35879, 36731, 37562, 38467], "queries": {"click": {"state": {"target": ["11", "10", "9", "5", "7", "6", "27", "28", "29", "33", "32", "31"], "time": [5597, 8224, 10699, 13181, 15520, 17801, 20283, 22660, 25186, 27761, 30271, 32679]}, "edge": {"target": [], "time": []}}, "mouseover": {"state": {"target": ["11", "10", "9", "5", "7", "6", "27", "28", "29", "33", "32", "31"], "time": [5004, 7097, 9537, 11499, 14031, 16650, 18645, 21529, 23577, 26599, 28898, 31348]}, "edge": {"target": [], "time": []}}, "mouseout": {"state": {"target": ["15", "0", "11", "10", "9", "5", "7", "6", "27", "28", "29", "33", "32", "31"], "time": [865, 4719, 6568, 9057, 10978, 13875, 16504, 18594, 21161, 22918, 26224, 28668, 30992, 33560]}, "edge": {"target": [], "time": []}}}, "displayed_time": "39.27", "trialTime": 44940, "trial_type": "mouselab-mdp", "trial_index": 32, "time_elapsed": 1869515, "internal_node_id": "0.0-6.0-1.0-23.0"}}, {"uniqueid": "w29116851:a27638501", "current_trial": 33, "dateTime": 1693582240566, "trialdata": {"revealed_states": [], "clicked_states": ["7", "6", "5", "9", "11", "10", "28", "27", "29", "33", "32", "31", "22", "21", "20"], "num_clicks_accrued": [0, 0, 0, 0, 0, 0, 0, 0, 0, 0, 0, 0, 0], "stateRewards": ["", 1, 2, -3, -6, 50, -7, 7, -7, -80, 21, -1, 2, 2, 4, -1, 33, 84, 1, 14, -53, 81, 6, -2, -2, -3, -9, -87, -38, -59, -5, -74, -3, -71], "withholdReward": false, "trial_id": "mdp_trial_25", "block": "test", "trialIndex": 26, "score": 82, "costs": -20.999999999999996, "simulationMode": [null, null, null, null, null], "rewards": [2, 2, 4, 14, 81], "path": ["0", "0", "12", "13", "14", "19", "21"], "rt": [36661, 53, 73, 98, 228], "actions": ["right", "right", "right", "down", "down"], "actionTimes": [41325, 42186, 43048, 43808, 44703], "queries": {"click": {"state": {"target": ["7", "6", "5", "9", "11", "10", "28", "27", "29", "33", "32", "31", "22", "21", "20"], "time": [5685, 8240, 10581, 12896, 15192, 17463, 19865, 22438, 24817, 27283, 29620, 31945, 34343, 36680, 39021]}, "edge": {"target": [], "time": []}}, "mouseover": {"state": {"target": ["7", "6", "5", "9", "9", "11", "10", "28", "27", "29", "33", "32", "31", "22", "21", "20"], "time": [5289, 6818, 9155, 11495, 11783, 13719, 15939, 18606, 20738, 23380, 26310, 28356, 30887, 32869, 35065, 37459]}, "edge": {"target": [], "time": []}}, "mouseout": {"state": {"target": ["0", "7", "6", "5", "9", "9", "11", "10", "28", "27", "29", "33", "32", "31", "22", "21"], "time": [5040, 6588, 9087, 11440, 11681, 13687, 15536, 18467, 20731, 23158, 25115, 28126, 30390, 32653, 35002, 36953]}, "edge": {"target": [], "time": []}}}, "displayed_time": "45.38", "trialTime": 48263, "trial_type": "mouselab-mdp", "trial_index": 33, "time_elapsed": 1922491, "internal_node_id": "0.0-6.0-1.0-24.0"}}, {"uniqueid": "w29116851:a27638501", "current_trial": 34, "dateTime": 1693582301186, "trialdata": {"revealed_states": [], "clicked_states": ["21", "22", "20", "17", "16", "18", "7", "6", "5", "9", "11", "10", "28", "27", "29", "33", "32", "31"], "num_clicks_accrued": [0, 0, 0, 0, 0, 0, 0, 0, 0, 0, 0, 0, 0], "stateRewards": ["", -1, 3, 1, -11, -22, -36, 19, -5, -70, -52, 50, -2, -4, 4, -2, -41, -83, 29, -2, 22, 10, -6, -2, 3, -2, 14, 54, 44, 77, -9, -65, -37, -40], "withholdReward": false, "trial_id": "mdp_trial_26", "block": "test", "trialIndex": 27, "score": 64.80000000000001, "costs": -25.199999999999992, "simulationMode": [null, null, null, null, null], "rewards": [-2, 3, -2, 14, 77], "path": ["0", "0", "23", "24", "25", "26", "29"], "rt": [45988, 44, 126, 11, 14], "actions": ["left", "left", "left", "up", "left"], "actionTimes": [49989, 50764, 51687, 52529, 53436], "queries": {"click": {"state": {"target": ["21", "22", "20", "17", "16", "18", "7", "6", "5", "9", "11", "10", "28", "27", "29", "33", "32", "31"], "time": [5564, 7856, 10138, 12440, 14742, 17019, 19466, 21992, 24346, 26591, 28872, 31171, 33700, 36366, 39059, 42779, 45286, 47776]}, "edge": {"target": [], "time": []}}, "mouseover": {"state": {"target": ["21", "22", "20", "17", "16", "18", "7", "6", "5", "9", "9", "11", "10", "28", "27", "29", "33", "32", "31"], "time": [5161, 6803, 8994, 11097, 13246, 15827, 17838, 20559, 23040, 25151, 25565, 27962, 30132, 31984, 34525, 37662, 42342, 44339, 46532]}, "edge": {"target": [], "time": []}}, "mouseout": {"state": {"target": ["20", "0", "21", "22", "20", "17", "16", "18", "7", "6", "5", "9", "9", "11", "10", "28", "27", "29", "33", "32"], "time": [767, 4793, 6433, 8672, 11044, 13186, 15459, 17830, 20297, 22281, 25139, 25278, 27472, 29787, 31492, 34516, 37218, 40163, 43041, 46272]}, "edge": {"target": [], "time": []}}}, "displayed_time": "54.33", "trialTime": 58475, "trial_type": "mouselab-mdp", "trial_index": 34, "time_elapsed": 1983112, "internal_node_id": "0.0-6.0-1.0-25.0"}}, {"uniqueid": "w29116851:a27638501", "current_trial": 35, "dateTime": 1693582335142, "trialdata": {"revealed_states": [], "clicked_states": ["11", "10", "9", "5", "7", "6"], "num_clicks_accrued": [0, 0, 0, 0, 0, 0, 0, 0, 0, 0, 0, 0, 0], "stateRewards": ["", 1, -3, -6, -5, 47, 80, -29, 11, -71, 10, -29, -2, 3, -6, 12, 2, -78, -6, 8, 34, -16, -5, -1, 3, 3, -13, 84, -36, -62, -3, -27, 66, 15], "withholdReward": false, "trial_id": "mdp_trial_27", "block": "test", "trialIndex": 28, "score": 58.6, "costs": -8.4, "simulationMode": [null, null, null, null, null], "rewards": [1, -3, -6, -5, 80], "path": ["0", "0", "1", "2", "3", "4", "6"], "rt": [17484, 66, 30, 59, 25], "actions": ["up", "up", "up", "right", "right"], "actionTimes": [21908, 22658, 23560, 24456, 25275], "queries": {"click": {"state": {"target": ["11", "10", "9", "5", "7", "6"], "time": [5981, 8490, 11266, 13592, 16174, 18667]}, "edge": {"target": [], "time": []}}, "mouseover": {"state": {"target": ["11", "10", "9", "5", "7", "6", "31"], "time": [5391, 7152, 9482, 12267, 14933, 16929, 20376]}, "edge": {"target": [], "time": []}}, "mouseout": {"state": {"target": ["31", "0", "11", "10", "9", "5", "7", "6"], "time": [501, 5224, 6817, 9422, 11820, 14629, 16871, 19535]}, "edge": {"target": [], "time": []}}}, "displayed_time": "26.09", "trialTime": 29774, "trial_type": "mouselab-mdp", "trial_index": 35, "time_elapsed": 2017068, "internal_node_id": "0.0-6.0-1.0-26.0"}}, {"uniqueid": "w29116851:a27638501", "current_trial": 36, "dateTime": 1693582398674, "trialdata": {"revealed_states": [], "clicked_states": ["31", "32", "33", "29", "27", "28", "10", "11", "9", "5", "6", "7", "18", "16", "17", "20", "21", "22"], "num_clicks_accrued": [0, 0, 0, 0, 0, 0, 0, 0, 0, 0, 0, 0, 0], "stateRewards": ["", 1, 4, -4, 14, 35, 51, 19, -13, 54, 78, -74, -2, -1, -3, 13, -11, -42, -73, -15, -24, -3, -69, 2, -1, 5, 16, -27, 73, 58, 9, -60, 5, -60], "withholdReward": false, "trial_id": "mdp_trial_28", "block": "test", "trialIndex": 29, "score": 40.80000000000001, "costs": -25.199999999999992, "simulationMode": [null, null, null, null, null], "rewards": [1, 4, -4, -13, 78], "path": ["0", "0", "1", "2", "3", "8", "10"], "rt": [46065, 162, 154, 46, 242], "actions": ["up", "up", "up", "left", "down"], "actionTimes": [51530, 52325, 53261, 54125, 55141], "queries": {"click": {"state": {"target": ["31", "32", "33", "29", "27", "28", "10", "11", "9", "5", "6", "7", "18", "16", "17", "20", "21", "22"], "time": [7227, 9819, 12230, 14823, 17485, 19984, 22564, 25100, 27498, 30059, 32542, 34964, 37263, 39558, 42037, 44587, 46892, 49306]}, "edge": {"target": [], "time": []}}, "mouseover": {"state": {"target": ["31", "32", "33", "29", "27", "28", "10", "11", "9", "5", "6", "7", "18", "16", "17", "20", "21", "22"], "time": [6608, 8253, 11088, 13132, 15693, 18560, 21418, 23526, 26223, 28427, 31021, 33340, 36223, 38107, 40385, 43393, 45630, 47815]}, "edge": {"target": [], "time": []}}, "mouseout": {"state": {"target": ["31", "0", "31", "32", "33", "29", "27", "28", "10", "11", "9", "5", "6", "7", "18", "16", "17", "20", "21"], "time": [795, 6428, 8191, 10632, 13127, 15652, 18354, 21033, 23469, 25980, 28359, 30978, 33247, 35953, 38033, 40297, 43104, 44937, 47709]}, "edge": {"target": [], "time": []}}}, "displayed_time": "55.95", "trialTime": 58509, "trial_type": "mouselab-mdp", "trial_index": 36, "time_elapsed": 2080599, "internal_node_id": "0.0-6.0-1.0-27.0"}}, {"uniqueid": "w29116851:a27638501", "current_trial": 37, "dateTime": 1693582434491, "trialdata": {"revealed_states": [], "clicked_states": ["22", "21", "20", "17", "16", "18"], "num_clicks_accrued": [0, 0, 0, 0, 0, 0, 0, 0, 0, 0, 0, 0, 0], "stateRewards": ["", 1, -2, -2, 10, -31, -77, 35, 9, -47, 8, 48, -2, 1, -4, -3, -26, -50, 43, -11, 76, -38, 17, 1, -1, 6, 10, 15, -9, 12, -8, 85, 11, -55], "withholdReward": false, "trial_id": "mdp_trial_29", "block": "test", "trialIndex": 30, "score": 51.6, "costs": -8.4, "simulationMode": [null, null, null, null, null], "rewards": [-2, 1, -4, -11, 76], "path": ["0", "0", "12", "13", "14", "19", "20"], "rt": [16760, 41, 172, 110, 82], "actions": ["right", "right", "right", "down", "right"], "actionTimes": [21772, 22562, 23427, 24268, 25149], "queries": {"click": {"state": {"target": ["22", "21", "20", "17", "16", "18"], "time": [6630, 8998, 11410, 13870, 16496, 18609]}, "edge": {"target": [], "time": []}}, "mouseover": {"state": {"target": ["22", "21", "20", "17", "16", "18"], "time": [6094, 7738, 10011, 12378, 15397, 17795]}, "edge": {"target": [], "time": []}}, "mouseout": {"state": {"target": ["22", "0", "22", "21", "20", "17", "16", "18"], "time": [723, 5892, 7728, 9971, 11693, 15163, 17463, 20478]}, "edge": {"target": [], "time": []}}}, "displayed_time": "25.88", "trialTime": 30526, "trial_type": "mouselab-mdp", "trial_index": 37, "time_elapsed": 2116417, "internal_node_id": "0.0-6.0-1.0-28.0"}}, {"uniqueid": "w29116851:a27638501", "current_trial": 38, "dateTime": 1693582469734, "trialdata": {"revealed_states": [], "clicked_states": ["31", "32"], "num_clicks_accrued": [0, 0, 0, 0, 0, 0, 0, 0, 0, 0, 0, 0, 0], "stateRewards": ["", 2, -1, -3, 16, -3, -16, -62, -1, 13, -26, 43, -1, 4, 3, -9, -54, -37, -3, -12, -71, -68, -57, 1, -3, 2, -9, 2, -2, -9, -11, 84, -52, 55], "withholdReward": false, "trial_id": "mdp_trial_30", "block": "test", "trialIndex": 31, "score": 70.2, "costs": -2.8, "simulationMode": [null, null, null, null, null], "rewards": [1, -3, 2, -11, 84], "path": ["0", "0", "23", "24", "25", "30", "31"], "rt": [6273, 314, 216, 125, 83], "actions": ["left", "left", "left", "down", "right"], "actionTimes": [11985, 13148, 14097, 15013, 15901], "queries": {"click": {"state": {"target": ["31", "32"], "time": [7223, 9653]}, "edge": {"target": [], "time": []}}, "mouseover": {"state": {"target": ["31", "32"], "time": [6783, 8040]}, "edge": {"target": [], "time": []}}, "mouseout": {"state": {"target": ["18", "12", "0", "31", "32"], "time": [1382, 1562, 6597, 7610, 18653]}, "edge": {"target": [], "time": []}}}, "displayed_time": "21.43", "trialTime": 32537, "trial_type": "mouselab-mdp", "trial_index": 38, "time_elapsed": 2151660, "internal_node_id": "0.0-6.0-1.0-29.0"}}, {"uniqueid": "w29116851:a27638501", "current_trial": 39, "dateTime": 1693582532783, "trialdata": {"revealed_states": [], "clicked_states": ["6", "7", "5", "32", "31", "33", "29", "27", "28", "10", "11", "9", "18", "16", "17", "20", "21", "22"], "num_clicks_accrued": [0, 0, 0, 0, 0, 0, 0, 0, 0, 0, 0, 0, 0], "stateRewards": ["", -2, 2, -5, -6, 10, -66, -58, -10, -11, -63, -70, -1, -4, -5, 7, 66, -64, -43, -3, 45, -37, 4, -2, -2, -6, -4, -30, 33, 43, 15, -32, -65, -59], "withholdReward": false, "trial_id": "mdp_trial_31", "block": "test", "trialIndex": 32, "score": 37.80000000000001, "costs": -25.199999999999992, "simulationMode": [null, null, null, null, null], "rewards": [-1, -4, -5, 7, 66], "path": ["0", "0", "12", "13", "14", "15", "16"], "rt": [46461, 210, 11, 29, 36], "actions": ["right", "right", "right", "up", "up"], "actionTimes": [51718, 52661, 53419, 54337, 55381], "queries": {"click": {"state": {"target": ["6", "7", "5", "32", "31", "33", "29", "27", "28", "10", "11", "9", "18", "16", "17", "20", "21", "22"], "time": [7262, 9670, 12047, 14756, 17201, 19701, 22239, 24637, 27037, 29528, 31835, 34193, 36723, 39145, 41534, 44076, 46476, 48994]}, "edge": {"target": [], "time": []}}, "mouseover": {"state": {"target": ["6", "6", "7", "5", "32", "31", "33", "29", "27", "28", "10", "11", "9", "18", "16", "17", "20", "21", "22", "19"], "time": [6148, 6902, 8369, 10929, 14021, 15960, 18245, 20637, 23144, 25913, 28487, 30462, 32901, 35591, 37832, 40038, 42759, 45163, 47566, 50051]}, "edge": {"target": [], "time": []}}, "mouseout": {"state": {"target": ["20", "0", "0", "6", "6", "7", "5", "32", "31", "33", "29", "27", "28", "10", "11", "9", "18", "16", "17", "20", "21", "22", "19"], "time": [1039, 1491, 6023, 6422, 8207, 10242, 12334, 15397, 18049, 20581, 23129, 25856, 28125, 30367, 32580, 34576, 37734, 39973, 42364, 44935, 47556, 49972, 50181]}, "edge": {"target": [], "time": []}}}, "displayed_time": "56.13", "trialTime": 59919, "trial_type": "mouselab-mdp", "trial_index": 39, "time_elapsed": 2214709, "internal_node_id": "0.0-6.0-1.0-30.0"}}, {"uniqueid": "w29116851:a27638501", "current_trial": 40, "dateTime": 1693582575150, "trialdata": {"revealed_states": [], "clicked_states": ["21", "22", "20", "31", "32", "33", "29", "27", "28", "18"], "num_clicks_accrued": [0, 0, 0, 0, 0, 0, 0, 0, 0, 0, 0, 0, 0], "stateRewards": ["", -2, 1, -7, -8, -37, -76, -87, 11, 30, -63, 80, -1, 4, 2, -1, 42, 17, 52, -3, -75, -80, -68, 2, -3, -5, -15, -48, 82, 24, -7, 5, -22, -71], "withholdReward": false, "trial_id": "mdp_trial_32", "block": "test", "trialIndex": 33, "score": 47, "costs": -14.000000000000002, "simulationMode": [null, null, null, null, null], "rewards": [2, -3, -5, -15, 82], "path": ["0", "0", "23", "24", "25", "26", "28"], "rt": [24667, 162, 129, 83, 101], "actions": ["left", "left", "left", "up", "right"], "actionTimes": [30420, 31240, 32066, 32869, 33798], "queries": {"click": {"state": {"target": ["21", "22", "20", "31", "32", "33", "29", "27", "28", "18"], "time": [6957, 9447, 11750, 14128, 16332, 18737, 21120, 23539, 25895, 28313]}, "edge": {"target": [], "time": []}}, "mouseover": {"state": {"target": ["22", "21", "22", "20", "31", "32", "33", "29", "27", "28", "18"], "time": [6056, 6556, 8313, 10487, 13034, 15008, 17668, 19961, 22092, 24461, 27069]}, "edge": {"target": [], "time": []}}, "mouseout": {"state": {"target": ["21", "0", "22", "21", "22", "20", "31", "32", "33", "29", "27", "28"], "time": [1090, 6048, 6385, 7862, 10282, 12835, 14979, 17325, 19469, 22020, 24333, 26853]}, "edge": {"target": [], "time": []}}}, "displayed_time": "34.56", "trialTime": 39557, "trial_type": "mouselab-mdp", "trial_index": 40, "time_elapsed": 2257075, "internal_node_id": "0.0-6.0-1.0-31.0"}}, {"uniqueid": "w29116851:a27638501", "current_trial": 41, "dateTime": 1693582644698, "trialdata": {"revealed_states": [], "clicked_states": ["18", "16", "17", "20", "21", "22", "31", "32", "33", "29", "28", "27", "11", "9", "10", "7", "6", "5", "1", "2"], "num_clicks_accrued": [0, 0, 0, 0, 0, 0, 0, 0, 0, 0, 0, 0, 0], "stateRewards": ["", -2, -3, 1, -7, 39, -67, 16, 5, -20, 73, 66, -1, 4, 5, -3, 23, -68, -87, -8, 3, -3, 17, 1, -4, -2, -13, -32, 34, 61, -5, -11, -18, 12], "withholdReward": false, "trial_id": "mdp_trial_33", "block": "test", "trialIndex": 34, "score": 46.000000000000014, "costs": -27.99999999999999, "simulationMode": [null, null, null, null, null], "rewards": [-2, -3, 1, 5, 73], "path": ["0", "0", "1", "2", "3", "8", "10"], "rt": [51126, 23, 187, 144, 19], "actions": ["up", "up", "up", "left", "down"], "actionTimes": [57168, 58000, 58960, 59820, 60628], "queries": {"click": {"state": {"target": ["18", "16", "17", "20", "21", "22", "31", "32", "33", "29", "28", "27", "11", "9", "10", "7", "6", "5", "1", "2"], "time": [8016, 10254, 12679, 15070, 17249, 19627, 22109, 24518, 26855, 29300, 31718, 34404, 36875, 39541, 42097, 44649, 47251, 49639, 52393, 54659]}, "edge": {"target": [], "time": []}}, "mouseover": {"state": {"target": ["0", "18", "16", "17", "17", "20", "21", "22", "31", "32", "33", "29", "28", "27", "11", "9", "8", "10", "7", "6", "5", "2", "1", "2"], "time": [6829, 7489, 9041, 11001, 11760, 13872, 16032, 18559, 20953, 23257, 25698, 27878, 30230, 33218, 35899, 37790, 40591, 41054, 43649, 46043, 48418, 51051, 51675, 53185]}, "edge": {"target": [], "time": []}}, "mouseout": {"state": {"target": ["18", "0", "0", "18", "16", "17", "17", "20", "21", "22", "31", "32", "33", "29", "28", "27", "11", "9", "8", "10", "7", "6", "5", "2", "1", "2"], "time": [816, 6547, 6969, 8986, 10562, 11308, 13636, 15450, 17583, 20454, 22803, 24882, 27780, 29992, 32705, 35673, 37693, 40524, 40853, 42426, 45825, 47485, 50858, 51293, 53149, 55043]}, "edge": {"target": [], "time": []}}}, "displayed_time": "61.40", "trialTime": 65457, "trial_type": "mouselab-mdp", "trial_index": 41, "time_elapsed": 2326623, "internal_node_id": "0.0-6.0-1.0-32.0"}}, {"uniqueid": "w29116851:a27638501", "current_trial": 42, "dateTime": 1693582697769, "trialdata": {"revealed_states": [], "clicked_states": ["22", "21", "20", "17", "16", "18", "7", "6", "5", "9", "11", "10", "28"], "num_clicks_accrued": [0, 0, 0, 0, 0, 0, 0, 0, 0, 0, 0, 0, 0], "stateRewards": ["", -2, -4, 4, -11, -63, -60, -7, 2, -14, 81, -43, -1, -1, -5, 7, 10, 69, 40, 8, -83, 52, 60, 1, 2, 5, -5, 16, 64, 14, -3, 29, 7, -51], "withholdReward": false, "trial_id": "mdp_trial_34", "block": "test", "trialIndex": 35, "score": 62.8, "costs": -18.2, "simulationMode": [null, null, null, null, null, null], "rewards": [-2, -4, 4, 2, 81], "path": ["0", "0", "1", "2", "3", "8", "10"], "rt": [33137, 1220, 114, 105, 62, 58], "actions": ["up", "up", "up", "up", "left", "down"], "actionTimes": [37839, 39233, 40109, 40950, 42113, 43086], "queries": {"click": {"state": {"target": ["22", "21", "20", "17", "16", "18", "7", "6", "5", "9", "11", "10", "28"], "time": [6652, 9228, 11685, 14353, 16812, 19356, 21896, 24432, 26925, 29280, 31645, 34011, 36398]}, "edge": {"target": [], "time": []}}, "mouseover": {"state": {"target": ["12", "22", "21", "20", "17", "16", "18", "7", "6", "5", "9", "11", "10", "28"], "time": [5715, 6141, 7517, 10239, 12835, 15380, 17962, 20440, 23567, 25725, 27743, 30093, 32606, 35070]}, "edge": {"target": [], "time": []}}, "mouseout": {"state": {"target": ["16", "0", "12", "22", "21", "20", "17", "16", "18", "7", "6", "5", "9", "11", "10"], "time": [578, 5572, 5951, 7507, 10065, 12741, 15329, 17903, 20385, 23083, 25661, 27642, 30088, 32215, 34706]}, "edge": {"target": [], "time": []}}}, "displayed_time": "43.87", "trialTime": 47623, "trial_type": "mouselab-mdp", "trial_index": 42, "time_elapsed": 2379695, "internal_node_id": "0.0-6.0-1.0-33.0"}}, {"uniqueid": "w29116851:a27638501", "current_trial": 43, "dateTime": 1693582761757, "trialdata": {"revealed_states": [], "clicked_states": ["32", "31", "33", "29", "27", "28", "10", "11", "9", "5", "6", "7", "22", "21", "20", "17", "16", "18"], "num_clicks_accrued": [0, 0, 0, 0, 0, 0, 0, 0, 0, 0, 0, 0, 0], "stateRewards": ["", -2, -3, -7, 7, -54, -69, -4, -14, -77, 22, 40, -2, -1, 5, 6, -35, 50, -60, 10, -28, 75, 57, 1, -4, -2, 2, 68, 34, -18, 12, 3, -21, -43], "withholdReward": false, "trial_id": "mdp_trial_35", "block": "test", "trialIndex": 36, "score": 61.80000000000001, "costs": -25.199999999999992, "simulationMode": [null, null, null, null, null], "rewards": [-2, -1, 5, 10, 75], "path": ["0", "0", "12", "13", "14", "19", "21"], "rt": [45954, 9, 262, 282, 83], "actions": ["right", "right", "right", "down", "down"], "actionTimes": [50457, 51515, 52452, 53330, 54223], "queries": {"click": {"state": {"target": ["32", "31", "33", "29", "27", "28", "10", "11", "9", "5", "6", "7", "22", "21", "20", "17", "16", "18"], "time": [6161, 8697, 11078, 13398, 15739, 18513, 21368, 23736, 26071, 28392, 30676, 32939, 35311, 37886, 40286, 42612, 45119, 47453]}, "edge": {"target": [], "time": []}}, "mouseover": {"state": {"target": ["31", "32", "31", "30", "33", "29", "27", "28", "11", "10", "11", "9", "5", "6", "7", "22", "21", "20", "17", "16", "18"], "time": [5275, 5771, 7619, 9558, 9939, 12311, 14612, 16796, 20085, 20574, 22243, 24592, 26917, 29388, 31528, 34398, 36335, 38768, 41584, 43574, 46216]}, "edge": {"target": [], "time": []}}, "mouseout": {"state": {"target": ["28", "0", "31", "32", "31", "30", "33", "29", "27", "28", "11", "10", "11", "9", "5", "6", "7", "22", "21", "20", "17", "16", "18"], "time": [739, 5175, 5565, 6941, 9498, 9741, 11792, 14110, 16378, 20027, 20326, 22189, 24381, 26826, 29307, 31452, 33872, 36083, 38665, 41358, 43484, 45872, 48591]}, "edge": {"target": [], "time": []}}}, "displayed_time": "54.85", "trialTime": 59472, "trial_type": "mouselab-mdp", "trial_index": 43, "time_elapsed": 2443683, "internal_node_id": "0.0-6.0-1.0-34.0"}}, {"uniqueid": "w29116851:a27638501", "current_trial": 44, "dateTime": 1693582815823, "trialdata": {"revealed_states": [], "clicked_states": ["5", "10", "21", "32", "27", "16", "17", "29", "33", "20", "6", "9", "11", "7"], "num_clicks_accrued": [0, 0, 0, 0, 0, 0, 0, 0, 0, 0, 0, 0, 0], "stateRewards": ["", 1, -4, 6, -3, 40, 76, -51, 5, -24, -63, 44, -2, -2, 8, 1, 76, -85, -58, 10, 59, 20, 11, -2, 3, -3, 3, -82, -10, 54, -7, -57, -6, -32], "withholdReward": false, "trial_id": "mdp_trial_36", "block": "test", "trialIndex": 37, "score": 56.400000000000006, "costs": -19.599999999999998, "simulationMode": [null, null, null, null, null], "rewards": [1, -4, 6, -3, 76], "path": ["0", "0", "1", "2", "3", "4", "6"], "rt": [37659, 374, 220, 116, 285], "actions": ["up", "up", "up", "right", "right"], "actionTimes": [42400, 43482, 44498, 45404, 46342], "queries": {"click": {"state": {"target": ["5", "10", "21", "32", "27", "16", "17", "29", "33", "20", "6", "9", "11", "7"], "time": [6634, 9177, 11858, 14420, 16839, 19067, 21486, 23897, 26401, 28998, 32505, 35153, 37716, 40097]}, "edge": {"target": [], "time": []}}, "mouseover": {"state": {"target": ["4", "5", "10", "10", "19", "21", "32", "27", "16", "17", "26", "29", "33", "20", "6", "9", "11", "7"], "time": [5849, 6257, 7536, 8124, 10617, 11127, 13217, 15616, 18160, 19916, 22433, 22711, 24872, 27883, 32004, 34073, 36400, 39042]}, "edge": {"target": [], "time": []}}, "mouseout": {"state": {"target": ["0", "4", "5", "10", "10", "19", "21", "32", "27", "16", "17", "26", "29", "33", "20", "6", "9", "11", "7"], "time": [5616, 6032, 7512, 7694, 10570, 10862, 12995, 15587, 17978, 19817, 22371, 22668, 24758, 27495, 30191, 33705, 36296, 38656, 40856]}, "edge": {"target": [], "time": []}}}, "displayed_time": "46.99", "trialTime": 50214, "trial_type": "mouselab-mdp", "trial_index": 44, "time_elapsed": 2497748, "internal_node_id": "0.0-6.0-1.0-35.0"}}, {"uniqueid": "w29116851:a27638501", "current_trial": 45, "dateTime": 1693582846511, "trialdata": {"revealed_states": [], "clicked_states": ["11"], "num_clicks_accrued": [0, 0, 0, 0, 0, 0, 0, 0, 0, 0, 0, 0, 0], "stateRewards": ["", -1, 1, 8, -8, -49, 62, -78, 16, 28, -81, 78, -2, -3, -1, -4, 67, 49, -2, -13, -16, -39, 83, 1, -4, 4, -5, -20, 7, 84, 7, -32, -59, 19], "withholdReward": false, "trial_id": "mdp_trial_37", "block": "test", "trialIndex": 38, "score": 100.6, "costs": -1.4, "simulationMode": [null, null, null, null, null], "rewards": [-1, 1, 8, 16, 78], "path": ["0", "0", "1", "2", "3", "8", "11"], "rt": [5482, 492, 398, 185, 370], "actions": ["up", "up", "up", "left", "left"], "actionTimes": [9688, 10922, 12051, 13042, 14054], "queries": {"click": {"state": {"target": ["11"], "time": [5716]}, "edge": {"target": [], "time": []}}, "mouseover": {"state": {"target": ["11", "6"], "time": [5316, 6912]}, "edge": {"target": [], "time": []}}, "mouseout": {"state": {"target": ["0", "11"], "time": [4911, 6614]}, "edge": {"target": [], "time": []}}}, "displayed_time": "20.03", "trialTime": 25015, "trial_type": "mouselab-mdp", "trial_index": 45, "time_elapsed": 2528437, "internal_node_id": "0.0-6.0-1.0-36.0"}}, {"uniqueid": "w29116851:a27638501", "current_trial": 46, "dateTime": 1693582911469, "trialdata": {"revealed_states": [], "clicked_states": ["21", "20", "17", "16", "18", "22", "7", "6", "5", "9", "11", "10", "28", "27", "29", "33", "32", "31"], "num_clicks_accrued": [0, 0, 0, 0, 0, 0, 0, 0, 0, 0, 0, 0, 0], "stateRewards": ["", 1, 3, -2, 15, 51, 15, -19, 11, 67, -45, -73, 2, 4, -2, -13, 36, 9, -28, 10, -30, 31, 16, 1, 2, -1, -16, 14, -22, 36, -1, 88, -5, 45], "withholdReward": false, "trial_id": "mdp_trial_38", "block": "test", "trialIndex": 39, "score": 63.80000000000001, "costs": -25.199999999999992, "simulationMode": [null, null, null, null, null], "rewards": [1, 2, -1, -1, 88], "path": ["0", "0", "23", "24", "25", "30", "31"], "rt": [47470, 60, 150, 6, 165], "actions": ["left", "left", "left", "down", "right"], "actionTimes": [52400, 53189, 54141, 55075, 56115], "queries": {"click": {"state": {"target": ["21", "20", "17", "16", "18", "22", "7", "6", "5", "9", "11", "10", "28", "27", "29", "33", "32", "31"], "time": [7156, 10526, 12988, 15366, 17784, 20147, 22521, 24781, 27347, 29977, 32562, 35085, 37759, 40158, 42461, 45167, 47487, 49861]}, "edge": {"target": [], "time": []}}, "mouseover": {"state": {"target": ["21", "21", "20", "17", "16", "18", "13", "22", "7", "6", "5", "9", "11", "10", "28", "27", "29", "33", "32", "31"], "time": [6312, 6764, 10141, 11660, 13737, 16304, 18765, 19258, 21607, 23327, 25742, 28514, 30958, 33915, 36569, 38783, 41364, 44033, 46107, 48642]}, "edge": {"target": [], "time": []}}, "mouseout": {"state": {"target": ["6", "0", "21", "21", "20", "17", "16", "18", "13", "22", "7", "6", "5", "9", "11", "10", "10", "28", "27", "29", "33", "32", "31"], "time": [903, 5624, 6484, 8474, 11507, 13731, 16119, 18695, 19066, 20407, 23291, 25658, 28287, 30733, 33373, 35386, 36360, 38716, 41041, 42951, 45990, 48083, 50118]}, "edge": {"target": [], "time": []}}}, "displayed_time": "56.92", "trialTime": 60277, "trial_type": "mouselab-mdp", "trial_index": 46, "time_elapsed": 2593395, "internal_node_id": "0.0-6.0-1.0-37.0"}}, {"uniqueid": "w29116851:a27638501", "current_trial": 47, "dateTime": 1693582972668, "trialdata": {"revealed_states": [], "clicked_states": ["5", "6", "7", "10", "11", "9", "27", "28", "29", "33", "32", "31", "22", "21", "20", "17", "16", "18"], "num_clicks_accrued": [0, 0, 0, 0, 0, 0, 0, 0, 0, 0, 0, 0, 0], "stateRewards": ["", 2, 3, -6, -5, -3, 55, 40, 11, 61, 11, 51, 2, -4, -6, 9, -25, 29, -15, -6, 7, -77, -2, -2, -4, 1, 14, -43, -1, 56, -12, -54, 41, -74], "withholdReward": false, "trial_id": "mdp_trial_39", "block": "test", "trialIndex": 40, "score": 39.80000000000001, "costs": -25.199999999999992, "simulationMode": [null, null, null, null, null], "rewards": [-2, -4, 1, 14, 56], "path": ["0", "0", "23", "24", "25", "26", "29"], "rt": [46692, 144, 104, 59, 30], "actions": ["left", "left", "left", "up", "left"], "actionTimes": [51587, 52444, 53333, 54247, 55047], "queries": {"click": {"state": {"target": ["5", "6", "7", "10", "11", "9", "27", "28", "29", "33", "32", "31", "22", "21", "20", "17", "16", "18"], "time": [6789, 9362, 11805, 14268, 16662, 19237, 21896, 24496, 26970, 29429, 31973, 34530, 36914, 39289, 41679, 44002, 46351, 48694]}, "edge": {"target": [], "time": []}}, "mouseover": {"state": {"target": ["4", "5", "6", "7", "2", "10", "11", "9", "27", "28", "26", "29", "33", "32", "31", "22", "21", "20", "17", "16", "18"], "time": [6021, 6388, 8089, 10528, 12655, 13159, 15002, 17819, 20559, 23267, 25503, 25829, 28113, 30434, 32887, 35773, 37836, 40283, 42972, 44936, 47042]}, "edge": {"target": [], "time": []}}, "mouseout": {"state": {"target": ["0", "4", "5", "6", "7", "2", "10", "11", "9", "27", "28", "26", "29", "33", "32", "31", "22", "21", "20", "17", "16", "18"], "time": [5690, 6250, 7686, 10272, 12165, 12924, 14528, 17590, 20313, 23041, 25428, 25780, 27794, 30365, 32278, 35454, 37260, 40213, 42007, 44732, 47020, 49473]}, "edge": {"target": [], "time": []}}}, "displayed_time": "55.77", "trialTime": 57827, "trial_type": "mouselab-mdp", "trial_index": 47, "time_elapsed": 2654594, "internal_node_id": "0.0-6.0-1.0-38.0"}}, {"uniqueid": "w29116851:a27638501", "current_trial": 48, "dateTime": 1693583010089, "trialdata": {"revealed_states": [], "clicked_states": ["5", "6", "7", "10", "9", "11", "28", "27", "29"], "num_clicks_accrued": [0, 0, 0, 0, 0, 0, 0, 0, 0, 0, 0, 0, 0], "stateRewards": ["", -1, -4, -3, 1, -45, -67, -24, 14, 32, 22, 22, -1, 1, -5, -7, 72, 84, -79, -5, 19, -40, -2, -1, -2, 8, -3, 84, -25, -28, 11, 64, -66, 77], "withholdReward": false, "trial_id": "mdp_trial_40", "block": "test", "trialIndex": 41, "score": 73.4, "costs": -12.600000000000001, "simulationMode": [null, null, null, null, null], "rewards": [-1, -2, 8, -3, 84], "path": ["0", "0", "23", "24", "25", "26", "27"], "rt": [23114, 226, 206, 8, 187], "actions": ["left", "left", "left", "up", "up"], "actionTimes": [26835, 27754, 28602, 29382, 30392], "queries": {"click": {"state": {"target": ["5", "6", "7", "10", "9", "11", "28", "27", "29"], "time": [5337, 7790, 10081, 12410, 14767, 17116, 19705, 22136, 24608]}, "edge": {"target": [], "time": []}}, "mouseover": {"state": {"target": ["5", "6", "7", "10", "9", "11", "28", "27", "29"], "time": [4737, 6596, 8589, 11186, 13477, 15972, 18120, 20948, 23534]}, "edge": {"target": [], "time": []}}, "mouseout": {"state": {"target": ["18", "0", "5", "6", "7", "10", "9", "11", "28", "27"], "time": [640, 4266, 6342, 8545, 10893, 13432, 15164, 18033, 20681, 23487]}, "edge": {"target": [], "time": []}}}, "displayed_time": "31.19", "trialTime": 34356, "trial_type": "mouselab-mdp", "trial_index": 48, "time_elapsed": 2692015, "internal_node_id": "0.0-6.0-1.0-39.0"}}, {"uniqueid": "w29116851:a27638501", "current_trial": 49, "dateTime": 1693583098998, "trialdata": {"rt": 88872, "response": {"Q0": "$-2 to $2", "Q1": "$-16 to $16", "Q2": "$-88 to $88", "Q3": "The cost was always $1.4.", "Q4": "Very motivated"}, "question_order": [0, 1, 2, 3, 4], "trial_id": "final_quiz_control", "trial_type": "survey-multi-choice", "trial_index": 49, "time_elapsed": 2780924, "internal_node_id": "0.0-6.0-2.0"}}, {"uniqueid": "w29116851:a27638501", "current_trial": 50, "dateTime": 1693583567816, "trialdata": {"rt": 468571, "response": {"Q0": "I focused on revealing the end nodes, as I didn't want to spend to much money on revealing nodes that weren't end nodes. Once I identified the most valuable end node (usually around 80) I went to it without wasting money on nodes between the starting point and the end node.", "Q1": "Yes. At the beginning I spent money trying to find the optimal way to an end node, which meant I spent money on nodes that weren't end nodes. But over time I realized it was better to spend money only on the end nodes and go to them as soon as I revealed one with a high value (usually around 80). This way I minimized the cost.", "Q2": "I think it was a bit difficult to improve my performance because the game is very dependent on luck. Either you're lucky and quickly identify a high value end node, thus decreasing the cost of revealing nodes, or you spend too much money on revealing nodes, and once you do find a high value end node you have already spent too much."}, "trial_id": "self_report_control", "trial_type": "survey-text", "trial_index": 50, "time_elapsed": 3249742, "internal_node_id": "0.0-6.0-3.0"}}, {"uniqueid": "w29116851:a27638501", "current_trial": 51, "dateTime": 1693583622786, "trialdata": {"rt": 54956, "response": {"gender": "male", "age": "36", "colorblind": "0", "effort": "0"}, "trial_type": "survey-html-form", "trial_index": 51, "time_elapsed": 3304712, "internal_node_id": "0.0-6.0-4.0"}}, {"uniqueid": "w29116851:a27638501", "current_trial": 52, "dateTime": 1693583697900, "trialdata": {"rt": 75062, "response": {"Q0": "No, nothing.", "Q1": "I haven't participated in a Web of Cash HIT before. This was my first time.", "Q2": "I have no additional comment."}, "trial_type": "survey-text", "trial_index": 52, "time_elapsed": 3379826, "internal_node_id": "0.0-6.0-5.0"}}, {"uniqueid": "w29116851:a27638501", "current_trial": 53, "dateTime": 1693583774761, "trialdata": {"rt": 76840, "stimulus": "<h1>Completion Code Instructions (1/2)</h1>\n<br><br><br><br>\nYou have reached the end of the experiment! The completion code consists of two parts: (1) a code with 2 characters (2) a code with 6 characters. On this page, you will receive the second part of the code. The first part of the completion code will be on the next page.\n<br><br>\nThe second part of your completion code is: <b>EWEK22</b>\n<br><br>\nPlease note this down. Then, press 'Next' in order to find the first part of your completion code. Once the data has been saved, you will receive this code either in this window or in the original browser window where you started the experiment.\n <br><br>\n<h2 style='color: red;'>Note: this is <strong>NOT</strong> the full completion code. Copy this down and click 'Next' to get the full completion code on the next page.</h2>", "response": 0, "trial_type": "html-button-response", "trial_index": 53, "time_elapsed": 3456687, "internal_node_id": "0.0-6.0-6.0"}}, {"uniqueid": "w29116851:a27638501", "current_trial": 54, "dateTime": 1693583775775, "trialdata": {"success": true, "trial_type": "fullscreen", "trial_index": 54, "time_elapsed": 3457701, "internal_node_id": "0.0-7.0"}}], "questiondata": {"params": {"CODE": "C6DMOQA6", "MIN_TIME": 14, "inspectCost": 1, "startTime": "Fri Sep 01 2023 16:58:37 GMT+0200 (Central European Summer Time)", "bonusRate": 0.002, "variance": "1_2_4_8_44", "branching": "31123"}, "final_score": 2406}, "eventdata": [{"eventtype": "initialized", "value": null, "timestamp": 1693580316558, "interval": 0}, {"eventtype": "window_resize", "value": [1024, 768], "timestamp": 1693580316558, "interval": 0}, {"eventtype": "focus", "value": "on", "timestamp": 1693580316826, "interval": 268}, {"eventtype": "window_resize", "value": [1024, 768], "timestamp": 1693580316914, "interval": 88}, {"eventtype": "focus", "value": "off", "timestamp": 1693580322596, "interval": 5682}, {"eventtype": "focus", "value": "on", "timestamp": 1693580337506, "interval": 14910}, {"eventtype": "window_resize", "value": [1600, 900], "timestamp": 1693580344443, "interval": 6937}], "useragent": "Mozilla/5.0 (Windows NT 10.0; Win64; x64; rv:109.0) Gecko/20100101 Firefox/116.0", "mode": "live", "id": "w29116851:a27638501", "status": "user data saved", "Beginhit": "2023-09-01 14:58:34.203233", "Beginexp": "2023-09-01 14:59:03.921594", "Endhit": "2023-09-01 15:56:20.84328", "psiturkStatus": 3, "browser": "<redacted>", "platform": "windows", "language": "en-US"}