{"condition": 1, "counterbalance": 0, "assignmentId": "a54617608", "workerId": "w28927835", "hitId": "h51010100", "currenttrial": 68, "bonus": 0, "data": [{"uniqueid": "w28927835:a54617608", "current_trial": 0, "dateTime": 1691159505945, "trialdata": {"success": true, "trial_type": "fullscreen", "trial_index": 0, "time_elapsed": 4391, "internal_node_id": "0.0-0.0"}}, {"uniqueid": "w28927835:a54617608", "current_trial": 1, "dateTime": 1691159511750, "trialdata": {"view_history": [{"page_index": 0, "viewing_time": 5803}], "rt": 5803, "trial_id": "exp_instructions_misaligned", "trial_type": "instructions", "trial_index": 1, "time_elapsed": 10196, "internal_node_id": "0.0-1.0"}}, {"uniqueid": "w28927835:a54617608", "current_trial": 2, "dateTime": 1691159516445, "trialdata": {"success": true, "trial_type": "fullscreen", "trial_index": 2, "time_elapsed": 14891, "internal_node_id": "0.0-2.0-0.0"}}, {"uniqueid": "w28927835:a54617608", "current_trial": 3, "dateTime": 1691159583195, "trialdata": {"view_history": [{"page_index": 0, "viewing_time": 22493}, {"page_index": 1, "viewing_time": 23814}, {"page_index": 2, "viewing_time": 9180}, {"page_index": 3, "viewing_time": 11262}], "rt": 66749, "trial_id": "mouselab_instructions_1_misaligned", "trial_type": "instructions", "trial_index": 3, "time_elapsed": 81641, "internal_node_id": "0.0-2.0-1.0"}}, {"uniqueid": "w28927835:a54617608", "current_trial": 4, "dateTime": 1691159606656, "trialdata": {"revealed_states": [], "clicked_states": ["23", "12", "1"], "num_clicks_accrued": [0, 0, 0, 0, 0, 0, 0, 0, 0, 0, 0, 0, 0], "stateRewards": ["", 10, -10, 10, -10, -10, -10, -10, -10, 10, 10, 10, -10, -10, 10, 10, 10, -10, 10, 10, -10, -10, -10, -10, -10, -10, 10, 10, -10, -10, -10, -10, -10, -10], "withholdReward": false, "trial_id": "practice_1", "block": "test", "trialIndex": 0, "score": 12, "costs": -1.5, "simulationMode": [null, null, null, null, null], "rewards": [-10, -10, 10, 10, 10], "path": ["0", "0", "12", "13", "14", "15", "16"], "rt": [7817, 2881, 958, 1876, 1395], "actions": ["right", "right", "right", "up", "up"], "actionTimes": [9072, 12441, 13917, 16285, 18188], "queries": {"click": {"state": {"target": ["23", "12", "1"], "time": [4611, 5698, 7780]}, "edge": {"target": [], "time": []}}, "mouseover": {"state": {"target": ["1", "23", "23", "0", "12", "1", "1", "13"], "time": [2226, 3042, 4292, 5292, 5342, 6176, 7408, 8226]}, "edge": {"target": [], "time": []}}, "mouseout": {"state": {"target": ["1", "23", "23", "0", "12", "1", "1", "13"], "time": [2926, 3975, 5259, 5326, 5976, 7258, 8076, 8292]}, "edge": {"target": [], "time": []}}}, "displayed_time": "18.69", "trialTime": 23206, "trial_type": "mouselab-mdp", "trial_index": 4, "time_elapsed": 105102, "internal_node_id": "0.0-2.0-2.0-0.0"}}, {"uniqueid": "w28927835:a54617608", "current_trial": 5, "dateTime": 1691159621720, "trialdata": {"revealed_states": [], "clicked_states": [], "num_clicks_accrued": [0, 0, 0, 0, 0, 0, 0, 0, 0, 0, 0, 0, 0], "stateRewards": ["", -10, -10, 10, -10, -10, -10, -10, 10, 10, 10, 10, -10, -10, -10, 10, 10, 10, 10, -10, -10, 10, -10, 10, 10, -10, 10, -10, -10, -10, 10, -10, -10, -10], "withholdReward": false, "trial_id": "practice_2", "block": "test", "trialIndex": 1, "score": 13.5, "costs": 0, "simulationMode": [null, null, null, null, null], "rewards": [-10, -10, 10, 10, 10], "path": ["0", "0", "1", "2", "3", "8", "10"], "rt": [2675, 994, 1087, 3220, 754], "actions": ["up", "up", "up", "left", "down"], "actionTimes": [4311, 5816, 7410, 11142, 12410], "queries": {"click": {"state": {"target": [], "time": []}, "edge": {"target": [], "time": []}}, "mouseover": {"state": {"target": ["12", "13"], "time": [1756, 1804]}, "edge": {"target": [], "time": []}}, "mouseout": {"state": {"target": ["12", "12", "13"], "time": [1204, 1788, 14288]}, "edge": {"target": [], "time": []}}}, "displayed_time": "12.92", "trialTime": 14983, "trial_type": "mouselab-mdp", "trial_index": 5, "time_elapsed": 120165, "internal_node_id": "0.0-2.0-2.0-1.0"}}, {"uniqueid": "w28927835:a54617608", "current_trial": 6, "dateTime": 1691159639887, "trialdata": {"view_history": [{"page_index": 0, "viewing_time": 9809}, {"page_index": 1, "viewing_time": 8356}], "rt": 18165, "trial_id": "mouselab_instructions_2_misaligned", "trial_type": "instructions", "trial_index": 6, "time_elapsed": 138333, "internal_node_id": "0.0-2.0-3.0"}}, {"uniqueid": "w28927835:a54617608", "current_trial": 7, "dateTime": 1691159661069, "trialdata": {"rt": 21180, "response": {"Q0": "There is no cost for clicking on nodes.", "Q1": "The better I perform the higher my bonus will be.", "Q2": "No, the amount of cash at each node of the web may be different each time.", "Q3": "To get the highest total score.", "Q4": "Only after moving the spider.", "Q5": "3 seconds"}, "question_order": [0, 1, 2, 3, 4, 5], "correct": {"Q0": "The cost for clicking on nodes may vary between nodes.", "Q1": "The better I perform the higher my bonus will be.", "Q2": "No, the amount of cash at each node of the web may be different each time.", "Q3": "To get the highest total score.", "Q4": "Only before moving the spider.", "Q5": "3 seconds"}, "trial_id": "mouselab_quiz_misaligned", "trial_type": "survey-multi-choice", "trial_index": 7, "time_elapsed": 159515, "internal_node_id": "0.0-2.0-4.0"}}, {"uniqueid": "w28927835:a54617608", "current_trial": 8, "dateTime": 1691159668184, "trialdata": {"success": true, "trial_type": "fullscreen", "trial_index": 8, "time_elapsed": 166630, "internal_node_id": "0.0-2.1-0.1"}}, {"uniqueid": "w28927835:a54617608", "current_trial": 9, "dateTime": 1691159701516, "trialdata": {"view_history": [{"page_index": 0, "viewing_time": 21307}, {"page_index": 1, "viewing_time": 9916}, {"page_index": 2, "viewing_time": 1028}, {"page_index": 3, "viewing_time": 1080}], "rt": 33332, "trial_id": "mouselab_instructions_1_misaligned", "trial_type": "instructions", "trial_index": 9, "time_elapsed": 199962, "internal_node_id": "0.0-2.1-1.1"}}, {"uniqueid": "w28927835:a54617608", "current_trial": 10, "dateTime": 1691159709240, "trialdata": {"revealed_states": [], "clicked_states": [], "num_clicks_accrued": [0, 0, 0, 0, 0, 0, 0, 0, 0, 0, 0, 0, 0], "stateRewards": ["", 10, -10, 10, -10, -10, -10, -10, -10, 10, 10, 10, -10, -10, 10, 10, 10, -10, 10, 10, -10, -10, -10, -10, -10, -10, 10, 10, -10, -10, -10, -10, -10, -10], "withholdReward": false, "trial_id": "practice_1", "block": "test", "trialIndex": 2, "score": -6.5, "costs": 0, "simulationMode": [null, null, null, null, null], "rewards": [10, -10, 10, -10, -10], "path": ["0", "0", "1", "2", "3", "4", "6"], "rt": [945, 119, 137, 468, 301], "actions": ["up", "up", "up", "right", "right"], "actionTimes": [2231, 2843, 3478, 4442, 5241], "queries": {"click": {"state": {"target": [], "time": []}, "edge": {"target": [], "time": []}}, "mouseover": {"state": {"target": [], "time": []}, "edge": {"target": [], "time": []}}, "mouseout": {"state": {"target": ["0", "0"], "time": [1156, 6773]}, "edge": {"target": [], "time": []}}}, "displayed_time": "5.74", "trialTime": 7624, "trial_type": "mouselab-mdp", "trial_index": 10, "time_elapsed": 207686, "internal_node_id": "0.0-2.1-2.1-0.1"}}, {"uniqueid": "w28927835:a54617608", "current_trial": 11, "dateTime": 1691159714918, "trialdata": {"revealed_states": [], "clicked_states": [], "num_clicks_accrued": [0, 0, 0, 0, 0, 0, 0, 0, 0, 0, 0, 0, 0], "stateRewards": ["", -10, -10, 10, -10, -10, -10, -10, 10, 10, 10, 10, -10, -10, -10, 10, 10, 10, 10, -10, -10, 10, -10, 10, 10, -10, 10, -10, -10, -10, 10, -10, -10, -10], "withholdReward": false, "trial_id": "practice_2", "block": "test", "trialIndex": 3, "score": 13.5, "costs": 0, "simulationMode": [null, null, null, null, null], "rewards": [10, 10, -10, 10, -10], "path": ["0", "0", "23", "24", "25", "26", "28"], "rt": [716, 75, 73, 154, 113], "actions": ["left", "left", "left", "up", "right"], "actionTimes": [1681, 2254, 2818, 3466, 4074], "queries": {"click": {"state": {"target": [], "time": []}, "edge": {"target": [], "time": []}}, "mouseover": {"state": {"target": [], "time": []}, "edge": {"target": [], "time": []}}, "mouseout": {"state": {"target": ["23", "23"], "time": [227, 421]}, "edge": {"target": [], "time": []}}}, "displayed_time": "4.58", "trialTime": 5591, "trial_type": "mouselab-mdp", "trial_index": 11, "time_elapsed": 213364, "internal_node_id": "0.0-2.1-2.1-1.1"}}, {"uniqueid": "w28927835:a54617608", "current_trial": 12, "dateTime": 1691159718972, "trialdata": {"view_history": [{"page_index": 0, "viewing_time": 2733}, {"page_index": 1, "viewing_time": 1320}], "rt": 4053, "trial_id": "mouselab_instructions_2_misaligned", "trial_type": "instructions", "trial_index": 12, "time_elapsed": 217418, "internal_node_id": "0.0-2.1-3.1"}}, {"uniqueid": "w28927835:a54617608", "current_trial": 13, "dateTime": 1691159731401, "trialdata": {"rt": 12427, "response": {"Q0": "The cost for clicking on nodes may vary between nodes.", "Q1": "The better I perform the higher my bonus will be.", "Q2": "No, the amount of cash at each node of the web may be different each time.", "Q3": "To get the highest total score.", "Q4": "Only after moving the spider.", "Q5": "3 seconds"}, "question_order": [0, 1, 2, 3, 4, 5], "correct": {"Q0": "The cost for clicking on nodes may vary between nodes.", "Q1": "The better I perform the higher my bonus will be.", "Q2": "No, the amount of cash at each node of the web may be different each time.", "Q3": "To get the highest total score.", "Q4": "Only before moving the spider.", "Q5": "3 seconds"}, "trial_id": "mouselab_quiz_misaligned", "trial_type": "survey-multi-choice", "trial_index": 13, "time_elapsed": 229847, "internal_node_id": "0.0-2.1-4.1"}}, {"uniqueid": "w28927835:a54617608", "current_trial": 14, "dateTime": 1691159740460, "trialdata": {"success": true, "trial_type": "fullscreen", "trial_index": 14, "time_elapsed": 238906, "internal_node_id": "0.0-2.2-0.2"}}, {"uniqueid": "w28927835:a54617608", "current_trial": 15, "dateTime": 1691159802225, "trialdata": {"view_history": [{"page_index": 0, "viewing_time": 23885}, {"page_index": 1, "viewing_time": 27840}, {"page_index": 2, "viewing_time": 5970}, {"page_index": 3, "viewing_time": 4068}], "rt": 61764, "trial_id": "mouselab_instructions_1_misaligned", "trial_type": "instructions", "trial_index": 15, "time_elapsed": 300670, "internal_node_id": "0.0-2.2-1.2"}}, {"uniqueid": "w28927835:a54617608", "current_trial": 16, "dateTime": 1691159808796, "trialdata": {"revealed_states": [], "clicked_states": [], "num_clicks_accrued": [0, 0, 0, 0, 0, 0, 0, 0, 0, 0, 0, 0, 0], "stateRewards": ["", 10, -10, 10, -10, -10, -10, -10, -10, 10, 10, 10, -10, -10, 10, 10, 10, -10, 10, 10, -10, -10, -10, -10, -10, -10, 10, 10, -10, -10, -10, -10, -10, -10], "withholdReward": false, "trial_id": "practice_1", "block": "test", "trialIndex": 4, "score": -6.5, "costs": 0, "simulationMode": [null, null, null, null, null], "rewards": [-10, -10, 10, 10, -10], "path": ["0", "0", "12", "13", "14", "19", "21"], "rt": [955, 156, 233, 308, 156], "actions": ["right", "right", "right", "down", "down"], "actionTimes": [1673, 2337, 3064, 3873, 4520], "queries": {"click": {"state": {"target": [], "time": []}, "edge": {"target": [], "time": []}}, "mouseover": {"state": {"target": [], "time": []}, "edge": {"target": [], "time": []}}, "mouseout": {"state": {"target": ["1"], "time": [430]}, "edge": {"target": [], "time": []}}}, "displayed_time": "5.03", "trialTime": 6473, "trial_type": "mouselab-mdp", "trial_index": 16, "time_elapsed": 307242, "internal_node_id": "0.0-2.2-2.2-0.2"}}, {"uniqueid": "w28927835:a54617608", "current_trial": 17, "dateTime": 1691159816536, "trialdata": {"revealed_states": [], "clicked_states": [], "num_clicks_accrued": [0, 0, 0, 0, 0, 0, 0, 0, 0, 0, 0, 0, 0], "stateRewards": ["", -10, -10, 10, -10, -10, -10, -10, 10, 10, 10, 10, -10, -10, -10, 10, 10, 10, 10, -10, -10, 10, -10, 10, 10, -10, 10, -10, -10, -10, 10, -10, -10, -10], "withholdReward": false, "trial_id": "practice_2", "block": "test", "trialIndex": 5, "score": -26.5, "costs": 0, "simulationMode": [null, null, null, null, null], "rewards": [-10, -10, 10, -10, -10], "path": ["0", "0", "1", "2", "3", "4", "7"], "rt": [1895, 71, 99, 97, 1272], "actions": ["up", "up", "up", "right", "down"], "actionTimes": [2674, 3248, 3842, 4440, 6199], "queries": {"click": {"state": {"target": [], "time": []}, "edge": {"target": [], "time": []}}, "mouseover": {"state": {"target": [], "time": []}, "edge": {"target": [], "time": []}}, "mouseout": {"state": {"target": ["0", "0", "1"], "time": [585, 5126, 5325]}, "edge": {"target": [], "time": []}}}, "displayed_time": "6.71", "trialTime": 7642, "trial_type": "mouselab-mdp", "trial_index": 17, "time_elapsed": 314981, "internal_node_id": "0.0-2.2-2.2-1.2"}}, {"uniqueid": "w28927835:a54617608", "current_trial": 18, "dateTime": 1691159821083, "trialdata": {"view_history": [{"page_index": 0, "viewing_time": 3481}, {"page_index": 1, "viewing_time": 1064}], "rt": 4546, "trial_id": "mouselab_instructions_2_misaligned", "trial_type": "instructions", "trial_index": 18, "time_elapsed": 319529, "internal_node_id": "0.0-2.2-3.2"}}, {"uniqueid": "w28927835:a54617608", "current_trial": 19, "dateTime": 1691159846015, "trialdata": {"rt": 24931, "response": {"Q0": "The cost for clicking on nodes may vary between nodes.", "Q1": "The better I perform the higher my bonus will be.", "Q2": "No, the amount of cash at each node of the web may be different each time.", "Q3": "To get the highest total score.", "Q4": "Only before moving the spider.", "Q5": "3 seconds"}, "question_order": [0, 1, 2, 3, 4, 5], "correct": {"Q0": "The cost for clicking on nodes may vary between nodes.", "Q1": "The better I perform the higher my bonus will be.", "Q2": "No, the amount of cash at each node of the web may be different each time.", "Q3": "To get the highest total score.", "Q4": "Only before moving the spider.", "Q5": "3 seconds"}, "trial_id": "mouselab_quiz_misaligned", "trial_type": "survey-multi-choice", "trial_index": 19, "time_elapsed": 344461, "internal_node_id": "0.0-2.2-4.2"}}, {"uniqueid": "w28927835:a54617608", "current_trial": 20, "dateTime": 1691159856338, "trialdata": {"rt": 10319, "stimulus": "\n<h1> Get ready to start the game! </h1>\n\nThank you for reading the instructions. Get ready start with the 40 rounds of this game.\n<br><br>\nIf you need to take a break, feel free to take one after the end of a round, before continuing to the next one.\n<br><br>\nRemember, the more money the spider gets, the bigger your bonus will be!\n<br><br>\n<div style='text-align: center;'>Press <code>space</code> to begin.</div>\n\n<br><br>\n(If, at any point, the <code>space</code> key does not take you to the next page, click once on the text and try again.)", "response": " ", "trial_id": "mdp_ready", "trial_type": "html-keyboard-response", "trial_index": 20, "time_elapsed": 354784, "internal_node_id": "0.0-4.0-0.0"}}, {"uniqueid": "w28927835:a54617608", "current_trial": 21, "dateTime": 1691159878951, "trialdata": {"revealed_states": [], "clicked_states": ["1"], "num_clicks_accrued": [0, 0, 0, 0, 0, 0, 0, 0, 0, 0, 0, 0, 0], "stateRewards": ["", -2, 3, -5, -7, 66, 43, -60, -4, -70, -75, 4, -1, 2, 2, -13, 54, 11, -40, -1, 77, 32, 15, -2, 3, -8, -9, -35, 83, -27, 6, -74, -34, 44], "withholdReward": false, "trial_id": "mdp_trial_1", "block": "test", "trialIndex": 6, "score": 79.25, "costs": 0.25, "simulationMode": [null, null, null, null, null], "rewards": [-1, 2, 2, -1, 77], "path": ["0", "0", "12", "13", "14", "19", "20"], "rt": [4834, 622, 286, 5681, 3732], "actions": ["right", "right", "right", "down", "right"], "actionTimes": [6011, 7124, 7920, 14115, 18383], "queries": {"click": {"state": {"target": ["1"], "time": [3539]}, "edge": {"target": [], "time": []}}, "mouseover": {"state": {"target": ["1"], "time": [3317]}, "edge": {"target": [], "time": []}}, "mouseout": {"state": {"target": ["1", "0", "1", "0", "19", "22", "19", "22", "21", "21", "20", "19", "22", "0"], "time": [816, 3184, 3817, 9333, 12116, 13467, 15617, 16516, 16566, 17166, 19517, 19550, 19567, 20500]}, "edge": {"target": [], "time": []}}}, "displayed_time": "18.90", "trialTime": 22499, "trial_type": "mouselab-mdp", "trial_index": 21, "time_elapsed": 377397, "internal_node_id": "0.0-4.0-1.0-0.0"}}, {"uniqueid": "w28927835:a54617608", "current_trial": 22, "dateTime": 1691159897005, "trialdata": {"revealed_states": [], "clicked_states": ["23"], "num_clicks_accrued": [0, 0, 0, 0, 0, 0, 0, 0, 0, 0, 0, 0, 0], "stateRewards": ["", -2, 4, 3, 5, -61, 4, 30, 1, -47, 83, 10, 1, 4, 7, -14, 19, -74, -83, 6, -2, -2, -65, -1, -2, 4, -11, 12, -1, -68, 11, -38, -28, 66], "withholdReward": false, "trial_id": "mdp_trial_2", "block": "test", "trialIndex": 7, "score": 89.25, "costs": 0.25, "simulationMode": [null, null, null, null, null], "rewards": [-2, 4, 3, 1, 83], "path": ["0", "0", "1", "2", "3", "8", "10"], "rt": [3488, 961, 336, 5250, 241], "actions": ["up", "up", "up", "left", "down"], "actionTimes": [4601, 6060, 6901, 12665, 13422], "queries": {"click": {"state": {"target": ["23"], "time": [2496]}, "edge": {"target": [], "time": []}}, "mouseover": {"state": {"target": ["23"], "time": [2313]}, "edge": {"target": [], "time": []}}, "mouseout": {"state": {"target": ["0", "23", "0", "23", "7", "4", "3", "8", "3", "10", "11", "9", "4", "7"], "time": [163, 763, 897, 2747, 8064, 8931, 8981, 9563, 9998, 10447, 11097, 11663, 11763, 16830]}, "edge": {"target": [], "time": []}}}, "displayed_time": "15.11", "trialTime": 17950, "trial_type": "mouselab-mdp", "trial_index": 22, "time_elapsed": 395451, "internal_node_id": "0.0-4.0-1.0-1.0"}}, {"uniqueid": "w28927835:a54617608", "current_trial": 23, "dateTime": 1691159915434, "trialdata": {"revealed_states": [], "clicked_states": ["8", "7", "20"], "num_clicks_accrued": [0, 0, 0, 0, 0, 0, 0, 0, 0, 0, 0, 0, 0], "stateRewards": ["", -2, -1, -1, 5, -54, -87, 35, 2, -8, 20, -22, 1, 3, 6, 13, -75, -32, -55, -3, 56, 62, -22, -1, -4, -1, -7, -51, 84, 70, 7, -15, 5, 55], "withholdReward": false, "trial_id": "mdp_trial_3", "block": "test", "trialIndex": 8, "score": 30.15, "costs": -5.85, "simulationMode": [null, null, null, null, null, null], "rewards": [-2, -1, -1, 5, 35], "path": ["0", "0", "1", "2", "3", "4", "7"], "rt": [9107, 354, 4, 516, 42, 120], "actions": ["up", "up", "up", "up", "right", "down"], "actionTimes": [10803, 11158, 11667, 12695, 13238, 13866], "queries": {"click": {"state": {"target": ["8", "7", "20"], "time": [4101, 5989, 8921]}, "edge": {"target": [], "time": []}}, "mouseover": {"state": {"target": ["1", "10", "8", "2", "7", "7", "18", "15", "14", "20", "20", "19", "22"], "time": [2362, 3374, 3446, 4612, 5295, 5580, 6246, 6295, 6479, 6779, 7830, 9396, 9413]}, "edge": {"target": [], "time": []}}, "mouseout": {"state": {"target": ["0", "1", "10", "8", "2", "7", "7", "18", "15", "14", "20", "20", "19", "22", "13"], "time": [2212, 2445, 3412, 4496, 4662, 5345, 6196, 6262, 6312, 6596, 7779, 9379, 9412, 9429, 14978]}, "edge": {"target": [], "time": []}}}, "displayed_time": "15.70", "trialTime": 18327, "trial_type": "mouselab-mdp", "trial_index": 23, "time_elapsed": 413879, "internal_node_id": "0.0-4.0-1.0-2.0"}}, {"uniqueid": "w28927835:a54617608", "current_trial": 24, "dateTime": 1691159932350, "trialdata": {"revealed_states": [], "clicked_states": ["23"], "num_clicks_accrued": [0, 0, 0, 0, 0, 0, 0, 0, 0, 0, 0, 0, 0], "stateRewards": ["", -2, 1, -3, -16, -39, -52, 30, -7, -41, -59, 11, 2, 1, 8, 2, -11, -26, -42, -13, 87, -59, -48, -1, -1, -1, 16, -79, 31, 50, -1, -84, 34, -82], "withholdReward": false, "trial_id": "mdp_trial_4", "block": "test", "trialIndex": 9, "score": -60.75, "costs": 0.25, "simulationMode": [null, null, null, null, null], "rewards": [2, 1, 8, -13, -59], "path": ["0", "0", "12", "13", "14", "19", "21"], "rt": [2779, 93, 544, 145, 178], "actions": ["right", "right", "right", "down", "down"], "actionTimes": [4516, 5113, 6147, 6797, 7481], "queries": {"click": {"state": {"target": ["23"], "time": [2782]}, "edge": {"target": [], "time": []}}, "mouseover": {"state": {"target": ["12", "23", "0", "12"], "time": [2001, 2568, 3035, 3069]}, "edge": {"target": [], "time": []}}, "mouseout": {"state": {"target": ["12", "0", "12", "23", "23", "0", "12", "12", "1"], "time": [1384, 1951, 2302, 2848, 3002, 3052, 3102, 8868, 8885]}, "edge": {"target": [], "time": []}}}, "displayed_time": "15.74", "trialTime": 16817, "trial_type": "mouselab-mdp", "trial_index": 24, "time_elapsed": 430795, "internal_node_id": "0.0-4.0-1.0-3.0"}}, {"uniqueid": "w28927835:a54617608", "current_trial": 25, "dateTime": 1691159948671, "trialdata": {"revealed_states": [], "clicked_states": ["26"], "num_clicks_accrued": [0, 0, 0, 0, 0, 0, 0, 0, 0, 0, 0, 0, 0], "stateRewards": ["", 2, -4, 7, 3, 23, -42, 4, 7, -81, -33, 7, -2, -4, 5, -1, 50, -57, -14, -13, -14, 44, 55, -2, -2, 5, -2, 33, 1, 57, -13, -7, 58, 87], "withholdReward": false, "trial_id": "mdp_trial_5", "block": "test", "trialIndex": 10, "score": -70.55, "costs": -1.55, "simulationMode": [null, null, null, null, null], "rewards": [2, -4, 7, 7, -81], "path": ["0", "0", "1", "2", "3", "8", "9"], "rt": [10721, 370, 164, 236, 231], "actions": ["up", "up", "up", "left", "up"], "actionTimes": [11732, 12612, 13272, 13995, 14722], "queries": {"click": {"state": {"target": ["26"], "time": [1991]}, "edge": {"target": [], "time": []}}, "mouseover": {"state": {"target": ["0", "23", "26", "24", "31", "30", "32", "31", "24", "23"], "time": [1357, 1440, 1824, 2291, 2874, 2957, 6797, 7323, 7757, 8190]}, "edge": {"target": [], "time": []}}, "mouseout": {"state": {"target": ["0", "0", "23", "26", "24", "31", "30", "32", "31", "24", "23"], "time": [1141, 1407, 1474, 2258, 2341, 2891, 6440, 7207, 7707, 8174, 8207]}, "edge": {"target": [], "time": []}}}, "displayed_time": "15.24", "trialTime": 16212, "trial_type": "mouselab-mdp", "trial_index": 25, "time_elapsed": 447117, "internal_node_id": "0.0-4.0-1.0-4.0"}}, {"uniqueid": "w28927835:a54617608", "current_trial": 26, "dateTime": 1691159965931, "trialdata": {"revealed_states": [], "clicked_states": ["15", "10"], "num_clicks_accrued": [0, 0, 0, 0, 0, 0, 0, 0, 0, 0, 0, 0, 0], "stateRewards": ["", -1, -3, 1, 13, -64, -29, 12, -4, -33, 50, 56, 2, -3, 4, 11, -64, -58, -55, 12, 47, 38, -25, -2, 2, 5, -15, 85, 7, 84, 10, 8, 57, 26], "withholdReward": false, "trial_id": "mdp_trial_6", "block": "test", "trialIndex": 11, "score": 39.3, "costs": -3.7, "simulationMode": [null, null, null, null, null], "rewards": [-1, -3, 1, -4, 50], "path": ["0", "0", "1", "2", "3", "8", "10"], "rt": [5489, 18, 102, 135, 15], "actions": ["up", "up", "up", "left", "down"], "actionTimes": [6330, 6867, 7484, 8134, 8664], "queries": {"click": {"state": {"target": ["15", "10"], "time": [1726, 2624]}, "edge": {"target": [], "time": []}}, "mouseover": {"state": {"target": ["18", "15", "18", "10", "4", "6", "5", "6"], "time": [1265, 1515, 1999, 2399, 3065, 3266, 4149, 4832]}, "edge": {"target": [], "time": []}}, "mouseout": {"state": {"target": ["0", "0", "18", "15", "18", "10", "4", "6", "5", "6"], "time": [315, 681, 1349, 1965, 2049, 2966, 3165, 4015, 4782, 4849]}, "edge": {"target": [], "time": []}}}, "displayed_time": "14.84", "trialTime": 17145, "trial_type": "mouselab-mdp", "trial_index": 26, "time_elapsed": 464376, "internal_node_id": "0.0-4.0-1.0-5.0"}}, {"uniqueid": "w28927835:a54617608", "current_trial": 27, "dateTime": 1691159982607, "trialdata": {"revealed_states": [], "clicked_states": ["19", "13", "12", "1", "7"], "num_clicks_accrued": [0, 0, 0, 0, 0, 0, 0, 0, 0, 0, 0, 0, 0], "stateRewards": ["", -1, 4, -3, 3, 57, -61, 5, -11, 23, -1, 34, -2, -4, -1, -13, 27, 38, -36, 4, -45, 21, 88, 1, -2, -1, 1, -69, -5, -78, -12, -9, 38, -54], "withholdReward": false, "trial_id": "mdp_trial_7", "block": "test", "trialIndex": 12, "score": -9.55, "costs": -3.55, "simulationMode": [null, null, null, null, null, null], "rewards": [1, -2, -1, 1, -5], "path": ["0", "0", "23", "24", "25", "26", "28"], "rt": [5302, 2035, 113, 130, 30, 38], "actions": ["left", "left", "left", "left", "up", "right"], "actionTimes": [6451, 8487, 9094, 9729, 10277, 10819], "queries": {"click": {"state": {"target": ["19", "13", "12", "1", "7"], "time": [1644, 2434, 3001, 3878, 4559]}, "edge": {"target": [], "time": []}}, "mouseover": {"state": {"target": ["22", "19", "13", "12", "1", "1", "7", "7", "2", "10"], "time": [1313, 1514, 2164, 2765, 3547, 3764, 4130, 4448, 4980, 5247]}, "edge": {"target": [], "time": []}}, "mouseout": {"state": {"target": ["0", "22", "19", "13", "12", "12", "1", "1", "7", "7", "2", "10", "2", "4"], "time": [1230, 1347, 1847, 2630, 3280, 3480, 3580, 3972, 4197, 4780, 5214, 5564, 13330, 13713]}, "edge": {"target": [], "time": []}}}, "displayed_time": "15.15", "trialTime": 16554, "trial_type": "mouselab-mdp", "trial_index": 27, "time_elapsed": 481053, "internal_node_id": "0.0-4.0-1.0-6.0"}}, {"uniqueid": "w28927835:a54617608", "current_trial": 28, "dateTime": 1691159998998, "trialdata": {"revealed_states": [], "clicked_states": ["23", "1", "12", "13", "18"], "num_clicks_accrued": [0, 0, 0, 0, 0, 0, 0, 0, 0, 0, 0, 0, 0], "stateRewards": ["", 1, -2, 4, 7, -43, -83, -60, -5, -86, -80, 83, -1, -2, 6, 11, -15, 21, 13, 9, 29, -49, 11, -1, 4, -6, -11, 87, 40, 63, -8, -39, -11, 62], "withholdReward": false, "trial_id": "mdp_trial_8", "block": "test", "trialIndex": 13, "score": -74.75, "costs": -1.75, "simulationMode": [null, null, null, null, null, null], "rewards": [1, -2, 4, 7, -83], "path": ["0", "0", "1", "2", "3", "4", "6"], "rt": [5777, 394, 200, 140, 407, 152], "actions": ["up", "up", "up", "up", "right", "right"], "actionTimes": [6893, 7288, 8002, 8659, 9576, 10238], "queries": {"click": {"state": {"target": ["23", "1", "12", "13", "18"], "time": [2102, 2684, 3202, 3984, 4514]}, "edge": {"target": [], "time": []}}, "mouseover": {"state": {"target": ["23", "24", "24", "23", "1", "12", "13", "18", "15", "16", "7", "2"], "time": [1418, 1501, 1851, 2001, 2368, 2901, 3885, 4334, 4701, 5185, 5668, 5801]}, "edge": {"target": [], "time": []}}, "mouseout": {"state": {"target": ["4", "7", "0", "23", "24", "24", "23", "1", "12", "13", "18", "15", "16", "7", "2", "1", "23"], "time": [301, 350, 1384, 1467, 1684, 1984, 2318, 2851, 3435, 4201, 4651, 5018, 5618, 5784, 15884, 16017, 16084]}, "edge": {"target": [], "time": []}}}, "displayed_time": "15.12", "trialTime": 16283, "trial_type": "mouselab-mdp", "trial_index": 28, "time_elapsed": 497444, "internal_node_id": "0.0-4.0-1.0-7.0"}}, {"uniqueid": "w28927835:a54617608", "current_trial": 29, "dateTime": 1691160014942, "trialdata": {"revealed_states": [], "clicked_states": ["23", "1", "12", "24", "25", "26", "27"], "num_clicks_accrued": [0, 0, 0, 0, 0, 0, 0, 0, 0, 0, 0, 0, 0], "stateRewards": ["", -1, -2, 4, 9, 10, -75, 39, 16, -43, 88, -19, -1, 1, 2, 4, -31, 10, 73, 12, 41, -64, -81, -2, 2, -6, 1, -81, -1, -26, 3, -59, -3, -20], "withholdReward": false, "trial_id": "mdp_trial_9", "block": "test", "trialIndex": 14, "score": -54.25, "costs": -4.25, "simulationMode": [null, null, null, null, null], "rewards": [-1, 1, 2, 12, -64], "path": ["0", "0", "12", "13", "14", "19", "21"], "rt": [8310, 113, 96, 108, 260], "actions": ["right", "right", "right", "down", "down"], "actionTimes": [9175, 9787, 10371, 10983, 11752], "queries": {"click": {"state": {"target": ["23", "1", "12", "24", "25", "26", "27"], "time": [1571, 2094, 2734, 3478, 4033, 4550, 5028]}, "edge": {"target": [], "time": []}}, "mouseover": {"state": {"target": ["23", "1", "12", "24", "25", "26", "27", "8", "3"], "time": [1325, 1857, 2541, 3257, 3757, 4291, 4908, 5691, 6041]}, "edge": {"target": [], "time": []}}, "mouseout": {"state": {"target": ["24", "23", "1", "12", "23", "24", "25", "26", "27", "8", "3", "1", "24"], "time": [325, 1607, 2341, 2957, 3091, 3641, 4191, 4741, 5291, 6007, 6374, 13307, 15374]}, "edge": {"target": [], "time": []}}}, "displayed_time": "14.87", "trialTime": 15818, "trial_type": "mouselab-mdp", "trial_index": 29, "time_elapsed": 513388, "internal_node_id": "0.0-4.0-1.0-8.0"}}, {"uniqueid": "w28927835:a54617608", "current_trial": 30, "dateTime": 1691160031705, "trialdata": {"revealed_states": [], "clicked_states": ["12", "1", "23", "31"], "num_clicks_accrued": [0, 0, 0, 0, 0, 0, 0, 0, 0, 0, 0, 0, 0], "stateRewards": ["", 1, -1, 4, 5, -32, 18, 20, 6, -88, -74, 9, -2, 1, -2, -14, 34, -77, -38, -1, 80, -36, 73, 2, 3, -8, 10, -48, -73, -71, -11, -22, 20, 54], "withholdReward": false, "trial_id": "mdp_trial_10", "block": "test", "trialIndex": 15, "score": 4.6, "costs": -1.4, "simulationMode": [null, null, null, null, null, null], "rewards": [2, 3, -8, -11, 20], "path": ["0", "0", "23", "24", "25", "30", "32"], "rt": [6654, 1004, 546, 160, 153, 130], "actions": ["left", "left", "left", "left", "down", "down"], "actionTimes": [7460, 8465, 9520, 10184, 10827, 11470], "queries": {"click": {"state": {"target": ["12", "1", "23", "31"], "time": [3406, 3898, 4436, 5487]}, "edge": {"target": [], "time": []}}, "mouseover": {"state": {"target": ["12", "1", "23", "24", "24", "31", "32", "33", "30"], "time": [3173, 3607, 4240, 4656, 5223, 5340, 5873, 6439, 6839]}, "edge": {"target": [], "time": []}}, "mouseout": {"state": {"target": ["12", "1", "23", "23", "24", "24", "31", "32", "33", "30", "31", "23", "0"], "time": [3473, 4073, 4473, 4623, 4857, 5273, 5756, 6406, 6806, 6856, 13343, 15457, 15522]}, "edge": {"target": [], "time": []}}}, "displayed_time": "14.81", "trialTime": 16646, "trial_type": "mouselab-mdp", "trial_index": 30, "time_elapsed": 530150, "internal_node_id": "0.0-4.0-1.0-9.0"}}, {"uniqueid": "w28927835:a54617608", "current_trial": 31, "dateTime": 1691160046929, "trialdata": {"revealed_states": [], "clicked_states": ["17"], "num_clicks_accrued": [0, 0, 0, 0, 0, 0, 0, 0, 0, 0, 0, 0, 0], "stateRewards": ["", 1, -4, 6, -3, 40, 76, -51, 5, -24, -63, 44, -2, -2, 8, 1, 76, -85, -58, 10, 59, 20, 11, -2, 3, -3, 3, -82, -10, 54, -7, -57, -6, -32], "withholdReward": false, "trial_id": "mdp_trial_11", "block": "test", "trialIndex": 16, "score": -53.15, "costs": -2.15, "simulationMode": [null, null, null, null, null], "rewards": [1, -4, 6, -3, -51], "path": ["0", "0", "1", "2", "3", "4", "7"], "rt": [4773, 478, 141, 59, 507], "actions": ["up", "up", "up", "right", "down"], "actionTimes": [5453, 6442, 7071, 7641, 8670], "queries": {"click": {"state": {"target": ["17"], "time": [1380]}, "edge": {"target": [], "time": []}}, "mouseover": {"state": {"target": ["12", "13", "14", "17", "20", "21", "22", "12", "24"], "time": [762, 814, 879, 1245, 1996, 2496, 3062, 3713, 4579]}, "edge": {"target": [], "time": []}}, "mouseout": {"state": {"target": ["0", "12", "13", "14", "17", "20", "21", "22", "12", "24"], "time": [7, 796, 846, 929, 1596, 2363, 2996, 3646, 4096, 4596]}, "edge": {"target": [], "time": []}}}, "displayed_time": "14.68", "trialTime": 15110, "trial_type": "mouselab-mdp", "trial_index": 31, "time_elapsed": 545375, "internal_node_id": "0.0-4.0-1.0-10.0"}}, {"uniqueid": "w28927835:a54617608", "current_trial": 32, "dateTime": 1691160063809, "trialdata": {"revealed_states": [], "clicked_states": ["29", "21"], "num_clicks_accrued": [0, 0, 0, 0, 0, 0, 0, 0, 0, 0, 0, 0, 0], "stateRewards": ["", -1, -4, -6, -15, 21, -67, -63, 9, 51, 69, -14, -1, 3, 8, -8, 39, 72, 63, 15, 19, 47, 15, 1, 4, 5, 16, -18, 34, 35, -14, -80, 40, 1], "withholdReward": false, "trial_id": "mdp_trial_12", "block": "test", "trialIndex": 17, "score": 67.7, "costs": -4.3, "simulationMode": [null, null, null, null, null], "rewards": [-1, 3, 8, 15, 47], "path": ["0", "0", "12", "13", "14", "19", "21"], "rt": [7650, 89, 55, 58, 83], "actions": ["right", "right", "right", "down", "down"], "actionTimes": [8523, 9102, 9651, 10220, 10795], "queries": {"click": {"state": {"target": ["29", "21"], "time": [2086, 4880]}, "edge": {"target": [], "time": []}}, "mouseover": {"state": {"target": ["0", "23", "24", "25", "29", "27", "28", "23", "21", "20", "17", "14", "13"], "time": [928, 1228, 1261, 1279, 1770, 2411, 3095, 3629, 4711, 5245, 6045, 7295, 7328]}, "edge": {"target": [], "time": []}}, "mouseout": {"state": {"target": ["0", "0", "23", "24", "25", "29", "27", "28", "23", "21", "20", "17", "14", "13", "23"], "time": [911, 961, 1244, 1278, 1595, 2312, 2978, 3378, 3746, 5145, 5895, 7228, 7311, 7345, 14344]}, "edge": {"target": [], "time": []}}}, "displayed_time": "14.87", "trialTime": 16756, "trial_type": "mouselab-mdp", "trial_index": 32, "time_elapsed": 562254, "internal_node_id": "0.0-4.0-1.0-11.0"}}, {"uniqueid": "w28927835:a54617608", "current_trial": 33, "dateTime": 1691160132922, "trialdata": {"revealed_states": [], "clicked_states": ["21", "20", "17", "16", "18", "12", "13", "14", "23", "24", "25", "29", "28", "27", "1", "7", "6", "5", "9", "11", "10"], "num_clicks_accrued": [0, 0, 0, 0, 0, 0, 0, 0, 0, 0, 0, 0, 0], "stateRewards": ["", 2, -3, 5, 11, -79, 54, 11, -9, -78, 33, 22, -2, -1, 2, 14, 43, 34, 1, 10, 49, -65, 39, -1, 1, -1, 3, -16, -2, 11, 2, 12, 48, -65], "withholdReward": false, "trial_id": "mdp_trial_13", "block": "test", "trialIndex": 18, "score": -5.949999999999989, "costs": -31.94999999999999, "simulationMode": [null, null, null, null, null], "rewards": [2, -3, 5, 11, 11], "path": ["0", "0", "1", "2", "3", "4", "7"], "rt": [55113, 511, 130, 53, 124], "actions": ["up", "up", "up", "right", "down"], "actionTimes": [55908, 56930, 57551, 58122, 58760], "queries": {"click": {"state": {"target": ["21", "20", "17", "16", "18", "12", "13", "14", "23", "24", "25", "29", "28", "27", "1", "7", "6", "5", "9", "11", "10"], "time": [1323, 4413, 7827, 10802, 15341, 18467, 20597, 21358, 22261, 23135, 23677, 24721, 27781, 30706, 33924, 36915, 39687, 42998, 46020, 49129, 51965]}, "edge": {"target": [], "time": []}}, "mouseover": {"state": {"target": ["12", "19", "21", "20", "17", "20", "17", "16", "18", "1", "12", "13", "14", "23", "24", "25", "29", "27", "28", "27", "26", "1", "2", "7", "6", "5", "9", "9", "11", "10"], "time": [853, 1003, 1169, 1536, 2186, 3219, 4919, 8303, 11319, 17069, 18252, 19136, 21119, 22119, 22936, 23419, 24519, 25169, 25752, 28685, 31169, 31435, 34419, 34852, 37552, 40485, 43368, 43852, 46519, 49618]}, "edge": {"target": [], "time": []}}, "mouseout": {"state": {"target": ["12", "13", "12", "12", "19", "21", "20", "17", "20", "17", "16", "18", "1", "12", "12", "13", "14", "23", "23", "24", "25", "25", "29", "27", "28", "27", "26", "1", "2", "7", "6", "5", "9", "9", "9", "11", "10"], "time": [286, 419, 452, 869, 1119, 1389, 2070, 3153, 4619, 8103, 11269, 16786, 17952, 18555, 19052, 21102, 21802, 22359, 22752, 23352, 23902, 24236, 24969, 25586, 27877, 31135, 31219, 33999, 34802, 37285, 40335, 43076, 43402, 46089, 46468, 49502, 61185]}, "edge": {"target": [], "time": []}}}, "displayed_time": "59.27", "trialTime": 68994, "trial_type": "mouselab-mdp", "trial_index": 33, "time_elapsed": 631368, "internal_node_id": "0.0-4.0-1.0-12.0"}}, {"uniqueid": "w28927835:a54617608", "current_trial": 34, "dateTime": 1691160149213, "trialdata": {"revealed_states": [], "clicked_states": ["6", "5"], "num_clicks_accrued": [0, 0, 0, 0, 0, 0, 0, 0, 0, 0, 0, 0, 0], "stateRewards": ["", 2, -1, -4, -13, 74, 77, 3, 2, -43, -2, -11, 2, 3, 7, 11, -26, -29, -33, -3, -3, -13, -3, 1, 3, -7, 14, -59, 33, 9, -5, 34, 79, 68], "withholdReward": false, "trial_id": "mdp_trial_14", "block": "test", "trialIndex": 19, "score": 56.7, "costs": -4.3, "simulationMode": [null, null, null, null, null], "rewards": [2, -1, -4, -13, 77], "path": ["0", "0", "1", "2", "3", "4", "6"], "rt": [6941, 570, 169, 31, 92], "actions": ["up", "up", "up", "right", "right"], "actionTimes": [7923, 9010, 9676, 10204, 10815], "queries": {"click": {"state": {"target": ["6", "5"], "time": [1686, 4726]}, "edge": {"target": [], "time": []}}, "mouseover": {"state": {"target": ["6", "6", "5", "4", "7"], "time": [1272, 1522, 2072, 4989, 5222]}, "edge": {"target": [], "time": []}}, "mouseout": {"state": {"target": ["1", "6", "6", "5", "4"], "time": [522, 1355, 1805, 4972, 5056]}, "edge": {"target": [], "time": []}}}, "displayed_time": "14.98", "trialTime": 16156, "trial_type": "mouselab-mdp", "trial_index": 34, "time_elapsed": 647659, "internal_node_id": "0.0-4.0-1.0-13.0"}}, {"uniqueid": "w28927835:a54617608", "current_trial": 35, "dateTime": 1691160165683, "trialdata": {"revealed_states": [], "clicked_states": ["17", "20"], "num_clicks_accrued": [0, 0, 0, 0, 0, 0, 0, 0, 0, 0, 0, 0, 0], "stateRewards": ["", -1, 3, 1, -7, 56, 76, 57, 3, 11, -9, 14, 1, -2, 2, 8, -77, -3, 79, -5, 88, 24, -66, -2, -1, 7, -7, -30, 14, -76, 11, -36, 28, -6], "withholdReward": false, "trial_id": "mdp_trial_15", "block": "test", "trialIndex": 20, "score": 79.7, "costs": -4.3, "simulationMode": [null, null, null, null, null], "rewards": [1, -2, 2, -5, 88], "path": ["0", "0", "12", "13", "14", "19", "20"], "rt": [7661, 352, 137, 90, 92], "actions": ["right", "right", "right", "down", "right"], "actionTimes": [8696, 9567, 10219, 10805, 11390], "queries": {"click": {"state": {"target": ["17", "20"], "time": [1731, 4961]}, "edge": {"target": [], "time": []}}, "mouseover": {"state": {"target": ["17", "17", "20", "13", "18", "16", "6"], "time": [1380, 1531, 2298, 5631, 5714, 5814, 6314]}, "edge": {"target": [], "time": []}}, "mouseout": {"state": {"target": ["7", "0", "17", "17", "20", "13", "18", "16", "6"], "time": [547, 1064, 1431, 1948, 5297, 5681, 5731, 6049, 14047]}, "edge": {"target": [], "time": []}}}, "displayed_time": "15.04", "trialTime": 16335, "trial_type": "mouselab-mdp", "trial_index": 35, "time_elapsed": 664129, "internal_node_id": "0.0-4.0-1.0-14.0"}}, {"uniqueid": "w28927835:a54617608", "current_trial": 36, "dateTime": 1691160201768, "trialdata": {"revealed_states": [], "clicked_states": ["20", "21", "22", "17", "16", "18", "7", "6", "5"], "num_clicks_accrued": [0, 0, 0, 0, 0, 0, 0, 0, 0, 0, 0, 0, 0], "stateRewards": ["", -1, 4, -6, -5, -22, -38, -38, -2, -56, 88, 14, -1, -1, -7, -6, 61, -60, 21, 11, 57, 31, -30, -2, -2, 6, -9, -44, -70, -44, -15, 34, 16, -78], "withholdReward": false, "trial_id": "mdp_trial_16", "block": "test", "trialIndex": 21, "score": 26.650000000000006, "costs": -19.349999999999998, "simulationMode": [null, null, null, null, null], "rewards": [-1, -1, -7, -6, 61], "path": ["0", "0", "12", "13", "14", "15", "16"], "rt": [29157, 20, 80, 115, 2], "actions": ["right", "right", "right", "up", "up"], "actionTimes": [30366, 30893, 31486, 32087, 32607], "queries": {"click": {"state": {"target": ["20", "21", "22", "17", "16", "18", "7", "6", "5"], "time": [1908, 5170, 8207, 11266, 14311, 17474, 20528, 23597, 26686]}, "edge": {"target": [], "time": []}}, "mouseover": {"state": {"target": ["12", "13", "14", "20", "19", "14", "19", "21", "22", "14", "17", "16", "18", "7", "7", "6", "5", "9", "9", "9"], "time": [1390, 1439, 1456, 1772, 2289, 2722, 2855, 3056, 5723, 8639, 8772, 11872, 14771, 18605, 18921, 20956, 24273, 27288, 27605, 28138]}, "edge": {"target": [], "time": []}}, "mouseout": {"state": {"target": ["6", "12", "13", "14", "20", "19", "14", "19", "21", "22", "14", "17", "16", "18", "7", "7", "6", "5", "9", "9", "9"], "time": [322, 1424, 1455, 1472, 2089, 2639, 2823, 2922, 5406, 8589, 8656, 11605, 14671, 18555, 18788, 20821, 23988, 27171, 27354, 27671, 35238]}, "edge": {"target": [], "time": []}}}, "displayed_time": "33.14", "trialTime": 35962, "trial_type": "mouselab-mdp", "trial_index": 36, "time_elapsed": 700214, "internal_node_id": "0.0-4.0-1.0-15.0"}}, {"uniqueid": "w28927835:a54617608", "current_trial": 37, "dateTime": 1691160218966, "trialdata": {"revealed_states": [], "clicked_states": ["32", "31", "33"], "num_clicks_accrued": [0, 0, 0, 0, 0, 0, 0, 0, 0, 0, 0, 0, 0], "stateRewards": ["", -1, -4, -1, -11, 43, 69, 39, 4, 17, -20, -82, -2, -1, 4, 8, -79, 24, -79, 11, 36, 64, 41, 2, 4, -1, 11, -79, -47, 75, -3, 63, -36, -19], "withholdReward": false, "trial_id": "mdp_trial_17", "block": "test", "trialIndex": 22, "score": 58.55, "costs": -6.449999999999999, "simulationMode": [null, null, null, null, null], "rewards": [2, 4, -1, -3, 63], "path": ["0", "0", "23", "24", "25", "30", "31"], "rt": [10546, 441, 92, 929, 168], "actions": ["left", "left", "left", "down", "right"], "actionTimes": [11740, 12683, 13284, 14705, 15377], "queries": {"click": {"state": {"target": ["32", "31", "33"], "time": [1991, 5113, 8186]}, "edge": {"target": [], "time": []}}, "mouseover": {"state": {"target": ["0", "32", "31", "30", "33"], "time": [1292, 1625, 2625, 5509, 5592]}, "edge": {"target": [], "time": []}}, "mouseout": {"state": {"target": ["9", "8", "10", "0", "32", "31", "30"], "time": [708, 741, 791, 1325, 2159, 5475, 5526]}, "edge": {"target": [], "time": []}}}, "displayed_time": "15.88", "trialTime": 17081, "trial_type": "mouselab-mdp", "trial_index": 37, "time_elapsed": 717411, "internal_node_id": "0.0-4.0-1.0-16.0"}}, {"uniqueid": "w28927835:a54617608", "current_trial": 38, "dateTime": 1691160254192, "trialdata": {"revealed_states": [], "clicked_states": ["6", "7", "10", "11", "9", "5", "16", "17"], "num_clicks_accrued": [0, 0, 0, 0, 0, 0, 0, 0, 0, 0, 0, 0, 0], "stateRewards": ["", 2, 3, 3, 10, 19, -21, 6, 9, 54, 68, 16, 2, 2, -6, -8, 40, -2, -75, -2, -42, 55, 59, -1, 2, 4, -14, 11, -34, -30, -6, 61, -53, 13], "withholdReward": false, "trial_id": "mdp_trial_18", "block": "test", "trialIndex": 23, "score": 67.8, "costs": -17.2, "simulationMode": [null, null, null, null, null], "rewards": [2, 3, 3, 9, 68], "path": ["0", "0", "1", "2", "3", "8", "10"], "rt": [26385, 490, 135, 173, 98], "actions": ["up", "up", "up", "left", "down"], "actionTimes": [29391, 30398, 31044, 31731, 32339], "queries": {"click": {"state": {"target": ["6", "7", "10", "11", "9", "5", "16", "17"], "time": [3761, 6822, 9872, 12886, 15972, 19093, 22163, 25527]}, "edge": {"target": [], "time": []}}, "mouseover": {"state": {"target": ["6", "4", "2", "10", "2", "7", "7", "2", "10", "11", "9", "5", "5", "6", "16", "17", "15", "18", "18"], "time": [3540, 4024, 4075, 5007, 5940, 5990, 6257, 7124, 8340, 10341, 13457, 16640, 16908, 19774, 19907, 22657, 25874, 25892, 26074]}, "edge": {"target": [], "time": []}}, "mouseout": {"state": {"target": ["33", "30", "31", "23", "6", "4", "2", "10", "2", "7", "7", "2", "10", "11", "9", "5", "5", "6", "16", "17", "15", "18"], "time": [2206, 2257, 2423, 2540, 3991, 4041, 4141, 5907, 5974, 6040, 7041, 8307, 10157, 13190, 16608, 16657, 19707, 19807, 22624, 25857, 25891, 25924]}, "edge": {"target": [], "time": []}}}, "displayed_time": "32.84", "trialTime": 35106, "trial_type": "mouselab-mdp", "trial_index": 38, "time_elapsed": 752638, "internal_node_id": "0.0-4.0-1.0-17.0"}}, {"uniqueid": "w28927835:a54617608", "current_trial": 39, "dateTime": 1691160279059, "trialdata": {"revealed_states": [], "clicked_states": ["16", "18", "17", "20", "21"], "num_clicks_accrued": [0, 0, 0, 0, 0, 0, 0, 0, 0, 0, 0, 0, 0], "stateRewards": ["", 1, 1, -2, 7, -31, -6, 76, 1, -36, -16, -53, 2, 1, 7, 13, -47, -10, 47, -7, 72, 46, -56, -2, -2, -2, 11, -80, 44, 38, 16, 67, 85, -78], "withholdReward": false, "trial_id": "mdp_trial_19", "block": "test", "trialIndex": 24, "score": 64.25, "costs": -10.75, "simulationMode": [null, null, null, null, null], "rewards": [2, 1, 7, -7, 72], "path": ["0", "0", "12", "13", "14", "19", "20"], "rt": [17418, 433, 14, 87, 47], "actions": ["right", "right", "right", "down", "right"], "actionTimes": [18339, 19269, 19782, 20372, 20932], "queries": {"click": {"state": {"target": ["16", "18", "17", "20", "21"], "time": [1547, 4618, 8684, 12073, 15116]}, "edge": {"target": [], "time": []}}, "mouseover": {"state": {"target": ["16", "18", "15", "17", "20", "21", "22"], "time": [1468, 1868, 5018, 5118, 11834, 12434, 15518]}, "edge": {"target": [], "time": []}}, "mouseout": {"state": {"target": ["18", "12", "0", "16", "18", "15", "17", "20", "21", "22", "12"], "time": [451, 568, 1018, 1818, 4984, 5084, 11551, 12401, 15434, 23867, 23917]}, "edge": {"target": [], "time": []}}}, "displayed_time": "21.43", "trialTime": 24734, "trial_type": "mouselab-mdp", "trial_index": 39, "time_elapsed": 777505, "internal_node_id": "0.0-4.0-1.0-18.0"}}, {"uniqueid": "w28927835:a54617608", "current_trial": 40, "dateTime": 1691160295231, "trialdata": {"revealed_states": [], "clicked_states": ["17"], "num_clicks_accrued": [0, 0, 0, 0, 0, 0, 0, 0, 0, 0, 0, 0, 0], "stateRewards": ["", 1, 4, 5, 8, -55, -11, 8, 16, -37, 77, -22, -2, 3, -8, -10, 45, 87, -67, 4, 17, -33, -22, -1, -3, 7, 6, -39, -85, 75, -1, 7, -48, 45], "withholdReward": false, "trial_id": "mdp_trial_20", "block": "test", "trialIndex": 25, "score": 67.85, "costs": -2.15, "simulationMode": [null, null, null, null, null], "rewards": [-2, 3, -8, -10, 87], "path": ["0", "0", "12", "13", "14", "15", "17"], "rt": [4615, 52, 12, 104, 35], "actions": ["right", "right", "right", "up", "right"], "actionTimes": [5780, 6331, 6858, 7482, 8014], "queries": {"click": {"state": {"target": ["17"], "time": [1906]}, "edge": {"target": [], "time": []}}, "mouseover": {"state": {"target": ["7", "15", "17", "7", "3", "16"], "time": [1362, 1544, 1711, 2595, 2646, 5034]}, "edge": {"target": [], "time": []}}, "mouseout": {"state": {"target": ["0", "7", "15", "17", "7", "3", "16", "15"], "time": [1261, 1395, 1594, 1958, 2611, 4044, 5045, 12899]}, "edge": {"target": [], "time": []}}}, "displayed_time": "15.17", "trialTime": 16050, "trial_type": "mouselab-mdp", "trial_index": 40, "time_elapsed": 793677, "internal_node_id": "0.0-4.0-1.0-19.0"}}, {"uniqueid": "w28927835:a54617608", "current_trial": 41, "dateTime": 1691160335501, "trialdata": {"revealed_states": [], "clicked_states": ["12", "23", "1", "17", "16", "18", "21", "20", "22", "7", "6", "5"], "num_clicks_accrued": [0, 0, 0, 0, 0, 0, 0, 0, 0, 0, 0, 0, 0], "stateRewards": ["", -1, 3, -4, -14, 78, 67, 2, 13, -32, 28, 39, -2, 1, -4, -4, -4, -42, -86, 11, 64, -29, -32, -1, -4, 2, -7, 5, 68, -61, 2, -21, 85, 50], "withholdReward": false, "trial_id": "mdp_trial_21", "block": "test", "trialIndex": 26, "score": 43.400000000000006, "costs": -18.599999999999998, "simulationMode": [null, null, null, null, null], "rewards": [-1, 3, -4, -14, 78], "path": ["0", "0", "1", "2", "3", "4", "5"], "rt": [33876, 486, 204, 34, 31], "actions": ["up", "up", "up", "right", "up"], "actionTimes": [35319, 36297, 36999, 37545, 38094], "queries": {"click": {"state": {"target": ["12", "23", "1", "17", "16", "18", "21", "20", "22", "7", "6", "5"], "time": [2160, 4134, 5190, 6100, 9294, 12374, 15416, 18588, 21654, 24754, 27866, 31162]}, "edge": {"target": [], "time": []}}, "mouseover": {"state": {"target": ["0", "12", "13", "15", "17", "23", "1", "18", "15", "17", "16", "18", "13", "22", "21", "20", "19", "22", "7", "6", "5", "3", "8", "9"], "time": [1843, 1994, 2445, 2694, 2994, 3761, 4595, 5644, 5711, 5944, 6995, 9794, 12811, 13044, 13428, 15778, 18928, 18961, 22111, 27077, 28244, 31794, 31994, 32277]}, "edge": {"target": [], "time": []}}, "mouseout": {"state": {"target": ["18", "0", "12", "13", "15", "17", "23", "1", "18", "15", "17", "16", "18", "13", "22", "21", "20", "19", "22", "7", "6", "5", "3", "8", "9"], "time": [845, 1961, 2428, 2494, 2761, 3445, 4511, 5594, 5678, 5844, 6176, 9611, 12777, 12861, 13344, 15514, 18683, 18944, 22027, 26861, 28094, 31711, 31977, 32010, 39544]}, "edge": {"target": [], "time": []}}}, "displayed_time": "38.61", "trialTime": 40120, "trial_type": "mouselab-mdp", "trial_index": 41, "time_elapsed": 833947, "internal_node_id": "0.0-4.0-1.0-20.0"}}, {"uniqueid": "w28927835:a54617608", "current_trial": 42, "dateTime": 1691160360121, "trialdata": {"revealed_states": [], "clicked_states": ["1", "23", "12", "24", "28", "29", "27", "10"], "num_clicks_accrued": [0, 0, 0, 0, 0, 0, 0, 0, 0, 0, 0, 0, 0], "stateRewards": ["", -2, -2, -7, -13, -10, 49, -68, -1, 84, 70, 88, 1, 4, 4, 12, -57, 25, 30, 8, -1, -77, 57, 2, 3, 2, 3, -18, -80, 23, -15, -41, 70, 11], "withholdReward": false, "trial_id": "mdp_trial_22", "block": "test", "trialIndex": 27, "score": 49.8, "costs": -8.2, "simulationMode": [null, null, null, null, null], "rewards": [-2, -2, -7, -1, 70], "path": ["0", "0", "1", "2", "3", "8", "10"], "rt": [18945, 374, 94, 34, 30], "actions": ["up", "up", "up", "left", "down"], "actionTimes": [20229, 21096, 21682, 22222, 22753], "queries": {"click": {"state": {"target": ["1", "23", "12", "24", "28", "29", "27", "10"], "time": [2087, 2945, 3851, 5651, 6489, 9905, 13155, 16361]}, "edge": {"target": [], "time": []}}, "mouseover": {"state": {"target": ["1", "1", "23", "23", "12", "12", "24", "26", "24", "25", "28", "26", "29", "27", "10", "11"], "time": [1622, 1955, 2405, 2822, 3305, 3589, 4705, 4921, 5455, 6055, 6272, 7872, 9705, 10473, 16071, 16821]}, "edge": {"target": [], "time": []}}, "mouseout": {"state": {"target": ["9", "2", "1", "1", "1", "1", "23", "23", "12", "12", "23", "24", "26", "24", "25", "28", "28", "26", "29", "27", "10", "11"], "time": [671, 771, 971, 1705, 2148, 2355, 2622, 3016, 3355, 3926, 4522, 4788, 5205, 5888, 6122, 6772, 7088, 7955, 10089, 15838, 16671, 23971]}, "edge": {"target": [], "time": []}}}, "displayed_time": "23.29", "trialTime": 24485, "trial_type": "mouselab-mdp", "trial_index": 42, "time_elapsed": 858567, "internal_node_id": "0.0-4.0-1.0-21.0"}}, {"uniqueid": "w28927835:a54617608", "current_trial": 43, "dateTime": 1691160385537, "trialdata": {"revealed_states": [], "clicked_states": ["12", "1", "23", "14", "13", "18", "16", "17", "20", "21"], "num_clicks_accrued": [0, 0, 0, 0, 0, 0, 0, 0, 0, 0, 0, 0, 0], "stateRewards": ["", 1, 4, -8, -13, -13, -87, -77, -10, -44, 54, 42, 2, -3, -4, 12, -9, -80, 52, 9, 84, -2, -65, 1, -4, -5, -6, 8, 80, 32, 13, -59, -5, -13], "withholdReward": false, "trial_id": "mdp_trial_23", "block": "test", "trialIndex": 28, "score": 76.7, "costs": -11.3, "simulationMode": [null, null, null, null, null, null], "rewards": [2, -3, -4, 9, 84], "path": ["0", "0", "12", "13", "14", "19", "20"], "rt": [18036, 1889, 78, 48, 41, 112], "actions": ["right", "right", "right", "right", "down", "right"], "actionTimes": [19279, 21172, 21751, 22304, 22881, 23501], "queries": {"click": {"state": {"target": ["12", "1", "23", "14", "13", "18", "16", "17", "20", "21"], "time": [2177, 2748, 3387, 4569, 5103, 5603, 8705, 11795, 15089, 18208]}, "edge": {"target": [], "time": []}}, "mouseover": {"state": {"target": ["12", "1", "23", "13", "14", "13", "18", "16", "17", "20", "21", "19"], "time": [2089, 2439, 3122, 4106, 4422, 4956, 5439, 6006, 9006, 12272, 15422, 18788]}, "edge": {"target": [], "time": []}}, "mouseout": {"state": {"target": ["11", "0", "0", "12", "1", "23", "12", "13", "14", "13", "18", "16", "17", "20", "21", "19", "22"], "time": [572, 638, 1539, 2339, 2955, 3772, 4089, 4139, 4906, 5289, 5839, 8939, 12089, 15389, 18688, 24395, 24471]}, "edge": {"target": [], "time": []}}}, "displayed_time": "24.01", "trialTime": 25286, "trial_type": "mouselab-mdp", "trial_index": 43, "time_elapsed": 883983, "internal_node_id": "0.0-4.0-1.0-22.0"}}, {"uniqueid": "w28927835:a54617608", "current_trial": 44, "dateTime": 1691160447931, "trialdata": {"revealed_states": [], "clicked_states": ["12", "1", "23", "20", "7", "5", "6", "9", "11", "10", "17", "16", "18", "22", "21", "28", "27", "29", "31"], "num_clicks_accrued": [0, 0, 0, 0, 0, 0, 0, 0, 0, 0, 0, 0, 0], "stateRewards": ["", -2, 3, -1, 2, -72, 63, 20, -1, 62, -66, 39, -2, 3, -6, 14, 22, 47, 1, 8, -49, -1, -41, 2, 2, -6, -16, -64, -60, -34, 16, 54, 22, -7], "withholdReward": false, "trial_id": "mdp_trial_24", "block": "test", "trialIndex": 29, "score": -11.649999999999991, "costs": -33.64999999999999, "simulationMode": [null, null, null, null, null], "rewards": [-2, 3, -1, 2, 20], "path": ["0", "0", "1", "2", "3", "4", "7"], "rt": [56154, 3, 71, 537, 40], "actions": ["up", "up", "up", "right", "down"], "actionTimes": [57008, 57513, 58114, 59146, 59683], "queries": {"click": {"state": {"target": ["12", "1", "23", "20", "7", "5", "6", "9", "11", "10", "17", "16", "18", "22", "21", "28", "27", "29", "31"], "time": [1245, 1807, 2282, 3845, 7208, 10449, 13531, 17010, 20379, 23496, 26793, 30101, 33135, 36248, 39349, 42432, 45645, 48945, 52175]}, "edge": {"target": [], "time": []}}, "mouseover": {"state": {"target": ["12", "1", "23", "0", "0", "20", "19", "13", "7", "7", "5", "6", "4", "3", "8", "9", "11", "10", "18", "15", "17", "16", "18", "13", "21", "22", "21", "23", "24", "26", "28", "27", "29", "30", "31", "32"], "time": [1043, 1543, 1993, 2693, 3243, 3626, 4010, 4176, 5360, 5743, 10059, 10843, 13893, 13926, 13960, 14293, 17393, 21009, 24442, 24476, 24809, 27209, 30676, 34359, 34659, 35359, 36542, 40242, 40276, 40309, 40609, 42959, 46042, 49426, 49725, 52992]}, "edge": {"target": [], "time": []}}, "mouseout": {"state": {"target": ["0", "12", "1", "23", "23", "0", "0", "20", "19", "13", "7", "7", "7", "5", "6", "4", "3", "8", "9", "11", "10", "18", "15", "17", "16", "18", "13", "21", "22", "21", "22", "23", "24", "26", "28", "27", "29", "30", "31", "32", "33"], "time": [1009, 1393, 1960, 2336, 2493, 2710, 3260, 3913, 4026, 4276, 5376, 7576, 8110, 10760, 13859, 13909, 13943, 13993, 17343, 20726, 23892, 24459, 24776, 26858, 30409, 34342, 34409, 35192, 36509, 39742, 40159, 40276, 40292, 40492, 42875, 46009, 49292, 49658, 52492, 61142, 61576]}, "edge": {"target": [], "time": []}}}, "displayed_time": "60.19", "trialTime": 62268, "trial_type": "mouselab-mdp", "trial_index": 44, "time_elapsed": 946377, "internal_node_id": "0.0-4.0-1.0-23.0"}}, {"uniqueid": "w28927835:a54617608", "current_trial": 45, "dateTime": 1691160465583, "trialdata": {"revealed_states": [], "clicked_states": ["1", "12", "23", "16", "18"], "num_clicks_accrued": [0, 0, 0, 0, 0, 0, 0, 0, 0, 0, 0, 0, 0], "stateRewards": ["", -1, -4, -3, 1, -45, -67, -24, 14, 32, 22, 22, -1, 1, -5, -7, 72, 84, -79, -5, 19, -40, -2, -1, -2, 8, -3, 84, -25, -28, 11, 64, -66, 77], "withholdReward": false, "trial_id": "mdp_trial_25", "block": "test", "trialIndex": 30, "score": 56.45, "costs": -3.55, "simulationMode": [null, null, null, null, null], "rewards": [-1, 1, -5, -7, 72], "path": ["0", "0", "12", "13", "14", "15", "16"], "rt": [9574, 45, 551, 81, 55], "actions": ["right", "right", "right", "up", "up"], "actionTimes": [11297, 11857, 12943, 13541, 14097], "queries": {"click": {"state": {"target": ["1", "12", "23", "16", "18"], "time": [2179, 2814, 3426, 4821, 7967]}, "edge": {"target": [], "time": []}}, "mouseover": {"state": {"target": ["1", "12", "0", "23", "0", "13", "18", "16", "18", "15", "17"], "time": [1975, 2392, 2975, 3208, 3793, 4159, 4275, 4558, 5058, 8442, 8575]}, "edge": {"target": [], "time": []}}, "mouseout": {"state": {"target": ["33", "30", "23", "0", "1", "12", "0", "23", "0", "13", "18", "16", "18", "15"], "time": [509, 958, 1341, 1791, 2325, 2945, 3092, 3742, 3808, 4225, 4308, 5025, 8358, 8542]}, "edge": {"target": [], "time": []}}}, "displayed_time": "15.72", "trialTime": 17520, "trial_type": "mouselab-mdp", "trial_index": 45, "time_elapsed": 964029, "internal_node_id": "0.0-4.0-1.0-24.0"}}, {"uniqueid": "w28927835:a54617608", "current_trial": 46, "dateTime": 1691160512130, "trialdata": {"revealed_states": [], "clicked_states": ["1", "23", "12", "16", "6", "11", "5", "7", "10", "9", "17", "18", "20", "21", "22"], "num_clicks_accrued": [0, 0, 0, 0, 0, 0, 0, 0, 0, 0, 0, 0, 0], "stateRewards": ["", -1, 2, -2, 13, -56, -28, 10, 14, 53, -80, -29, 1, -3, -3, -14, 14, 9, -40, -9, 18, 18, 48, 1, 1, 1, -9, 64, -39, -9, 7, -52, -78, 7], "withholdReward": false, "trial_id": "mdp_trial_26", "block": "test", "trialIndex": 31, "score": 8.950000000000003, "costs": -25.049999999999994, "simulationMode": [null, null, null, null, null], "rewards": [1, -3, -3, -9, 48], "path": ["0", "0", "12", "13", "14", "19", "22"], "rt": [41027, 2, 29, 8, 72], "actions": ["right", "right", "right", "down", "left"], "actionTimes": [42210, 42721, 43264, 43760, 44357], "queries": {"click": {"state": {"target": ["1", "23", "12", "16", "6", "11", "5", "7", "10", "9", "17", "18", "20", "21", "22"], "time": [1572, 1998, 2553, 3285, 7043, 10144, 13249, 16371, 19565, 22657, 25925, 29015, 32111, 35191, 38283]}, "edge": {"target": [], "time": []}}, "mouseover": {"state": {"target": ["1", "23", "0", "12", "18", "16", "6", "4", "11", "9", "5", "4", "7", "2", "10", "10", "8", "9", "3", "4", "16", "17", "15", "18", "14", "20", "21", "22", "31"], "time": [1401, 1835, 2186, 2235, 2885, 3118, 6868, 8051, 8835, 10702, 10969, 13602, 13702, 16701, 16801, 17135, 19818, 19902, 23051, 23085, 23168, 23401, 27951, 28401, 29401, 29635, 32468, 35684, 39168]}, "edge": {"target": [], "time": []}}, "mouseout": {"state": {"target": ["17", "15", "18", "12", "1", "23", "0", "12", "18", "16", "6", "4", "11", "9", "5", "4", "7", "2", "10", "10", "8", "9", "9", "3", "4", "16", "17", "15", "18", "14", "20", "20", "21", "22", "31"], "time": [602, 618, 651, 884, 1751, 2056, 2218, 2835, 2901, 3452, 8034, 8069, 10238, 10786, 13568, 13635, 16668, 16768, 16852, 19617, 19851, 22744, 23018, 23068, 23101, 23351, 27901, 28051, 29368, 29451, 32188, 32401, 35518, 38668, 45734]}, "edge": {"target": [], "time": []}}}, "displayed_time": "44.87", "trialTime": 46394, "trial_type": "mouselab-mdp", "trial_index": 46, "time_elapsed": 1010576, "internal_node_id": "0.0-4.0-1.0-25.0"}}, {"uniqueid": "w28927835:a54617608", "current_trial": 47, "dateTime": 1691160548567, "trialdata": {"revealed_states": [], "clicked_states": ["1", "23", "12", "17", "18", "16", "20", "21", "22", "31", "32"], "num_clicks_accrued": [0, 0, 0, 0, 0, 0, 0, 0, 0, 0, 0, 0, 0], "stateRewards": ["", -2, 2, -1, -6, 22, 6, 6, -5, 70, -42, 65, 1, 3, 5, -6, -67, -9, 3, 14, 7, -62, -13, -2, 4, 1, 16, 42, -21, -52, -8, 32, 53, 81], "withholdReward": false, "trial_id": "mdp_trial_27", "block": "test", "trialIndex": 32, "score": 31.55, "costs": -16.45, "simulationMode": [null, null, null, null, null], "rewards": [-2, 4, 1, -8, 53], "path": ["0", "0", "23", "24", "25", "30", "32"], "rt": [30127, 552, 155, 98, 30], "actions": ["left", "left", "left", "down", "down"], "actionTimes": [31278, 32337, 32990, 33600, 34132], "queries": {"click": {"state": {"target": ["1", "23", "12", "17", "18", "16", "20", "21", "22", "31", "32"], "time": [1571, 2009, 2537, 4015, 8211, 11337, 14583, 17725, 20791, 23999, 27264]}, "edge": {"target": [], "time": []}}, "mouseover": {"state": {"target": ["1", "23", "12", "13", "14", "15", "17", "15", "18", "15", "18", "16", "15", "14", "20", "21", "22", "22", "31", "32", "32", "32", "33"], "time": [1419, 1768, 2269, 3369, 3535, 3635, 3852, 4202, 7402, 7469, 8135, 8885, 11652, 11719, 11885, 15186, 18069, 18368, 21401, 24385, 24568, 24852, 28001]}, "edge": {"target": [], "time": []}}, "mouseout": {"state": {"target": ["23", "0", "1", "23", "12", "13", "14", "15", "17", "15", "18", "15", "18", "16", "16", "15", "14", "20", "21", "22", "22", "31", "32", "32", "32", "33", "24"], "time": [818, 1202, 1702, 2135, 2769, 3435, 3552, 3802, 4186, 4219, 7419, 7686, 8485, 11418, 11635, 11685, 11802, 14935, 18018, 18235, 21085, 24335, 24452, 24635, 27601, 35301, 35351]}, "edge": {"target": [], "time": []}}}, "displayed_time": "34.63", "trialTime": 36299, "trial_type": "mouselab-mdp", "trial_index": 47, "time_elapsed": 1047013, "internal_node_id": "0.0-4.0-1.0-26.0"}}, {"uniqueid": "w28927835:a54617608", "current_trial": 48, "dateTime": 1691160566164, "trialdata": {"revealed_states": [], "clicked_states": ["1", "23", "12", "7", "5"], "num_clicks_accrued": [0, 0, 0, 0, 0, 0, 0, 0, 0, 0, 0, 0, 0], "stateRewards": ["", -2, -1, 3, -3, 71, -58, -21, 7, -10, -75, -37, 2, 4, -1, -12, -79, -29, -48, 3, -41, -10, -30, -1, -2, 1, -15, 13, 66, 22, -1, -42, -86, -55], "withholdReward": false, "trial_id": "mdp_trial_28", "block": "test", "trialIndex": 33, "score": 64.45, "costs": -3.55, "simulationMode": [null, null, null, null, null], "rewards": [-2, -1, 3, -3, 71], "path": ["0", "0", "1", "2", "3", "4", "5"], "rt": [10567, 467, 124, 73, 44], "actions": ["up", "up", "up", "right", "up"], "actionTimes": [11517, 12483, 13123, 13689, 14243], "queries": {"click": {"state": {"target": ["1", "23", "12", "7", "5"], "time": [1350, 1870, 2355, 3580, 7412]}, "edge": {"target": [], "time": []}}, "mouseover": {"state": {"target": ["1", "23", "0", "12", "7", "4", "7", "8", "3", "5", "6"], "time": [1148, 1648, 2048, 2182, 3115, 3215, 3431, 6765, 6814, 7048, 9648]}, "edge": {"target": [], "time": []}}, "mouseout": {"state": {"target": ["1", "23", "23", "0", "12", "7", "4", "7", "7", "8", "3", "5", "6"], "time": [1515, 1927, 1982, 2081, 3015, 3165, 3332, 3636, 3815, 6781, 6831, 9381, 16548]}, "edge": {"target": [], "time": []}}}, "displayed_time": "14.95", "trialTime": 17461, "trial_type": "mouselab-mdp", "trial_index": 48, "time_elapsed": 1064610, "internal_node_id": "0.0-4.0-1.0-27.0"}}, {"uniqueid": "w28927835:a54617608", "current_trial": 49, "dateTime": 1691160594237, "trialdata": {"revealed_states": [], "clicked_states": ["1", "23", "12", "5", "7", "6", "9", "11", "10"], "num_clicks_accrued": [0, 0, 0, 0, 0, 0, 0, 0, 0, 0, 0, 0, 0], "stateRewards": ["", 1, 2, 8, -2, 23, -69, -18, -16, 54, -21, 71, -1, -4, 7, 11, 43, -6, 88, 6, -55, 72, 43, 1, -3, -2, -1, 68, -31, -54, 4, -8, 25, -2], "withholdReward": false, "trial_id": "mdp_trial_29", "block": "test", "trialIndex": 34, "score": 53.85, "costs": -12.15, "simulationMode": [null, null, null, null, null], "rewards": [1, 2, 8, -16, 71], "path": ["0", "0", "1", "2", "3", "8", "11"], "rt": [21951, 60, 10, 422, 108], "actions": ["up", "up", "up", "left", "left"], "actionTimes": [23369, 23920, 24436, 25364, 25967], "queries": {"click": {"state": {"target": ["1", "23", "12", "5", "7", "6", "9", "11", "10"], "time": [1834, 2518, 3031, 4112, 7650, 10772, 13953, 17272, 20347]}, "edge": {"target": [], "time": []}}, "mouseover": {"state": {"target": ["1", "23", "0", "12", "7", "4", "5", "4", "2", "10", "2", "7", "6", "6", "9", "11", "10"], "time": [1642, 2409, 2759, 2826, 3509, 3693, 3909, 4360, 4426, 6743, 7376, 7476, 7909, 8276, 11342, 14442, 17792]}, "edge": {"target": [], "time": []}}, "mouseout": {"state": {"target": ["6", "7", "0", "1", "23", "0", "12", "7", "4", "5", "5", "4", "2", "10", "2", "7", "6", "6", "6", "9", "11", "10"], "time": [809, 876, 1509, 2042, 2597, 2793, 3376, 3593, 3809, 4179, 4342, 4376, 4476, 6792, 7426, 7708, 7959, 10842, 11059, 14276, 17559, 20792]}, "edge": {"target": [], "time": []}}}, "displayed_time": "26.46", "trialTime": 27928, "trial_type": "mouselab-mdp", "trial_index": 49, "time_elapsed": 1092682, "internal_node_id": "0.0-4.0-1.0-28.0"}}, {"uniqueid": "w28927835:a54617608", "current_trial": 50, "dateTime": 1691160612960, "trialdata": {"revealed_states": [], "clicked_states": ["1", "23", "12", "29", "17"], "num_clicks_accrued": [0, 0, 0, 0, 0, 0, 0, 0, 0, 0, 0, 0, 0], "stateRewards": ["", -2, -1, -2, -15, 87, 57, 29, -10, 77, -80, -7, 1, -3, 6, 14, -11, 87, -59, 4, -71, 16, -11, 2, 2, -7, 2, -47, 61, 50, 14, -20, 17, 81], "withholdReward": false, "trial_id": "mdp_trial_30", "block": "test", "trialIndex": 35, "score": 101.45, "costs": -3.55, "simulationMode": [null, null, null, null, null], "rewards": [1, -3, 6, 14, 87], "path": ["0", "0", "12", "13", "14", "15", "17"], "rt": [9752, 390, 67, 129, 415], "actions": ["right", "right", "right", "up", "right"], "actionTimes": [11261, 12167, 12727, 13372, 14276], "queries": {"click": {"state": {"target": ["1", "23", "12", "29", "17"], "time": [1893, 2451, 3009, 4361, 7459]}, "edge": {"target": [], "time": []}}, "mouseover": {"state": {"target": ["1", "23", "12", "18", "24", "25", "29", "26", "18", "15", "17"], "time": [1725, 2193, 2847, 3293, 3710, 3876, 4226, 4593, 4793, 4846, 4893]}, "edge": {"target": [], "time": []}}, "mouseout": {"state": {"target": ["1", "23", "12", "18", "23", "24", "25", "29", "26", "18", "15", "17", "15"], "time": [2043, 2559, 3193, 3460, 3626, 3760, 3976, 4576, 4626, 4826, 4860, 15330, 15726]}, "edge": {"target": [], "time": []}}}, "displayed_time": "15.51", "trialTime": 18569, "trial_type": "mouselab-mdp", "trial_index": 50, "time_elapsed": 1111406, "internal_node_id": "0.0-4.0-1.0-29.0"}}, {"uniqueid": "w28927835:a54617608", "current_trial": 51, "dateTime": 1691160671410, "trialdata": {"revealed_states": [], "clicked_states": ["1", "23", "12", "17", "18", "16", "20", "21", "22", "6", "7", "5", "9", "11", "10", "28", "27", "29"], "num_clicks_accrued": [0, 0, 0, 0, 0, 0, 0, 0, 0, 0, 0, 0, 0], "stateRewards": ["", -2, 2, 2, -6, 9, 37, 50, -13, -7, -18, -75, -2, -4, 4, 7, 23, -57, -66, -7, -81, -48, -76, 1, 1, -8, 1, 51, -2, 70, 14, 59, 71, -37], "withholdReward": false, "trial_id": "mdp_trial_31", "block": "test", "trialIndex": 36, "score": 33.500000000000014, "costs": -31.49999999999999, "simulationMode": [null, null, null, null, null], "rewards": [1, 1, -8, 1, 70], "path": ["0", "0", "23", "24", "25", "26", "29"], "rt": [51575, 169, 51, 35, 433], "actions": ["left", "left", "left", "up", "left"], "actionTimes": [52635, 53325, 53873, 54440, 55405], "queries": {"click": {"state": {"target": ["1", "23", "12", "17", "18", "16", "20", "21", "22", "6", "7", "5", "9", "11", "10", "28", "27", "29"], "time": [1413, 1833, 2262, 3201, 6815, 9911, 12975, 16028, 19125, 22351, 25892, 28997, 32111, 35179, 39434, 42653, 45756, 48838]}, "edge": {"target": [], "time": []}}, "mouseover": {"state": {"target": ["1", "23", "0", "12", "15", "17", "15", "18", "18", "18", "16", "15", "20", "21", "22", "13", "6", "7", "4", "5", "9", "11", "10", "10", "28", "28", "27", "29", "29", "33"], "time": [1240, 1690, 2007, 2140, 2607, 3090, 3446, 3474, 6405, 6773, 7190, 10173, 10523, 13457, 16273, 19523, 19890, 23323, 26223, 26290, 29723, 32640, 35506, 38672, 40539, 41389, 43405, 46155, 46572, 49722]}, "edge": {"target": [], "time": []}}, "mouseout": {"state": {"target": ["0", "1", "23", "0", "12", "15", "17", "15", "18", "18", "18", "16", "16", "15", "20", "20", "21", "22", "13", "6", "7", "4", "5", "9", "9", "11", "11", "10", "10", "28", "28", "27", "29", "29", "33", "25", "28", "1", "0"], "time": [1140, 1574, 1912, 2040, 2507, 2690, 3424, 3457, 3507, 6457, 7140, 9980, 10157, 10207, 13056, 13290, 16223, 19160, 19540, 22690, 26173, 26256, 29077, 32185, 32490, 35262, 35456, 38206, 40056, 40923, 43139, 46105, 46172, 49338, 52205, 56604, 56888, 57688, 57871]}, "edge": {"target": [], "time": []}}}, "displayed_time": "55.92", "trialTime": 58316, "trial_type": "mouselab-mdp", "trial_index": 51, "time_elapsed": 1169856, "internal_node_id": "0.0-4.0-1.0-30.0"}}, {"uniqueid": "w28927835:a54617608", "current_trial": 52, "dateTime": 1691160713452, "trialdata": {"revealed_states": [], "clicked_states": ["29", "23", "1", "12", "17", "18", "16", "20", "21", "22", "6", "7", "5"], "num_clicks_accrued": [0, 0, 0, 0, 0, 0, 0, 0, 0, 0, 0, 0, 0], "stateRewards": ["", 1, 2, -3, -5, 66, -50, -47, -5, 1, 28, -27, 1, 1, -1, -6, 37, -25, 56, 1, -82, -66, -40, -1, -4, -7, 15, -61, -23, 26, 10, 14, -56, 29], "withholdReward": false, "trial_id": "mdp_trial_32", "block": "test", "trialIndex": 37, "score": 40.25, "costs": -20.749999999999996, "simulationMode": [null, null, null, null, null], "rewards": [1, 2, -3, -5, 66], "path": ["0", "0", "1", "2", "3", "4", "5"], "rt": [36434, 364, 68, 38, 3], "actions": ["up", "up", "up", "right", "up"], "actionTimes": [37447, 38326, 38914, 39450, 39964], "queries": {"click": {"state": {"target": ["29", "23", "1", "12", "17", "18", "16", "20", "21", "22", "6", "7", "5"], "time": [2030, 5193, 5752, 6240, 6876, 10696, 13842, 17202, 20446, 23308, 26974, 30091, 33244]}, "edge": {"target": [], "time": []}}, "mouseover": {"state": {"target": ["28", "26", "29", "26", "23", "23", "1", "12", "13", "17", "15", "18", "15", "18", "16", "15", "20", "21", "22", "0", "23", "24", "25", "28", "2", "6", "7", "4", "5", "9"], "time": [1578, 1628, 1828, 2245, 2312, 3545, 5479, 5996, 6495, 6595, 7045, 7079, 10145, 10461, 11029, 14612, 14812, 17612, 20895, 24762, 24795, 24828, 24846, 26478, 26561, 26795, 27245, 30395, 30545, 33628]}, "edge": {"target": [], "time": []}}, "mouseout": {"state": {"target": ["0", "0", "28", "26", "29", "26", "23", "23", "1", "12", "13", "17", "15", "18", "15", "18", "16", "15", "20", "20", "21", "22", "0", "23", "24", "25", "28", "2", "6", "7", "4", "5"], "time": [763, 1412, 1612, 1662, 2229, 2262, 2329, 5267, 5945, 6462, 6512, 7029, 7062, 10128, 10161, 10845, 14595, 14645, 17272, 17478, 20761, 24295, 24778, 24811, 24845, 24862, 26495, 26644, 27211, 30378, 30445, 33317]}, "edge": {"target": [], "time": []}}}, "displayed_time": "40.49", "trialTime": 41882, "trial_type": "mouselab-mdp", "trial_index": 52, "time_elapsed": 1211898, "internal_node_id": "0.0-4.0-1.0-31.0"}}, {"uniqueid": "w28927835:a54617608", "current_trial": 53, "dateTime": 1691160730183, "trialdata": {"revealed_states": [], "clicked_states": ["1", "23", "12", "29", "27"], "num_clicks_accrued": [0, 0, 0, 0, 0, 0, 0, 0, 0, 0, 0, 0, 0], "stateRewards": ["", -1, 4, -8, 12, 14, 69, -8, 5, -72, -14, 56, -1, -1, -1, 9, 67, 19, 11, -9, -88, -58, 3, 2, -4, -8, 4, 62, 77, -74, 5, -31, 65, 88], "withholdReward": false, "trial_id": "mdp_trial_33", "block": "test", "trialIndex": 38, "score": 52.45, "costs": -3.55, "simulationMode": [null, null, null, null, null], "rewards": [2, -4, -8, 4, 62], "path": ["0", "0", "23", "24", "25", "26", "27"], "rt": [10190, 364, 84, 380, 142], "actions": ["left", "left", "left", "up", "up"], "actionTimes": [11473, 12347, 12950, 13830, 14475], "queries": {"click": {"state": {"target": ["1", "23", "12", "29", "27"], "time": [1707, 2158, 2637, 3723, 7318]}, "edge": {"target": [], "time": []}}, "mouseover": {"state": {"target": ["1", "23", "0", "12", "0", "24", "25", "29", "26", "28", "27", "28"], "time": [1582, 1982, 2370, 2465, 2866, 3066, 3099, 3632, 3949, 3982, 7015, 7849]}, "edge": {"target": [], "time": []}}, "mouseout": {"state": {"target": ["9", "8", "1", "0", "1", "23", "0", "12", "0", "23", "24", "25", "29", "26", "28", "27", "28"], "time": [665, 698, 965, 1382, 1865, 2315, 2432, 2832, 2899, 3049, 3082, 3365, 3932, 3965, 3999, 7549, 16096]}, "edge": {"target": [], "time": []}}}, "displayed_time": "15.29", "trialTime": 16584, "trial_type": "mouselab-mdp", "trial_index": 53, "time_elapsed": 1228629, "internal_node_id": "0.0-4.0-1.0-32.0"}}, {"uniqueid": "w28927835:a54617608", "current_trial": 54, "dateTime": 1691160750063, "trialdata": {"revealed_states": [], "clicked_states": ["1", "23", "12", "5", "7", "6"], "num_clicks_accrued": [0, 0, 0, 0, 0, 0, 0, 0, 0, 0, 0, 0, 0], "stateRewards": ["", 2, 3, -3, 12, -43, 81, -82, -15, 58, -7, -75, -1, -1, 3, -5, 50, -25, -8, 4, 66, 65, -66, 2, -4, 2, -1, -10, 10, 37, 11, 88, -37, 8], "withholdReward": false, "trial_id": "mdp_trial_34", "block": "test", "trialIndex": 39, "score": 89.3, "costs": -5.699999999999999, "simulationMode": [null, null, null, null, null], "rewards": [2, 3, -3, 12, 81], "path": ["0", "0", "1", "2", "3", "4", "6"], "rt": [13494, 401, 84, 20, 48], "actions": ["up", "up", "up", "right", "right"], "actionTimes": [14553, 15457, 16039, 16559, 17121], "queries": {"click": {"state": {"target": ["1", "23", "12", "5", "7", "6"], "time": [1526, 2160, 2678, 3715, 7342, 10804]}, "edge": {"target": [], "time": []}}, "mouseover": {"state": {"target": ["1", "23", "12", "7", "4", "5", "3", "2", "7", "2", "6", "16", "8", "9"], "time": [1355, 1738, 2339, 3240, 3339, 3572, 3989, 6938, 7188, 7689, 10639, 11222, 11839, 12155]}, "edge": {"target": [], "time": []}}, "mouseout": {"state": {"target": ["28", "23", "0", "1", "23", "12", "12", "12", "7", "4", "5", "3", "2", "7", "2", "6", "16", "8", "9", "8", "10", "23"], "time": [538, 638, 1172, 1672, 2272, 2735, 2889, 3155, 3289, 3506, 3972, 4022, 6955, 7655, 10438, 11105, 11756, 12006, 18538, 18555, 18605, 18705]}, "edge": {"target": [], "time": []}}}, "displayed_time": "17.64", "trialTime": 19722, "trial_type": "mouselab-mdp", "trial_index": 54, "time_elapsed": 1248509, "internal_node_id": "0.0-4.0-1.0-33.0"}}, {"uniqueid": "w28927835:a54617608", "current_trial": 55, "dateTime": 1691160766472, "trialdata": {"revealed_states": [], "clicked_states": ["1", "23", "12", "16"], "num_clicks_accrued": [0, 0, 0, 0, 0, 0, 0, 0, 0, 0, 0, 0, 0], "stateRewards": ["", -1, -3, 3, 5, 56, 39, 50, -1, -80, 33, -46, 1, -2, -6, -8, 87, 48, 54, -11, -20, -64, -54, -2, 3, -7, -3, 12, 88, 35, -16, -46, -70, -3], "withholdReward": false, "trial_id": "mdp_trial_35", "block": "test", "trialIndex": 40, "score": 70.6, "costs": -1.4, "simulationMode": [null, null, null, null, null], "rewards": [1, -2, -6, -8, 87], "path": ["0", "0", "12", "13", "14", "15", "16"], "rt": [5849, 440, 89, 88, 57], "actions": ["right", "right", "right", "up", "up"], "actionTimes": [6763, 7694, 8293, 8876, 9428], "queries": {"click": {"state": {"target": ["1", "23", "12", "16"], "time": [1311, 1787, 2278, 2953]}, "edge": {"target": [], "time": []}}, "mouseover": {"state": {"target": ["1", "23", "12", "18", "16", "6"], "time": [1170, 1487, 2087, 2620, 2687, 3570]}, "edge": {"target": [], "time": []}}, "mouseout": {"state": {"target": ["1", "23", "12", "18", "16"], "time": [1453, 1903, 2346, 2653, 3020]}, "edge": {"target": [], "time": []}}}, "displayed_time": "14.91", "trialTime": 16245, "trial_type": "mouselab-mdp", "trial_index": 55, "time_elapsed": 1264918, "internal_node_id": "0.0-4.0-1.0-34.0"}}, {"uniqueid": "w28927835:a54617608", "current_trial": 56, "dateTime": 1691160794190, "trialdata": {"revealed_states": [], "clicked_states": ["5", "6", "7", "16", "1", "12", "23", "17", "18"], "num_clicks_accrued": [0, 0, 0, 0, 0, 0, 0, 0, 0, 0, 0, 0, 0], "stateRewards": ["", -2, 1, -7, 9, 8, 25, 61, -7, -17, 69, -81, 1, 4, -4, -11, 16, 67, 44, 3, 6, -45, -54, -2, 3, 6, -11, -15, 32, -47, 3, -39, -6, -88], "withholdReward": false, "trial_id": "mdp_trial_36", "block": "test", "trialIndex": 41, "score": 44.85, "costs": -12.15, "simulationMode": [null, null, null, null, null], "rewards": [1, 4, -4, -11, 67], "path": ["0", "0", "12", "13", "14", "15", "17"], "rt": [22509, 7, 10, 37, 35], "actions": ["right", "right", "right", "up", "right"], "actionTimes": [23637, 24149, 24685, 25229, 25776], "queries": {"click": {"state": {"target": ["5", "6", "7", "16", "1", "12", "23", "17", "18"], "time": [1798, 5160, 8194, 11557, 14722, 15280, 15815, 16483, 19737]}, "edge": {"target": [], "time": []}}, "mouseover": {"state": {"target": ["1", "2", "4", "5", "6", "7", "16", "18", "1", "12", "0", "23", "17", "15", "18", "14", "20"], "time": [1274, 1357, 1440, 1607, 4957, 5607, 8824, 11874, 12207, 15125, 15475, 15543, 16341, 16708, 16857, 20074, 20841]}, "edge": {"target": [], "time": []}}, "mouseout": {"state": {"target": ["6", "0", "1", "2", "4", "5", "6", "6", "7", "16", "18", "1", "12", "0", "23", "17", "15", "18", "14", "20"], "time": [590, 1190, 1324, 1374, 1524, 4840, 5228, 5424, 8285, 11824, 11907, 14941, 15346, 15491, 16007, 16674, 16724, 20041, 20124, 26990]}, "edge": {"target": [], "time": []}}}, "displayed_time": "26.31", "trialTime": 27534, "trial_type": "mouselab-mdp", "trial_index": 56, "time_elapsed": 1292635, "internal_node_id": "0.0-4.0-1.0-35.0"}}, {"uniqueid": "w28927835:a54617608", "current_trial": 57, "dateTime": 1691160822139, "trialdata": {"revealed_states": [], "clicked_states": ["1", "12", "23", "17", "11", "10", "7", "5", "6"], "num_clicks_accrued": [0, 0, 0, 0, 0, 0, 0, 0, 0, 0, 0, 0, 0], "stateRewards": ["", 1, -3, -6, -5, 47, 80, -29, 11, -71, 10, -29, -2, 3, -6, 12, 2, -78, -6, 8, 34, -16, -5, -1, 3, 3, -13, 84, -36, -62, -3, -27, 66, 15], "withholdReward": false, "trial_id": "mdp_trial_37", "block": "test", "trialIndex": 42, "score": 54.85, "costs": -12.15, "simulationMode": [null, null, null, null, null], "rewards": [1, -3, -6, -5, 80], "path": ["0", "0", "1", "2", "3", "4", "6"], "rt": [22840, 63, 59, 21, 52], "actions": ["up", "up", "up", "right", "right"], "actionTimes": [23877, 24436, 24999, 25512, 26059], "queries": {"click": {"state": {"target": ["1", "12", "23", "17", "11", "10", "7", "5", "6"], "time": [1371, 1906, 2747, 3480, 7163, 10460, 13650, 16714, 19773]}, "edge": {"target": [], "time": []}}, "mouseover": {"state": {"target": ["1", "12", "0", "23", "17", "15", "18", "1", "1", "10", "8", "11", "8", "7", "2", "10", "2", "7", "4", "5", "6", "16"], "time": [1173, 1640, 2391, 2573, 3391, 3691, 3723, 6224, 6674, 6756, 6790, 7023, 7406, 7473, 9740, 10289, 10973, 11056, 13957, 14023, 17190, 20256]}, "edge": {"target": [], "time": []}}, "mouseout": {"state": {"target": ["12", "0", "1", "1", "12", "12", "0", "23", "17", "15", "18", "1", "1", "10", "8", "11", "8", "7", "2", "10", "10", "2", "7", "4", "5", "6", "16"], "time": [673, 889, 1439, 1574, 2074, 2373, 2440, 3040, 3673, 3707, 3740, 6257, 6706, 6773, 6806, 7390, 7423, 7490, 9756, 10507, 10923, 11023, 13907, 13991, 16973, 20139, 27273]}, "edge": {"target": [], "time": []}}}, "displayed_time": "26.57", "trialTime": 27766, "trial_type": "mouselab-mdp", "trial_index": 57, "time_elapsed": 1320585, "internal_node_id": "0.0-4.0-1.0-36.0"}}, {"uniqueid": "w28927835:a54617608", "current_trial": 58, "dateTime": 1691160838756, "trialdata": {"revealed_states": [], "clicked_states": ["1", "23", "12", "24", "26", "28"], "num_clicks_accrued": [0, 0, 0, 0, 0, 0, 0, 0, 0, 0, 0, 0, 0], "stateRewards": ["", 2, -4, -8, -15, 71, -43, -41, 7, -17, 20, 67, -1, -1, -4, 6, 37, -24, -47, 9, 34, 57, 45, 1, 2, -4, -5, -23, 88, -5, 13, -40, 43, 44], "withholdReward": false, "trial_id": "mdp_trial_38", "block": "test", "trialIndex": 43, "score": 78.7, "costs": -3.3, "simulationMode": [null, null, null, null, null], "rewards": [1, 2, -4, -5, 88], "path": ["0", "0", "23", "24", "25", "26", "28"], "rt": [7339, 504, 101, 459, 12], "actions": ["left", "left", "left", "up", "right"], "actionTimes": [8489, 9497, 10111, 11087, 11606], "queries": {"click": {"state": {"target": ["1", "23", "12", "24", "26", "28"], "time": [1486, 2067, 2554, 3373, 4115, 4684]}, "edge": {"target": [], "time": []}}, "mouseover": {"state": {"target": ["1", "23", "23", "12", "24", "26", "28", "27"], "time": [1342, 1659, 1876, 2359, 3160, 4043, 4559, 7443]}, "edge": {"target": [], "time": []}}, "mouseout": {"state": {"target": ["16", "1", "0", "1", "23", "23", "12", "24", "26", "28", "28", "27", "10", "2", "7", "7"], "time": [509, 659, 1192, 1626, 1676, 2116, 2742, 3776, 4493, 4976, 5442, 15075, 15159, 15209, 15259, 15643]}, "edge": {"target": [], "time": []}}}, "displayed_time": "15.15", "trialTime": 16453, "trial_type": "mouselab-mdp", "trial_index": 58, "time_elapsed": 1337202, "internal_node_id": "0.0-4.0-1.0-37.0"}}, {"uniqueid": "w28927835:a54617608", "current_trial": 59, "dateTime": 1691160896076, "trialdata": {"revealed_states": [], "clicked_states": ["1", "23", "12", "16", "6", "7", "18", "17", "20", "21", "22", "5", "9", "10", "11", "27", "28", "31"], "num_clicks_accrued": [0, 0, 0, 0, 0, 0, 0, 0, 0, 0, 0, 0, 0], "stateRewards": ["", 1, 1, -5, 8, -6, 45, 16, -6, -7, -22, -38, -1, -4, 8, -11, -16, 21, -45, -15, -59, -32, 42, -1, 3, 6, 11, -7, 34, -27, -8, 85, 43, -9], "withholdReward": false, "trial_id": "mdp_trial_39", "block": "test", "trialIndex": 44, "score": 53.500000000000014, "costs": -31.49999999999999, "simulationMode": [null, null, null, null, null], "rewards": [-1, 3, 6, -8, 85], "path": ["0", "0", "23", "24", "25", "30", "31"], "rt": [50763, 337, 104, 172, 117], "actions": ["left", "left", "left", "down", "right"], "actionTimes": [51922, 52772, 53388, 54056, 54668], "queries": {"click": {"state": {"target": ["1", "23", "12", "16", "6", "7", "18", "17", "20", "21", "22", "5", "9", "10", "11", "27", "28", "31"], "time": [1583, 2208, 2708, 3441, 7308, 10771, 13894, 16981, 20175, 23300, 26388, 29495, 32632, 35713, 38809, 41941, 45059, 48149]}, "edge": {"target": [], "time": []}}, "mouseover": {"state": {"target": ["1", "23", "12", "18", "16", "16", "7", "2", "6", "28", "26", "25", "24", "7", "18", "15", "17", "17", "20", "21", "22", "7", "4", "4", "5", "9", "9", "8", "10", "11", "11", "27", "27", "28", "28", "24", "31", "30", "32"], "time": [1418, 2102, 2669, 2985, 3051, 3285, 3669, 3703, 7218, 7701, 7718, 8035, 8917, 10651, 11101, 14152, 14234, 14534, 17435, 20584, 23868, 26734, 26917, 27217, 27251, 30500, 30818, 32968, 33184, 36067, 36367, 39517, 40750, 42317, 42567, 45384, 45883, 49001, 49351]}, "edge": {"target": [], "time": []}}, "mouseout": {"state": {"target": ["1", "0", "0", "1", "23", "12", "18", "16", "16", "7", "2", "16", "6", "28", "26", "25", "24", "7", "18", "15", "17", "17", "20", "21", "22", "7", "4", "4", "5", "9", "9", "8", "10", "11", "11", "27", "27", "27", "28", "28", "28", "24", "31", "31", "30", "32", "31", "23"], "time": [734, 784, 1218, 1751, 2269, 2918, 3018, 3085, 3635, 3701, 6717, 6951, 7601, 7718, 7735, 8068, 10234, 11068, 14151, 14184, 14418, 17351, 20501, 23568, 26617, 26767, 27017, 27234, 29579, 30551, 32918, 33084, 36000, 36101, 39234, 39801, 42023, 42250, 42350, 45138, 45334, 45750, 48227, 48951, 49101, 51483, 55766, 55816]}, "edge": {"target": [], "time": []}}}, "displayed_time": "55.17", "trialTime": 57132, "trial_type": "mouselab-mdp", "trial_index": 59, "time_elapsed": 1394521, "internal_node_id": "0.0-4.0-1.0-38.0"}}, {"uniqueid": "w28927835:a54617608", "current_trial": 60, "dateTime": 1691160912590, "trialdata": {"revealed_states": [], "clicked_states": ["1", "23", "12", "29"], "num_clicks_accrued": [0, 0, 0, 0, 0, 0, 0, 0, 0, 0, 0, 0, 0], "stateRewards": ["", -1, -3, -7, -4, -85, -70, 79, 8, 84, -66, 42, 2, -2, -3, -16, -54, -66, 68, -3, 21, -14, 7, -2, -1, -3, -8, 75, 80, 86, -7, -84, 73, -16], "withholdReward": false, "trial_id": "mdp_trial_40", "block": "test", "trialIndex": 45, "score": 70.6, "costs": -1.4, "simulationMode": [null, null, null, null, null], "rewards": [-2, -1, -3, -8, 86], "path": ["0", "0", "23", "24", "25", "26", "29"], "rt": [6313, 43, 40, 64, 507], "actions": ["left", "left", "left", "up", "left"], "actionTimes": [7374, 7915, 8462, 9037, 10046], "queries": {"click": {"state": {"target": ["1", "23", "12", "29"], "time": [1467, 2062, 2611, 3511]}, "edge": {"target": [], "time": []}}, "mouseover": {"state": {"target": ["1", "23", "12", "28", "26", "29", "26"], "time": [1238, 1872, 2289, 3055, 3238, 3305, 3756]}, "edge": {"target": [], "time": []}}, "mouseout": {"state": {"target": ["1", "0", "1", "23", "12", "28", "26", "29", "29", "26", "23"], "time": [640, 1121, 1672, 2128, 2989, 3089, 3272, 3578, 3738, 3789, 15638]}, "edge": {"target": [], "time": []}}}, "displayed_time": "15.06", "trialTime": 16335, "trial_type": "mouselab-mdp", "trial_index": 60, "time_elapsed": 1411036, "internal_node_id": "0.0-4.0-1.0-39.0"}}, {"uniqueid": "w28927835:a54617608", "current_trial": 61, "dateTime": 1691160948103, "trialdata": {"rt": 35511, "response": {"Q0": "$-2 to $2", "Q1": "$-4 to $4", "Q2": "$-16 to $16", "Q3": "It was less costly to inspect further nodes.", "Q4": "Slightly motivated"}, "question_order": [0, 1, 2, 3, 4], "trial_id": "final_quiz_control", "trial_type": "survey-multi-choice", "trial_index": 61, "time_elapsed": 1446549, "internal_node_id": "0.0-4.0-2.0"}}, {"uniqueid": "w28927835:a54617608", "current_trial": 62, "dateTime": 1691161021759, "trialdata": {"rt": 73651, "response": {"Q0": "Checked the nodes closest to me, then checked the end nodes to see the larger totals", "Q1": "Yes - checked less end nodes and when found a node over 60, would go in that direction", "Q2": "There were more minus end nodes so found it harder to locate the higher amounts"}, "trial_id": "self_report_control", "trial_type": "survey-text", "trial_index": 62, "time_elapsed": 1520205, "internal_node_id": "0.0-4.0-3.0"}}, {"uniqueid": "w28927835:a54617608", "current_trial": 63, "dateTime": 1691161048061, "trialdata": {"rt": 26300, "response": {"Q0": "Agree", "Q1": "Strongly agree", "Q2": "Strongly disagree", "Q3": "Disagree", "Q4": "Strongly agree", "Q5": "Disagree", "Q6": "Agree"}, "question_order": [0, 1, 2, 3, 4, 5, 6], "trial_id": "self_report_2", "trial_type": "survey-multi-choice", "trial_index": 63, "time_elapsed": 1546507, "internal_node_id": "0.0-4.0-4.0"}}, {"uniqueid": "w28927835:a54617608", "current_trial": 64, "dateTime": 1691161072205, "trialdata": {"rt": 24142, "response": {"gender": "other", "age": "32", "colorblind": "0", "effort": "0"}, "trial_type": "survey-html-form", "trial_index": 64, "time_elapsed": 1570651, "internal_node_id": "0.0-4.0-5.0"}}, {"uniqueid": "w28927835:a54617608", "current_trial": 65, "dateTime": 1691161079827, "trialdata": {"rt": 7618, "response": {"Q0": "No", "Q1": "No", "Q2": ""}, "trial_type": "survey-text", "trial_index": 65, "time_elapsed": 1578273, "internal_node_id": "0.0-4.0-6.0"}}, {"uniqueid": "w28927835:a54617608", "current_trial": 66, "dateTime": 1691161081635, "trialdata": {"rt": 1805, "stimulus": "Press 'Finish HIT' in order to reach the completion code. Once the data has been saved, you will receive the code either in this window or in the original browser window where you started the experiment.\n", "response": 0, "trial_type": "html-button-response", "trial_index": 66, "time_elapsed": 1580081, "internal_node_id": "0.0-5.0"}}, {"uniqueid": "w28927835:a54617608", "current_trial": 67, "dateTime": 1691161082638, "trialdata": {"success": true, "trial_type": "fullscreen", "trial_index": 67, "time_elapsed": 1581084, "internal_node_id": "0.0-6.0"}}], "questiondata": {"params": {"CODE": "C6DMOQA6", "MIN_TIME": 14, "inspectCost": 1, "startTime": "Fri Aug 04 2023 15:31:40 GMT+0100 (British Summer Time)", "bonusRate": 0.002, "variance": "1_2_4_8_44", "branching": "31123"}, "final_score": 1466.35}, "eventdata": [{"eventtype": "initialized", "value": null, "timestamp": 1691159500503, "interval": 0}, {"eventtype": "window_resize", "value": [1032, 600], "timestamp": 1691159500503, "interval": 0}, {"eventtype": "window_resize", "value": [1032, 600], "timestamp": 1691159500824, "interval": 321}, {"eventtype": "window_resize", "value": [1280, 720], "timestamp": 1691159505160, "interval": 4336}, {"eventtype": "focus", "value": "off", "timestamp": 1691159665303, "interval": 160143}, {"eventtype": "focus", "value": "on", "timestamp": 1691159665303, "interval": 0}, {"eventtype": "window_resize", "value": [1032, 600], "timestamp": 1691159665507, "interval": 204}, {"eventtype": "window_resize", "value": [1280, 720], "timestamp": 1691159667405, "interval": 1898}, {"eventtype": "focus", "value": "off", "timestamp": 1691159738358, "interval": 70953}, {"eventtype": "focus", "value": "on", "timestamp": 1691159738358, "interval": 0}, {"eventtype": "window_resize", "value": [1032, 600], "timestamp": 1691159738564, "interval": 206}, {"eventtype": "window_resize", "value": [1280, 720], "timestamp": 1691159739670, "interval": 1106}, {"eventtype": "window_resize", "value": [1032, 600], "timestamp": 1691161081854, "interval": 1342184}], "useragent": "Mozilla/5.0 (Windows NT 10.0; Win64; x64) AppleWebKit/537.36 (KHTML, like Gecko) Chrome/115.0.0.0 Safari/537.36", "mode": "live", "id": "w28927835:a54617608", "status": "user data saved", "Beginhit": "2023-08-04 14:31:38.500519", "Beginexp": "2023-08-04 14:31:45.508371", "Endhit": "2023-08-04 14:58:02.932338", "psiturkStatus": 3, "browser": "<redacted>", "platform": "windows", "language": "en-GB", "excludeReason": "invalidClickStrats"}