{"condition": 0, "counterbalance": 0, "assignmentId": "a48609645", "workerId": "w19237186", "hitId": "h25895418", "currenttrial": 55, "bonus": 0, "data": [{"uniqueid": "w19237186:a48609645", "current_trial": 0, "dateTime": 1691071498017, "trialdata": {"success": true, "trial_type": "fullscreen", "trial_index": 0, "time_elapsed": 621995, "internal_node_id": "0.0-0.0"}}, {"uniqueid": "w19237186:a48609645", "current_trial": 1, "dateTime": 1691071710989, "trialdata": {"view_history": [{"page_index": 0, "viewing_time": 212930}], "rt": 212937, "trial_id": "exp_instructions_control", "trial_type": "instructions", "trial_index": 1, "time_elapsed": 834969, "internal_node_id": "0.0-1.0"}}, {"uniqueid": "w19237186:a48609645", "current_trial": 2, "dateTime": 1691071715965, "trialdata": {"success": true, "trial_type": "fullscreen", "trial_index": 2, "time_elapsed": 839948, "internal_node_id": "0.0-2.0-0.0"}}, {"uniqueid": "w19237186:a48609645", "current_trial": 3, "dateTime": 1691071908556, "trialdata": {"view_history": [{"page_index": 0, "viewing_time": 42326}, {"page_index": 1, "viewing_time": 84734}, {"page_index": 2, "viewing_time": 27727}, {"page_index": 3, "viewing_time": 37780}], "rt": 192573, "trial_id": "mouselab_instructions_1_control", "trial_type": "instructions", "trial_index": 3, "time_elapsed": 1032530, "internal_node_id": "0.0-2.0-1.0"}}, {"uniqueid": "w19237186:a48609645", "current_trial": 4, "dateTime": 1691071924884, "trialdata": {"revealed_states": [], "clicked_states": [], "num_clicks_accrued": [0, 0, 0, 0, 0, 0, 0, 0, 0, 0, 0, 0, 0], "stateRewards": ["", -10, -10, 10, 10, -10, -10, 10, -10, -10, -10, -10, 10, -10, 10, -10, 10, -10, -10, 10, 10, -10, 10, -10, -10, -10, -10, 10, -10, -10, 10, 10, 10, 10], "withholdReward": false, "trial_id": "practice_1", "block": "test", "trialIndex": 0, "score": -6.5, "costs": 0, "simulationMode": [null, null, null, null, null], "rewards": [10, -10, 10, -10, -10], "path": ["0", "0", "12", "13", "14", "15", "17"], "rt": [2307, 895, 1015, 154, 87], "actions": ["right", "right", "right", "up", "right"], "actionTimes": [3382, 4788, 6306, 6961, 7560], "queries": {"click": {"state": {"target": [], "time": []}, "edge": {"target": [], "time": []}}, "mouseover": {"state": {"target": [], "time": []}, "edge": {"target": [], "time": []}}, "mouseout": {"state": {"target": ["0"], "time": [13881]}, "edge": {"target": [], "time": []}}}, "displayed_time": "8.07", "trialTime": 15014, "trial_type": "mouselab-mdp", "trial_index": 4, "time_elapsed": 1048866, "internal_node_id": "0.0-2.0-2.0-0.0"}}, {"uniqueid": "w19237186:a48609645", "current_trial": 5, "dateTime": 1691071951907, "trialdata": {"revealed_states": [], "clicked_states": ["23", "12", "24"], "num_clicks_accrued": [0, 0, 0, 0, 0, 0, 0, 0, 0, 0, 0, 0, 0], "stateRewards": ["", -10, 10, -10, 10, -10, -10, 10, -10, 10, 10, -10, 10, -10, 10, 10, -10, -10, -10, 10, -10, 10, -10, 10, 10, -10, 10, -10, 10, 10, -10, 10, 10, -10], "withholdReward": false, "trial_id": "practice_2", "block": "test", "trialIndex": 1, "score": 32, "costs": -1.5, "simulationMode": [null, null, null, null, null, null], "rewards": [10, 10, -10, 10, 10], "path": ["0", "0", "23", "24", "25", "26", "28"], "rt": [9695, 1118, 3023, 1452, 558, 25], "actions": ["left", "left", "left", "left", "up", "right"], "actionTimes": [12531, 13656, 17184, 19127, 20182, 20714], "queries": {"click": {"state": {"target": ["23", "12", "24"], "time": [6166, 7924, 11991]}, "edge": {"target": [], "time": []}}, "mouseover": {"state": {"target": ["0", "23", "12", "13", "24", "24"], "time": [4562, 5634, 7002, 10014, 11346, 11549]}, "edge": {"target": [], "time": []}}, "mouseout": {"state": {"target": ["0", "0", "23", "12", "13", "12", "24", "24", "25", "24", "23"], "time": [3880, 5585, 6919, 9914, 10031, 11081, 11363, 14976, 23636, 23717, 26084]}, "edge": {"target": [], "time": []}}}, "displayed_time": "21.24", "trialTime": 26862, "trial_type": "mouselab-mdp", "trial_index": 5, "time_elapsed": 1075890, "internal_node_id": "0.0-2.0-2.0-1.0"}}, {"uniqueid": "w19237186:a48609645", "current_trial": 6, "dateTime": 1691072001587, "trialdata": {"view_history": [{"page_index": 0, "viewing_time": 41081}, {"page_index": 1, "viewing_time": 8593}], "rt": 49675, "trial_id": "mouselab_instructions_2_control", "trial_type": "instructions", "trial_index": 6, "time_elapsed": 1125570, "internal_node_id": "0.0-2.0-3.0"}}, {"uniqueid": "w19237186:a48609645", "current_trial": 7, "dateTime": 1691072048235, "trialdata": {"rt": 46618, "response": {"Q0": "The cost for clicking on nodes may vary between nodes.", "Q1": "The better I perform the higher my bonus will be.", "Q2": "No, the amount of cash at each node of the web may be different each time.", "Q3": "To get the highest total score.", "Q4": "Only before moving the spider.", "Q5": "3 seconds"}, "question_order": [0, 1, 2, 3, 4, 5], "correct": {"Q0": "The cost for clicking on nodes may vary between nodes.", "Q1": "The better I perform the higher my bonus will be.", "Q2": "No, the amount of cash at each node of the web may be different each time.", "Q3": "To get the highest total score.", "Q4": "Only before moving the spider.", "Q5": "3 seconds"}, "trial_id": "mouselab_quiz_control", "trial_type": "survey-multi-choice", "trial_index": 7, "time_elapsed": 1172218, "internal_node_id": "0.0-2.0-4.0"}}, {"uniqueid": "w19237186:a48609645", "current_trial": 8, "dateTime": 1691072067649, "trialdata": {"rt": 19378, "stimulus": "\n<h1> Get ready to start the game! </h1>\n\nThank you for reading the instructions. Get ready start with the 40 rounds of this game.\n<br><br>\nIf you need to take a break, feel free to take one after the end of a round, before continuing to the next one.\n<br><br>\nRemember, the more money the spider gets, the bigger your bonus will be!\n<br><br>\n<div style='text-align: center;'>Press <code>space</code> to begin.</div>\n\n<br><br>\n(If, at any point, the <code>space</code> key does not take you to the next page, click once on the text and try again.)", "response": " ", "trial_id": "mdp_ready", "trial_type": "html-keyboard-response", "trial_index": 8, "time_elapsed": 1191632, "internal_node_id": "0.0-4.0-0.0"}}, {"uniqueid": "w19237186:a48609645", "current_trial": 9, "dateTime": 1691072094095, "trialdata": {"revealed_states": [], "clicked_states": ["12", "23", "27", "16"], "num_clicks_accrued": [0, 0, 0, 0, 0, 0, 0, 0, 0, 0, 0, 0, 0], "stateRewards": ["", -1, 2, 7, 8, 75, 67, -11, 6, 52, -17, 38, -1, 4, -8, 14, 74, -37, -17, -12, 52, 55, 71, -2, -1, -5, 2, 21, 6, -88, -14, 64, -61, -47], "withholdReward": false, "trial_id": "mdp_trial_1", "block": "test", "trialIndex": 2, "score": 77.4, "costs": -5.6, "simulationMode": [null, null, null, null, null], "rewards": [-1, 4, -8, 14, 74], "path": ["0", "0", "12", "13", "14", "15", "16"], "rt": [11882, 356, 242, 152, 43], "actions": ["right", "right", "right", "up", "up"], "actionTimes": [18527, 19405, 20210, 20867, 21423], "queries": {"click": {"state": {"target": ["12", "23", "27", "16"], "time": [8417, 10644, 13300, 15346]}, "edge": {"target": [], "time": []}}, "mouseover": {"state": {"target": ["18", "18", "13", "12", "23", "28", "26", "27", "1", "15", "16", "15"], "time": [7360, 7808, 7891, 8041, 9124, 11322, 11372, 11438, 14069, 14469, 14786, 16600]}, "edge": {"target": [], "time": []}}, "mouseout": {"state": {"target": ["0", "18", "18", "13", "12", "23", "28", "26", "27", "1", "15", "16", "15", "13"], "time": [7279, 7458, 7858, 7925, 8891, 11288, 11339, 11388, 14004, 14086, 14537, 16268, 25302, 25341]}, "edge": {"target": [], "time": []}}}, "displayed_time": "21.95", "trialTime": 26117, "trial_type": "mouselab-mdp", "trial_index": 9, "time_elapsed": 1218078, "internal_node_id": "0.0-4.0-1.0-0.0"}}, {"uniqueid": "w19237186:a48609645", "current_trial": 10, "dateTime": 1691072115903, "trialdata": {"revealed_states": [], "clicked_states": ["27", "16", "21", "32"], "num_clicks_accrued": [0, 0, 0, 0, 0, 0, 0, 0, 0, 0, 0, 0, 0], "stateRewards": ["", -2, -3, 1, -7, 39, -67, 16, 5, -20, 73, 66, -1, 4, 5, -3, 23, -68, -87, -8, 3, -3, 17, 1, -4, -2, -13, -32, 34, 61, -5, -11, -18, 12], "withholdReward": false, "trial_id": "mdp_trial_2", "block": "test", "trialIndex": 3, "score": 22.4, "costs": -5.6, "simulationMode": [null, null, null, null, null], "rewards": [-1, 4, 5, -3, 23], "path": ["0", "0", "12", "13", "14", "15", "16"], "rt": [12202, 620, 106, 462, 513], "actions": ["right", "right", "right", "up", "up"], "actionTimes": [14465, 15599, 16216, 17190, 18222], "queries": {"click": {"state": {"target": ["27", "16", "21", "32"], "time": [4227, 6425, 9009, 11214]}, "edge": {"target": [], "time": []}}, "mouseover": {"state": {"target": ["28", "26", "26", "27", "10", "2", "16", "16", "17", "21", "32", "31", "0"], "time": [3035, 3454, 3638, 3704, 4770, 4788, 4904, 5170, 7234, 8617, 10323, 11780, 13495]}, "edge": {"target": [], "time": []}}, "mouseout": {"state": {"target": ["0", "0", "28", "26", "26", "27", "10", "2", "16", "16", "17", "21", "32", "31", "0", "12", "12"], "time": [1473, 3032, 3438, 3572, 3654, 4754, 4787, 4804, 5053, 7168, 8134, 9616, 11308, 11830, 13511, 19990, 20338]}, "edge": {"target": [], "time": []}}}, "displayed_time": "18.74", "trialTime": 21594, "trial_type": "mouselab-mdp", "trial_index": 10, "time_elapsed": 1239886, "internal_node_id": "0.0-4.0-1.0-1.0"}}, {"uniqueid": "w19237186:a48609645", "current_trial": 11, "dateTime": 1691072135079, "trialdata": {"revealed_states": [], "clicked_states": ["33", "31"], "num_clicks_accrued": [0, 0, 0, 0, 0, 0, 0, 0, 0, 0, 0, 0, 0], "stateRewards": ["", -1, -3, 4, -10, -5, 79, -87, -2, 53, 29, -20, -2, -1, -5, 10, 27, 86, 46, -16, -29, 40, 3, 2, 4, -1, -6, 37, 79, -29, 7, 86, -62, 29], "withholdReward": false, "trial_id": "mdp_trial_3", "block": "test", "trialIndex": 4, "score": 95.2, "costs": -2.8, "simulationMode": [null, null, null, null, null], "rewards": [2, 4, -1, 7, 86], "path": ["0", "0", "23", "24", "25", "30", "31"], "rt": [8015, 519, 76, 124, 43], "actions": ["left", "left", "left", "down", "right"], "actionTimes": [10473, 11503, 12091, 12721, 13272], "queries": {"click": {"state": {"target": ["33", "31"], "time": [3549, 5844]}, "edge": {"target": [], "time": []}}, "mouseover": {"state": {"target": ["23", "30", "33", "30", "31", "14", "20", "15", "6", "5", "10", "23"], "time": [2821, 2872, 3123, 4054, 4220, 6418, 6951, 7367, 7783, 7867, 8666, 9282]}, "edge": {"target": [], "time": []}}, "mouseout": {"state": {"target": ["0", "23", "30", "33", "30", "31", "14", "20", "15", "6", "5", "10", "23"], "time": [2810, 2838, 2905, 4038, 4104, 6369, 6435, 7301, 7384, 7816, 8616, 8683, 15642]}, "edge": {"target": [], "time": []}}}, "displayed_time": "16.46", "trialTime": 18940, "trial_type": "mouselab-mdp", "trial_index": 11, "time_elapsed": 1259062, "internal_node_id": "0.0-4.0-1.0-2.0"}}, {"uniqueid": "w19237186:a48609645", "current_trial": 12, "dateTime": 1691072153956, "trialdata": {"revealed_states": [], "clicked_states": ["27", "9", "5"], "num_clicks_accrued": [0, 0, 0, 0, 0, 0, 0, 0, 0, 0, 0, 0, 0], "stateRewards": ["", 1, -3, -6, -5, 47, 80, -29, 11, -71, 10, -29, -2, 3, -6, 12, 2, -78, -6, 8, 34, -16, -5, -1, 3, 3, -13, 84, -36, -62, -3, -27, 66, 15], "withholdReward": false, "trial_id": "mdp_trial_4", "block": "test", "trialIndex": 5, "score": 71.8, "costs": -4.199999999999999, "simulationMode": [null, null, null, null, null], "rewards": [-1, 3, 3, -13, 84], "path": ["0", "0", "23", "24", "25", "26", "27"], "rt": [7908, 291, 109, 433, 52], "actions": ["left", "left", "left", "up", "up"], "actionTimes": [10054, 10849, 11467, 12407, 12974], "queries": {"click": {"state": {"target": ["27", "9", "5"], "time": [4008, 5935, 7873]}, "edge": {"target": [], "time": []}}, "mouseover": {"state": {"target": ["26", "27", "29", "11", "8", "9", "5", "3"], "time": [3313, 3630, 4679, 5112, 5195, 5395, 6394, 8477]}, "edge": {"target": [], "time": []}}, "mouseout": {"state": {"target": ["0", "26", "27", "29", "27", "11", "8", "9", "5", "3"], "time": [3247, 3347, 4497, 4945, 5028, 5145, 5212, 6295, 8475, 8492]}, "edge": {"target": [], "time": []}}}, "displayed_time": "16.15", "trialTime": 18729, "trial_type": "mouselab-mdp", "trial_index": 12, "time_elapsed": 1277939, "internal_node_id": "0.0-4.0-1.0-3.0"}}, {"uniqueid": "w19237186:a48609645", "current_trial": 13, "dateTime": 1691072180204, "trialdata": {"revealed_states": [], "clicked_states": ["16", "21", "32", "33", "31", "27"], "num_clicks_accrued": [0, 0, 0, 0, 0, 0, 0, 0, 0, 0, 0, 0, 0], "stateRewards": ["", 1, -4, -4, 8, 1, -79, 68, -10, -79, 8, -74, -1, -3, -6, 14, 43, 23, 9, 5, -51, 63, 61, -2, 4, 6, -10, 69, -32, 57, 15, -80, -80, -77], "withholdReward": false, "trial_id": "mdp_trial_5", "block": "test", "trialIndex": 6, "score": 49.6, "costs": -8.4, "simulationMode": [null, null, null, null, null], "rewards": [-1, -3, -6, 5, 63], "path": ["0", "0", "12", "13", "14", "19", "21"], "rt": [16346, 29, 45, 34, 9], "actions": ["right", "right", "right", "down", "down"], "actionTimes": [19244, 19788, 20337, 20876, 21401], "queries": {"click": {"state": {"target": ["16", "21", "32", "33", "31", "27"], "time": [4405, 6647, 8796, 10962, 13108, 15421]}, "edge": {"target": [], "time": []}}, "mouseover": {"state": {"target": ["18", "16", "17", "21", "32", "33", "30", "31", "25", "26", "27", "9", "7"], "time": [3706, 3972, 5122, 6220, 7869, 9434, 11416, 11499, 13647, 13880, 14030, 15929, 17944]}, "edge": {"target": [], "time": []}}, "mouseout": {"state": {"target": ["18", "16", "17", "21", "32", "33", "30", "31", "25", "26", "27", "9", "7", "1", "23", "23"], "time": [3739, 4939, 5754, 7204, 9235, 11382, 11449, 13580, 13730, 13963, 15489, 16328, 17975, 23121, 23303, 23437]}, "edge": {"target": [], "time": []}}}, "displayed_time": "21.92", "trialTime": 26071, "trial_type": "mouselab-mdp", "trial_index": 13, "time_elapsed": 1304187, "internal_node_id": "0.0-4.0-1.0-4.0"}}, {"uniqueid": "w19237186:a48609645", "current_trial": 14, "dateTime": 1691072200125, "trialdata": {"revealed_states": [], "clicked_states": ["11", "6", "9", "5"], "num_clicks_accrued": [0, 0, 0, 0, 0, 0, 0, 0, 0, 0, 0, 0, 0], "stateRewards": ["", -2, -1, -5, 10, -36, -70, 68, -9, 86, 71, -10, 2, -4, 7, -7, 66, 44, -66, -13, -69, 43, 15, -2, 2, 6, -13, 62, 57, 50, -10, -69, 42, -72], "withholdReward": false, "trial_id": "mdp_trial_6", "block": "test", "trialIndex": 7, "score": 63.4, "costs": -5.6, "simulationMode": [null, null, null, null, null], "rewards": [-2, -1, -5, -9, 86], "path": ["0", "0", "1", "2", "3", "8", "9"], "rt": [10356, 417, 50, 5, 538], "actions": ["up", "up", "up", "left", "up"], "actionTimes": [13256, 14186, 14749, 15288, 16353], "queries": {"click": {"state": {"target": ["11", "6", "9", "5"], "time": [4232, 6147, 8874, 11424]}, "edge": {"target": [], "time": []}}, "mouseover": {"state": {"target": ["1", "3", "11", "8", "6", "4", "5", "9", "9", "5", "5"], "time": [3325, 3359, 3858, 4575, 4991, 6623, 7704, 8237, 8522, 9620, 9886]}, "edge": {"target": [], "time": []}}, "mouseout": {"state": {"target": ["12", "1", "3", "11", "8", "6", "4", "5", "9", "9", "5", "5", "4"], "time": [2193, 3342, 3375, 4294, 4608, 6606, 7571, 8187, 8287, 9487, 9653, 19061, 19443]}, "edge": {"target": [], "time": []}}}, "displayed_time": "16.90", "trialTime": 19770, "trial_type": "mouselab-mdp", "trial_index": 14, "time_elapsed": 1324108, "internal_node_id": "0.0-4.0-1.0-5.0"}}, {"uniqueid": "w19237186:a48609645", "current_trial": 15, "dateTime": 1691072221687, "trialdata": {"revealed_states": [], "clicked_states": ["29", "20", "32", "21", "5", "9"], "num_clicks_accrued": [0, 0, 0, 0, 0, 0, 0, 0, 0, 0, 0, 0, 0], "stateRewards": ["", -2, 2, -1, -6, 22, 6, 6, -5, 70, -42, 65, 1, 3, 5, -6, -67, -9, 3, 14, 7, -62, -13, -2, 4, 1, 16, 42, -21, -52, -8, 32, 53, 81], "withholdReward": false, "trial_id": "mdp_trial_7", "block": "test", "trialIndex": 8, "score": 55.6, "costs": -8.4, "simulationMode": [null, null, null, null, null], "rewards": [-2, 2, -1, -5, 70], "path": ["0", "0", "1", "2", "3", "8", "9"], "rt": [15048, 75, 91, 20, 19], "actions": ["up", "up", "up", "left", "up"], "actionTimes": [17535, 18117, 18718, 19244, 19792], "queries": {"click": {"state": {"target": ["29", "20", "32", "21", "5", "9"], "time": [3515, 5176, 7584, 9853, 12472, 14480]}, "edge": {"target": [], "time": []}}, "mouseover": {"state": {"target": ["23", "24", "29", "26", "22", "19", "20", "21", "32", "21", "19", "6", "5", "9", "6", "17"], "time": [2856, 2905, 3188, 3891, 3972, 4005, 4504, 5669, 7108, 8616, 10283, 10365, 12013, 13295, 14911, 15626]}, "edge": {"target": [], "time": []}}, "mouseout": {"state": {"target": ["1", "0", "0", "0", "23", "24", "29", "26", "22", "19", "20", "21", "32", "21", "19", "6", "5", "9", "6", "17"], "time": [1573, 1606, 1922, 2834, 2872, 2921, 3889, 3905, 3988, 4022, 5637, 5890, 8067, 10281, 10298, 11847, 12946, 14878, 14927, 16641]}, "edge": {"target": [], "time": []}}}, "displayed_time": "20.31", "trialTime": 21315, "trial_type": "mouselab-mdp", "trial_index": 15, "time_elapsed": 1345670, "internal_node_id": "0.0-4.0-1.0-6.0"}}, {"uniqueid": "w19237186:a48609645", "current_trial": 16, "dateTime": 1691072242272, "trialdata": {"revealed_states": [], "clicked_states": ["6", "9", "16", "27", "29"], "num_clicks_accrued": [0, 0, 0, 0, 0, 0, 0, 0, 0, 0, 0, 0, 0], "stateRewards": ["", 2, 3, -2, -8, -8, -41, 74, 15, -23, -80, 1, 1, 3, 3, -15, -63, -78, 67, 13, 75, -41, 86, 2, -2, 6, -3, -8, -49, 50, -6, 83, 74, 80], "withholdReward": false, "trial_id": "mdp_trial_8", "block": "test", "trialIndex": 9, "score": 46, "costs": -7, "simulationMode": [null, null, null, null, null], "rewards": [2, -2, 6, -3, 50], "path": ["0", "0", "23", "24", "25", "26", "29"], "rt": [13447, 47, 98, 20, 959], "actions": ["left", "left", "left", "up", "left"], "actionTimes": [15557, 16117, 16750, 17288, 18776], "queries": {"click": {"state": {"target": ["6", "9", "16", "27", "29"], "time": [4425, 6638, 8625, 10665, 12764]}, "edge": {"target": [], "time": []}}, "mouseover": {"state": {"target": ["1", "7", "6", "4", "10", "8", "9", "9", "5", "16", "27", "29", "33"], "time": [3046, 3765, 3948, 5130, 5229, 5662, 5763, 6027, 7244, 7893, 9591, 11206, 13671]}, "edge": {"target": [], "time": []}}, "mouseout": {"state": {"target": ["15", "18", "0", "1", "7", "6", "4", "10", "8", "9", "9", "5", "6", "16", "16", "27", "29"], "time": [1048, 1098, 2814, 3082, 3779, 5128, 5145, 5279, 5695, 5962, 6853, 7377, 7443, 8838, 9209, 11123, 13254]}, "edge": {"target": [], "time": []}}}, "displayed_time": "19.27", "trialTime": 20412, "trial_type": "mouselab-mdp", "trial_index": 16, "time_elapsed": 1366254, "internal_node_id": "0.0-4.0-1.0-7.0"}}, {"uniqueid": "w19237186:a48609645", "current_trial": 17, "dateTime": 1691072266974, "trialdata": {"revealed_states": [], "clicked_states": ["32", "21", "16", "29", "28", "17"], "num_clicks_accrued": [0, 0, 0, 0, 0, 0, 0, 0, 0, 0, 0, 0, 0], "stateRewards": ["", -1, -2, 8, -6, -79, -6, 87, 9, -5, -66, -38, 2, 2, 5, -6, -82, 74, 85, -8, 67, -30, -15, 1, -2, -2, -2, 87, 64, 49, 7, 2, -38, -9], "withholdReward": false, "trial_id": "mdp_trial_9", "block": "test", "trialIndex": 10, "score": 68.6, "costs": -8.4, "simulationMode": [null, null, null, null, null], "rewards": [2, 2, 5, -6, 74], "path": ["0", "0", "12", "13", "14", "15", "17"], "rt": [16693, 43, 674, 124, 57], "actions": ["right", "right", "right", "up", "right"], "actionTimes": [19295, 19849, 21046, 21663, 22228], "queries": {"click": {"state": {"target": ["32", "21", "16", "29", "28", "17"], "time": [4058, 6132, 8527, 11827, 13693, 16679]}, "edge": {"target": [], "time": []}}, "mouseover": {"state": {"target": ["23", "31", "32", "21", "19", "16", "9", "11", "29", "29", "26", "28", "28", "17", "20"], "time": [3204, 3371, 3471, 4853, 6635, 7617, 9241, 10897, 10946, 11431, 12197, 12263, 12597, 14627, 17291]}, "edge": {"target": [], "time": []}}, "mouseout": {"state": {"target": ["33", "24", "23", "0", "0", "23", "31", "32", "21", "19", "16", "9", "11", "29", "29", "26", "28", "28", "17", "20"], "time": [990, 1058, 1206, 1389, 3187, 3221, 3387, 4403, 6223, 6668, 8590, 10867, 10913, 10980, 12179, 12230, 12313, 14094, 17208, 23701]}, "edge": {"target": [], "time": []}}}, "displayed_time": "22.75", "trialTime": 24559, "trial_type": "mouselab-mdp", "trial_index": 17, "time_elapsed": 1390956, "internal_node_id": "0.0-4.0-1.0-8.0"}}, {"uniqueid": "w19237186:a48609645", "current_trial": 18, "dateTime": 1691072284762, "trialdata": {"revealed_states": [], "clicked_states": ["21", "20", "29"], "num_clicks_accrued": [0, 0, 0, 0, 0, 0, 0, 0, 0, 0, 0, 0, 0], "stateRewards": ["", -1, 1, 8, -8, -49, 62, -78, 16, 28, -81, 78, -2, -3, -1, -4, 67, 49, -2, -13, -16, -39, 83, 1, -4, 4, -5, -20, 7, 84, 7, -32, -59, 19], "withholdReward": false, "trial_id": "mdp_trial_10", "block": "test", "trialIndex": 11, "score": 75.8, "costs": -4.199999999999999, "simulationMode": [null, null, null, null, null], "rewards": [1, -4, 4, -5, 84], "path": ["0", "0", "23", "24", "25", "26", "29"], "rt": [11636, 73, 37, 18, 525], "actions": ["left", "left", "left", "up", "left"], "actionTimes": [13202, 13790, 14336, 14884, 15922], "queries": {"click": {"state": {"target": ["21", "20", "29"], "time": [2888, 5581, 10008]}, "edge": {"target": [], "time": []}}, "mouseover": {"state": {"target": ["12", "13", "19", "21", "21", "20", "14", "14", "20", "20", "17", "17", "16", "3", "9", "11", "29", "27", "27"], "time": [1992, 2011, 2125, 2159, 2476, 3292, 4208, 4823, 4956, 5175, 6206, 7754, 8536, 8586, 8952, 9070, 9568, 10552, 11051]}, "edge": {"target": [], "time": []}}, "mouseout": {"state": {"target": ["0", "12", "13", "19", "21", "21", "20", "14", "14", "20", "20", "17", "17", "16", "3", "9", "11", "29", "27"], "time": [1978, 2009, 2043, 2142, 2276, 3225, 4125, 4224, 4873, 5073, 6139, 6273, 8526, 8553, 8602, 9069, 9086, 10503, 10618]}, "edge": {"target": [], "time": []}}}, "displayed_time": "16.43", "trialTime": 17624, "trial_type": "mouselab-mdp", "trial_index": 18, "time_elapsed": 1408744, "internal_node_id": "0.0-4.0-1.0-9.0"}}, {"uniqueid": "w19237186:a48609645", "current_trial": 19, "dateTime": 1691072309896, "trialdata": {"revealed_states": [], "clicked_states": ["9", "6", "5", "11", "27", "29", "28"], "num_clicks_accrued": [0, 0, 0, 0, 0, 0, 0, 0, 0, 0, 0, 0, 0], "stateRewards": ["", -2, -3, 7, -13, 60, 9, 37, -6, 37, 20, 1, 2, -2, -8, 6, -80, -31, -10, -7, 70, -65, -44, -1, 1, 7, 6, -11, 73, -85, 16, -21, 47, 34], "withholdReward": false, "trial_id": "mdp_trial_11", "block": "test", "trialIndex": 12, "score": 76.2, "costs": -9.8, "simulationMode": [null, null, null, null, null], "rewards": [-1, 1, 7, 6, 73], "path": ["0", "0", "23", "24", "25", "26", "28"], "rt": [18076, 59, 66, 466, 41], "actions": ["left", "left", "left", "up", "right"], "actionTimes": [20633, 21207, 21797, 22778, 23336], "queries": {"click": {"state": {"target": ["9", "6", "5", "11", "27", "29", "28"], "time": [4173, 7422, 9665, 11897, 13869, 15872, 17822]}, "edge": {"target": [], "time": []}}, "mouseover": {"state": {"target": ["8", "9", "11", "5", "5", "6", "5", "5", "11", "27", "29", "26", "28", "25", "33"], "time": [3263, 3330, 5229, 6144, 6761, 7026, 8209, 8558, 10340, 12671, 14353, 16351, 16535, 18316, 18483]}, "edge": {"target": [], "time": []}}, "mouseout": {"state": {"target": ["27", "23", "0", "8", "9", "11", "5", "5", "6", "5", "5", "11", "11", "27", "29", "26", "28", "25", "33"], "time": [1381, 1615, 3165, 3296, 4562, 6011, 6546, 6960, 8059, 8409, 9774, 12109, 12605, 14270, 16318, 16401, 18300, 18349, 19032]}, "edge": {"target": [], "time": []}}}, "displayed_time": "23.86", "trialTime": 24964, "trial_type": "mouselab-mdp", "trial_index": 19, "time_elapsed": 1433878, "internal_node_id": "0.0-4.0-1.0-10.0"}}, {"uniqueid": "w19237186:a48609645", "current_trial": 20, "dateTime": 1691072331326, "trialdata": {"revealed_states": [], "clicked_states": ["20", "21", "32", "33", "29", "17"], "num_clicks_accrued": [0, 0, 0, 0, 0, 0, 0, 0, 0, 0, 0, 0, 0], "stateRewards": ["", 1, 1, 1, 15, -76, 52, -32, 14, -57, 37, 49, 1, -4, -3, 6, 83, -76, 25, 9, 36, -1, -17, -1, 4, 4, -2, -22, -21, 58, -15, -57, 49, -24], "withholdReward": false, "trial_id": "mdp_trial_12", "block": "test", "trialIndex": 13, "score": 54.6, "costs": -8.4, "simulationMode": [null, null, null, null, null], "rewards": [-1, 4, 4, -2, 58], "path": ["0", "0", "23", "24", "25", "26", "29"], "rt": [14391, 469, 78, 483, 16], "actions": ["left", "left", "left", "up", "left"], "actionTimes": [16338, 17319, 17911, 18899, 19432], "queries": {"click": {"state": {"target": ["20", "21", "32", "33", "29", "17"], "time": [3354, 5437, 7366, 9407, 11352, 13661]}, "edge": {"target": [], "time": []}}, "mouseover": {"state": {"target": ["12", "22", "20", "21", "32", "33", "29", "26", "2", "7", "16", "17", "15", "18"], "time": [2446, 2512, 2963, 4361, 5977, 8208, 10105, 11758, 11787, 11806, 11822, 12303, 14287, 14303]}, "edge": {"target": [], "time": []}}, "mouseout": {"state": {"target": ["31", "0", "0", "12", "22", "20", "21", "32", "33", "29", "26", "2", "7", "16", "17", "15", "18"], "time": [981, 1381, 2415, 2462, 2579, 3845, 5843, 7824, 9972, 11755, 11771, 11804, 11820, 11837, 14286, 14301, 14318]}, "edge": {"target": [], "time": []}}}, "displayed_time": "19.95", "trialTime": 21268, "trial_type": "mouselab-mdp", "trial_index": 20, "time_elapsed": 1455308, "internal_node_id": "0.0-4.0-1.0-11.0"}}, {"uniqueid": "w19237186:a48609645", "current_trial": 21, "dateTime": 1691072366987, "trialdata": {"revealed_states": [], "clicked_states": ["6", "11", "16", "27", "33", "32", "31", "20", "22", "21", "17", "29", "28"], "num_clicks_accrued": [0, 0, 0, 0, 0, 0, 0, 0, 0, 0, 0, 0, 0], "stateRewards": ["", 2, 3, -1, 6, 44, -4, -59, -14, -3, 64, 16, 1, -3, 3, 6, 3, 49, 19, 3, -49, -14, -86, 1, 2, -3, -8, -33, 14, 32, -13, -77, -47, -67], "withholdReward": false, "trial_id": "mdp_trial_13", "block": "test", "trialIndex": 14, "score": 37.8, "costs": -18.2, "simulationMode": [null, null, null, null, null], "rewards": [1, -3, 3, 6, 49], "path": ["0", "0", "12", "13", "14", "15", "17"], "rt": [29691, 97, 58, 44, 542], "actions": ["right", "right", "right", "up", "right"], "actionTimes": [31061, 31671, 32248, 32802, 33864], "queries": {"click": {"state": {"target": ["6", "11", "16", "27", "33", "32", "31", "20", "22", "21", "17", "29", "28"], "time": [3451, 5988, 8137, 10461, 12429, 14390, 16379, 18313, 20283, 22413, 24583, 26828, 28952]}, "edge": {"target": [], "time": []}}, "mouseover": {"state": {"target": ["1", "2", "3", "5", "6", "6", "4", "3", "8", "11", "8", "3", "16", "27", "26", "33", "32", "31", "20", "19", "22", "22", "21", "19", "14", "17", "2", "10", "29", "26", "28", "1"], "time": [1769, 1787, 1835, 2303, 2868, 3169, 4071, 4086, 4119, 4201, 6714, 6732, 7297, 9379, 11144, 11443, 12875, 14907, 17421, 18753, 18786, 19153, 20834, 23148, 23232, 23831, 25130, 25163, 25846, 27261, 27361, 29459]}, "edge": {"target": [], "time": []}}, "mouseout": {"state": {"target": ["23", "0", "1", "2", "3", "5", "6", "6", "4", "3", "8", "11", "8", "3", "16", "27", "26", "33", "32", "31", "20", "19", "22", "22", "21", "19", "14", "17", "2", "10", "29", "26", "28"], "time": [821, 1736, 1785, 1819, 1885, 2768, 2902, 3666, 4084, 4101, 4151, 6698, 6731, 6764, 8346, 11127, 11160, 12825, 14774, 16821, 18738, 18769, 18820, 20701, 23115, 23198, 23265, 24796, 25146, 25546, 27245, 27294, 29165]}, "edge": {"target": [], "time": []}}}, "displayed_time": "34.37", "trialTime": 35489, "trial_type": "mouselab-mdp", "trial_index": 21, "time_elapsed": 1490970, "internal_node_id": "0.0-4.0-1.0-12.0"}}, {"uniqueid": "w19237186:a48609645", "current_trial": 22, "dateTime": 1691072387089, "trialdata": {"revealed_states": [], "clicked_states": ["9", "6", "27", "32"], "num_clicks_accrued": [0, 0, 0, 0, 0, 0, 0, 0, 0, 0, 0, 0, 0], "stateRewards": ["", 2, -1, 5, 8, 75, -35, -77, 1, -9, -81, -58, 1, 2, -7, 5, 77, -16, 19, 16, -10, -18, 40, -2, 3, 7, -5, 64, 1, -62, 10, 27, 10, 65], "withholdReward": false, "trial_id": "mdp_trial_14", "block": "test", "trialIndex": 15, "score": 61.4, "costs": -5.6, "simulationMode": [null, null, null, null, null], "rewards": [-2, 3, 7, -5, 64], "path": ["0", "0", "23", "24", "25", "26", "27"], "rt": [13347, 234, 58, 144, 495], "actions": ["left", "left", "left", "up", "up"], "actionTimes": [15142, 15894, 16464, 17132, 18134], "queries": {"click": {"state": {"target": ["9", "6", "27", "32"], "time": [4773, 7396, 10872, 13147]}, "edge": {"target": [], "time": []}}, "mouseover": {"state": {"target": ["1", "8", "9", "5", "6", "7", "2", "23", "28", "27", "27", "28", "24", "30", "32", "0", "15"], "time": [3317, 3583, 3902, 6015, 7098, 9256, 9595, 9927, 10077, 10344, 10593, 11560, 11626, 11793, 11927, 13543, 13591]}, "edge": {"target": [], "time": []}}, "mouseout": {"state": {"target": ["1", "0", "1", "8", "9", "5", "6", "7", "2", "23", "28", "27", "27", "28", "24", "30", "32", "0", "15"], "time": [1153, 3294, 3334, 3718, 4987, 6448, 8745, 9529, 9678, 9994, 10194, 10426, 11494, 11593, 11693, 11876, 13507, 13558, 13607]}, "edge": {"target": [], "time": []}}}, "displayed_time": "18.64", "trialTime": 19909, "trial_type": "mouselab-mdp", "trial_index": 22, "time_elapsed": 1511072, "internal_node_id": "0.0-4.0-1.0-13.0"}}, {"uniqueid": "w19237186:a48609645", "current_trial": 23, "dateTime": 1691072404520, "trialdata": {"revealed_states": [], "clicked_states": ["17", "29", "33", "20"], "num_clicks_accrued": [0, 0, 0, 0, 0, 0, 0, 0, 0, 0, 0, 0, 0], "stateRewards": ["", -2, -3, 8, 14, -73, 73, 84, -12, -2, -50, -17, 2, 1, -2, -9, -44, -27, -33, 16, -63, -47, -66, -2, 1, 4, -5, -33, -11, 50, 9, 38, -79, 31], "withholdReward": false, "trial_id": "mdp_trial_15", "block": "test", "trialIndex": 16, "score": 42.4, "costs": -5.6, "simulationMode": [null, null, null, null, null], "rewards": [-2, 1, 4, -5, 50], "path": ["0", "0", "23", "24", "25", "26", "29"], "rt": [10367, 220, 249, 83, 441], "actions": ["left", "left", "left", "up", "left"], "actionTimes": [12609, 13349, 14112, 14711, 15669], "queries": {"click": {"state": {"target": ["17", "29", "33", "20"], "time": [3503, 6325, 8487, 10552]}, "edge": {"target": [], "time": []}}, "mouseover": {"state": {"target": ["18", "15", "17", "26", "29", "29", "33", "29", "33", "12", "14", "20"], "time": [2871, 2904, 3171, 3905, 3922, 4387, 5387, 5885, 7184, 8866, 8899, 9415]}, "edge": {"target": [], "time": []}}, "mouseout": {"state": {"target": ["18", "0", "18", "15", "17", "26", "29", "29", "33", "29", "29", "33", "12", "14"], "time": [1473, 2771, 2887, 2921, 3837, 3920, 3937, 5086, 5851, 6531, 6784, 8716, 8882, 8915]}, "edge": {"target": [], "time": []}}}, "displayed_time": "16.26", "trialTime": 17263, "trial_type": "mouselab-mdp", "trial_index": 23, "time_elapsed": 1528503, "internal_node_id": "0.0-4.0-1.0-14.0"}}, {"uniqueid": "w19237186:a48609645", "current_trial": 24, "dateTime": 1691072421451, "trialdata": {"revealed_states": [], "clicked_states": ["5", "6", "16"], "num_clicks_accrued": [0, 0, 0, 0, 0, 0, 0, 0, 0, 0, 0, 0, 0], "stateRewards": ["", -2, -4, -2, 10, -8, -15, -47, 7, -84, 53, 5, -1, 2, -7, 3, 83, 31, 47, -1, 30, -8, 69, 2, -4, -1, 8, -7, 12, -8, -8, -13, 30, -84], "withholdReward": false, "trial_id": "mdp_trial_16", "block": "test", "trialIndex": 17, "score": 75.8, "costs": -4.199999999999999, "simulationMode": [null, null, null, null, null], "rewards": [-1, 2, -7, 3, 83], "path": ["0", "0", "12", "13", "14", "15", "16"], "rt": [9035, 42, 3, 28, 24], "actions": ["right", "right", "right", "up", "up"], "actionTimes": [10847, 11394, 11905, 12462, 13008], "queries": {"click": {"state": {"target": ["5", "6", "16"], "time": [3354, 5310, 8131]}, "edge": {"target": [], "time": []}}, "mouseover": {"state": {"target": ["4", "5", "6", "7", "16", "16", "18"], "time": [2543, 2842, 3825, 5823, 7388, 7655, 8753]}, "edge": {"target": [], "time": []}}, "mouseout": {"state": {"target": ["20", "0", "4", "5", "6", "6", "7", "16", "16", "16"], "time": [1010, 2351, 2610, 3758, 5528, 5723, 7354, 7404, 8343, 8603]}, "edge": {"target": [], "time": []}}}, "displayed_time": "15.81", "trialTime": 16764, "trial_type": "mouselab-mdp", "trial_index": 24, "time_elapsed": 1545434, "internal_node_id": "0.0-4.0-1.0-15.0"}}, {"uniqueid": "w19237186:a48609645", "current_trial": 25, "dateTime": 1691072439386, "trialdata": {"revealed_states": [], "clicked_states": ["16", "21", "32"], "num_clicks_accrued": [0, 0, 0, 0, 0, 0, 0, 0, 0, 0, 0, 0, 0], "stateRewards": ["", -2, -4, 6, 14, -34, 49, 36, -8, -3, 32, -4, 1, -2, 1, -8, -20, -71, -57, -7, -86, -62, -16, -2, -3, -5, 11, 23, -21, 53, 5, -5, 85, 73], "withholdReward": false, "trial_id": "mdp_trial_17", "block": "test", "trialIndex": 18, "score": 75.8, "costs": -4.199999999999999, "simulationMode": [null, null, null, null, null], "rewards": [-2, -3, -5, 5, 85], "path": ["0", "0", "23", "24", "25", "30", "32"], "rt": [8138, 356, 127, 67, 53], "actions": ["left", "left", "left", "down", "down"], "actionTimes": [10767, 11641, 12277, 12851, 13418], "queries": {"click": {"state": {"target": ["16", "21", "32"], "time": [3983, 5861, 7856]}, "edge": {"target": [], "time": []}}, "mouseover": {"state": {"target": ["16", "16", "17", "20", "21", "31", "30", "32", "33", "27", "26", "25"], "time": [3357, 3675, 4557, 4790, 5377, 6315, 6341, 6638, 8353, 9085, 10133, 10184]}, "edge": {"target": [], "time": []}}, "mouseout": {"state": {"target": ["18", "16", "16", "17", "20", "21", "31", "30", "32", "33", "27", "26"], "time": [1709, 3441, 4406, 4623, 5289, 6304, 6327, 6372, 8075, 8452, 10117, 10150]}, "edge": {"target": [], "time": []}}}, "displayed_time": "16.63", "trialTime": 17749, "trial_type": "mouselab-mdp", "trial_index": 25, "time_elapsed": 1563368, "internal_node_id": "0.0-4.0-1.0-16.0"}}, {"uniqueid": "w19237186:a48609645", "current_trial": 26, "dateTime": 1691072456433, "trialdata": {"revealed_states": [], "clicked_states": ["33", "6", "20", "27"], "num_clicks_accrued": [0, 0, 0, 0, 0, 0, 0, 0, 0, 0, 0, 0, 0], "stateRewards": ["", 1, 1, 5, 6, -29, -7, 3, -16, 9, -46, 65, -1, 4, -1, -16, -63, -77, -87, 8, 80, -50, 43, -1, -1, -5, 5, -38, -71, -62, 9, 81, -50, -52], "withholdReward": false, "trial_id": "mdp_trial_18", "block": "test", "trialIndex": 19, "score": 84.4, "costs": -5.6, "simulationMode": [null, null, null, null, null], "rewards": [-1, 4, -1, 8, 80], "path": ["0", "0", "12", "13", "14", "19", "20"], "rt": [10490, 240, 72, 71, 118], "actions": ["right", "right", "right", "down", "right"], "actionTimes": [12680, 13439, 14020, 14601, 15231], "queries": {"click": {"state": {"target": ["33", "6", "20", "27"], "time": [3904, 5943, 8600, 10838]}, "edge": {"target": [], "time": []}}, "mouseover": {"state": {"target": ["23", "24", "30", "33", "25", "2", "6", "16", "17", "20", "12", "28", "27"], "time": [3306, 3340, 3490, 3606, 4373, 4556, 4890, 6371, 6404, 6837, 9102, 9185, 9518]}, "edge": {"target": [], "time": []}}, "mouseout": {"state": {"target": ["25", "24", "23", "0", "23", "24", "30", "33", "25", "2", "6", "16", "17", "20", "12", "28"], "time": [1220, 1310, 1408, 3291, 3323, 3374, 3506, 4356, 4407, 4607, 6354, 6387, 6420, 9069, 9118, 9403]}, "edge": {"target": [], "time": []}}}, "displayed_time": "16.19", "trialTime": 16862, "trial_type": "mouselab-mdp", "trial_index": 26, "time_elapsed": 1580416, "internal_node_id": "0.0-4.0-1.0-17.0"}}, {"uniqueid": "w19237186:a48609645", "current_trial": 27, "dateTime": 1691072474584, "trialdata": {"revealed_states": [], "clicked_states": ["5", "31", "33", "20"], "num_clicks_accrued": [0, 0, 0, 0, 0, 0, 0, 0, 0, 0, 0, 0, 0], "stateRewards": ["", -2, 3, -5, -7, 66, 43, -60, -4, -70, -75, 4, -1, 2, 2, -13, 54, 11, -40, -1, 77, 32, 15, -2, 3, -8, -9, -35, 83, -27, 6, -74, -34, 44], "withholdReward": false, "trial_id": "mdp_trial_19", "block": "test", "trialIndex": 20, "score": 73.4, "costs": -5.6, "simulationMode": [null, null, null, null, null], "rewards": [-1, 2, 2, -1, 77], "path": ["0", "0", "12", "13", "14", "19", "20"], "rt": [11141, 25, 26, 54, 505], "actions": ["right", "right", "right", "down", "right"], "actionTimes": [13128, 13660, 14210, 14770, 15803], "queries": {"click": {"state": {"target": ["5", "31", "33", "20"], "time": [3474, 5811, 7985, 10487]}, "edge": {"target": [], "time": []}}, "mouseover": {"state": {"target": ["2", "5", "5", "3", "24", "31", "31", "32", "33", "22", "20", "21", "21"], "time": [2726, 2843, 3126, 3843, 4159, 4226, 4592, 6324, 6674, 8521, 10055, 11103, 11702]}, "edge": {"target": [], "time": []}}, "mouseout": {"state": {"target": ["27", "28", "0", "2", "5", "5", "3", "24", "31", "31", "32", "33", "22", "20", "21"], "time": [1211, 1244, 2682, 2760, 2877, 3826, 3860, 4210, 4343, 6274, 6423, 8438, 8554, 11069, 11136]}, "edge": {"target": [], "time": []}}}, "displayed_time": "16.31", "trialTime": 17950, "trial_type": "mouselab-mdp", "trial_index": 27, "time_elapsed": 1598567, "internal_node_id": "0.0-4.0-1.0-18.0"}}, {"uniqueid": "w19237186:a48609645", "current_trial": 28, "dateTime": 1691072504785, "trialdata": {"revealed_states": [], "clicked_states": ["5", "9", "27", "32", "21", "16", "17", "20", "33", "29"], "num_clicks_accrued": [0, 0, 0, 0, 0, 0, 0, 0, 0, 0, 0, 0, 0], "stateRewards": ["", 1, -1, 1, 13, 31, -56, 72, 2, 41, 5, 63, -2, -3, -2, 3, -71, -26, 52, 13, -31, 24, -67, 2, -2, 5, 4, 66, 43, 72, 9, 86, -26, 44], "withholdReward": false, "trial_id": "mdp_trial_20", "block": "test", "trialIndex": 21, "score": 67, "costs": -14.000000000000002, "simulationMode": [null, null, null, null, null], "rewards": [2, -2, 5, 4, 72], "path": ["0", "0", "23", "24", "25", "26", "29"], "rt": [23568, 70, 85, 206, 517], "actions": ["left", "left", "left", "up", "left"], "actionTimes": [25126, 25714, 26310, 27030, 28058], "queries": {"click": {"state": {"target": ["5", "9", "27", "32", "21", "16", "17", "20", "33", "29"], "time": [2897, 4975, 6970, 8924, 10956, 13045, 15097, 17514, 20320, 22740]}, "edge": {"target": [], "time": []}}, "mouseover": {"state": {"target": ["7", "4", "5", "6", "3", "9", "11", "27", "26", "25", "30", "32", "21", "19", "16", "17", "20", "33", "29"], "time": [2247, 2281, 2597, 3330, 3464, 3664, 5528, 5661, 7376, 7413, 7476, 7659, 9773, 11406, 11722, 13703, 16318, 20047, 21545]}, "edge": {"target": [], "time": []}}, "mouseout": {"state": {"target": ["21", "0", "7", "4", "5", "5", "6", "3", "9", "11", "27", "26", "25", "30", "32", "21", "19", "16", "17", "17", "20", "33"], "time": [751, 2187, 2264, 2314, 3111, 3297, 3380, 3497, 5478, 5544, 7359, 7401, 7442, 7542, 9324, 11405, 11422, 13537, 15323, 15519, 17949, 21396]}, "edge": {"target": [], "time": []}}}, "displayed_time": "28.57", "trialTime": 29949, "trial_type": "mouselab-mdp", "trial_index": 28, "time_elapsed": 1628764, "internal_node_id": "0.0-4.0-1.0-19.0"}}, {"uniqueid": "w19237186:a48609645", "current_trial": 29, "dateTime": 1691072529575, "trialdata": {"revealed_states": [], "clicked_states": ["17"], "num_clicks_accrued": [0, 0, 0, 0, 0, 0, 0, 0, 0, 0, 0, 0, 0], "stateRewards": ["", 2, -1, -1, 7, 11, -40, -22, -2, 69, 37, 8, -2, 4, -8, -12, -2, -72, -3, -12, 17, 63, 12, 1, 3, -7, 6, 25, 61, 61, -9, 28, -17, 27], "withholdReward": false, "trial_id": "mdp_trial_21", "block": "test", "trialIndex": 22, "score": -21.4, "costs": -1.4, "simulationMode": [null, null, null, null, null], "rewards": [-2, 4, -8, -12, -2], "path": ["0", "0", "12", "13", "14", "15", "16"], "rt": [10785, 520, 1803, 2471, 863], "actions": ["right", "right", "right", "up", "up"], "actionTimes": [12964, 13988, 16304, 19286, 20664], "queries": {"click": {"state": {"target": ["17"], "time": [3521]}, "edge": {"target": [], "time": []}}, "mouseover": {"state": {"target": ["16", "17", "22"], "time": [3010, 3194, 8143]}, "edge": {"target": [], "time": []}}, "mouseout": {"state": {"target": ["29", "26", "28", "1", "0", "16", "17"], "time": [1028, 1061, 1094, 1260, 2840, 3104, 8141]}, "edge": {"target": [], "time": []}}}, "displayed_time": "21.18", "trialTime": 24520, "trial_type": "mouselab-mdp", "trial_index": 29, "time_elapsed": 1653558, "internal_node_id": "0.0-4.0-1.0-20.0"}}, {"uniqueid": "w19237186:a48609645", "current_trial": 30, "dateTime": 1691072548350, "trialdata": {"revealed_states": [], "clicked_states": ["29", "32", "31", "33"], "num_clicks_accrued": [0, 0, 0, 0, 0, 0, 0, 0, 0, 0, 0, 0, 0], "stateRewards": ["", 2, -3, -8, 14, -7, -51, 73, 2, 36, 36, -43, -1, 3, -4, 1, 6, 87, -65, 15, 61, -42, -83, -1, 3, -2, -7, 30, -48, 35, 13, 26, 60, 78], "withholdReward": false, "trial_id": "mdp_trial_22", "block": "test", "trialIndex": 23, "score": 85.4, "costs": -5.6, "simulationMode": [null, null, null, null, null], "rewards": [-1, 3, -2, 13, 78], "path": ["0", "0", "23", "24", "25", "30", "33"], "rt": [11887, 54, 91, 617, 56], "actions": ["left", "left", "left", "down", "left"], "actionTimes": [13990, 14569, 15172, 16299, 16872], "queries": {"click": {"state": {"target": ["29", "32", "31", "33"], "time": [3567, 5812, 9218, 11438]}, "edge": {"target": [], "time": []}}, "mouseover": {"state": {"target": ["26", "29", "30", "32", "33", "30", "31", "30", "33", "21"], "time": [3108, 3274, 4207, 4790, 6787, 8502, 8603, 9752, 9785, 12033]}, "edge": {"target": [], "time": []}}, "mouseout": {"state": {"target": ["22", "0", "26", "29", "30", "32", "33", "30", "31", "30", "33", "21"], "time": [809, 1275, 3157, 4058, 4257, 6571, 8468, 8535, 9735, 9768, 11657, 12049]}, "edge": {"target": [], "time": []}}}, "displayed_time": "17.39", "trialTime": 18567, "trial_type": "mouselab-mdp", "trial_index": 30, "time_elapsed": 1672332, "internal_node_id": "0.0-4.0-1.0-21.0"}}, {"uniqueid": "w19237186:a48609645", "current_trial": 31, "dateTime": 1691072569851, "trialdata": {"revealed_states": [], "clicked_states": ["16", "17", "21", "9", "11"], "num_clicks_accrued": [0, 0, 0, 0, 0, 0, 0, 0, 0, 0, 0, 0, 0], "stateRewards": ["", 2, -2, 7, -11, -76, -65, -23, 16, -58, 30, 81, 1, 2, 7, 14, 9, 55, -2, 6, 11, -15, 31, -1, -1, -3, 2, 15, 2, 46, 15, 18, 45, -34], "withholdReward": false, "trial_id": "mdp_trial_23", "block": "test", "trialIndex": 24, "score": 97, "costs": -7, "simulationMode": [null, null, null, null, null], "rewards": [2, -2, 7, 16, 81], "path": ["0", "0", "1", "2", "3", "8", "11"], "rt": [15116, 402, 196, 18, 57], "actions": ["up", "up", "up", "left", "left"], "actionTimes": [16885, 17797, 18504, 19041, 19612], "queries": {"click": {"state": {"target": ["16", "17", "21", "9", "11"], "time": [4387, 6731, 9110, 11999, 14167]}, "edge": {"target": [], "time": []}}, "mouseover": {"state": {"target": ["7", "6", "16", "17", "21", "32", "30", "25", "26", "9", "11", "5"], "time": [3703, 3769, 4102, 5202, 7299, 10083, 11028, 11046, 11063, 11729, 12794, 14592]}, "edge": {"target": [], "time": []}}, "mouseout": {"state": {"target": ["21", "0", "7", "6", "16", "17", "21", "32", "30", "25", "26", "9", "11", "5"], "time": [988, 3660, 3736, 3786, 5135, 7083, 9598, 11013, 11045, 11062, 11078, 12744, 14509, 16224]}, "edge": {"target": [], "time": []}}}, "displayed_time": "20.12", "trialTime": 21301, "trial_type": "mouselab-mdp", "trial_index": 31, "time_elapsed": 1693833, "internal_node_id": "0.0-4.0-1.0-22.0"}}, {"uniqueid": "w19237186:a48609645", "current_trial": 32, "dateTime": 1691072608968, "trialdata": {"revealed_states": [], "clicked_states": ["5", "11", "6", "27", "28", "33", "32", "21", "20", "22", "31", "29", "9"], "num_clicks_accrued": [0, 0, 0, 0, 0, 0, 0, 0, 0, 0, 0, 0, 0], "stateRewards": ["", 1, -2, -8, -13, 4, 34, -84, -4, -49, 88, -70, -1, 3, -4, 10, -77, 13, -34, 15, -21, -16, 27, 1, -2, 8, -8, -6, 38, -26, 6, -15, 66, -3], "withholdReward": false, "trial_id": "mdp_trial_24", "block": "test", "trialIndex": 25, "score": 60.8, "costs": -18.2, "simulationMode": [null, null, null, null, null], "rewards": [1, -2, 8, 6, 66], "path": ["0", "0", "23", "24", "25", "30", "32"], "rt": [31214, 251, 239, 396, 86], "actions": ["left", "left", "left", "down", "down"], "actionTimes": [32555, 33322, 34075, 34981, 35585], "queries": {"click": {"state": {"target": ["5", "11", "6", "27", "28", "33", "32", "21", "20", "22", "31", "29", "9"], "time": [2673, 5378, 7357, 9853, 11826, 13782, 15876, 19603, 21729, 23761, 26070, 28542, 30618]}, "edge": {"target": [], "time": []}}, "mouseover": {"state": {"target": ["7", "6", "5", "11", "4", "6", "4", "3", "8", "11", "6", "15", "14", "1", "28", "25", "30", "32", "30", "25", "26", "27", "26", "28", "28", "26", "33", "33", "32", "19", "21", "20", "22", "22", "23", "24", "31", "25", "29", "27", "11", "9"], "time": [1813, 1912, 2246, 3412, 4310, 4644, 4793, 4843, 4894, 4960, 6143, 7874, 7958, 8157, 8241, 8324, 8441, 8624, 9072, 9124, 9272, 9422, 10406, 10472, 10706, 12236, 12371, 12819, 14285, 18997, 19263, 20346, 22161, 22427, 24258, 24309, 24842, 27272, 27954, 29121, 29154, 29786]}, "edge": {"target": [], "time": []}}, "mouseout": {"state": {"target": ["3", "1", "0", "7", "6", "5", "11", "4", "6", "4", "3", "8", "11", "6", "15", "14", "1", "28", "25", "30", "32", "30", "25", "26", "27", "26", "28", "28", "26", "33", "33", "32", "19", "21", "20", "22", "22", "23", "24", "31", "25", "29", "27", "11"], "time": [565, 714, 1747, 1847, 1979, 3079, 4244, 4378, 4777, 4827, 4876, 4926, 5744, 7808, 7908, 8107, 8175, 8258, 8374, 8507, 9039, 9106, 9173, 9306, 10372, 10456, 10505, 12220, 12319, 12420, 14184, 16299, 19029, 20046, 22128, 22195, 24209, 24292, 24475, 26906, 27689, 29104, 29137, 29187]}, "edge": {"target": [], "time": []}}}, "displayed_time": "36.10", "trialTime": 38731, "trial_type": "mouselab-mdp", "trial_index": 32, "time_elapsed": 1732951, "internal_node_id": "0.0-4.0-1.0-23.0"}}, {"uniqueid": "w19237186:a48609645", "current_trial": 33, "dateTime": 1691072636984, "trialdata": {"revealed_states": [], "clicked_states": ["9", "5", "11", "27", "32", "16", "21", "20", "22"], "num_clicks_accrued": [0, 0, 0, 0, 0, 0, 0, 0, 0, 0, 0, 0, 0], "stateRewards": ["", -1, -4, -1, -11, 43, 69, 39, 4, 17, -20, -82, -2, -1, 4, 8, -79, 24, -79, 11, 36, 64, 41, 2, 4, -1, 11, -79, -47, 75, -3, 63, -36, -19], "withholdReward": false, "trial_id": "mdp_trial_25", "block": "test", "trialIndex": 26, "score": 63.4, "costs": -12.600000000000001, "simulationMode": [null, null, null, null, null], "rewards": [-2, -1, 4, 11, 64], "path": ["0", "0", "12", "13", "14", "19", "21"], "rt": [21789, 50, 10, 121, 25], "actions": ["right", "right", "right", "down", "down"], "actionTimes": [23885, 24446, 24989, 25632, 26169], "queries": {"click": {"state": {"target": ["9", "5", "11", "27", "32", "16", "21", "20", "22"], "time": [4608, 6836, 8800, 10883, 12819, 15148, 17145, 19474, 21835]}, "edge": {"target": [], "time": []}}, "mouseover": {"state": {"target": ["1", "9", "4", "5", "11", "11", "27", "32", "12", "15", "17", "16", "15", "14", "19", "21", "20", "19", "22"], "time": [3582, 4232, 6329, 6479, 7295, 7694, 9426, 11891, 13206, 13255, 13356, 13605, 15537, 15556, 15573, 15654, 17652, 20282, 20565]}, "edge": {"target": [], "time": []}}, "mouseout": {"state": {"target": ["9", "2", "1", "0", "1", "9", "4", "5", "11", "11", "27", "32", "12", "15", "17", "16", "16", "15", "14", "19", "21", "20", "19", "22"], "time": [817, 884, 917, 1417, 3632, 5615, 6429, 7262, 7312, 9310, 11208, 13159, 13222, 13273, 13390, 15354, 15521, 15555, 15571, 15604, 17602, 20266, 20299, 22347]}, "edge": {"target": [], "time": []}}}, "displayed_time": "26.68", "trialTime": 27605, "trial_type": "mouselab-mdp", "trial_index": 33, "time_elapsed": 1760967, "internal_node_id": "0.0-4.0-1.0-24.0"}}, {"uniqueid": "w19237186:a48609645", "current_trial": 34, "dateTime": 1691072671162, "trialdata": {"revealed_states": [], "clicked_states": ["29", "33", "32", "31", "21", "20", "16", "17", "5", "9", "10", "7"], "num_clicks_accrued": [0, 0, 0, 0, 0, 0, 0, 0, 0, 0, 0, 0, 0], "stateRewards": ["", 2, -1, 5, 6, 10, 86, 55, 10, -45, 63, -71, 1, -2, 5, -8, -50, -72, 36, 15, 61, 12, 33, -1, -4, 6, 5, 79, -56, -21, -16, -87, 60, -81], "withholdReward": false, "trial_id": "mdp_trial_26", "block": "test", "trialIndex": 27, "score": 62.2, "costs": -16.8, "simulationMode": [null, null, null, null, null], "rewards": [2, -1, 5, 10, 63], "path": ["0", "0", "1", "2", "3", "8", "10"], "rt": [27543, 506, 63, 85, 32], "actions": ["up", "up", "up", "left", "down"], "actionTimes": [28891, 29908, 30482, 31085, 31631], "queries": {"click": {"state": {"target": ["29", "33", "32", "31", "21", "20", "16", "17", "5", "9", "10", "7"], "time": [2884, 5533, 7515, 9566, 11697, 13897, 16060, 18057, 20505, 22518, 24918, 26892]}, "edge": {"target": [], "time": []}}, "mouseover": {"state": {"target": ["23", "24", "26", "29", "33", "33", "32", "31", "21", "20", "16", "17", "15", "18", "5", "9", "11", "10", "10", "2", "7"], "time": [1960, 1993, 2211, 2394, 3792, 5190, 6023, 8070, 10335, 12200, 14981, 16812, 18594, 18611, 20293, 21258, 22973, 23922, 24588, 25337, 25487]}, "edge": {"target": [], "time": []}}, "mouseout": {"state": {"target": ["0", "23", "24", "26", "29", "33", "33", "32", "31", "21", "20", "16", "17", "15", "18", "5", "9", "9", "11", "10", "10", "2"], "time": [1942, 1977, 2010, 2294, 3226, 4673, 5973, 7971, 9952, 12117, 14465, 16529, 18577, 18610, 18627, 20993, 22744, 22923, 23789, 24190, 25304, 25387]}, "edge": {"target": [], "time": []}}}, "displayed_time": "32.16", "trialTime": 33986, "trial_type": "mouselab-mdp", "trial_index": 34, "time_elapsed": 1795145, "internal_node_id": "0.0-4.0-1.0-25.0"}}, {"uniqueid": "w19237186:a48609645", "current_trial": 35, "dateTime": 1691072700499, "trialdata": {"revealed_states": [], "clicked_states": ["10", "7", "21", "20", "17", "16", "32", "29", "27"], "num_clicks_accrued": [0, 0, 0, 0, 0, 0, 0, 0, 0, 0, 0, 0, 0], "stateRewards": ["", -1, 1, 6, -6, 70, 66, 67, -16, -75, -35, 37, -1, 4, 4, -6, 47, -9, 63, 15, 21, -63, 13, 1, 3, -6, 10, 79, -29, 18, -15, 9, -67, -19], "withholdReward": false, "trial_id": "mdp_trial_27", "block": "test", "trialIndex": 28, "score": 74.4, "costs": -12.600000000000001, "simulationMode": [null, null, null, null, null], "rewards": [1, 3, -6, 10, 79], "path": ["0", "0", "23", "24", "25", "26", "27"], "rt": [22178, 546, 55, 101, 29], "actions": ["left", "left", "left", "up", "up"], "actionTimes": [24418, 25472, 26047, 26660, 27202], "queries": {"click": {"state": {"target": ["10", "7", "21", "20", "17", "16", "32", "29", "27"], "time": [4092, 6065, 8318, 11234, 13366, 15329, 17568, 19636, 21686]}, "edge": {"target": [], "time": []}}, "mouseover": {"state": {"target": ["23", "30", "32", "24", "28", "8", "8", "10", "2", "7", "18", "21", "20", "17", "16", "1", "33", "32", "33", "29", "27", "28"], "time": [2681, 2812, 2947, 3295, 3313, 3497, 3629, 3696, 4478, 4578, 6476, 7059, 8840, 11804, 14135, 15767, 15850, 16167, 18115, 18387, 20129, 23576]}, "edge": {"target": [], "time": []}}, "mouseout": {"state": {"target": ["7", "0", "0", "23", "30", "32", "24", "28", "8", "8", "10", "2", "7", "18", "21", "20", "17", "16", "1", "33", "32", "33", "29", "27", "28"], "time": [1115, 1246, 1613, 2696, 2829, 3279, 3312, 3328, 3579, 3662, 4461, 4511, 6460, 6493, 8774, 11721, 13584, 15734, 15783, 15867, 18015, 18165, 20063, 23492, 23826]}, "edge": {"target": [], "time": []}}}, "displayed_time": "27.71", "trialTime": 29111, "trial_type": "mouselab-mdp", "trial_index": 35, "time_elapsed": 1824482, "internal_node_id": "0.0-4.0-1.0-26.0"}}, {"uniqueid": "w19237186:a48609645", "current_trial": 36, "dateTime": 1691072729406, "trialdata": {"revealed_states": [], "clicked_states": ["32", "27", "10", "5", "7", "9", "16", "21", "20"], "num_clicks_accrued": [0, 0, 0, 0, 0, 0, 0, 0, 0, 0, 0, 0, 0], "stateRewards": ["", -1, 3, 1, -7, 56, 76, 57, 3, 11, -9, 14, 1, -2, 2, 8, -77, -3, 79, -5, 88, 24, -66, -2, -1, 7, -7, -30, 14, -76, 11, -36, 28, -6], "withholdReward": false, "trial_id": "mdp_trial_28", "block": "test", "trialIndex": 29, "score": 71.4, "costs": -12.600000000000001, "simulationMode": [null, null, null, null, null], "rewards": [1, -2, 2, -5, 88], "path": ["0", "0", "12", "13", "14", "19", "20"], "rt": [22266, 70, 594, 42, 107], "actions": ["right", "right", "right", "down", "right"], "actionTimes": [24231, 24811, 25917, 26464, 27079], "queries": {"click": {"state": {"target": ["32", "27", "10", "5", "7", "9", "16", "21", "20"], "time": [3337, 5891, 7972, 9881, 11748, 13825, 15888, 19183, 21508]}, "edge": {"target": [], "time": []}}, "mouseover": {"state": {"target": ["23", "24", "30", "32", "32", "31", "25", "27", "11", "8", "10", "3", "5", "4", "7", "3", "9", "6", "16", "17", "20", "21", "21", "20", "19", "22"], "time": [2626, 2677, 2744, 2876, 2977, 4026, 5125, 5609, 6423, 6723, 6824, 8555, 8771, 10260, 10320, 12284, 12385, 14316, 14665, 16314, 17745, 17963, 18946, 19960, 22125, 22175]}, "edge": {"target": [], "time": []}}, "mouseout": {"state": {"target": ["0", "0", "23", "24", "30", "32", "32", "31", "25", "27", "11", "8", "10", "3", "5", "4", "7", "3", "9", "6", "16", "17", "20", "21", "21", "20", "19"], "time": [1162, 2610, 2661, 2710, 2793, 2894, 3928, 5058, 5174, 6407, 6441, 6756, 8489, 8655, 10258, 10267, 11952, 12318, 14216, 14367, 16264, 17695, 17829, 18045, 19893, 22092, 22142]}, "edge": {"target": [], "time": []}}}, "displayed_time": "27.59", "trialTime": 28694, "trial_type": "mouselab-mdp", "trial_index": 36, "time_elapsed": 1853388, "internal_node_id": "0.0-4.0-1.0-27.0"}}, {"uniqueid": "w19237186:a48609645", "current_trial": 37, "dateTime": 1691072755346, "trialdata": {"revealed_states": [], "clicked_states": ["5", "9", "21", "32", "17", "20", "27", "29"], "num_clicks_accrued": [0, 0, 0, 0, 0, 0, 0, 0, 0, 0, 0, 0, 0], "stateRewards": ["", 1, -1, 8, -3, 38, 85, -20, -4, 8, 23, 73, 2, -4, 6, -13, 44, 7, -28, -11, -77, 45, -69, 1, -1, -7, -11, 75, -51, -87, 7, 36, -53, -26], "withholdReward": false, "trial_id": "mdp_trial_29", "block": "test", "trialIndex": 30, "score": 45.8, "costs": -11.200000000000001, "simulationMode": [null, null, null, null, null], "rewards": [1, -1, -7, -11, 75], "path": ["0", "0", "23", "24", "25", "26", "27"], "rt": [18614, 75, 78, 41, 12], "actions": ["left", "left", "left", "up", "up"], "actionTimes": [20093, 20672, 21259, 21803, 22325], "queries": {"click": {"state": {"target": ["5", "9", "21", "32", "17", "20", "27", "29"], "time": [2776, 4791, 7051, 9153, 11938, 14487, 16260, 18168]}, "edge": {"target": [], "time": []}}, "mouseover": {"state": {"target": ["4", "5", "5", "9", "3", "13", "22", "12", "22", "21", "32", "18", "15", "17", "17", "20", "21", "20", "19", "0", "23", "24", "25", "29", "29", "27", "29", "26"], "time": [2163, 2396, 2543, 3546, 5249, 5310, 5343, 5793, 5910, 6259, 7758, 9972, 10456, 10771, 11637, 12403, 13186, 14186, 14869, 14901, 14918, 14935, 14967, 15342, 15483, 15700, 16716, 18664]}, "edge": {"target": [], "time": []}}, "mouseout": {"state": {"target": ["22", "0", "4", "5", "5", "9", "9", "3", "13", "22", "12", "22", "21", "32", "18", "15", "17", "17", "20", "21", "20", "19", "0", "23", "24", "25", "29", "29", "27", "29", "26"], "time": [781, 2047, 2363, 2481, 2988, 5006, 5227, 5262, 5327, 5460, 5843, 5926, 7476, 9890, 10006, 10488, 10972, 12337, 12470, 14019, 14868, 14884, 14917, 14934, 14951, 15301, 15417, 15567, 16670, 18648, 18680]}, "edge": {"target": [], "time": []}}}, "displayed_time": "22.84", "trialTime": 25745, "trial_type": "mouselab-mdp", "trial_index": 37, "time_elapsed": 1879328, "internal_node_id": "0.0-4.0-1.0-28.0"}}, {"uniqueid": "w19237186:a48609645", "current_trial": 38, "dateTime": 1691072772219, "trialdata": {"revealed_states": [], "clicked_states": ["5", "17", "32"], "num_clicks_accrued": [0, 0, 0, 0, 0, 0, 0, 0, 0, 0, 0, 0, 0], "stateRewards": ["", 2, 3, 6, -5, -74, -53, 17, -12, 46, 44, 18, -2, 4, 1, -8, 22, -23, -49, 9, -45, 55, 81, 1, -1, -7, -16, -83, -71, -45, 2, 51, 82, 61], "withholdReward": false, "trial_id": "mdp_trial_30", "block": "test", "trialIndex": 31, "score": 72.8, "costs": -4.199999999999999, "simulationMode": [null, null, null, null, null], "rewards": [1, -1, -7, 2, 82], "path": ["0", "0", "23", "24", "25", "30", "32"], "rt": [10191, 338, 81, 64, 3], "actions": ["left", "left", "left", "down", "down"], "actionTimes": [11700, 12552, 13144, 13726, 14248], "queries": {"click": {"state": {"target": ["5", "17", "32"], "time": [2829, 4691, 8199]}, "edge": {"target": [], "time": []}}, "mouseover": {"state": {"target": ["7", "4", "5", "6", "14", "17", "20", "21", "32", "32", "22", "19"], "time": [2156, 2287, 2471, 3221, 3304, 3803, 5102, 5552, 7566, 7915, 8798, 8831]}, "edge": {"target": [], "time": []}}, "mouseout": {"state": {"target": ["28", "0", "7", "4", "5", "6", "14", "17", "20", "21", "32", "32", "22", "19"], "time": [739, 2086, 2237, 2304, 3033, 3237, 3387, 5003, 5202, 7033, 7700, 8748, 8815, 8915]}, "edge": {"target": [], "time": []}}}, "displayed_time": "15.51", "trialTime": 16587, "trial_type": "mouselab-mdp", "trial_index": 38, "time_elapsed": 1896201, "internal_node_id": "0.0-4.0-1.0-29.0"}}, {"uniqueid": "w19237186:a48609645", "current_trial": 39, "dateTime": 1691072790582, "trialdata": {"revealed_states": [], "clicked_states": ["29", "27"], "num_clicks_accrued": [0, 0, 0, 0, 0, 0, 0, 0, 0, 0, 0, 0, 0], "stateRewards": ["", 2, -1, 4, -9, -43, 7, 54, -13, 38, -40, -83, -1, 2, -8, -10, 34, -33, 11, -14, -79, 65, 26, 1, 2, 4, 10, 21, 1, 86, 4, -53, 28, -29], "withholdReward": false, "trial_id": "mdp_trial_31", "block": "test", "trialIndex": 32, "score": 100.2, "costs": -2.8, "simulationMode": [null, null, null, null, null], "rewards": [1, 2, 4, 10, 86], "path": ["0", "0", "23", "24", "25", "26", "29"], "rt": [5640, 44, 54, 18, 436], "actions": ["left", "left", "left", "up", "left"], "actionTimes": [7247, 7800, 8360, 8906, 9856], "queries": {"click": {"state": {"target": ["29", "27"], "time": [3434, 5372]}, "edge": {"target": [], "time": []}}, "mouseover": {"state": {"target": ["24", "25", "29", "29", "26", "28", "27"], "time": [2493, 2526, 2909, 3143, 3892, 4042, 4641]}, "edge": {"target": [], "time": []}}, "mouseout": {"state": {"target": ["21", "0", "24", "25", "29", "29", "26", "28"], "time": [761, 2444, 2510, 2609, 2959, 3647, 3958, 4575]}, "edge": {"target": [], "time": []}}}, "displayed_time": "15.61", "trialTime": 18140, "trial_type": "mouselab-mdp", "trial_index": 39, "time_elapsed": 1914565, "internal_node_id": "0.0-4.0-1.0-30.0"}}, {"uniqueid": "w19237186:a48609645", "current_trial": 40, "dateTime": 1691072811268, "trialdata": {"revealed_states": [], "clicked_states": ["33", "32", "21"], "num_clicks_accrued": [0, 0, 0, 0, 0, 0, 0, 0, 0, 0, 0, 0, 0], "stateRewards": ["", 1, -2, 7, -14, 88, -56, -44, -14, 64, -51, -57, -2, 3, -4, -9, -11, 19, -77, -1, 68, 75, -67, -1, 1, -2, 5, -37, 70, -34, -10, -72, 63, -41], "withholdReward": false, "trial_id": "mdp_trial_32", "block": "test", "trialIndex": 33, "score": 66.8, "costs": -4.199999999999999, "simulationMode": [null, null, null, null, null], "rewards": [-2, 3, -4, -1, 75], "path": ["0", "0", "12", "13", "14", "19", "21"], "rt": [8935, 510, 67, 21, 36], "actions": ["right", "right", "right", "down", "down"], "actionTimes": [13438, 14459, 15030, 15566, 16115], "queries": {"click": {"state": {"target": ["33", "32", "21"], "time": [6237, 8203, 10145]}, "edge": {"target": [], "time": []}}, "mouseover": {"state": {"target": ["33", "33", "32", "21", "20"], "time": [5604, 5970, 6820, 8967, 10766]}, "edge": {"target": [], "time": []}}, "mouseout": {"state": {"target": ["27", "0", "33", "33", "32", "21", "20", "14", "13"], "time": [2973, 5539, 5620, 6637, 8584, 10583, 11631, 20123, 20140]}, "edge": {"target": [], "time": []}}}, "displayed_time": "18.50", "trialTime": 20440, "trial_type": "mouselab-mdp", "trial_index": 40, "time_elapsed": 1935239, "internal_node_id": "0.0-4.0-1.0-31.0"}}, {"uniqueid": "w19237186:a48609645", "current_trial": 41, "dateTime": 1691072843871, "trialdata": {"revealed_states": [], "clicked_states": ["6", "11", "29", "28", "31", "17", "20", "21", "10", "7", "32"], "num_clicks_accrued": [0, 0, 0, 0, 0, 0, 0, 0, 0, 0, 0, 0, 0], "stateRewards": ["", 2, -4, -4, 13, -80, 62, 13, -11, 57, -13, -44, 1, 4, 3, -4, -29, -88, 15, 16, -58, 68, -45, -1, -3, -1, -9, -44, -86, -19, -7, -36, 59, 66], "withholdReward": false, "trial_id": "mdp_trial_33", "block": "test", "trialIndex": 34, "score": 76.6, "costs": -15.400000000000002, "simulationMode": [null, null, null, null, null], "rewards": [1, 4, 3, 16, 68], "path": ["0", "0", "12", "13", "14", "19", "21"], "rt": [25068, 312, 18, 2, 498], "actions": ["right", "right", "right", "down", "down"], "actionTimes": [26642, 27459, 27997, 28513, 29543], "queries": {"click": {"state": {"target": ["6", "11", "29", "28", "31", "17", "20", "21", "10", "7", "32"], "time": [2939, 4830, 6795, 8768, 10772, 12761, 14768, 16779, 19445, 21391, 24065]}, "edge": {"target": [], "time": []}}, "mouseover": {"state": {"target": ["7", "5", "6", "4", "8", "11", "27", "29", "29", "26", "28", "28", "31", "18", "17", "20", "21", "22", "12", "1", "2", "10", "10", "2", "7", "1", "23", "31", "32"], "time": [2020, 2269, 2535, 3303, 3368, 3535, 5317, 5399, 5699, 7198, 7498, 8416, 9246, 11144, 11927, 13342, 15440, 17238, 18287, 18354, 18437, 18786, 19171, 19886, 20169, 23032, 23082, 23182, 23682]}, "edge": {"target": [], "time": []}}, "mouseout": {"state": {"target": ["0", "7", "5", "6", "4", "8", "11", "27", "29", "29", "26", "28", "28", "31", "18", "17", "17", "20", "21", "22", "12", "1", "2", "10", "10", "2", "7", "1", "23", "31"], "time": [1975, 2036, 2485, 3302, 3318, 3402, 5283, 5350, 5500, 7166, 7281, 7648, 9163, 11095, 11161, 12974, 13193, 15307, 17189, 17838, 18305, 18370, 18770, 18836, 19669, 19986, 23015, 23066, 23116, 23215]}, "edge": {"target": [], "time": []}}}, "displayed_time": "30.06", "trialTime": 31837, "trial_type": "mouselab-mdp", "trial_index": 41, "time_elapsed": 1967852, "internal_node_id": "0.0-4.0-1.0-32.0"}}, {"uniqueid": "w19237186:a48609645", "current_trial": 42, "dateTime": 1691072885749, "trialdata": {"revealed_states": [], "clicked_states": ["9", "11", "27", "29", "33", "32", "31", "28", "22", "21", "20", "17", "16", "18", "6", "5"], "num_clicks_accrued": [0, 0, 0, 0, 0, 0, 0, 0, 0, 0, 0, 0, 0], "stateRewards": ["", 2, 4, -6, -13, -75, -81, 30, 7, 5, 59, -65, -1, -1, 7, 14, -38, 36, -41, 1, -54, -5, 64, 2, -1, 5, 6, -19, 79, 11, 16, -33, -50, 58], "withholdReward": false, "trial_id": "mdp_trial_34", "block": "test", "trialIndex": 35, "score": -29.399999999999995, "costs": -22.399999999999995, "simulationMode": [null, null, null, null, null], "rewards": [2, -1, 5, 6, -19], "path": ["0", "0", "23", "24", "25", "26", "27"], "rt": [31712, 151, 261, 151, 2598], "actions": ["left", "left", "left", "up", "up"], "actionTimes": [33575, 34235, 35010, 35664, 38780], "queries": {"click": {"state": {"target": ["9", "11", "27", "29", "33", "32", "31", "28", "22", "21", "20", "17", "16", "18", "6", "5"], "time": [2998, 4906, 6721, 8468, 10321, 11903, 13875, 16018, 17911, 19843, 21833, 23744, 25633, 27577, 29471, 31463]}, "edge": {"target": [], "time": []}}, "mouseover": {"state": {"target": ["1", "8", "9", "11", "27", "29", "33", "32", "31", "24", "28", "22", "21", "20", "17", "16", "18", "6", "6", "5"], "time": [2294, 2427, 2727, 3460, 5375, 7489, 9138, 10936, 12401, 14549, 14883, 16747, 18578, 20361, 22426, 24374, 26321, 28003, 28320, 29968]}, "edge": {"target": [], "time": []}}, "mouseout": {"state": {"target": ["32", "0", "0", "1", "8", "9", "11", "27", "27", "29", "33", "32", "31", "24", "28", "22", "21", "20", "17", "16", "18", "6", "6", "5"], "time": [995, 1399, 2275, 2311, 2494, 3394, 5309, 6937, 7124, 9054, 10704, 12368, 14533, 14583, 16248, 18446, 20261, 22259, 24198, 25848, 27794, 28053, 29884, 31674]}, "edge": {"target": [], "time": []}}}, "displayed_time": "39.30", "trialTime": 41361, "trial_type": "mouselab-mdp", "trial_index": 42, "time_elapsed": 2009731, "internal_node_id": "0.0-4.0-1.0-33.0"}}, {"uniqueid": "w19237186:a48609645", "current_trial": 43, "dateTime": 1691072921519, "trialdata": {"revealed_states": [], "clicked_states": ["27", "33", "32", "21", "20", "17", "5", "9", "11", "6", "7", "10", "22", "31"], "num_clicks_accrued": [0, 0, 0, 0, 0, 0, 0, 0, 0, 0, 0, 0, 0], "stateRewards": ["", 2, -3, 5, -14, -63, -9, -24, -11, -54, -43, 68, 2, -2, -4, 7, -64, 30, 47, 12, -74, 11, 86, 1, -3, 3, 10, -71, -42, -52, -1, -29, -16, 69], "withholdReward": false, "trial_id": "mdp_trial_35", "block": "test", "trialIndex": 36, "score": 74.4, "costs": -19.599999999999998, "simulationMode": [null, null, null, null, null, null], "rewards": [2, -2, -4, 12, 86], "path": ["0", "0", "12", "13", "14", "19", "22"], "rt": [27813, 1441, 54, 526, 23, 110], "actions": ["right", "right", "right", "right", "down", "left"], "actionTimes": [29677, 31120, 31689, 32743, 33273, 33908], "queries": {"click": {"state": {"target": ["27", "33", "32", "21", "20", "17", "5", "9", "11", "6", "7", "10", "22", "31"], "time": [2957, 5077, 6976, 8923, 11069, 12999, 14947, 17063, 18983, 20962, 22956, 25323, 26958, 28932]}, "edge": {"target": [], "time": []}}, "mouseover": {"state": {"target": ["23", "29", "27", "29", "33", "32", "19", "21", "20", "17", "16", "6", "5", "9", "11", "8", "6", "7", "2", "10", "22", "31", "31"], "time": [2278, 2429, 2661, 3461, 4643, 5692, 7474, 7840, 9539, 11736, 13417, 13635, 13867, 15466, 17881, 19295, 19645, 21660, 23359, 23441, 26056, 27421, 27887]}, "edge": {"target": [], "time": []}}, "mouseout": {"state": {"target": ["5", "3", "2", "1", "0", "0", "0", "23", "29", "27", "29", "33", "32", "19", "21", "20", "17", "16", "6", "5", "9", "9", "11", "8", "6", "6", "7", "2", "10", "22", "31"], "time": [680, 729, 747, 780, 896, 1146, 2264, 2295, 2445, 3381, 4294, 5508, 7340, 7658, 9127, 11487, 13385, 13518, 13735, 15383, 17276, 17614, 19195, 19313, 21180, 21543, 23358, 23391, 25722, 27354, 27804]}, "edge": {"target": [], "time": []}}}, "displayed_time": "34.41", "trialTime": 35538, "trial_type": "mouselab-mdp", "trial_index": 43, "time_elapsed": 2045501, "internal_node_id": "0.0-4.0-1.0-34.0"}}, {"uniqueid": "w19237186:a48609645", "current_trial": 44, "dateTime": 1691072958400, "trialdata": {"revealed_states": [], "clicked_states": ["28", "20", "22", "32", "33", "31", "5", "9", "11", "6", "7", "10", "21"], "num_clicks_accrued": [0, 0, 0, 0, 0, 0, 0, 0, 0, 0, 0, 0, 0], "stateRewards": ["", -1, 3, 8, 9, -53, 20, -84, 2, -28, -62, -31, -1, -2, -7, 2, 51, 58, 45, -4, -17, -41, 36, 2, -2, -7, -15, 29, -54, -37, -16, -43, 65, -17], "withholdReward": false, "trial_id": "mdp_trial_36", "block": "test", "trialIndex": 37, "score": 23.799999999999997, "costs": -18.2, "simulationMode": [null, null, null, null, null], "rewards": [2, -2, -7, -16, 65], "path": ["0", "0", "23", "24", "25", "30", "32"], "rt": [28195, 5, 467, 463, 81], "actions": ["left", "left", "left", "down", "down"], "actionTimes": [31926, 32451, 33446, 34423, 35023], "queries": {"click": {"state": {"target": ["28", "20", "22", "32", "33", "31", "5", "9", "11", "6", "7", "10", "21"], "time": [5672, 8379, 10313, 12420, 15187, 17088, 18959, 20809, 22704, 24582, 26464, 28042, 30035]}, "edge": {"target": [], "time": []}}, "mouseover": {"state": {"target": ["1", "2", "3", "9", "11", "26", "28", "22", "19", "20", "20", "21", "22", "32", "33", "30", "31", "23", "2", "4", "5", "5", "9", "11", "6", "7", "2", "10", "19", "21"], "time": [4405, 4455, 4505, 4571, 4788, 4921, 5270, 6071, 6203, 6519, 8017, 8984, 9217, 11165, 13180, 15627, 15661, 17525, 17576, 17658, 17975, 18242, 19407, 21605, 23503, 25068, 26896, 27184, 28583, 28765]}, "edge": {"target": [], "time": []}}, "mouseout": {"state": {"target": ["31", "0", "1", "2", "3", "9", "11", "26", "28", "22", "19", "20", "20", "21", "22", "32", "33", "30", "31", "23", "2", "4", "5", "5", "9", "11", "5", "6", "7", "2", "10", "19"], "time": [2908, 4382, 4439, 4489, 4521, 4605, 4804, 5088, 5987, 6120, 6370, 7601, 8934, 9000, 10667, 12847, 15611, 15644, 17508, 17542, 17609, 17692, 18076, 19325, 21541, 23070, 23120, 25035, 26851, 26943, 28449, 28632]}, "edge": {"target": [], "time": []}}}, "displayed_time": "35.54", "trialTime": 36613, "trial_type": "mouselab-mdp", "trial_index": 44, "time_elapsed": 2082382, "internal_node_id": "0.0-4.0-1.0-35.0"}}, {"uniqueid": "w19237186:a48609645", "current_trial": 45, "dateTime": 1691072980171, "trialdata": {"revealed_states": [], "clicked_states": ["9", "21", "32", "27", "29", "31", "16"], "num_clicks_accrued": [0, 0, 0, 0, 0, 0, 0, 0, 0, 0, 0, 0, 0], "stateRewards": ["", 2, -1, 1, 10, -52, 86, -22, -2, -14, -63, 38, 1, 3, 7, -8, 11, -32, -27, 9, -71, 40, -87, -2, -1, 5, -7, 12, 31, -57, 13, 86, -58, 29], "withholdReward": false, "trial_id": "mdp_trial_37", "block": "test", "trialIndex": 38, "score": 91.2, "costs": -9.8, "simulationMode": [null, null, null, null, null], "rewards": [-2, -1, 5, 13, 86], "path": ["0", "0", "23", "24", "25", "30", "31"], "rt": [15828, 85, 67, 33, 113], "actions": ["left", "left", "left", "down", "right"], "actionTimes": [17170, 17763, 18345, 18894, 19540], "queries": {"click": {"state": {"target": ["9", "21", "32", "27", "29", "31", "16"], "time": [2346, 4772, 7007, 9461, 11512, 13505, 15431]}, "edge": {"target": [], "time": []}}, "mouseover": {"state": {"target": ["10", "8", "9", "2", "13", "22", "21", "21", "21", "21", "32", "30", "33", "29", "27", "29", "25", "30", "31", "18", "16"], "time": [1825, 1875, 1992, 2710, 2741, 2759, 2808, 3074, 3277, 4473, 5356, 7504, 7881, 8902, 9101, 10235, 11984, 12099, 12632, 13914, 14314]}, "edge": {"target": [], "time": []}}, "mouseout": {"state": {"target": ["21", "0", "10", "8", "9", "2", "13", "22", "21", "21", "21", "21", "32", "30", "33", "29", "27", "27", "29", "29", "25", "30", "31", "18", "16"], "time": [643, 1732, 1842, 1943, 2708, 2725, 2758, 2775, 2941, 3091, 4173, 5222, 7437, 7521, 8837, 9052, 9680, 10134, 11729, 11933, 12016, 12399, 13864, 13931, 15651]}, "edge": {"target": [], "time": []}}}, "displayed_time": "20.06", "trialTime": 21410, "trial_type": "mouselab-mdp", "trial_index": 45, "time_elapsed": 2104154, "internal_node_id": "0.0-4.0-1.0-36.0"}}, {"uniqueid": "w19237186:a48609645", "current_trial": 46, "dateTime": 1691072998020, "trialdata": {"revealed_states": [], "clicked_states": ["6", "17", "20", "22"], "num_clicks_accrued": [0, 0, 0, 0, 0, 0, 0, 0, 0, 0, 0, 0, 0], "stateRewards": ["", -2, -4, 2, 10, -17, 18, 73, 11, -32, 23, -13, -2, -4, 7, 12, -25, 66, -23, 15, 40, -76, -9, 1, 2, -7, -5, -20, 24, 3, -5, 16, -73, 70], "withholdReward": false, "trial_id": "mdp_trial_38", "block": "test", "trialIndex": 39, "score": 73.4, "costs": -5.6, "simulationMode": [null, null, null, null, null], "rewards": [-2, -4, 7, 12, 66], "path": ["0", "0", "12", "13", "14", "15", "17"], "rt": [12031, 3, 19, 8, 422], "actions": ["right", "right", "right", "up", "right"], "actionTimes": [13817, 14335, 14883, 15405, 16351], "queries": {"click": {"state": {"target": ["6", "17", "20", "22"], "time": [3213, 5491, 8662, 11131]}, "edge": {"target": [], "time": []}}, "mouseover": {"state": {"target": ["1", "7", "4", "5", "6", "1", "24", "25", "25", "18", "15", "17", "16", "20", "20", "21", "22", "21"], "time": [2292, 2325, 2358, 2557, 2808, 3774, 4240, 4273, 4423, 4876, 4922, 4990, 6138, 8003, 8353, 9135, 9919, 11646]}, "edge": {"target": [], "time": []}}, "mouseout": {"state": {"target": ["16", "1", "7", "4", "5", "6", "1", "24", "25", "25", "18", "15", "17", "16", "20", "20", "21", "22"], "time": [776, 2308, 2342, 2391, 2742, 3591, 3824, 4257, 4327, 4456, 4905, 4939, 5972, 7669, 8102, 9085, 9851, 11583]}, "edge": {"target": [], "time": []}}}, "displayed_time": "16.86", "trialTime": 17630, "trial_type": "mouselab-mdp", "trial_index": 46, "time_elapsed": 2122002, "internal_node_id": "0.0-4.0-1.0-37.0"}}, {"uniqueid": "w19237186:a48609645", "current_trial": 47, "dateTime": 1691073016558, "trialdata": {"revealed_states": [], "clicked_states": ["9", "29", "17"], "num_clicks_accrued": [0, 0, 0, 0, 0, 0, 0, 0, 0, 0, 0, 0, 0], "stateRewards": ["", -1, 3, -5, -2, -13, -9, -34, -7, -81, 32, 35, -2, -2, 1, -14, -32, 81, 7, 4, 82, 56, -8, -1, 3, -8, 6, -24, -24, -53, 2, 38, 61, 54], "withholdReward": false, "trial_id": "mdp_trial_39", "block": "test", "trialIndex": 40, "score": 59.8, "costs": -4.199999999999999, "simulationMode": [null, null, null, null, null], "rewards": [-2, -2, 1, -14, 81], "path": ["0", "0", "12", "13", "14", "15", "17"], "rt": [8888, 436, 123, 194, 5], "actions": ["right", "right", "right", "up", "right"], "actionTimes": [10200, 11162, 11797, 12566, 13095], "queries": {"click": {"state": {"target": ["9", "29", "17"], "time": [2576, 5000, 7078]}, "edge": {"target": [], "time": []}}, "mouseover": {"state": {"target": ["10", "8", "9", "9", "11", "27", "29", "23", "18", "15", "17", "5", "6"], "time": [1908, 1941, 1991, 2308, 3009, 3241, 3558, 5572, 5954, 5973, 6633, 8436, 9654]}, "edge": {"target": [], "time": []}}, "mouseout": {"state": {"target": ["21", "22", "12", "0", "10", "8", "9", "9", "11", "27", "29", "23", "18", "15", "17", "5", "6"], "time": [526, 592, 775, 1861, 1926, 1975, 2091, 2958, 3075, 3324, 5472, 5622, 5971, 5988, 7308, 9589, 9670]}, "edge": {"target": [], "time": []}}}, "displayed_time": "15.34", "trialTime": 18288, "trial_type": "mouselab-mdp", "trial_index": 47, "time_elapsed": 2140537, "internal_node_id": "0.0-4.0-1.0-38.0"}}, {"uniqueid": "w19237186:a48609645", "current_trial": 48, "dateTime": 1691073040158, "trialdata": {"revealed_states": [], "clicked_states": ["27", "16", "17", "18", "20", "22", "21"], "num_clicks_accrued": [0, 0, 0, 0, 0, 0, 0, 0, 0, 0, 0, 0, 0], "stateRewards": ["", 1, 2, -5, 14, 54, -14, -25, 16, -5, -87, 78, -1, 1, 3, -3, 52, 53, 53, -10, 73, -69, -48, 2, 3, 1, 8, -62, -7, 85, 7, 82, 52, -28], "withholdReward": false, "trial_id": "mdp_trial_40", "block": "test", "trialIndex": 41, "score": 56.2, "costs": -9.8, "simulationMode": [null, null, null, null, null], "rewards": [-1, 1, 3, -10, 73], "path": ["0", "0", "12", "13", "14", "19", "20"], "rt": [17203, 70, 54, 2, 51], "actions": ["right", "right", "right", "down", "right"], "actionTimes": [18827, 19402, 19967, 20500, 21080], "queries": {"click": {"state": {"target": ["27", "16", "17", "18", "20", "22", "21"], "time": [2860, 5470, 7957, 10382, 12611, 14921, 16960]}, "edge": {"target": [], "time": []}}, "mouseover": {"state": {"target": ["10", "27", "29", "10", "2", "7", "16", "17", "17", "31", "30", "12", "18", "15", "20", "21", "22", "21"], "time": [2212, 2561, 3362, 4842, 4860, 4877, 5177, 6375, 7041, 8456, 8889, 9740, 10154, 10754, 10904, 13102, 14260, 15319]}, "edge": {"target": [], "time": []}}, "mouseout": {"state": {"target": ["7", "23", "0", "10", "27", "29", "10", "2", "7", "16", "17", "17", "31", "30", "12", "18", "15", "20", "21", "22"], "time": [696, 979, 2062, 2245, 3246, 4809, 4859, 4876, 4893, 6291, 6526, 8357, 8489, 9255, 9804, 10737, 10771, 13018, 13336, 15266]}, "edge": {"target": [], "time": []}}}, "displayed_time": "21.61", "trialTime": 22990, "trial_type": "mouselab-mdp", "trial_index": 48, "time_elapsed": 2164140, "internal_node_id": "0.0-4.0-1.0-39.0"}}, {"uniqueid": "w19237186:a48609645", "current_trial": 49, "dateTime": 1691073091884, "trialdata": {"rt": 51699, "response": {"Q0": "$-16 to 16", "Q1": "$-32 to $32", "Q2": "$-88 to $88", "Q3": "The cost for clicking on nodes varied between nodes.", "Q4": "Very motivated"}, "question_order": [0, 1, 2, 3, 4], "trial_id": "final_quiz_control", "trial_type": "survey-multi-choice", "trial_index": 49, "time_elapsed": 2215862, "internal_node_id": "0.0-4.0-2.0"}}, {"uniqueid": "w19237186:a48609645", "current_trial": 50, "dateTime": 1691073244739, "trialdata": {"rt": 152775, "response": {"Q0": "I only checked the last nodes and their surroundings to look for the highest end value to discount the loss from using the indicator. I just assumed that if I always go for the highest value, I should be fine to incur whatever loss in between.", "Q1": "Not really, I kept looking for patterns. Realised that 80 values will most likely be the highest and if I saw too many negative values, I could infer that the highest value might be lower in that round. In some instances I cut my losses before I'd accumulated too many negative points and to still maintain a decent outcome.", "Q2": "Pretty difficult because the rounds keep changing."}, "trial_id": "self_report_control", "trial_type": "survey-text", "trial_index": 50, "time_elapsed": 2368708, "internal_node_id": "0.0-4.0-3.0"}}, {"uniqueid": "w19237186:a48609645", "current_trial": 51, "dateTime": 1691073268818, "trialdata": {"rt": 23996, "response": {"gender": "female", "age": "25", "colorblind": "0", "effort": "0"}, "trial_type": "survey-html-form", "trial_index": 51, "time_elapsed": 2392801, "internal_node_id": "0.0-4.0-4.0"}}, {"uniqueid": "w19237186:a48609645", "current_trial": 52, "dateTime": 1691073306563, "trialdata": {"rt": 37734, "response": {"Q0": "Nope.", "Q1": "Yes, I remember this game. There were just more nodes this time (I think)", "Q2": ""}, "trial_type": "survey-text", "trial_index": 52, "time_elapsed": 2430545, "internal_node_id": "0.0-4.0-5.0"}}, {"uniqueid": "w19237186:a48609645", "current_trial": 53, "dateTime": 1691073308756, "trialdata": {"rt": 2186, "stimulus": "Press 'Finish HIT' in order to reach the completion code. Once the data has been saved, you will receive the code either in this window or in the original browser window where you started the experiment.\n", "response": 0, "trial_type": "html-button-response", "trial_index": 53, "time_elapsed": 2432739, "internal_node_id": "0.0-5.0"}}, {"uniqueid": "w19237186:a48609645", "current_trial": 54, "dateTime": 1691073309761, "trialdata": {"success": true, "trial_type": "fullscreen", "trial_index": 54, "time_elapsed": 2433744, "internal_node_id": "0.0-6.0"}}], "questiondata": {"params": {"CODE": "C6DMOQA6", "MIN_TIME": 14, "inspectCost": 1, "startTime": "Thu Aug 03 2023 15:54:33 GMT+0200 (South Africa Standard Time)", "bonusRate": 0.002, "variance": "1_2_4_8_44", "branching": "31123"}, "final_score": 2479.4}, "eventdata": [{"eventtype": "initialized", "value": null, "timestamp": 1691070872584, "interval": 0}, {"eventtype": "window_resize", "value": [1366, 662], "timestamp": 1691070872584, "interval": 0}, {"eventtype": "window_resize", "value": [1366, 662], "timestamp": 1691070873064, "interval": 480}, {"eventtype": "focus", "value": "off", "timestamp": 1691070900304, "interval": 27240}, {"eventtype": "focus", "value": "on", "timestamp": 1691071485936, "interval": 585632}, {"eventtype": "window_resize", "value": [1366, 768], "timestamp": 1691071497324, "interval": 11388}, {"eventtype": "window_resize", "value": [1366, 662], "timestamp": 1691073309120, "interval": 1811796}], "useragent": "Mozilla/5.0 (Windows NT 10.0; Win64; x64) AppleWebKit/537.36 (KHTML, like Gecko) Chrome/115.0.0.0 Safari/537.36", "mode": "live", "id": "w19237186:a48609645", "status": "user data saved", "Beginhit": "2023-08-03 13:54:30.112558", "Beginexp": "2023-08-03 14:04:58.916054", "Endhit": "2023-08-03 14:35:11.523626", "psiturkStatus": 3, "browser": "<redacted>", "platform": "windows", "language": "en-US"}