{"condition": 1, "counterbalance": 0, "assignmentId": "a12999543", "workerId": "w32222186", "hitId": "h68316151", "currenttrial": 55, "bonus": 0, "data": [{"uniqueid": "w32222186:a12999543", "current_trial": 0, "dateTime": 1691159748861, "trialdata": {"success": true, "trial_type": "fullscreen", "trial_index": 0, "time_elapsed": 10664, "internal_node_id": "0.0-0.0"}}, {"uniqueid": "w32222186:a12999543", "current_trial": 1, "dateTime": 1691159800155, "trialdata": {"view_history": [{"page_index": 0, "viewing_time": 51285}], "rt": 51286, "trial_id": "exp_instructions_misaligned", "trial_type": "instructions", "trial_index": 1, "time_elapsed": 61958, "internal_node_id": "0.0-1.0"}}, {"uniqueid": "w32222186:a12999543", "current_trial": 2, "dateTime": 1691159815003, "trialdata": {"success": true, "trial_type": "fullscreen", "trial_index": 2, "time_elapsed": 76806, "internal_node_id": "0.0-2.0-0.0"}}, {"uniqueid": "w32222186:a12999543", "current_trial": 3, "dateTime": 1691160300996, "trialdata": {"view_history": [{"page_index": 0, "viewing_time": 222978}, {"page_index": 1, "viewing_time": 39935}, {"page_index": 0, "viewing_time": 18225}, {"page_index": 1, "viewing_time": 15128}, {"page_index": 2, "viewing_time": 86223}, {"page_index": 3, "viewing_time": 103503}], "rt": 485991, "trial_id": "mouselab_instructions_1_misaligned", "trial_type": "instructions", "trial_index": 3, "time_elapsed": 562799, "internal_node_id": "0.0-2.0-1.0"}}, {"uniqueid": "w32222186:a12999543", "current_trial": 4, "dateTime": 1691160348826, "trialdata": {"revealed_states": [], "clicked_states": [], "num_clicks_accrued": [0, 0, 0, 0, 0, 0, 0, 0, 0, 0, 0, 0, 0], "stateRewards": ["", 10, 10, 10, 10, 10, 10, -10, -10, 10, -10, -10, 10, 10, -10, 10, 10, -10, 10, 10, 10, -10, -10, -10, 10, -10, 10, 10, 10, -10, 10, -10, -10, -10], "withholdReward": false, "trial_id": "practice_1", "block": "test", "trialIndex": 0, "score": -6.5, "costs": 0, "simulationMode": [null, null, null, null, null], "rewards": [-10, 10, -10, 10, -10], "path": ["0", "0", "23", "24", "25", "26", "29"], "rt": [8612, 489, 1176, 1556, 337], "actions": ["left", "left", "left", "up", "left"], "actionTimes": [16852, 17834, 19506, 21570, 22401], "queries": {"click": {"state": {"target": [], "time": []}, "edge": {"target": [], "time": []}}, "mouseover": {"state": {"target": ["0"], "time": [11340]}, "edge": {"target": [], "time": []}}, "mouseout": {"state": {"target": ["0", "0"], "time": [7568, 11473]}, "edge": {"target": [], "time": []}}}, "displayed_time": "22.90", "trialTime": 46434, "trial_type": "mouselab-mdp", "trial_index": 4, "time_elapsed": 610629, "internal_node_id": "0.0-2.0-2.0-0.0"}}, {"uniqueid": "w32222186:a12999543", "current_trial": 5, "dateTime": 1691160390034, "trialdata": {"revealed_states": [], "clicked_states": [], "num_clicks_accrued": [0, 0, 0, 0, 0, 0, 0, 0, 0, 0, 0, 0, 0], "stateRewards": ["", -10, 10, 10, 10, 10, -10, 10, -10, -10, -10, 10, 10, 10, 10, -10, -10, -10, 10, -10, -10, -10, 10, 10, 10, -10, -10, 10, -10, 10, -10, 10, -10, -10], "withholdReward": false, "trial_id": "practice_2", "block": "test", "trialIndex": 1, "score": -6.5, "costs": 0, "simulationMode": [null, null, null, null, null], "rewards": [-10, 10, 10, -10, -10], "path": ["0", "0", "1", "2", "3", "8", "9"], "rt": [1309, 314, 1386, 916, 360], "actions": ["up", "up", "up", "left", "up"], "actionTimes": [14446, 15262, 17150, 18566, 19430], "queries": {"click": {"state": {"target": [], "time": []}, "edge": {"target": [], "time": []}}, "mouseover": {"state": {"target": [], "time": []}, "edge": {"target": [], "time": []}}, "mouseout": {"state": {"target": ["0"], "time": [13443]}, "edge": {"target": [], "time": []}}}, "displayed_time": "19.93", "trialTime": 40798, "trial_type": "mouselab-mdp", "trial_index": 5, "time_elapsed": 651837, "internal_node_id": "0.0-2.0-2.0-1.0"}}, {"uniqueid": "w32222186:a12999543", "current_trial": 6, "dateTime": 1691160603297, "trialdata": {"view_history": [{"page_index": 0, "viewing_time": 189491}, {"page_index": 1, "viewing_time": 23767}], "rt": 213259, "trial_id": "mouselab_instructions_2_misaligned", "trial_type": "instructions", "trial_index": 6, "time_elapsed": 865100, "internal_node_id": "0.0-2.0-3.0"}}, {"uniqueid": "w32222186:a12999543", "current_trial": 7, "dateTime": 1691160682473, "trialdata": {"rt": 79169, "response": {"Q0": "The cost for clicking on nodes may vary between nodes.", "Q1": "The better I perform the higher my bonus will be.", "Q2": "No, the amount of cash at each node of the web may be different each time.", "Q3": "To get the highest total score.", "Q4": "Only before moving the spider.", "Q5": "3 seconds"}, "question_order": [0, 1, 2, 3, 4, 5], "correct": {"Q0": "The cost for clicking on nodes may vary between nodes.", "Q1": "The better I perform the higher my bonus will be.", "Q2": "No, the amount of cash at each node of the web may be different each time.", "Q3": "To get the highest total score.", "Q4": "Only before moving the spider.", "Q5": "3 seconds"}, "trial_id": "mouselab_quiz_misaligned", "trial_type": "survey-multi-choice", "trial_index": 7, "time_elapsed": 944276, "internal_node_id": "0.0-2.0-4.0"}}, {"uniqueid": "w32222186:a12999543", "current_trial": 8, "dateTime": 1691160785269, "trialdata": {"rt": 102787, "stimulus": "\n<h1> Get ready to start the game! </h1>\n\nThank you for reading the instructions. Get ready start with the 40 rounds of this game.\n<br><br>\nIf you need to take a break, feel free to take one after the end of a round, before continuing to the next one.\n<br><br>\nRemember, the more money the spider gets, the bigger your bonus will be!\n<br><br>\n<div style='text-align: center;'>Press <code>space</code> to begin.</div>\n\n<br><br>\n(If, at any point, the <code>space</code> key does not take you to the next page, click once on the text and try again.)", "response": " ", "trial_id": "mdp_ready", "trial_type": "html-keyboard-response", "trial_index": 8, "time_elapsed": 1047072, "internal_node_id": "0.0-4.0-0.0"}}, {"uniqueid": "w32222186:a12999543", "current_trial": 9, "dateTime": 1691160859069, "trialdata": {"revealed_states": [], "clicked_states": [], "num_clicks_accrued": [0, 0, 0, 0, 0, 0, 0, 0, 0, 0, 0, 0, 0], "stateRewards": ["", 1, -3, -1, 9, -34, -40, 22, -7, 45, 53, -11, 2, 4, 5, 15, 21, 37, -49, -3, 80, -28, -34, 1, -3, 1, 1, -40, -6, -5, -16, -85, -86, 59], "withholdReward": false, "trial_id": "mdp_trial_1", "block": "test", "trialIndex": 2, "score": -102, "costs": 0, "simulationMode": [null, null, null, null, null], "rewards": [1, -3, 1, -16, -85], "path": ["0", "0", "23", "24", "25", "30", "31"], "rt": [8974, 37, 2023, 1201, 530], "actions": ["left", "left", "left", "down", "right"], "actionTimes": [37398, 37934, 40454, 42150, 43182], "queries": {"click": {"state": {"target": [], "time": []}, "edge": {"target": [], "time": []}}, "mouseover": {"state": {"target": ["0", "0"], "time": [28570, 35809]}, "edge": {"target": [], "time": []}}, "mouseout": {"state": {"target": ["3", "2", "0", "0", "0", "0", "0"], "time": [5148, 5187, 27185, 28620, 36559, 60909, 62743]}, "edge": {"target": [], "time": []}}}, "displayed_time": "43.68", "trialTime": 73374, "trial_type": "mouselab-mdp", "trial_index": 9, "time_elapsed": 1120871, "internal_node_id": "0.0-4.0-1.0-0.0"}}, {"uniqueid": "w32222186:a12999543", "current_trial": 10, "dateTime": 1691160913372, "trialdata": {"revealed_states": [], "clicked_states": [], "num_clicks_accrued": [0, 0, 0, 0, 0, 0, 0, 0, 0, 0, 0, 0, 0], "stateRewards": ["", 1, -4, -4, 8, 1, -79, 68, -10, -79, 8, -74, -1, -3, -6, 14, 43, 23, 9, 5, -51, 63, 61, -2, 4, 6, -10, 69, -32, 57, 15, -80, -80, -77], "withholdReward": false, "trial_id": "mdp_trial_2", "block": "test", "trialIndex": 3, "score": -96, "costs": 0, "simulationMode": [null, null, null, null, null], "rewards": [1, -4, -4, -10, -79], "path": ["0", "0", "1", "2", "3", "8", "9"], "rt": [1157, 318, 379, 1753, 350], "actions": ["up", "up", "up", "left", "up"], "actionTimes": [16702, 17518, 18398, 20654, 21502], "queries": {"click": {"state": {"target": [], "time": []}, "edge": {"target": [], "time": []}}, "mouseover": {"state": {"target": ["0"], "time": [15700]}, "edge": {"target": [], "time": []}}, "mouseout": {"state": {"target": ["28", "26", "30", "31", "0", "0", "0", "0", "0", "1", "2", "8", "9", "8", "10", "0"], "time": [5022, 5287, 5737, 5788, 6104, 6905, 10490, 15962, 43580, 45115, 45181, 45385, 46449, 46683, 46783, 47000]}, "edge": {"target": [], "time": []}}}, "displayed_time": "29.55", "trialTime": 53879, "trial_type": "mouselab-mdp", "trial_index": 10, "time_elapsed": 1175175, "internal_node_id": "0.0-4.0-1.0-1.0"}}, {"uniqueid": "w32222186:a12999543", "current_trial": 11, "dateTime": 1691160949028, "trialdata": {"revealed_states": [], "clicked_states": [], "num_clicks_accrued": [0, 0, 0, 0, 0, 0, 0, 0, 0, 0, 0, 0, 0], "stateRewards": ["", 1, 3, 1, -13, 52, -28, 67, -14, 3, 63, -70, -1, -4, 7, -11, -10, 47, -18, 6, 69, -9, -61, 2, 3, -6, 10, 63, -34, 40, -6, -79, -35, -32], "withholdReward": false, "trial_id": "mdp_trial_3", "block": "test", "trialIndex": 4, "score": 77, "costs": 0, "simulationMode": [null, null, null, null, null], "rewards": [-1, -4, 7, 6, 69], "path": ["0", "0", "12", "13", "14", "19", "20"], "rt": [2761, 233, 1243, 844, 349], "actions": ["right", "right", "right", "down", "right"], "actionTimes": [13512, 14248, 15992, 17344, 18200], "queries": {"click": {"state": {"target": [], "time": []}, "edge": {"target": [], "time": []}}, "mouseover": {"state": {"target": [], "time": []}, "edge": {"target": [], "time": []}}, "mouseout": {"state": {"target": ["3", "9", "27", "0"], "time": [4588, 5789, 6589, 11661]}, "edge": {"target": [], "time": []}}}, "displayed_time": "24.75", "trialTime": 35232, "trial_type": "mouselab-mdp", "trial_index": 11, "time_elapsed": 1210830, "internal_node_id": "0.0-4.0-1.0-2.0"}}, {"uniqueid": "w32222186:a12999543", "current_trial": 12, "dateTime": 1691160998932, "trialdata": {"revealed_states": [], "clicked_states": [], "num_clicks_accrued": [0, 0, 0, 0, 0, 0, 0, 0, 0, 0, 0, 0, 0], "stateRewards": ["", 2, 4, -3, 16, -58, 30, -35, 11, -60, 47, 27, -2, -1, -7, -16, 23, -70, 68, -10, -65, -43, -34, -2, 1, 7, 9, -63, 34, -31, -8, -12, -86, 59], "withholdReward": false, "trial_id": "mdp_trial_4", "block": "test", "trialIndex": 5, "score": 49, "costs": 0, "simulationMode": [null, null, null, null, null], "rewards": [-2, 1, 7, 9, 34], "path": ["0", "0", "23", "24", "25", "26", "28"], "rt": [1817, 363, 1696, 448, 823], "actions": ["left", "left", "left", "up", "right"], "actionTimes": [15519, 16383, 18583, 19535, 20863], "queries": {"click": {"state": {"target": [], "time": []}, "edge": {"target": [], "time": []}}, "mouseover": {"state": {"target": ["0"], "time": [14030]}, "edge": {"target": [], "time": []}}, "mouseout": {"state": {"target": ["0", "0"], "time": [7692, 14148]}, "edge": {"target": [], "time": []}}}, "displayed_time": "27.70", "trialTime": 49447, "trial_type": "mouselab-mdp", "trial_index": 12, "time_elapsed": 1260734, "internal_node_id": "0.0-4.0-1.0-3.0"}}, {"uniqueid": "w32222186:a12999543", "current_trial": 13, "dateTime": 1691161044707, "trialdata": {"revealed_states": [], "clicked_states": [], "num_clicks_accrued": [0, 0, 0, 0, 0, 0, 0, 0, 0, 0, 0, 0, 0], "stateRewards": ["", -2, 3, -1, 2, -72, 63, 20, -1, 62, -66, 39, -2, 3, -6, 14, 22, 47, 1, 8, -49, -1, -41, 2, 2, -6, -16, -64, -60, -34, 16, 54, 22, -7], "withholdReward": false, "trial_id": "mdp_trial_5", "block": "test", "trialIndex": 6, "score": 65, "costs": 0, "simulationMode": [null, null, null, null, null], "rewards": [-2, 3, -1, 2, 63], "path": ["0", "0", "1", "2", "3", "4", "6"], "rt": [2799, 1231, 705, 2943, 276], "actions": ["up", "up", "up", "right", "right"], "actionTimes": [14150, 15886, 17094, 20534, 21318], "queries": {"click": {"state": {"target": [], "time": []}, "edge": {"target": [], "time": []}}, "mouseover": {"state": {"target": [], "time": []}, "edge": {"target": [], "time": []}}, "mouseout": {"state": {"target": ["0", "0"], "time": [9464, 11500]}, "edge": {"target": [], "time": []}}}, "displayed_time": "25.35", "trialTime": 45310, "trial_type": "mouselab-mdp", "trial_index": 13, "time_elapsed": 1306509, "internal_node_id": "0.0-4.0-1.0-4.0"}}, {"uniqueid": "w32222186:a12999543", "current_trial": 14, "dateTime": 1691161128090, "trialdata": {"revealed_states": [], "clicked_states": [], "num_clicks_accrued": [0, 0, 0, 0, 0, 0, 0, 0, 0, 0, 0, 0, 0], "stateRewards": ["", 2, -4, -8, -15, 71, -43, -41, 7, -17, 20, 67, -1, -1, -4, 6, 37, -24, -47, 9, 34, 57, 45, 1, 2, -4, -5, -23, 88, -5, 13, -40, 43, 44], "withholdReward": false, "trial_id": "mdp_trial_6", "block": "test", "trialIndex": 7, "score": -11, "costs": 0, "simulationMode": [null, null, null, null, null], "rewards": [1, 2, -4, -5, -5], "path": ["0", "0", "23", "24", "25", "26", "29"], "rt": [1425, 442, 517, 666, 1099], "actions": ["left", "left", "left", "up", "left"], "actionTimes": [24542, 25487, 26510, 27678, 29278], "queries": {"click": {"state": {"target": [], "time": []}, "edge": {"target": [], "time": []}}, "mouseover": {"state": {"target": ["0"], "time": [23228]}, "edge": {"target": [], "time": []}}, "mouseout": {"state": {"target": ["0", "0"], "time": [18134, 23322]}, "edge": {"target": [], "time": []}}}, "displayed_time": "37.12", "trialTime": 82910, "trial_type": "mouselab-mdp", "trial_index": 14, "time_elapsed": 1389892, "internal_node_id": "0.0-4.0-1.0-5.0"}}, {"uniqueid": "w32222186:a12999543", "current_trial": 15, "dateTime": 1691161216536, "trialdata": {"revealed_states": [], "clicked_states": [], "num_clicks_accrued": [0, 0, 0, 0, 0, 0, 0, 0, 0, 0, 0, 0, 0], "stateRewards": ["", -1, 4, -5, 9, 29, -75, -42, -16, 24, -28, -41, 2, -3, 1, 10, 60, 47, 55, -1, -53, 22, -40, 2, -3, -6, 4, -26, 44, 54, 15, -76, 42, 14], "withholdReward": false, "trial_id": "mdp_trial_7", "block": "test", "trialIndex": 8, "score": 50, "costs": 0, "simulationMode": [null, null, null, null, null], "rewards": [2, -3, -6, 15, 42], "path": ["0", "0", "23", "24", "25", "30", "32"], "rt": [2335, 542, 1166, 2185, 1828], "actions": ["left", "left", "left", "down", "down"], "actionTimes": [15028, 16067, 17739, 20427, 22755], "queries": {"click": {"state": {"target": [], "time": []}, "edge": {"target": [], "time": []}}, "mouseover": {"state": {"target": [], "time": []}, "edge": {"target": [], "time": []}}, "mouseout": {"state": {"target": ["31", "23", "0", "22", "14", "17", "6", "5", "2", "10", "28", "25", "30", "0"], "time": [6362, 6896, 12867, 37751, 37984, 40513, 45456, 47257, 47540, 47657, 52627, 52777, 52862, 86616]}, "edge": {"target": [], "time": []}}}, "displayed_time": "26.69", "trialTime": 87987, "trial_type": "mouselab-mdp", "trial_index": 15, "time_elapsed": 1478339, "internal_node_id": "0.0-4.0-1.0-6.0"}}, {"uniqueid": "w32222186:a12999543", "current_trial": 16, "dateTime": 1691161281663, "trialdata": {"revealed_states": [], "clicked_states": [], "num_clicks_accrued": [0, 0, 0, 0, 0, 0, 0, 0, 0, 0, 0, 0, 0], "stateRewards": ["", -2, -4, -8, 8, 63, -50, -19, -7, -17, -31, 31, 1, 3, -5, 12, -35, -63, -29, -4, -17, -75, -79, -2, -3, -2, 8, -3, -85, 10, -2, -82, -82, 56], "withholdReward": false, "trial_id": "mdp_trial_8", "block": "test", "trialIndex": 9, "score": -52, "costs": 0, "simulationMode": [null, null, null, null, null], "rewards": [-2, -4, -8, -7, -31], "path": ["0", "0", "1", "2", "3", "8", "10"], "rt": [1338, 421, 311, 869, 286], "actions": ["up", "up", "up", "left", "down"], "actionTimes": [4588, 5516, 6324, 7700, 8484], "queries": {"click": {"state": {"target": [], "time": []}, "edge": {"target": [], "time": []}}, "mouseover": {"state": {"target": [], "time": []}, "edge": {"target": [], "time": []}}, "mouseout": {"state": {"target": ["0", "1", "2", "1", "0", "1", "2", "8", "11", "28", "0"], "time": [2490, 45520, 47621, 47704, 48088, 49222, 49939, 50523, 51207, 51373, 56994]}, "edge": {"target": [], "time": []}}}, "displayed_time": "17.25", "trialTime": 64652, "trial_type": "mouselab-mdp", "trial_index": 16, "time_elapsed": 1543466, "internal_node_id": "0.0-4.0-1.0-7.0"}}, {"uniqueid": "w32222186:a12999543", "current_trial": 17, "dateTime": 1691161439335, "trialdata": {"revealed_states": [], "clicked_states": [], "num_clicks_accrued": [0, 0, 0, 0, 0, 0, 0, 0, 0, 0, 0, 0, 0], "stateRewards": ["", -1, 2, -6, 6, -82, -19, -39, -16, -83, 11, -33, -2, -2, 4, -6, -82, -1, -19, -6, -10, -67, -41, -2, 1, -7, 16, -23, -78, -52, 14, 31, -71, 74], "withholdReward": false, "trial_id": "mdp_trial_9", "block": "test", "trialIndex": 10, "score": -25, "costs": 0, "simulationMode": [null, null, null, null, null], "rewards": [-2, -2, 4, -6, -19], "path": ["0", "0", "12", "13", "14", "15", "18"], "rt": [1920, 277, 309, 532, 489], "actions": ["right", "right", "right", "up", "left"], "actionTimes": [19149, 19933, 20749, 21789, 22781], "queries": {"click": {"state": {"target": [], "time": []}, "edge": {"target": [], "time": []}}, "mouseover": {"state": {"target": [], "time": []}, "edge": {"target": [], "time": []}}, "mouseout": {"state": {"target": ["0", "0", "0", "31", "30", "25", "28", "1", "0", "0", "0", "0", "1", "0", "23", "24", "25", "30", "31", "30", "33", "32", "30", "25", "29", "27", "8", "10", "2", "7", "0", "0", "1", "2", "3", "4", "4", "6", "18", "12", "0", "12", "13", "14", "19", "14", "17", "20", "19", "22", "31", "30", "33", "33", "29", "29", "27", "11", "9", "5", "6", "14", "19", "21", "32", "0"], "time": [4942, 7994, 9512, 9945, 10546, 12497, 12647, 12764, 14090, 25547, 60614, 75891, 79160, 85281, 85681, 86364, 88032, 90567, 95370, 95521, 96389, 97705, 97839, 97972, 98756, 98906, 99590, 99773, 99857, 100140, 100524, 100774, 100974, 101375, 101775, 101908, 107345, 108129, 111781, 112115, 112849, 112882, 113016, 113583, 129076, 129127, 130060, 131311, 131378, 131411, 131795, 131878, 132028, 132545, 132829, 133613, 133663, 133713, 134297, 135814, 135881, 136114, 136548, 137015, 137849, 144203]}, "edge": {"target": [], "time": []}}}, "displayed_time": "31.23", "trialTime": 157197, "trial_type": "mouselab-mdp", "trial_index": 17, "time_elapsed": 1701137, "internal_node_id": "0.0-4.0-1.0-8.0"}}, {"uniqueid": "w32222186:a12999543", "current_trial": 18, "dateTime": 1691161464366, "trialdata": {"revealed_states": [], "clicked_states": [], "num_clicks_accrued": [0, 0, 0, 0, 0, 0, 0, 0, 0, 0, 0, 0, 0], "stateRewards": ["", -2, 2, 3, -7, -31, -33, 29, -8, -57, 50, -83, -1, -1, 5, 13, -23, -62, 25, 5, -66, -85, 14, 1, -2, -1, 16, 71, 33, -19, -14, 5, -43, 79], "withholdReward": false, "trial_id": "mdp_trial_10", "block": "test", "trialIndex": 11, "score": -46, "costs": 0, "simulationMode": [null, null, null, null, null], "rewards": [-1, -1, 5, 13, -62], "path": ["0", "0", "12", "13", "14", "15", "17"], "rt": [2037, 548, 465, 1032, 1178], "actions": ["right", "right", "right", "up", "right"], "actionTimes": [3980, 5036, 6004, 7540, 9220], "queries": {"click": {"state": {"target": [], "time": []}, "edge": {"target": [], "time": []}}, "mouseover": {"state": {"target": [], "time": []}, "edge": {"target": [], "time": []}}, "mouseout": {"state": {"target": ["0"], "time": [2467]}, "edge": {"target": [], "time": []}}}, "displayed_time": "15.94", "trialTime": 24548, "trial_type": "mouselab-mdp", "trial_index": 18, "time_elapsed": 1726169, "internal_node_id": "0.0-4.0-1.0-9.0"}}, {"uniqueid": "w32222186:a12999543", "current_trial": 19, "dateTime": 1691161530925, "trialdata": {"revealed_states": [], "clicked_states": [], "num_clicks_accrued": [0, 0, 0, 0, 0, 0, 0, 0, 0, 0, 0, 0, 0], "stateRewards": ["", -2, -4, 2, 10, -17, 18, 73, 11, -32, 23, -13, -2, -4, 7, 12, -25, 66, -23, 15, 40, -76, -9, 1, 2, -7, -5, -20, 24, 3, -5, 16, -73, 70], "withholdReward": false, "trial_id": "mdp_trial_11", "block": "test", "trialIndex": 12, "score": -60, "costs": 0, "simulationMode": [null, null, null, null, null], "rewards": [-2, -4, 7, 15, -76], "path": ["0", "0", "12", "13", "14", "19", "21"], "rt": [2470, 375, 245, 230, 1128], "actions": ["right", "right", "right", "down", "down"], "actionTimes": [9916, 10796, 11548, 12284, 13916], "queries": {"click": {"state": {"target": [], "time": []}, "edge": {"target": [], "time": []}}, "mouseover": {"state": {"target": ["0"], "time": [7674]}, "edge": {"target": [], "time": []}}, "mouseout": {"state": {"target": ["0", "0"], "time": [1697, 7782]}, "edge": {"target": [], "time": []}}}, "displayed_time": "21.45", "trialTime": 66067, "trial_type": "mouselab-mdp", "trial_index": 19, "time_elapsed": 1792727, "internal_node_id": "0.0-4.0-1.0-10.0"}}, {"uniqueid": "w32222186:a12999543", "current_trial": 20, "dateTime": 1691161575388, "trialdata": {"revealed_states": [], "clicked_states": [], "num_clicks_accrued": [0, 0, 0, 0, 0, 0, 0, 0, 0, 0, 0, 0, 0], "stateRewards": ["", -2, 4, -7, -3, -76, 39, -28, 10, 14, 12, 60, 2, -3, 6, -10, 88, -34, -41, -3, 72, -13, -56, 1, 3, 2, 8, -51, 23, -57, 1, 14, -46, -16], "withholdReward": false, "trial_id": "mdp_trial_12", "block": "test", "trialIndex": 13, "score": 83, "costs": 0, "simulationMode": [null, null, null, null, null], "rewards": [2, -3, 6, -10, 88], "path": ["0", "0", "12", "13", "14", "15", "16"], "rt": [1240, 4, 189, 641, 96], "actions": ["right", "right", "right", "up", "up"], "actionTimes": [3298, 3796, 4498, 5634, 6242], "queries": {"click": {"state": {"target": [], "time": []}, "edge": {"target": [], "time": []}}, "mouseover": {"state": {"target": [], "time": []}, "edge": {"target": [], "time": []}}, "mouseout": {"state": {"target": ["12", "0", "21", "19", "14", "15", "16", "16", "13", "21", "19", "14", "15", "15", "32", "30", "25", "27", "24", "31", "23", "10", "8", "9", "5", "4", "7", "0"], "time": [1217, 2152, 20298, 20348, 20382, 20481, 20615, 21232, 21432, 27136, 27236, 27303, 27420, 28170, 33390, 33457, 33490, 35758, 35992, 36242, 38711, 38848, 38977, 40378, 41078, 41128, 41179, 42813]}, "edge": {"target": [], "time": []}}}, "displayed_time": "16.06", "trialTime": 43962, "trial_type": "mouselab-mdp", "trial_index": 20, "time_elapsed": 1837191, "internal_node_id": "0.0-4.0-1.0-11.0"}}, {"uniqueid": "w32222186:a12999543", "current_trial": 21, "dateTime": 1691161610532, "trialdata": {"revealed_states": [], "clicked_states": [], "num_clicks_accrued": [0, 0, 0, 0, 0, 0, 0, 0, 0, 0, 0, 0, 0], "stateRewards": ["", -1, 3, 1, -11, -22, -36, 19, -5, -70, -52, 50, -2, -4, 4, -2, -41, -83, 29, -2, 22, 10, -6, -2, 3, -2, 14, 54, 44, 77, -9, -65, -37, -40], "withholdReward": false, "trial_id": "mdp_trial_13", "block": "test", "trialIndex": 14, "score": -47, "costs": 0, "simulationMode": [null, null, null, null, null], "rewards": [-2, 3, -2, -9, -37], "path": ["0", "0", "23", "24", "25", "30", "32"], "rt": [1016, 166, 263, 727, 302], "actions": ["left", "left", "left", "down", "down"], "actionTimes": [4473, 5153, 5921, 7145, 7953], "queries": {"click": {"state": {"target": [], "time": []}, "edge": {"target": [], "time": []}}, "mouseover": {"state": {"target": [], "time": []}, "edge": {"target": [], "time": []}}, "mouseout": {"state": {"target": ["0", "0"], "time": [2009, 9615]}, "edge": {"target": [], "time": []}}}, "displayed_time": "17.46", "trialTime": 34633, "trial_type": "mouselab-mdp", "trial_index": 21, "time_elapsed": 1872335, "internal_node_id": "0.0-4.0-1.0-12.0"}}, {"uniqueid": "w32222186:a12999543", "current_trial": 22, "dateTime": 1691161645043, "trialdata": {"revealed_states": [], "clicked_states": [], "num_clicks_accrued": [0, 0, 0, 0, 0, 0, 0, 0, 0, 0, 0, 0, 0], "stateRewards": ["", 1, 1, 1, -3, -7, -1, -41, -10, 20, -72, -63, 1, -4, -2, 2, -66, 30, -84, -2, 49, 23, 71, -1, -4, 4, -12, 67, 5, 18, -16, 88, 56, -5], "withholdReward": false, "trial_id": "mdp_trial_14", "block": "test", "trialIndex": 15, "score": 54, "costs": 0, "simulationMode": [null, null, null, null, null], "rewards": [-1, -4, 4, -12, 67], "path": ["0", "0", "23", "24", "25", "26", "27"], "rt": [1515, 295, 376, 587, 407], "actions": ["left", "left", "left", "up", "up"], "actionTimes": [4202, 4994, 5874, 6970, 7874], "queries": {"click": {"state": {"target": [], "time": []}, "edge": {"target": [], "time": []}}, "mouseover": {"state": {"target": [], "time": []}, "edge": {"target": [], "time": []}}, "mouseout": {"state": {"target": ["0", "23", "10", "8", "9", "9", "5"], "time": [2258, 25875, 26925, 27059, 27309, 28660, 29977]}, "edge": {"target": [], "time": []}}}, "displayed_time": "16.69", "trialTime": 33970, "trial_type": "mouselab-mdp", "trial_index": 22, "time_elapsed": 1906846, "internal_node_id": "0.0-4.0-1.0-13.0"}}, {"uniqueid": "w32222186:a12999543", "current_trial": 23, "dateTime": 1691161670483, "trialdata": {"revealed_states": [], "clicked_states": [], "num_clicks_accrued": [0, 0, 0, 0, 0, 0, 0, 0, 0, 0, 0, 0, 0], "stateRewards": ["", -1, 2, -2, 5, 80, -61, -27, 12, 44, -26, -75, -2, -4, 1, -16, 42, -49, -50, 4, -44, 2, 80, -2, -2, 5, -2, 59, 10, 24, 7, -48, -86, -44], "withholdReward": false, "trial_id": "mdp_trial_15", "block": "test", "trialIndex": 16, "score": 84, "costs": 0, "simulationMode": [null, null, null, null, null], "rewards": [-1, 2, -2, 5, 80], "path": ["0", "0", "1", "2", "3", "4", "5"], "rt": [1389, 254, 999, 697, 473], "actions": ["up", "up", "up", "right", "up"], "actionTimes": [3990, 4750, 6247, 7446, 8422], "queries": {"click": {"state": {"target": [], "time": []}, "edge": {"target": [], "time": []}}, "mouseover": {"state": {"target": [], "time": []}, "edge": {"target": [], "time": []}}, "mouseout": {"state": {"target": ["0"], "time": [2660]}, "edge": {"target": [], "time": []}}}, "displayed_time": "16.60", "trialTime": 24902, "trial_type": "mouselab-mdp", "trial_index": 23, "time_elapsed": 1932286, "internal_node_id": "0.0-4.0-1.0-14.0"}}, {"uniqueid": "w32222186:a12999543", "current_trial": 24, "dateTime": 1691161748819, "trialdata": {"revealed_states": [], "clicked_states": [], "num_clicks_accrued": [0, 0, 0, 0, 0, 0, 0, 0, 0, 0, 0, 0, 0], "stateRewards": ["", -2, 1, -8, 12, -65, -79, 16, 7, -80, -17, -45, -2, 2, -5, -2, -85, 23, -4, -7, 48, 27, -76, 2, 3, 5, 2, 43, 71, -13, 7, -49, 59, -31], "withholdReward": false, "trial_id": "mdp_trial_16", "block": "test", "trialIndex": 17, "score": -82, "costs": 0, "simulationMode": [null, null, null, null, null], "rewards": [-2, 1, -8, 7, -80], "path": ["0", "0", "1", "2", "3", "8", "9"], "rt": [1526, 210, 541, 627, 902], "actions": ["up", "up", "up", "left", "up"], "actionTimes": [3608, 4312, 5360, 6480, 7888], "queries": {"click": {"state": {"target": [], "time": []}, "edge": {"target": [], "time": []}}, "mouseover": {"state": {"target": [], "time": []}, "edge": {"target": [], "time": []}}, "mouseout": {"state": {"target": ["0", "0", "10", "2", "7", "6", "6", "4", "3", "8", "11", "10", "4", "6", "6", "7", "2", "10", "10", "0", "1", "8", "9", "9", "5", "8", "27", "8", "9", "9", "5", "8", "11", "27", "10", "16", "15", "14", "19", "21", "32", "32", "25", "26", "27", "10", "2", "16", "6", "5", "9", "9", "9", "8", "10"], "time": [2313, 27947, 33084, 33117, 33134, 33234, 35035, 35052, 35086, 35402, 36603, 36903, 36953, 36989, 38054, 38754, 38804, 38871, 39238, 40439, 45142, 45242, 45309, 45876, 50162, 50295, 51630, 51696, 51780, 52430, 52997, 53097, 53181, 53647, 53714, 54882, 54948, 54998, 55115, 55649, 55849, 56383, 56600, 56666, 57050, 57133, 57167, 58134, 58469, 59735, 59935, 60322, 61603, 61719, 61786]}, "edge": {"target": [], "time": []}}}, "displayed_time": "16.08", "trialTime": 77776, "trial_type": "mouselab-mdp", "trial_index": 24, "time_elapsed": 2010621, "internal_node_id": "0.0-4.0-1.0-15.0"}}, {"uniqueid": "w32222186:a12999543", "current_trial": 25, "dateTime": 1691161789634, "trialdata": {"revealed_states": [], "clicked_states": [], "num_clicks_accrued": [0, 0, 0, 0, 0, 0, 0, 0, 0, 0, 0, 0, 0], "stateRewards": ["", -2, -1, -6, -14, -55, 78, -13, 11, 14, -71, 59, 2, 2, 6, -6, 9, 38, 14, 7, 85, 11, 68, 1, -4, -1, -3, -63, -85, 9, -2, 63, -86, -10], "withholdReward": false, "trial_id": "mdp_trial_17", "block": "test", "trialIndex": 18, "score": -16, "costs": 0, "simulationMode": [null, null, null, null, null], "rewards": [1, -4, -1, -2, -10], "path": ["0", "0", "23", "24", "25", "30", "33"], "rt": [2110, 398, 491, 896, 848], "actions": ["left", "left", "left", "down", "left"], "actionTimes": [4068, 4972, 5964, 7356, 8708], "queries": {"click": {"state": {"target": [], "time": []}, "edge": {"target": [], "time": []}}, "mouseover": {"state": {"target": ["0"], "time": [2134]}, "edge": {"target": [], "time": []}}, "mouseout": {"state": {"target": ["12", "0", "0"], "time": [1216, 2217, 38826]}, "edge": {"target": [], "time": []}}}, "displayed_time": "15.96", "trialTime": 40276, "trial_type": "mouselab-mdp", "trial_index": 25, "time_elapsed": 2051436, "internal_node_id": "0.0-4.0-1.0-16.0"}}, {"uniqueid": "w32222186:a12999543", "current_trial": 26, "dateTime": 1691161817306, "trialdata": {"revealed_states": [], "clicked_states": [], "num_clicks_accrued": [0, 0, 0, 0, 0, 0, 0, 0, 0, 0, 0, 0, 0], "stateRewards": ["", -2, -2, -3, -6, -15, -11, 41, -12, -63, -76, 2, -2, -3, 8, 9, -36, -2, -18, -16, -32, -85, -17, -2, 1, 5, -16, 82, 35, -88, -1, 80, -82, -20], "withholdReward": false, "trial_id": "mdp_trial_18", "block": "test", "trialIndex": 19, "score": 23, "costs": 0, "simulationMode": [null, null, null, null, null], "rewards": [-2, 1, 5, -16, 35], "path": ["0", "0", "23", "24", "25", "26", "28"], "rt": [1550, 398, 334, 2725, 2845], "actions": ["left", "left", "left", "up", "right"], "actionTimes": [3371, 4275, 5115, 8339, 11691], "queries": {"click": {"state": {"target": [], "time": []}, "edge": {"target": [], "time": []}}, "mouseover": {"state": {"target": [], "time": []}, "edge": {"target": [], "time": []}}, "mouseout": {"state": {"target": ["0", "12", "18"], "time": [1336, 21734, 22651]}, "edge": {"target": [], "time": []}}}, "displayed_time": "15.82", "trialTime": 27107, "trial_type": "mouselab-mdp", "trial_index": 26, "time_elapsed": 2079109, "internal_node_id": "0.0-4.0-1.0-17.0"}}, {"uniqueid": "w32222186:a12999543", "current_trial": 27, "dateTime": 1691161869146, "trialdata": {"revealed_states": [], "clicked_states": [], "num_clicks_accrued": [0, 0, 0, 0, 0, 0, 0, 0, 0, 0, 0, 0, 0], "stateRewards": ["", 1, 1, -7, -9, -44, 24, -83, -15, 44, -24, 72, -2, -3, 4, -5, 57, 55, 29, -11, 22, 12, -25, -1, 2, 7, 12, 33, -8, 47, -4, 8, 50, -4], "withholdReward": false, "trial_id": "mdp_trial_19", "block": "test", "trialIndex": 20, "score": 23, "costs": 0, "simulationMode": [null, null, null, null, null], "rewards": [-2, -3, 4, -5, 29], "path": ["0", "0", "12", "13", "14", "15", "18"], "rt": [1632, 755, 624, 1284, 898], "actions": ["right", "right", "right", "up", "left"], "actionTimes": [3566, 4822, 5942, 7726, 9118], "queries": {"click": {"state": {"target": [], "time": []}, "edge": {"target": [], "time": []}}, "mouseover": {"state": {"target": [], "time": []}, "edge": {"target": [], "time": []}}, "mouseout": {"state": {"target": ["0"], "time": [1971]}, "edge": {"target": [], "time": []}}}, "displayed_time": "15.94", "trialTime": 51286, "trial_type": "mouselab-mdp", "trial_index": 27, "time_elapsed": 2130948, "internal_node_id": "0.0-4.0-1.0-18.0"}}, {"uniqueid": "w32222186:a12999543", "current_trial": 28, "dateTime": 1691161894513, "trialdata": {"revealed_states": [], "clicked_states": [], "num_clicks_accrued": [0, 0, 0, 0, 0, 0, 0, 0, 0, 0, 0, 0, 0], "stateRewards": ["", -1, 3, 8, 10, -86, 61, -36, 10, 17, -60, 24, -1, -3, 3, 11, 50, 60, 33, -3, -20, 58, -6, 1, -4, -4, 13, -70, -71, 43, 14, 52, 82, -11], "withholdReward": false, "trial_id": "mdp_trial_20", "block": "test", "trialIndex": 21, "score": -16, "costs": 0, "simulationMode": [null, null, null, null, null], "rewards": [-1, 3, 8, 10, -36], "path": ["0", "0", "1", "2", "3", "4", "7"], "rt": [1665, 565, 522, 770, 911], "actions": ["up", "up", "up", "right", "down"], "actionTimes": [4337, 5401, 6425, 7689, 9097], "queries": {"click": {"state": {"target": [], "time": []}, "edge": {"target": [], "time": []}}, "mouseover": {"state": {"target": [], "time": []}, "edge": {"target": [], "time": []}}, "mouseout": {"state": {"target": ["0"], "time": [2693]}, "edge": {"target": [], "time": []}}}, "displayed_time": "16.67", "trialTime": 24785, "trial_type": "mouselab-mdp", "trial_index": 28, "time_elapsed": 2156316, "internal_node_id": "0.0-4.0-1.0-19.0"}}, {"uniqueid": "w32222186:a12999543", "current_trial": 29, "dateTime": 1691162077159, "trialdata": {"revealed_states": [], "clicked_states": [], "num_clicks_accrued": [0, 0, 0, 0, 0, 0, 0, 0, 0, 0, 0, 0, 0], "stateRewards": ["", 1, 3, 3, -10, 52, 68, 59, 12, 7, 49, 21, -2, -3, -4, -2, -2, 63, 63, -4, 44, 43, -76, -2, -3, -6, 13, 48, 36, 12, -5, -36, -33, -11], "withholdReward": false, "trial_id": "mdp_trial_21", "block": "test", "trialIndex": 22, "score": 68, "costs": 0, "simulationMode": [null, null, null, null, null], "rewards": [1, 3, 3, 12, 49], "path": ["0", "0", "1", "2", "3", "8", "10"], "rt": [1957, 299, 290, 682, 338], "actions": ["up", "up", "up", "left", "down"], "actionTimes": [10729, 11529, 12321, 13497, 14337], "queries": {"click": {"state": {"target": [], "time": []}, "edge": {"target": [], "time": []}}, "mouseover": {"state": {"target": ["0"], "time": [9141]}, "edge": {"target": [], "time": []}}, "mouseout": {"state": {"target": ["12", "0"], "time": [5505, 9225]}, "edge": {"target": [], "time": []}}}, "displayed_time": "22.77", "trialTime": 182039, "trial_type": "mouselab-mdp", "trial_index": 29, "time_elapsed": 2338961, "internal_node_id": "0.0-4.0-1.0-20.0"}}, {"uniqueid": "w32222186:a12999543", "current_trial": 30, "dateTime": 1691162120864, "trialdata": {"revealed_states": [], "clicked_states": [], "num_clicks_accrued": [0, 0, 0, 0, 0, 0, 0, 0, 0, 0, 0, 0, 0], "stateRewards": ["", 1, 1, 6, -14, -40, 37, 16, -13, 33, -68, 49, 2, 4, 3, 6, 55, 27, 32, 10, -65, 20, -87, 2, 1, -6, -5, -42, 12, 29, -8, 16, 76, -33], "withholdReward": false, "trial_id": "mdp_trial_22", "block": "test", "trialIndex": 23, "score": -46, "costs": 0, "simulationMode": [null, null, null, null, null], "rewards": [1, 1, 6, -14, -40], "path": ["0", "0", "1", "2", "3", "4", "5"], "rt": [2014, 582, 1594, 1565, 1840], "actions": ["up", "up", "up", "right", "up"], "actionTimes": [5279, 6375, 8470, 10543, 12886], "queries": {"click": {"state": {"target": [], "time": []}, "edge": {"target": [], "time": []}}, "mouseover": {"state": {"target": ["0"], "time": [3453]}, "edge": {"target": [], "time": []}}, "mouseout": {"state": {"target": ["12", "0", "0"], "time": [1851, 2351, 3487]}, "edge": {"target": [], "time": []}}}, "displayed_time": "17.27", "trialTime": 43087, "trial_type": "mouselab-mdp", "trial_index": 30, "time_elapsed": 2382666, "internal_node_id": "0.0-4.0-1.0-21.0"}}, {"uniqueid": "w32222186:a12999543", "current_trial": 31, "dateTime": 1691162178557, "trialdata": {"revealed_states": [], "clicked_states": [], "num_clicks_accrued": [0, 0, 0, 0, 0, 0, 0, 0, 0, 0, 0, 0, 0], "stateRewards": ["", -2, 1, -7, 9, 8, 25, 61, -7, -17, 69, -81, 1, 4, -4, -11, 16, 67, 44, 3, 6, -45, -54, -2, 3, 6, -11, -15, 32, -47, 3, -39, -6, -88], "withholdReward": false, "trial_id": "mdp_trial_23", "block": "test", "trialIndex": 24, "score": -19, "costs": 0, "simulationMode": [null, null, null, null, null], "rewards": [-2, 3, 6, -11, -15], "path": ["0", "0", "23", "24", "25", "26", "27"], "rt": [2371, 273, 1481, 778, 3158], "actions": ["left", "left", "left", "up", "up"], "actionTimes": [13469, 14245, 16221, 17500, 21165], "queries": {"click": {"state": {"target": [], "time": []}, "edge": {"target": [], "time": []}}, "mouseover": {"state": {"target": ["0"], "time": [11803]}, "edge": {"target": [], "time": []}}, "mouseout": {"state": {"target": ["12", "0", "0", "0", "7", "6", "12"], "time": [8263, 9090, 11849, 33030, 33330, 35982, 36332]}, "edge": {"target": [], "time": []}}}, "displayed_time": "25.10", "trialTime": 57092, "trial_type": "mouselab-mdp", "trial_index": 31, "time_elapsed": 2440360, "internal_node_id": "0.0-4.0-1.0-22.0"}}, {"uniqueid": "w32222186:a12999543", "current_trial": 32, "dateTime": 1691162213709, "trialdata": {"revealed_states": [], "clicked_states": [], "num_clicks_accrued": [0, 0, 0, 0, 0, 0, 0, 0, 0, 0, 0, 0, 0], "stateRewards": ["", 1, -2, 7, -14, 88, -56, -44, -14, 64, -51, -57, -2, 3, -4, -9, -11, 19, -77, -1, 68, 75, -67, -1, 1, -2, 5, -37, 70, -34, -10, -72, 63, -41], "withholdReward": false, "trial_id": "mdp_trial_24", "block": "test", "trialIndex": 25, "score": -65, "costs": 0, "simulationMode": [null, null, null, null, null], "rewards": [1, -2, 7, -14, -57], "path": ["0", "0", "1", "2", "3", "8", "11"], "rt": [1136, 2677, 116, 774, 2101], "actions": ["up", "up", "up", "left", "left"], "actionTimes": [3104, 6280, 6904, 8192, 10800], "queries": {"click": {"state": {"target": [], "time": []}, "edge": {"target": [], "time": []}}, "mouseover": {"state": {"target": [], "time": []}, "edge": {"target": [], "time": []}}, "mouseout": {"state": {"target": ["0"], "time": [2000]}, "edge": {"target": [], "time": []}}}, "displayed_time": "15.97", "trialTime": 34545, "trial_type": "mouselab-mdp", "trial_index": 32, "time_elapsed": 2475512, "internal_node_id": "0.0-4.0-1.0-23.0"}}, {"uniqueid": "w32222186:a12999543", "current_trial": 33, "dateTime": 1691162260636, "trialdata": {"revealed_states": [], "clicked_states": [], "num_clicks_accrued": [0, 0, 0, 0, 0, 0, 0, 0, 0, 0, 0, 0, 0], "stateRewards": ["", 1, 2, -3, 6, -88, 74, -45, 7, -46, 40, -77, 1, -4, 4, 3, 22, -25, -59, 8, -83, 19, -60, -1, -1, -1, -8, 26, -29, 64, -7, -88, -51, -55], "withholdReward": false, "trial_id": "mdp_trial_25", "block": "test", "trialIndex": 26, "score": 53, "costs": 0, "simulationMode": [null, null, null, null, null], "rewards": [-1, -1, -1, -8, 64], "path": ["0", "0", "23", "24", "25", "26", "29"], "rt": [2587, 202, 181, 297, 273], "actions": ["left", "left", "left", "up", "left"], "actionTimes": [5013, 5717, 6397, 7197, 7973], "queries": {"click": {"state": {"target": [], "time": []}, "edge": {"target": [], "time": []}}, "mouseover": {"state": {"target": [], "time": []}, "edge": {"target": [], "time": []}}, "mouseout": {"state": {"target": ["0"], "time": [2449]}, "edge": {"target": [], "time": []}}}, "displayed_time": "16.43", "trialTime": 46309, "trial_type": "mouselab-mdp", "trial_index": 33, "time_elapsed": 2522439, "internal_node_id": "0.0-4.0-1.0-24.0"}}, {"uniqueid": "w32222186:a12999543", "current_trial": 34, "dateTime": 1691162298444, "trialdata": {"revealed_states": [], "clicked_states": [], "num_clicks_accrued": [0, 0, 0, 0, 0, 0, 0, 0, 0, 0, 0, 0, 0], "stateRewards": ["", -2, -3, 7, -13, 60, 9, 37, -6, 37, 20, 1, 2, -2, -8, 6, -80, -31, -10, -7, 70, -65, -44, -1, 1, 7, 6, -11, 73, -85, 16, -21, 47, 34], "withholdReward": false, "trial_id": "mdp_trial_26", "block": "test", "trialIndex": 27, "score": 55, "costs": 0, "simulationMode": [null, null, null, null, null], "rewards": [2, -2, -8, -7, 70], "path": ["0", "0", "12", "13", "14", "19", "20"], "rt": [1509, 573, 426, 460, 421], "actions": ["right", "right", "right", "down", "right"], "actionTimes": [4033, 5105, 6025, 6993, 7921], "queries": {"click": {"state": {"target": [], "time": []}, "edge": {"target": [], "time": []}}, "mouseover": {"state": {"target": ["0"], "time": [2542]}, "edge": {"target": [], "time": []}}, "mouseout": {"state": {"target": ["0", "0"], "time": [1958, 2643]}, "edge": {"target": [], "time": []}}}, "displayed_time": "16.52", "trialTime": 37169, "trial_type": "mouselab-mdp", "trial_index": 34, "time_elapsed": 2560247, "internal_node_id": "0.0-4.0-1.0-25.0"}}, {"uniqueid": "w32222186:a12999543", "current_trial": 35, "dateTime": 1691162358388, "trialdata": {"revealed_states": [], "clicked_states": [], "num_clicks_accrued": [0, 0, 0, 0, 0, 0, 0, 0, 0, 0, 0, 0, 0], "stateRewards": ["", -1, -3, 1, 13, -64, -29, 12, -4, -33, 50, 56, 2, -3, 4, 11, -64, -58, -55, 12, 47, 38, -25, -2, 2, 5, -15, 85, 7, 84, 10, 8, 57, 26], "withholdReward": false, "trial_id": "mdp_trial_27", "block": "test", "trialIndex": 28, "score": -44, "costs": 0, "simulationMode": [null, null, null, null, null], "rewards": [2, -3, 4, 11, -58], "path": ["0", "0", "12", "13", "14", "15", "17"], "rt": [1708, 477, 518, 539, 449], "actions": ["right", "right", "right", "up", "right"], "actionTimes": [3830, 4806, 5838, 6886, 7830], "queries": {"click": {"state": {"target": [], "time": []}, "edge": {"target": [], "time": []}}, "mouseover": {"state": {"target": [], "time": []}, "edge": {"target": [], "time": []}}, "mouseout": {"state": {"target": ["0", "0"], "time": [1137, 2157]}, "edge": {"target": [], "time": []}}}, "displayed_time": "16.12", "trialTime": 59334, "trial_type": "mouselab-mdp", "trial_index": 35, "time_elapsed": 2620190, "internal_node_id": "0.0-4.0-1.0-26.0"}}, {"uniqueid": "w32222186:a12999543", "current_trial": 36, "dateTime": 1691162463074, "trialdata": {"revealed_states": [], "clicked_states": [], "num_clicks_accrued": [0, 0, 0, 0, 0, 0, 0, 0, 0, 0, 0, 0, 0], "stateRewards": ["", 2, -3, -4, -1, 25, -16, 16, 10, -71, -20, -55, 1, 3, -4, -9, 1, 32, 11, -6, 32, -50, -41, -1, 4, 4, -8, 7, -81, 70, 2, -52, 45, -10], "withholdReward": false, "trial_id": "mdp_trial_28", "block": "test", "trialIndex": 29, "score": -50, "costs": 0, "simulationMode": [null, null, null, null, null], "rewards": [2, -3, -4, 10, -55], "path": ["0", "0", "1", "2", "3", "8", "11"], "rt": [2898, 578, 3580, 2174, 372], "actions": ["up", "up", "up", "left", "left"], "actionTimes": [57915, 58987, 63083, 65755, 66635], "queries": {"click": {"state": {"target": [], "time": []}, "edge": {"target": [], "time": []}}, "mouseover": {"state": {"target": ["22"], "time": [55056]}, "edge": {"target": [], "time": []}}, "mouseout": {"state": {"target": ["13", "18", "18", "12", "0", "22"], "time": [53717, 53784, 53934, 54034, 55052, 55121]}, "edge": {"target": [], "time": []}}}, "displayed_time": "69.02", "trialTime": 104075, "trial_type": "mouselab-mdp", "trial_index": 36, "time_elapsed": 2724877, "internal_node_id": "0.0-4.0-1.0-27.0"}}, {"uniqueid": "w32222186:a12999543", "current_trial": 37, "dateTime": 1691162545002, "trialdata": {"revealed_states": [], "clicked_states": [], "num_clicks_accrued": [0, 0, 0, 0, 0, 0, 0, 0, 0, 0, 0, 0, 0], "stateRewards": ["", 2, 1, -3, 7, 46, 11, -36, 16, 71, 5, 1, 2, -2, -8, -3, -4, 6, 55, 7, 68, -54, 2, 1, 1, 6, -6, 42, -4, -84, -11, -65, 63, 25], "withholdReward": false, "trial_id": "mdp_trial_29", "block": "test", "trialIndex": 30, "score": 18, "costs": 0, "simulationMode": [null, null, null, null, null], "rewards": [2, 1, -3, 7, 11], "path": ["0", "0", "1", "2", "3", "4", "6"], "rt": [1694, 198, 186, 438, 160], "actions": ["up", "up", "up", "right", "right"], "actionTimes": [4066, 4762, 5450, 6386, 7042], "queries": {"click": {"state": {"target": [], "time": []}, "edge": {"target": [], "time": []}}, "mouseover": {"state": {"target": ["0"], "time": [2403]}, "edge": {"target": [], "time": []}}, "mouseout": {"state": {"target": ["22", "12", "0", "0"], "time": [1273, 1306, 1390, 2508]}, "edge": {"target": [], "time": []}}}, "displayed_time": "16.37", "trialTime": 81290, "trial_type": "mouselab-mdp", "trial_index": 37, "time_elapsed": 2806804, "internal_node_id": "0.0-4.0-1.0-28.0"}}, {"uniqueid": "w32222186:a12999543", "current_trial": 38, "dateTime": 1691162580009, "trialdata": {"revealed_states": [], "clicked_states": [], "num_clicks_accrued": [0, 0, 0, 0, 0, 0, 0, 0, 0, 0, 0, 0, 0], "stateRewards": ["", -2, -4, -6, 12, -58, -70, -80, 2, 16, -88, -62, 1, 2, -5, 11, 77, -35, -44, -5, 18, -83, 87, 1, -3, -5, 13, -44, -21, -86, 10, -52, 8, 29], "withholdReward": false, "trial_id": "mdp_trial_30", "block": "test", "trialIndex": 31, "score": 80, "costs": 0, "simulationMode": [null, null, null, null, null], "rewards": [1, 2, -5, -5, 87], "path": ["0", "0", "12", "13", "14", "19", "22"], "rt": [1777, 394, 285, 437, 759], "actions": ["right", "right", "right", "down", "left"], "actionTimes": [4684, 5579, 6372, 7308, 8564], "queries": {"click": {"state": {"target": [], "time": []}, "edge": {"target": [], "time": []}}, "mouseover": {"state": {"target": ["0"], "time": [2932]}, "edge": {"target": [], "time": []}}, "mouseout": {"state": {"target": ["12", "0", "0"], "time": [1712, 2261, 2947]}, "edge": {"target": [], "time": []}}}, "displayed_time": "16.91", "trialTime": 34364, "trial_type": "mouselab-mdp", "trial_index": 38, "time_elapsed": 2841812, "internal_node_id": "0.0-4.0-1.0-29.0"}}, {"uniqueid": "w32222186:a12999543", "current_trial": 39, "dateTime": 1691162633033, "trialdata": {"revealed_states": [], "clicked_states": [], "num_clicks_accrued": [0, 0, 0, 0, 0, 0, 0, 0, 0, 0, 0, 0, 0], "stateRewards": ["", -1, 3, 2, 9, 41, 4, -46, -12, -54, -87, -25, 2, 3, -1, 11, -77, 12, -33, -9, -32, 35, 72, 1, 3, -7, 4, 37, 65, -73, 6, 77, -43, 8], "withholdReward": false, "trial_id": "mdp_trial_31", "block": "test", "trialIndex": 32, "score": 80, "costs": 0, "simulationMode": [null, null, null, null, null], "rewards": [1, 3, -7, 6, 77], "path": ["0", "0", "23", "24", "25", "30", "31"], "rt": [1541, 430, 663, 838, 753], "actions": ["left", "left", "left", "down", "right"], "actionTimes": [3042, 3970, 5162, 6498, 7754], "queries": {"click": {"state": {"target": [], "time": []}, "edge": {"target": [], "time": []}}, "mouseover": {"state": {"target": [], "time": []}, "edge": {"target": [], "time": []}}, "mouseout": {"state": {"target": ["0"], "time": [1523]}, "edge": {"target": [], "time": []}}}, "displayed_time": "15.50", "trialTime": 52186, "trial_type": "mouselab-mdp", "trial_index": 39, "time_elapsed": 2894835, "internal_node_id": "0.0-4.0-1.0-30.0"}}, {"uniqueid": "w32222186:a12999543", "current_trial": 40, "dateTime": 1691162657497, "trialdata": {"revealed_states": [], "clicked_states": [], "num_clicks_accrued": [0, 0, 0, 0, 0, 0, 0, 0, 0, 0, 0, 0, 0], "stateRewards": ["", -1, 2, 6, 11, 21, -21, -21, -6, 48, -71, 88, -1, -3, 3, 7, 64, 2, 9, -4, 37, -67, 72, 2, 2, -8, -8, -10, 71, -40, -3, 73, 80, 47], "withholdReward": false, "trial_id": "mdp_trial_32", "block": "test", "trialIndex": 33, "score": 15, "costs": 0, "simulationMode": [null, null, null, null, null], "rewards": [-1, -3, 3, 7, 9], "path": ["0", "0", "12", "13", "14", "15", "18"], "rt": [2593, 466, 349, 712, 374], "actions": ["right", "right", "right", "up", "left"], "actionTimes": [4790, 5758, 6622, 7838, 8718], "queries": {"click": {"state": {"target": [], "time": []}, "edge": {"target": [], "time": []}}, "mouseover": {"state": {"target": [], "time": []}, "edge": {"target": [], "time": []}}, "mouseout": {"state": {"target": ["0"], "time": [2222]}, "edge": {"target": [], "time": []}}}, "displayed_time": "16.20", "trialTime": 23798, "trial_type": "mouselab-mdp", "trial_index": 40, "time_elapsed": 2919299, "internal_node_id": "0.0-4.0-1.0-31.0"}}, {"uniqueid": "w32222186:a12999543", "current_trial": 41, "dateTime": 1691162698624, "trialdata": {"revealed_states": [], "clicked_states": [], "num_clicks_accrued": [0, 0, 0, 0, 0, 0, 0, 0, 0, 0, 0, 0, 0], "stateRewards": ["", -1, 2, -7, -12, -62, 12, -13, 5, 77, -71, 83, 1, -4, 7, 15, -42, -87, -4, 5, -25, 44, 88, -1, 4, -5, -8, 14, 51, 8, -5, 83, -24, -19], "withholdReward": false, "trial_id": "mdp_trial_33", "block": "test", "trialIndex": 34, "score": 41, "costs": 0, "simulationMode": [null, null, null, null, null], "rewards": [-1, 4, -5, -8, 51], "path": ["0", "0", "23", "24", "25", "26", "28"], "rt": [1246, 251, 229, 1143, 258], "actions": ["left", "left", "left", "up", "right"], "actionTimes": [3296, 4048, 4776, 6424, 7192], "queries": {"click": {"state": {"target": [], "time": []}, "edge": {"target": [], "time": []}}, "mouseover": {"state": {"target": [], "time": []}, "edge": {"target": [], "time": []}}, "mouseout": {"state": {"target": ["0"], "time": [1323]}, "edge": {"target": [], "time": []}}}, "displayed_time": "16.05", "trialTime": 40448, "trial_type": "mouselab-mdp", "trial_index": 41, "time_elapsed": 2960426, "internal_node_id": "0.0-4.0-1.0-32.0"}}, {"uniqueid": "w32222186:a12999543", "current_trial": 42, "dateTime": 1691162723215, "trialdata": {"revealed_states": [], "clicked_states": [], "num_clicks_accrued": [0, 0, 0, 0, 0, 0, 0, 0, 0, 0, 0, 0, 0], "stateRewards": ["", 2, -1, 3, -12, -83, 6, -33, 9, 28, 24, -50, -2, -1, -2, -5, -87, 37, 82, 12, 80, -5, 10, -2, -3, -6, 9, 22, -1, 16, 9, 77, -62, 58], "withholdReward": false, "trial_id": "mdp_trial_34", "block": "test", "trialIndex": 35, "score": -41, "costs": 0, "simulationMode": [null, null, null, null, null], "rewards": [2, -1, 3, -12, -33], "path": ["0", "0", "1", "2", "3", "4", "7"], "rt": [1635, 222, 133, 144, 172], "actions": ["up", "up", "up", "right", "down"], "actionTimes": [3640, 4360, 5000, 5648, 6328], "queries": {"click": {"state": {"target": [], "time": []}, "edge": {"target": [], "time": []}}, "mouseover": {"state": {"target": [], "time": []}, "edge": {"target": [], "time": []}}, "mouseout": {"state": {"target": ["0"], "time": [2028]}, "edge": {"target": [], "time": []}}}, "displayed_time": "16.01", "trialTime": 23920, "trial_type": "mouselab-mdp", "trial_index": 42, "time_elapsed": 2985017, "internal_node_id": "0.0-4.0-1.0-33.0"}}, {"uniqueid": "w32222186:a12999543", "current_trial": 43, "dateTime": 1691162818127, "trialdata": {"revealed_states": [], "clicked_states": [], "num_clicks_accrued": [0, 0, 0, 0, 0, 0, 0, 0, 0, 0, 0, 0, 0], "stateRewards": ["", 1, -1, -7, -7, -22, 15, -13, 13, 26, -32, 38, -1, 1, -7, -4, 16, -62, 86, 12, -54, 56, 64, -2, -1, 6, 14, -57, 37, 62, -6, -25, 50, -70], "withholdReward": false, "trial_id": "mdp_trial_35", "block": "test", "trialIndex": 36, "score": -26, "costs": 0, "simulationMode": [null, null, null, null, null], "rewards": [1, -1, -7, 13, -32], "path": ["0", "0", "1", "2", "3", "8", "10"], "rt": [1797, 281, 161, 359, 284], "actions": ["up", "up", "up", "left", "down"], "actionTimes": [3746, 4522, 5186, 6050, 6842], "queries": {"click": {"state": {"target": [], "time": []}, "edge": {"target": [], "time": []}}, "mouseover": {"state": {"target": [], "time": []}, "edge": {"target": [], "time": []}}, "mouseout": {"state": {"target": ["0", "0"], "time": [1117, 91946]}, "edge": {"target": [], "time": []}}}, "displayed_time": "15.95", "trialTime": 94218, "trial_type": "mouselab-mdp", "trial_index": 43, "time_elapsed": 3079929, "internal_node_id": "0.0-4.0-1.0-34.0"}}, {"uniqueid": "w32222186:a12999543", "current_trial": 44, "dateTime": 1691162860678, "trialdata": {"revealed_states": [], "clicked_states": [], "num_clicks_accrued": [0, 0, 0, 0, 0, 0, 0, 0, 0, 0, 0, 0, 0], "stateRewards": ["", -2, -4, 4, -11, -63, -60, -7, 2, -14, 81, -43, -1, -1, -5, 7, 10, 69, 40, 8, -83, 52, 60, 1, 2, 5, -5, 16, 64, 14, -3, 29, 7, -51], "withholdReward": false, "trial_id": "mdp_trial_36", "block": "test", "trialIndex": 37, "score": -82, "costs": 0, "simulationMode": [null, null, null, null, null], "rewards": [-1, -1, -5, 8, -83], "path": ["0", "0", "12", "13", "14", "19", "20"], "rt": [1694, 201, 141, 688, 434], "actions": ["right", "right", "right", "down", "right"], "actionTimes": [4261, 4957, 5597, 6781, 7709], "queries": {"click": {"state": {"target": [], "time": []}, "edge": {"target": [], "time": []}}, "mouseover": {"state": {"target": [], "time": []}, "edge": {"target": [], "time": []}}, "mouseout": {"state": {"target": ["0"], "time": [1315]}, "edge": {"target": [], "time": []}}}, "displayed_time": "16.57", "trialTime": 41837, "trial_type": "mouselab-mdp", "trial_index": 44, "time_elapsed": 3122481, "internal_node_id": "0.0-4.0-1.0-35.0"}}, {"uniqueid": "w32222186:a12999543", "current_trial": 45, "dateTime": 1691162966069, "trialdata": {"revealed_states": [], "clicked_states": [], "num_clicks_accrued": [0, 0, 0, 0, 0, 0, 0, 0, 0, 0, 0, 0, 0], "stateRewards": ["", -2, -4, 6, 14, -34, 49, 36, -8, -3, 32, -4, 1, -2, 1, -8, -20, -71, -57, -7, -86, -62, -16, -2, -3, -5, 11, 23, -21, 53, 5, -5, 85, 73], "withholdReward": false, "trial_id": "mdp_trial_37", "block": "test", "trialIndex": 38, "score": -12, "costs": 0, "simulationMode": [null, null, null, null, null], "rewards": [-2, -4, 6, -8, -4], "path": ["0", "0", "1", "2", "3", "8", "11"], "rt": [1538, 181, 139, 353, 107], "actions": ["up", "up", "up", "left", "left"], "actionTimes": [4095, 4775, 5415, 6263, 6879], "queries": {"click": {"state": {"target": [], "time": []}, "edge": {"target": [], "time": []}}, "mouseover": {"state": {"target": [], "time": []}, "edge": {"target": [], "time": []}}, "mouseout": {"state": {"target": ["0", "0", "0", "23", "24", "25", "30", "32", "33", "32", "33", "30", "31", "32"], "time": [1819, 77337, 78888, 79105, 79205, 85626, 85909, 89061, 90796, 91280, 97951, 98068, 98701, 102587]}, "edge": {"target": [], "time": []}}}, "displayed_time": "16.56", "trialTime": 104686, "trial_type": "mouselab-mdp", "trial_index": 45, "time_elapsed": 3227871, "internal_node_id": "0.0-4.0-1.0-36.0"}}, {"uniqueid": "w32222186:a12999543", "current_trial": 46, "dateTime": 1691163014180, "trialdata": {"revealed_states": [], "clicked_states": [], "num_clicks_accrued": [0, 0, 0, 0, 0, 0, 0, 0, 0, 0, 0, 0, 0], "stateRewards": ["", 1, -1, 4, -2, -75, -75, 84, -9, -60, -79, 59, 2, -4, 8, 9, -17, -82, 80, 14, -4, 49, 49, -1, 3, 6, -11, -33, 34, 55, 9, -57, 5, 59], "withholdReward": false, "trial_id": "mdp_trial_38", "block": "test", "trialIndex": 39, "score": 22, "costs": 0, "simulationMode": [null, null, null, null, null], "rewards": [-1, 3, 6, 9, 5], "path": ["0", "0", "23", "24", "25", "30", "32"], "rt": [1320, 108, 83, 139, 217], "actions": ["left", "left", "left", "down", "down"], "actionTimes": [3627, 4243, 4850, 5490, 6202], "queries": {"click": {"state": {"target": [], "time": []}, "edge": {"target": [], "time": []}}, "mouseover": {"state": {"target": [], "time": []}, "edge": {"target": [], "time": []}}, "mouseout": {"state": {"target": ["0", "24", "26", "27", "26", "24"], "time": [1711, 43640, 43840, 45224, 45258, 45341]}, "edge": {"target": [], "time": []}}}, "displayed_time": "16.31", "trialTime": 47402, "trial_type": "mouselab-mdp", "trial_index": 46, "time_elapsed": 3275983, "internal_node_id": "0.0-4.0-1.0-37.0"}}, {"uniqueid": "w32222186:a12999543", "current_trial": 47, "dateTime": 1691163061188, "trialdata": {"revealed_states": [], "clicked_states": [], "num_clicks_accrued": [0, 0, 0, 0, 0, 0, 0, 0, 0, 0, 0, 0, 0], "stateRewards": ["", 2, -1, 1, 10, -52, 86, -22, -2, -14, -63, 38, 1, 3, 7, -8, 11, -32, -27, 9, -71, 40, -87, -2, -1, 5, -7, 12, 31, -57, 13, 86, -58, 29], "withholdReward": false, "trial_id": "mdp_trial_39", "block": "test", "trialIndex": 40, "score": 7, "costs": 0, "simulationMode": [null, null, null, null, null], "rewards": [-2, -1, 5, -7, 12], "path": ["0", "0", "23", "24", "25", "26", "27"], "rt": [1313, 332, 267, 708, 187], "actions": ["left", "left", "left", "up", "up"], "actionTimes": [3690, 4530, 5298, 6506, 7186], "queries": {"click": {"state": {"target": [], "time": []}, "edge": {"target": [], "time": []}}, "mouseover": {"state": {"target": [], "time": []}, "edge": {"target": [], "time": []}}, "mouseout": {"state": {"target": ["0"], "time": [1257]}, "edge": {"target": [], "time": []}}}, "displayed_time": "16.38", "trialTime": 46274, "trial_type": "mouselab-mdp", "trial_index": 47, "time_elapsed": 3322990, "internal_node_id": "0.0-4.0-1.0-38.0"}}, {"uniqueid": "w32222186:a12999543", "current_trial": 48, "dateTime": 1691163086547, "trialdata": {"revealed_states": [], "clicked_states": [], "num_clicks_accrued": [0, 0, 0, 0, 0, 0, 0, 0, 0, 0, 0, 0, 0], "stateRewards": ["", -1, -1, 4, -16, -75, 81, -51, -7, -84, 73, -30, -2, 1, -3, -16, -77, 33, 14, 1, 45, 87, -66, 2, 2, -5, -7, -19, -17, 79, -3, 8, 49, 47], "withholdReward": false, "trial_id": "mdp_trial_40", "block": "test", "trialIndex": 41, "score": 67, "costs": 0, "simulationMode": [null, null, null, null, null], "rewards": [-1, -1, 4, -16, 81], "path": ["0", "0", "1", "2", "3", "4", "6"], "rt": [2145, 271, 258, 267, 202], "actions": ["up", "up", "up", "right", "right"], "actionTimes": [4833, 5609, 6361, 7121, 7825], "queries": {"click": {"state": {"target": [], "time": []}, "edge": {"target": [], "time": []}}, "mouseover": {"state": {"target": [], "time": []}, "edge": {"target": [], "time": []}}, "mouseout": {"state": {"target": ["0"], "time": [2716]}, "edge": {"target": [], "time": []}}}, "displayed_time": "16.69", "trialTime": 24657, "trial_type": "mouselab-mdp", "trial_index": 48, "time_elapsed": 3348350, "internal_node_id": "0.0-4.0-1.0-39.0"}}, {"uniqueid": "w32222186:a12999543", "current_trial": 49, "dateTime": 1691163309904, "trialdata": {"rt": 222967, "response": {"Q0": "$-88 to $88", "Q1": "$-16 to $16", "Q2": "$-32 to $32", "Q3": "The cost for clicking on nodes varied between nodes.", "Q4": "Very motivated"}, "question_order": [0, 1, 2, 3, 4], "trial_id": "final_quiz_control", "trial_type": "survey-multi-choice", "trial_index": 49, "time_elapsed": 3571707, "internal_node_id": "0.0-4.0-2.0"}}, {"uniqueid": "w32222186:a12999543", "current_trial": 50, "dateTime": 1691163888692, "trialdata": {"rt": 578566, "response": {"Q0": "At first I got a little unlucky, but then figured out, after my luck turned, that cetain outer edges was a loss!! So I tried very hard to miss those unlucky ones!! But it was very hard, I'm very forgetfull!! ", "Q1": "Yes, I saw that some outer ones, where one wouldn't normaly look to go, was actualy a win!! So I tried very hard to repeat that along the game!!", "Q2": "It was very difficult for me, because I'm very forgetful!!"}, "trial_id": "self_report_control", "trial_type": "survey-text", "trial_index": 50, "time_elapsed": 4150495, "internal_node_id": "0.0-4.0-3.0"}}, {"uniqueid": "w32222186:a12999543", "current_trial": 51, "dateTime": 1691164045467, "trialdata": {"rt": 156768, "response": {"Q0": "Neither disagree nor agree", "Q1": "Disagree", "Q2": "Agree", "Q3": "Agree", "Q4": "Agree", "Q5": "Agree", "Q6": "Disagree"}, "question_order": [0, 1, 2, 3, 4, 5, 6], "trial_id": "self_report_2", "trial_type": "survey-multi-choice", "trial_index": 51, "time_elapsed": 4307270, "internal_node_id": "0.0-4.0-4.0"}}, {"uniqueid": "w32222186:a12999543", "current_trial": 52, "dateTime": 1691164104969, "trialdata": {"rt": 59440, "response": {"gender": "male", "age": "41", "colorblind": "0", "effort": "0"}, "trial_type": "survey-html-form", "trial_index": 52, "time_elapsed": 4366772, "internal_node_id": "0.0-4.0-5.0"}}, {"uniqueid": "w32222186:a12999543", "current_trial": 53, "dateTime": 1691164215704, "trialdata": {"rt": 110724, "response": {"Q0": "A little bit, but not to much!!", "Q1": "NO!!", "Q2": ""}, "trial_type": "survey-text", "trial_index": 53, "time_elapsed": 4477507, "internal_node_id": "0.0-4.0-6.0"}}, {"uniqueid": "w32222186:a12999543", "current_trial": 54, "dateTime": 1691164234872, "trialdata": {"rt": 19150, "stimulus": "Press 'Finish HIT' in order to reach the completion code. Once the data has been saved, you will receive the code either in this window or in the original browser window where you started the experiment.\n", "response": 0, "trial_type": "html-button-response", "trial_index": 54, "time_elapsed": 4496675, "internal_node_id": "0.0-5.0"}}], "questiondata": {"params": {"CODE": "C6DMOQA6", "MIN_TIME": 14, "inspectCost": 1, "startTime": "Fri Aug 04 2023 16:35:31 GMT+0200 (South Africa Standard Time)", "bonusRate": 0.002, "variance": "1_2_4_8_44", "branching": "31123"}}, "eventdata": [{"eventtype": "initialized", "value": null, "timestamp": 1691159730942, "interval": 0}, {"eventtype": "window_resize", "value": [1024, 664], "timestamp": 1691159730942, "interval": 0}, {"eventtype": "window_resize", "value": [1024, 664], "timestamp": 1691159731464, "interval": 522}, {"eventtype": "window_resize", "value": [1366, 768], "timestamp": 1691159748126, "interval": 16662}], "useragent": "Mozilla/5.0 (Windows NT 10.0; Win64; x64) AppleWebKit/537.36 (KHTML, like Gecko) Chrome/115.0.0.0 Safari/537.36", "mode": "live", "id": "w32222186:a12999543", "status": "user data saved", "Beginhit": "2023-08-04 14:35:19.304794", "Beginexp": "2023-08-04 14:35:49.195877", "Endhit": "2023-08-04 15:50:38.56988", "psiturkStatus": 3, "browser": "<redacted>", "platform": "windows", "language": "en-ZA"}