{"condition": 0, "counterbalance": 0, "assignmentId": "a68400499", "workerId": "w41244801", "hitId": "h49941762", "currenttrial": 55, "bonus": 0, "data": [{"uniqueid": "w41244801:a68400499", "current_trial": 0, "dateTime": 1691144669311, "trialdata": {"success": true, "trial_type": "fullscreen", "trial_index": 0, "time_elapsed": 24422, "internal_node_id": "0.0-0.0"}}, {"uniqueid": "w41244801:a68400499", "current_trial": 1, "dateTime": 1691144693733, "trialdata": {"view_history": [{"page_index": 0, "viewing_time": 24418}], "rt": 24419, "trial_id": "exp_instructions_control", "trial_type": "instructions", "trial_index": 1, "time_elapsed": 48844, "internal_node_id": "0.0-1.0"}}, {"uniqueid": "w41244801:a68400499", "current_trial": 2, "dateTime": 1691144699342, "trialdata": {"success": true, "trial_type": "fullscreen", "trial_index": 2, "time_elapsed": 54453, "internal_node_id": "0.0-2.0-0.0"}}, {"uniqueid": "w41244801:a68400499", "current_trial": 3, "dateTime": 1691144898402, "trialdata": {"view_history": [{"page_index": 0, "viewing_time": 84204}, {"page_index": 1, "viewing_time": 60063}, {"page_index": 2, "viewing_time": 16976}, {"page_index": 3, "viewing_time": 37816}], "rt": 199059, "trial_id": "mouselab_instructions_1_control", "trial_type": "instructions", "trial_index": 3, "time_elapsed": 253513, "internal_node_id": "0.0-2.0-1.0"}}, {"uniqueid": "w41244801:a68400499", "current_trial": 4, "dateTime": 1691144925378, "trialdata": {"revealed_states": [], "clicked_states": ["12", "13", "19"], "num_clicks_accrued": [0, 0, 0, 0, 0, 0, 0, 0, 0, 0, 0, 0, 0], "stateRewards": ["", 10, -10, 10, 10, -10, 10, 10, 10, 10, 10, 10, 10, 10, 10, -10, -10, -10, 10, 10, 10, 10, -10, -10, 10, 10, -10, -10, -10, -10, -10, -10, -10, 10], "withholdReward": false, "trial_id": "practice_1", "block": "test", "trialIndex": 0, "score": 52, "costs": -1.5, "simulationMode": [null, null, null, null, null], "rewards": [10, 10, 10, 10, 10], "path": ["0", "0", "12", "13", "14", "19", "21"], "rt": [13626, 962, 320, 407, 266], "actions": ["right", "right", "right", "down", "down"], "actionTimes": [16514, 17977, 18801, 19721, 20481], "queries": {"click": {"state": {"target": ["12", "13", "19"], "time": [4172, 7179, 13179]}, "edge": {"target": [], "time": []}}, "mouseover": {"state": {"target": ["12", "1", "0", "13", "14", "14", "19"], "time": [3962, 4795, 6178, 6695, 9762, 12029, 12728]}, "edge": {"target": [], "time": []}}, "mouseout": {"state": {"target": ["12", "0", "12", "1", "0", "12", "13", "13", "14", "14", "19"], "time": [1862, 2261, 4512, 5762, 6345, 6462, 8512, 9578, 10212, 12678, 13479]}, "edge": {"target": [], "time": []}}}, "displayed_time": "20.98", "trialTime": 26137, "trial_type": "mouselab-mdp", "trial_index": 4, "time_elapsed": 280488, "internal_node_id": "0.0-2.0-2.0-0.0"}}, {"uniqueid": "w41244801:a68400499", "current_trial": 5, "dateTime": 1691144950729, "trialdata": {"revealed_states": [], "clicked_states": ["12", "1", "2", "8", "9", "11", "10"], "num_clicks_accrued": [0, 0, 0, 0, 0, 0, 0, 0, 0, 0, 0, 0, 0], "stateRewards": ["", 10, 10, 10, -10, -10, -10, -10, 10, -10, 10, -10, -10, -10, 10, -10, 10, -10, -10, 10, 10, -10, 10, 10, -10, -10, -10, 10, -10, -10, 10, -10, -10, 10], "withholdReward": false, "trial_id": "practice_2", "block": "test", "trialIndex": 1, "score": 50, "costs": -3.5, "simulationMode": [null, null, null, null, null], "rewards": [10, 10, 10, 10, 10], "path": ["0", "0", "1", "2", "3", "8", "10"], "rt": [16843, 285, 205, 632, 291], "actions": ["up", "up", "up", "left", "down"], "actionTimes": [19248, 20031, 20751, 21895, 22687], "queries": {"click": {"state": {"target": ["12", "1", "2", "8", "9", "11", "10"], "time": [3328, 5224, 7656, 10296, 12832, 14664, 16280]}, "edge": {"target": [], "time": []}}, "mouseover": {"state": {"target": ["12", "1", "23", "2", "3", "8", "7", "4", "9", "3", "2", "1", "0", "10", "11", "23", "10"], "time": [2976, 4976, 5876, 7343, 9210, 10076, 10476, 11260, 12576, 12976, 13010, 13077, 14093, 14243, 14476, 14943, 15976]}, "edge": {"target": [], "time": []}}, "mouseout": {"state": {"target": ["12", "12", "12", "12", "1", "23", "2", "1", "1", "3", "8", "7", "4", "9", "3", "2", "1", "0", "10", "11", "23", "10"], "time": [1359, 1694, 3344, 4809, 5410, 7077, 7843, 7876, 8543, 10026, 10443, 10493, 12310, 12960, 12993, 13027, 13343, 14110, 14260, 14827, 15693, 16460]}, "edge": {"target": [], "time": []}}}, "displayed_time": "23.18", "trialTime": 25103, "trial_type": "mouselab-mdp", "trial_index": 5, "time_elapsed": 305840, "internal_node_id": "0.0-2.0-2.0-1.0"}}, {"uniqueid": "w41244801:a68400499", "current_trial": 6, "dateTime": 1691144995193, "trialdata": {"view_history": [{"page_index": 0, "viewing_time": 29886}, {"page_index": 1, "viewing_time": 14576}], "rt": 44462, "trial_id": "mouselab_instructions_2_control", "trial_type": "instructions", "trial_index": 6, "time_elapsed": 350304, "internal_node_id": "0.0-2.0-3.0"}}, {"uniqueid": "w41244801:a68400499", "current_trial": 7, "dateTime": 1691145045889, "trialdata": {"rt": 50693, "response": {"Q0": "The cost for clicking on nodes may vary between nodes.", "Q1": "The better I perform the higher my bonus will be.", "Q2": "No, the amount of cash at each node of the web may be different each time.", "Q3": "To get the highest total score.", "Q4": "Only before moving the spider.", "Q5": "3 seconds"}, "question_order": [0, 1, 2, 3, 4, 5], "correct": {"Q0": "The cost for clicking on nodes may vary between nodes.", "Q1": "The better I perform the higher my bonus will be.", "Q2": "No, the amount of cash at each node of the web may be different each time.", "Q3": "To get the highest total score.", "Q4": "Only before moving the spider.", "Q5": "3 seconds"}, "trial_id": "mouselab_quiz_control", "trial_type": "survey-multi-choice", "trial_index": 7, "time_elapsed": 401000, "internal_node_id": "0.0-2.0-4.0"}}, {"uniqueid": "w41244801:a68400499", "current_trial": 8, "dateTime": 1691145062839, "trialdata": {"rt": 16945, "stimulus": "\n<h1> Get ready to start the game! </h1>\n\nThank you for reading the instructions. Get ready start with the 40 rounds of this game.\n<br><br>\nIf you need to take a break, feel free to take one after the end of a round, before continuing to the next one.\n<br><br>\nRemember, the more money the spider gets, the bigger your bonus will be!\n<br><br>\n<div style='text-align: center;'>Press <code>space</code> to begin.</div>\n\n<br><br>\n(If, at any point, the <code>space</code> key does not take you to the next page, click once on the text and try again.)", "response": " ", "trial_id": "mdp_ready", "trial_type": "html-keyboard-response", "trial_index": 8, "time_elapsed": 417950, "internal_node_id": "0.0-4.0-0.0"}}, {"uniqueid": "w41244801:a68400499", "current_trial": 9, "dateTime": 1691145086311, "trialdata": {"revealed_states": [], "clicked_states": ["12", "1", "23", "2", "10"], "num_clicks_accrued": [0, 0, 0, 0, 0, 0, 0, 0, 0, 0, 0, 0, 0], "stateRewards": ["", 2, 4, 7, 7, -79, -2, -21, -5, -53, 47, -21, 1, -3, -1, 7, 83, 7, 84, -7, 80, -37, 69, 2, -4, 5, 2, 4, -20, -30, 7, 71, 44, -81], "withholdReward": false, "trial_id": "mdp_trial_1", "block": "test", "trialIndex": 2, "score": 48, "costs": -7, "simulationMode": [null, null, null, null, null], "rewards": [2, 4, 7, -5, 47], "path": ["0", "0", "1", "2", "3", "8", "10"], "rt": [14011, 78, 238, 592, 308], "actions": ["up", "up", "up", "left", "down"], "actionTimes": [16281, 16856, 17600, 18720, 19520], "queries": {"click": {"state": {"target": ["12", "1", "23", "2", "10"], "time": [3042, 5441, 8537, 10969, 13081]}, "edge": {"target": [], "time": []}}, "mouseover": {"state": {"target": ["12", "1", "0", "23", "2", "1", "10", "1", "0", "11"], "time": [2809, 4854, 5660, 7476, 9843, 11793, 12775, 13259, 14276, 14542]}, "edge": {"target": [], "time": []}}, "mouseout": {"state": {"target": ["12", "0", "12", "12", "1", "0", "23", "1", "2", "2", "1", "2", "10", "1", "0", "10", "11", "10"], "time": [1508, 2709, 3842, 4526, 5626, 5676, 8743, 9810, 11052, 11209, 11826, 11926, 13242, 13276, 14292, 14509, 15292, 15376]}, "edge": {"target": [], "time": []}}}, "displayed_time": "20.01", "trialTime": 23200, "trial_type": "mouselab-mdp", "trial_index": 9, "time_elapsed": 441422, "internal_node_id": "0.0-4.0-1.0-0.0"}}, {"uniqueid": "w41244801:a68400499", "current_trial": 10, "dateTime": 1691145106847, "trialdata": {"revealed_states": [], "clicked_states": [], "num_clicks_accrued": [0, 0, 0, 0, 0, 0, 0, 0, 0, 0, 0, 0, 0], "stateRewards": ["", 1, 1, -5, 8, -6, 45, 16, -6, -7, -22, -38, -1, -4, 8, -11, -16, 21, -45, -15, -59, -32, 42, -1, 3, 6, 11, -7, 34, -27, -8, 85, 43, -9], "withholdReward": false, "trial_id": "mdp_trial_2", "block": "test", "trialIndex": 3, "score": -47, "costs": 0, "simulationMode": [null, null, null, null, null], "rewards": [1, 1, -5, -6, -38], "path": ["0", "0", "1", "2", "3", "8", "11"], "rt": [8311, 1250, 388, 1089, 1297], "actions": ["up", "up", "up", "left", "left"], "actionTimes": [10312, 12055, 12943, 14527, 16319], "queries": {"click": {"state": {"target": [], "time": []}, "edge": {"target": [], "time": []}}, "mouseover": {"state": {"target": ["12", "13", "12"], "time": [2769, 4952, 5386]}, "edge": {"target": [], "time": []}}, "mouseout": {"state": {"target": ["0", "12", "13", "12"], "time": [2508, 4919, 5369, 5452]}, "edge": {"target": [], "time": []}}}, "displayed_time": "16.82", "trialTime": 20279, "trial_type": "mouselab-mdp", "trial_index": 10, "time_elapsed": 461958, "internal_node_id": "0.0-4.0-1.0-1.0"}}, {"uniqueid": "w41244801:a68400499", "current_trial": 11, "dateTime": 1691145130887, "trialdata": {"revealed_states": [], "clicked_states": ["12", "13", "1", "23", "2"], "num_clicks_accrued": [0, 0, 0, 0, 0, 0, 0, 0, 0, 0, 0, 0, 0], "stateRewards": ["", 1, 2, 2, -15, -84, 28, -26, 13, 31, 86, 30, -2, 1, -1, -8, 66, -40, -1, -10, -32, 57, -17, 1, 2, -2, 9, -23, 77, 85, 12, -32, -62, -35], "withholdReward": false, "trial_id": "mdp_trial_3", "block": "test", "trialIndex": 4, "score": 97, "costs": -7, "simulationMode": [null, null, null, null, null], "rewards": [1, 2, 2, 13, 86], "path": ["0", "0", "1", "2", "3", "8", "10"], "rt": [15296, 197, 97, 313, 1408], "actions": ["up", "up", "up", "left", "down"], "actionTimes": [17271, 17974, 18574, 19390, 21302], "queries": {"click": {"state": {"target": ["12", "13", "1", "23", "2"], "time": [2735, 4799, 6735, 8839, 10423]}, "edge": {"target": [], "time": []}}, "mouseover": {"state": {"target": ["12", "13", "1", "1", "23", "2", "1", "13", "22", "22", "13", "3", "2", "1", "0"], "time": [2374, 3374, 5374, 5591, 7508, 9774, 11541, 12507, 12924, 13391, 13542, 14715, 15757, 15808, 15874]}, "edge": {"target": [], "time": []}}, "mouseout": {"state": {"target": ["0", "12", "13", "12", "1", "1", "23", "2", "1", "1", "2", "13", "22", "22", "13", "3", "2", "1", "0"], "time": [2341, 3341, 5208, 5291, 5408, 7124, 9658, 10691, 10741, 11574, 11858, 12908, 12958, 13474, 14391, 15724, 15774, 15827, 15891]}, "edge": {"target": [], "time": []}}}, "displayed_time": "21.79", "trialTime": 23774, "trial_type": "mouselab-mdp", "trial_index": 11, "time_elapsed": 485998, "internal_node_id": "0.0-4.0-1.0-2.0"}}, {"uniqueid": "w41244801:a68400499", "current_trial": 12, "dateTime": 1691145175294, "trialdata": {"revealed_states": [], "clicked_states": ["12", "1", "23", "2", "13", "3", "14", "24", "25", "30", "32", "27", "31"], "num_clicks_accrued": [0, 0, 0, 0, 0, 0, 0, 0, 0, 0, 0, 0, 0], "stateRewards": ["", -2, -4, -2, -13, -15, 87, -19, -6, -80, 30, 12, 1, 1, -8, 2, 55, 56, 15, 11, -68, -7, 55, -2, 3, -3, -3, 48, 62, 4, 1, -3, 69, -33], "withholdReward": false, "trial_id": "mdp_trial_4", "block": "test", "trialIndex": 5, "score": 49.8, "costs": -18.2, "simulationMode": [null, null, null, null, null], "rewards": [-2, 3, -3, 1, 69], "path": ["0", "0", "23", "24", "25", "30", "32"], "rt": [34092, 82, 75, 244, 55], "actions": ["left", "left", "left", "down", "down"], "actionTimes": [39240, 39839, 40415, 41151, 41711], "queries": {"click": {"state": {"target": ["12", "1", "23", "2", "13", "3", "14", "24", "25", "30", "32", "27", "31"], "time": [8082, 11056, 13489, 15489, 17417, 19585, 22041, 24536, 26600, 29057, 31127, 34104, 36592]}, "edge": {"target": [], "time": []}}, "mouseover": {"state": {"target": ["12", "1", "23", "1", "0", "23", "2", "1", "13", "22", "22", "3", "8", "7", "15", "14", "19", "22", "23", "24", "31", "25", "26", "30", "32", "25", "26", "27", "26", "25", "31", "30", "33", "30"], "time": [6717, 9104, 10137, 10704, 11337, 11671, 14854, 15820, 16604, 18088, 18554, 19304, 20188, 21571, 21604, 21904, 22388, 24071, 24171, 24420, 24970, 26287, 27821, 28687, 30954, 33620, 33687, 34003, 34287, 34320, 36137, 36787, 37287, 37937]}, "edge": {"target": [], "time": []}}, "mouseout": {"state": {"target": ["22", "12", "0", "12", "1", "23", "1", "0", "23", "1", "2", "1", "13", "22", "22", "13", "2", "3", "8", "7", "15", "14", "19", "22", "23", "24", "31", "25", "25", "26", "25", "30", "32", "32", "32", "25", "26", "27", "26", "25", "31", "30", "33", "30"], "time": [2536, 2653, 6537, 8887, 9904, 10604, 11304, 11354, 13757, 14704, 15738, 16188, 18054, 18154, 18670, 18788, 19087, 19804, 21537, 21587, 21621, 22337, 24037, 24087, 24304, 24771, 25820, 26837, 27721, 28587, 28637, 30054, 31220, 31354, 31739, 33654, 33887, 34270, 34304, 34354, 36738, 37104, 37887, 38004]}, "edge": {"target": [], "time": []}}}, "displayed_time": "42.22", "trialTime": 44127, "trial_type": "mouselab-mdp", "trial_index": 12, "time_elapsed": 530405, "internal_node_id": "0.0-4.0-1.0-3.0"}}, {"uniqueid": "w41244801:a68400499", "current_trial": 13, "dateTime": 1691145205790, "trialdata": {"revealed_states": [], "clicked_states": ["12", "13", "1", "2", "23", "14", "21", "10", "22", "31"], "num_clicks_accrued": [0, 0, 0, 0, 0, 0, 0, 0, 0, 0, 0, 0, 0], "stateRewards": ["", 1, 1, 4, 11, 83, -66, 18, -16, -23, 5, 25, 1, -3, 1, -12, 18, 24, -86, -11, -64, 36, 40, 2, 1, -6, 13, 55, 29, 72, -2, 81, -72, -41], "withholdReward": false, "trial_id": "mdp_trial_5", "block": "test", "trialIndex": 6, "score": 62, "costs": -14.000000000000002, "simulationMode": [null, null, null, null, null], "rewards": [2, 1, -6, -2, 81], "path": ["0", "0", "23", "24", "25", "30", "31"], "rt": [23738, 76, 254, 287, 183], "actions": ["left", "left", "left", "down", "right"], "actionTimes": [25187, 25762, 26506, 27307, 28002], "queries": {"click": {"state": {"target": ["12", "13", "1", "2", "23", "14", "21", "10", "22", "31"], "time": [2660, 4291, 6339, 8171, 10051, 12172, 14748, 17323, 19723, 22068]}, "edge": {"target": [], "time": []}}, "mouseover": {"state": {"target": ["12", "12", "13", "1", "0", "2", "23", "31", "13", "14", "19", "22", "19", "21", "22", "10", "22", "32", "31", "32"], "time": [1850, 2500, 3350, 5233, 6583, 6933, 8816, 10317, 10817, 11017, 12433, 14083, 14150, 14567, 15450, 17067, 19368, 20433, 20667, 23017]}, "edge": {"target": [], "time": []}}, "mouseout": {"state": {"target": ["0", "12", "12", "13", "12", "1", "1", "0", "1", "2", "2", "1", "23", "31", "13", "14", "19", "22", "19", "21", "21", "22", "10", "22", "32", "31", "32"], "time": [1800, 2183, 3250, 4817, 4967, 6431, 6550, 6817, 6883, 8255, 8367, 8384, 10234, 10483, 10967, 12417, 12467, 14117, 14516, 14831, 15100, 15550, 17517, 19900, 20583, 22267, 24433]}, "edge": {"target": [], "time": []}}}, "displayed_time": "28.50", "trialTime": 30219, "trial_type": "mouselab-mdp", "trial_index": 13, "time_elapsed": 560900, "internal_node_id": "0.0-4.0-1.0-4.0"}}, {"uniqueid": "w41244801:a68400499", "current_trial": 14, "dateTime": 1691145227894, "trialdata": {"revealed_states": [], "clicked_states": ["22", "21", "31", "32", "20", "33"], "num_clicks_accrued": [0, 0, 0, 0, 0, 0, 0, 0, 0, 0, 0, 0, 0], "stateRewards": ["", -1, 3, 2, 9, 41, 4, -46, -12, -54, -87, -25, 2, 3, -1, 11, -77, 12, -33, -9, -32, 35, 72, 1, 3, -7, 4, 37, 65, -73, 6, 77, -43, 8], "withholdReward": false, "trial_id": "mdp_trial_6", "block": "test", "trialIndex": 7, "score": 71.6, "costs": -8.4, "simulationMode": [null, null, null, null, null], "rewards": [1, 3, -7, 6, 77], "path": ["0", "0", "23", "24", "25", "30", "31"], "rt": [15104, 145, 94, 77, 407], "actions": ["left", "left", "left", "down", "right"], "actionTimes": [16967, 17631, 18246, 18845, 19742], "queries": {"click": {"state": {"target": ["22", "21", "31", "32", "20", "33"], "time": [3422, 5551, 7967, 10247, 12280, 14271]}, "edge": {"target": [], "time": []}}, "mouseover": {"state": {"target": ["22", "21", "31", "31", "32", "19", "20", "30", "33"], "time": [2649, 4599, 6633, 7866, 10066, 10783, 11233, 13100, 13267]}, "edge": {"target": [], "time": []}}, "mouseout": {"state": {"target": ["0", "22", "21", "31", "31", "32", "19", "20", "30", "33", "33", "32"], "time": [1900, 3700, 5750, 7650, 8183, 10331, 10934, 12500, 13183, 14300, 14467, 14500]}, "edge": {"target": [], "time": []}}}, "displayed_time": "20.25", "trialTime": 21839, "trial_type": "mouselab-mdp", "trial_index": 14, "time_elapsed": 583005, "internal_node_id": "0.0-4.0-1.0-5.0"}}, {"uniqueid": "w41244801:a68400499", "current_trial": 15, "dateTime": 1691145245237, "trialdata": {"revealed_states": [], "clicked_states": [], "num_clicks_accrued": [0, 0, 0, 0, 0, 0, 0, 0, 0, 0, 0, 0, 0], "stateRewards": ["", 1, 1, -6, -2, 7, 77, 3, 16, -16, 66, 31, -1, 3, -8, -6, 33, -50, -48, 7, -60, -66, 36, 2, -3, 3, -7, -12, -61, -79, -4, 8, 74, -70], "withholdReward": false, "trial_id": "mdp_trial_7", "block": "test", "trialIndex": 8, "score": -65, "costs": 0, "simulationMode": [null, null, null, null, null], "rewards": [-1, 3, -8, 7, -66], "path": ["0", "0", "12", "13", "14", "19", "21"], "rt": [10147, 37, 111, 54, 543], "actions": ["right", "right", "right", "down", "down"], "actionTimes": [11753, 12288, 12912, 13488, 14528], "queries": {"click": {"state": {"target": [], "time": []}, "edge": {"target": [], "time": []}}, "mouseover": {"state": {"target": ["12", "7", "6", "6", "18", "13", "22"], "time": [3431, 3482, 3615, 3865, 4132, 4151, 4182]}, "edge": {"target": [], "time": []}}, "mouseout": {"state": {"target": ["0", "12", "7", "6", "6", "18", "13", "22"], "time": [2432, 3448, 3531, 3632, 4082, 4148, 4165, 4882]}, "edge": {"target": [], "time": []}}}, "displayed_time": "15.61", "trialTime": 17064, "trial_type": "mouselab-mdp", "trial_index": 15, "time_elapsed": 600348, "internal_node_id": "0.0-4.0-1.0-6.0"}}, {"uniqueid": "w41244801:a68400499", "current_trial": 16, "dateTime": 1691145282037, "trialdata": {"revealed_states": [], "clicked_states": ["22", "21", "6", "7", "20", "31", "32", "27", "28", "33", "29", "11", "9", "10"], "num_clicks_accrued": [0, 0, 0, 0, 0, 0, 0, 0, 0, 0, 0, 0, 0], "stateRewards": ["", -1, -3, -3, 1, -38, 2, -53, -2, -1, -81, 70, -1, 1, -5, -9, 46, 15, 35, -1, -22, 38, 59, -2, 4, -8, 13, 1, -83, -43, 4, 76, 13, 48], "withholdReward": false, "trial_id": "mdp_trial_8", "block": "test", "trialIndex": 9, "score": 54.400000000000006, "costs": -19.599999999999998, "simulationMode": [null, null, null, null, null], "rewards": [-2, 4, -8, 4, 76], "path": ["0", "0", "23", "24", "25", "30", "31"], "rt": [30550, 39, 81, 121, 201], "actions": ["left", "left", "left", "down", "right"], "actionTimes": [32120, 32656, 33232, 33871, 34568], "queries": {"click": {"state": {"target": ["22", "21", "6", "7", "20", "31", "32", "27", "28", "33", "29", "11", "9", "10"], "time": [2361, 4265, 6233, 8217, 10257, 12169, 14569, 17033, 19009, 21217, 23297, 25209, 27457, 29379]}, "edge": {"target": [], "time": []}}, "mouseover": {"state": {"target": ["0", "22", "21", "18", "6", "7", "18", "13", "14", "20", "31", "32", "33", "25", "26", "27", "26", "25", "30", "25", "28", "33", "29", "25", "30", "4", "11", "9", "8", "10", "10", "23", "23"], "time": [1853, 2247, 3597, 4814, 5148, 6714, 8481, 8531, 8581, 8647, 11198, 14447, 15498, 16597, 16697, 16932, 17247, 17281, 17381, 18381, 18914, 21131, 21781, 23548, 23597, 23948, 24431, 27247, 27647, 27683, 27964, 29614, 31525]}, "edge": {"target": [], "time": []}}, "mouseout": {"state": {"target": ["12", "0", "0", "22", "21", "18", "6", "7", "18", "13", "14", "20", "31", "32", "33", "25", "26", "27", "27", "26", "25", "30", "25", "28", "33", "29", "25", "30", "4", "11", "9", "8", "10", "10", "23", "23"], "time": [963, 1130, 1881, 3381, 4731, 4850, 6447, 8414, 8497, 8547, 8597, 10481, 12414, 15414, 16531, 16647, 16797, 17124, 17231, 17264, 17314, 18181, 18514, 19181, 21302, 23515, 23564, 23798, 23997, 25398, 27631, 27681, 27714, 29564, 29664, 31564]}, "edge": {"target": [], "time": []}}}, "displayed_time": "35.08", "trialTime": 36495, "trial_type": "mouselab-mdp", "trial_index": 16, "time_elapsed": 637147, "internal_node_id": "0.0-4.0-1.0-7.0"}}, {"uniqueid": "w41244801:a68400499", "current_trial": 17, "dateTime": 1691145320260, "trialdata": {"revealed_states": [], "clicked_states": ["22", "21", "20", "6", "7", "5", "11", "10", "9", "31", "32", "33", "29", "27", "28"], "num_clicks_accrued": [0, 0, 0, 0, 0, 0, 0, 0, 0, 0, 0, 0, 0], "stateRewards": ["", 2, -1, -1, -9, -81, -30, 55, -6, 78, 25, 62, 2, 4, -1, 9, -85, 1, -19, 1, -60, 12, -34, 1, 4, -1, -13, -24, -16, -83, -8, 16, 43, 9], "withholdReward": false, "trial_id": "mdp_trial_9", "block": "test", "trialIndex": 10, "score": 51, "costs": -20.999999999999996, "simulationMode": [null, null, null, null, null], "rewards": [2, -1, -1, -6, 78], "path": ["0", "0", "1", "2", "3", "8", "9"], "rt": [31615, 18, 60, 237, 160], "actions": ["up", "up", "up", "left", "up"], "actionTimes": [33243, 33762, 34338, 35082, 35738], "queries": {"click": {"state": {"target": ["22", "21", "20", "6", "7", "5", "11", "10", "9", "31", "32", "33", "29", "27", "28"], "time": [2379, 4563, 7035, 8947, 10867, 12876, 15292, 17363, 19307, 21147, 23475, 25443, 27435, 29331, 31267]}, "edge": {"target": [], "time": []}}, "mouseover": {"state": {"target": ["22", "21", "20", "14", "4", "6", "7", "4", "5", "9", "11", "10", "8", "9", "8", "24", "31", "31", "32", "33", "29", "27", "28", "24"], "time": [2175, 2925, 5125, 7208, 7526, 7775, 9492, 11109, 11342, 13575, 15175, 15975, 17609, 17709, 19526, 19759, 19825, 20175, 22409, 23792, 25759, 27742, 29526, 31509]}, "edge": {"target": [], "time": []}}, "mouseout": {"state": {"target": ["23", "0", "22", "21", "20", "14", "4", "6", "7", "4", "5", "9", "11", "10", "8", "9", "8", "10", "24", "31", "31", "32", "33", "29", "27", "28", "24"], "time": [991, 1959, 2592, 4979, 7175, 7225, 7608, 9142, 11058, 11175, 13092, 14892, 15575, 17575, 17659, 19509, 19559, 19592, 19793, 19859, 21809, 23692, 25642, 27625, 29492, 31475, 31559]}, "edge": {"target": [], "time": []}}}, "displayed_time": "36.23", "trialTime": 37930, "trial_type": "mouselab-mdp", "trial_index": 17, "time_elapsed": 675371, "internal_node_id": "0.0-4.0-1.0-8.0"}}, {"uniqueid": "w41244801:a68400499", "current_trial": 18, "dateTime": 1691145359059, "trialdata": {"revealed_states": [], "clicked_states": ["22", "21", "20", "31", "32", "10", "11", "9", "28", "27", "29", "5", "6", "7"], "num_clicks_accrued": [0, 0, 0, 0, 0, 0, 0, 0, 0, 0, 0, 0, 0], "stateRewards": ["", 1, -1, 4, -2, -75, -75, 84, -9, -60, -79, 59, 2, -4, 8, 9, -17, -82, 80, 14, -4, 49, 49, -1, 3, 6, -11, -33, 34, 55, 9, -57, 5, 59], "withholdReward": false, "trial_id": "mdp_trial_10", "block": "test", "trialIndex": 11, "score": 66.4, "costs": -19.599999999999998, "simulationMode": [null, null, null, null, null], "rewards": [1, -1, 4, -2, 84], "path": ["0", "0", "1", "2", "3", "4", "7"], "rt": [32646, 63, 40, 146, 198], "actions": ["up", "up", "up", "right", "down"], "actionTimes": [34067, 34625, 35186, 35841, 36562], "queries": {"click": {"state": {"target": ["22", "21", "20", "31", "32", "10", "11", "9", "28", "27", "29", "5", "6", "7"], "time": [2179, 4115, 6267, 8723, 10730, 13098, 15275, 17403, 20458, 22475, 24683, 27331, 29259, 31227]}, "edge": {"target": [], "time": []}}, "mouseover": {"state": {"target": ["22", "21", "20", "31", "32", "30", "25", "28", "10", "10", "11", "9", "8", "10", "2", "6", "6", "4", "10", "28", "26", "28", "26", "27", "26", "29", "25", "28", "2", "4", "5", "4", "6", "7"], "time": [1976, 2876, 5176, 8593, 9343, 11127, 12598, 12643, 12676, 12909, 13493, 16176, 17612, 17643, 18159, 18210, 18526, 20009, 20076, 20110, 20209, 20343, 20793, 20876, 22676, 22926, 24943, 25243, 26643, 26710, 27176, 27510, 27876, 29443]}, "edge": {"target": [], "time": []}}, "mouseout": {"state": {"target": ["0", "22", "21", "21", "20", "31", "32", "30", "25", "28", "10", "10", "11", "11", "9", "8", "10", "2", "6", "6", "4", "10", "28", "26", "28", "26", "27", "26", "29", "25", "28", "2", "4", "5", "4", "6", "7"], "time": [1743, 2360, 4326, 5043, 6443, 8910, 10943, 11193, 12626, 12660, 12693, 13326, 15593, 15827, 17593, 17626, 17660, 18176, 18226, 19993, 20026, 20093, 20143, 20326, 20743, 20809, 22660, 22693, 24893, 24993, 26526, 26660, 26876, 27493, 27526, 29410, 31427]}, "edge": {"target": [], "time": []}}}, "displayed_time": "37.06", "trialTime": 38513, "trial_type": "mouselab-mdp", "trial_index": 18, "time_elapsed": 714170, "internal_node_id": "0.0-4.0-1.0-9.0"}}, {"uniqueid": "w41244801:a68400499", "current_trial": 19, "dateTime": 1691145376883, "trialdata": {"revealed_states": [], "clicked_states": ["22", "21", "20", "31"], "num_clicks_accrued": [0, 0, 0, 0, 0, 0, 0, 0, 0, 0, 0, 0, 0], "stateRewards": ["", 2, -1, 3, -12, -83, 6, -33, 9, 28, 24, -50, -2, -1, -2, -5, -87, 37, 82, 12, 80, -5, 10, -2, -3, -6, 9, 22, -1, 16, 9, 77, -62, 58], "withholdReward": false, "trial_id": "mdp_trial_11", "block": "test", "trialIndex": 12, "score": 81.4, "costs": -5.6, "simulationMode": [null, null, null, null, null], "rewards": [-2, -1, -2, 12, 80], "path": ["0", "0", "12", "13", "14", "19", "20"], "rt": [9357, 4, 80, 137, 151], "actions": ["right", "right", "right", "down", "right"], "actionTimes": [10707, 11210, 11802, 12442, 13106], "queries": {"click": {"state": {"target": ["22", "21", "20", "31"], "time": [2371, 4308, 6324, 8156]}, "edge": {"target": [], "time": []}}, "mouseover": {"state": {"target": ["22", "21", "20", "19", "31", "30", "30"], "time": [1936, 3053, 4753, 6519, 6919, 8769, 9236]}, "edge": {"target": [], "time": []}}, "mouseout": {"state": {"target": ["0", "22", "22", "21", "20", "19", "22", "31", "31", "30", "30", "31"], "time": [1753, 2403, 2686, 4536, 6391, 6536, 6554, 8224, 8703, 8903, 9303, 9369]}, "edge": {"target": [], "time": []}}}, "displayed_time": "15.35", "trialTime": 17530, "trial_type": "mouselab-mdp", "trial_index": 19, "time_elapsed": 731994, "internal_node_id": "0.0-4.0-1.0-10.0"}}, {"uniqueid": "w41244801:a68400499", "current_trial": 20, "dateTime": 1691145412660, "trialdata": {"revealed_states": [], "clicked_states": ["20", "22", "21", "31", "33", "32", "28", "27", "29", "11", "9", "10"], "num_clicks_accrued": [0, 0, 0, 0, 0, 0, 0, 0, 0, 0, 0, 0, 0], "stateRewards": ["", -1, -3, -5, -14, -13, -47, 79, 8, -60, -64, 41, -1, 2, 3, 13, -46, 61, -79, -11, -64, -65, 23, 1, -2, 6, -14, 46, 32, 21, 7, 75, -66, 15], "withholdReward": false, "trial_id": "mdp_trial_12", "block": "test", "trialIndex": 13, "score": 70.2, "costs": -16.8, "simulationMode": [null, null, null, null, null], "rewards": [1, -2, 6, 7, 75], "path": ["0", "0", "23", "24", "25", "30", "31"], "rt": [27339, 555, 145, 231, 209], "actions": ["left", "left", "left", "down", "right"], "actionTimes": [30287, 31342, 31983, 32735, 33463], "queries": {"click": {"state": {"target": ["20", "22", "21", "31", "33", "32", "28", "27", "29", "11", "9", "10"], "time": [3967, 5951, 8016, 9967, 12553, 14535, 16663, 18800, 21344, 23495, 25464, 27648]}, "edge": {"target": [], "time": []}}, "mouseover": {"state": {"target": ["12", "19", "20", "21", "22", "21", "31", "30", "33", "32", "30", "25", "27", "28", "27", "29", "25", "11", "28", "8", "9", "8", "10", "23"], "time": [3300, 3634, 3767, 4517, 4850, 6367, 8584, 10300, 10567, 13167, 15050, 15117, 15284, 16017, 17067, 19251, 21751, 23084, 23701, 23968, 24035, 25658, 25901, 28168]}, "edge": {"target": [], "time": []}}, "mouseout": {"state": {"target": ["0", "12", "19", "20", "21", "22", "21", "31", "30", "33", "32", "30", "25", "27", "28", "27", "29", "25", "11", "28", "8", "9", "8", "10", "23"], "time": [3284, 3317, 3683, 4333, 4784, 6134, 8200, 10234, 10418, 12750, 14984, 15084, 15134, 15767, 16900, 18984, 21684, 22285, 23651, 23735, 24001, 25635, 25685, 27885, 28201]}, "edge": {"target": [], "time": []}}}, "displayed_time": "33.95", "trialTime": 35471, "trial_type": "mouselab-mdp", "trial_index": 20, "time_elapsed": 767770, "internal_node_id": "0.0-4.0-1.0-11.0"}}, {"uniqueid": "w41244801:a68400499", "current_trial": 21, "dateTime": 1691145430019, "trialdata": {"revealed_states": [], "clicked_states": ["22"], "num_clicks_accrued": [0, 0, 0, 0, 0, 0, 0, 0, 0, 0, 0, 0, 0], "stateRewards": ["", -2, -4, -6, 12, -58, -70, -80, 2, 16, -88, -62, 1, 2, -5, 11, 77, -35, -44, -5, 18, -83, 87, 1, -3, -5, 13, -44, -21, -86, 10, -52, 8, 29], "withholdReward": false, "trial_id": "mdp_trial_13", "block": "test", "trialIndex": 14, "score": 78.6, "costs": -1.4, "simulationMode": [null, null, null, null, null], "rewards": [1, 2, -5, -5, 87], "path": ["0", "0", "12", "13", "14", "19", "22"], "rt": [3688, 436, 206, 169, 199], "actions": ["right", "right", "right", "down", "left"], "actionTimes": [5288, 6240, 6944, 7624, 8319], "queries": {"click": {"state": {"target": ["22"], "time": [2328]}, "edge": {"target": [], "time": []}}, "mouseover": {"state": {"target": ["22", "21"], "time": [2202, 2802]}, "edge": {"target": [], "time": []}}, "mouseout": {"state": {"target": ["0", "22"], "time": [1612, 2535]}, "edge": {"target": [], "time": []}}}, "displayed_time": "15.60", "trialTime": 17047, "trial_type": "mouselab-mdp", "trial_index": 21, "time_elapsed": 785130, "internal_node_id": "0.0-4.0-1.0-12.0"}}, {"uniqueid": "w41244801:a68400499", "current_trial": 22, "dateTime": 1691145446795, "trialdata": {"revealed_states": [], "clicked_states": ["22", "21"], "num_clicks_accrued": [0, 0, 0, 0, 0, 0, 0, 0, 0, 0, 0, 0, 0], "stateRewards": ["", -1, 4, 3, 12, -27, 34, -33, 3, -63, 1, 6, 2, 2, -6, -11, -77, -85, 68, -6, 51, 81, -60, -2, -2, 1, 15, 20, 15, 68, -10, -14, 6, -4], "withholdReward": false, "trial_id": "mdp_trial_14", "block": "test", "trialIndex": 15, "score": 70.2, "costs": -2.8, "simulationMode": [null, null, null, null, null], "rewards": [2, 2, -6, -6, 81], "path": ["0", "0", "12", "13", "14", "19", "21"], "rt": [5631, 122, 162, 118, 205], "actions": ["right", "right", "right", "down", "down"], "actionTimes": [7116, 7739, 8395, 9035, 9755], "queries": {"click": {"state": {"target": ["22", "21"], "time": [2252, 4132]}, "edge": {"target": [], "time": []}}, "mouseover": {"state": {"target": ["22", "21", "20"], "time": [1931, 2664, 4898]}, "edge": {"target": [], "time": []}}, "mouseout": {"state": {"target": ["21", "22", "12", "22", "21", "20"], "time": [599, 814, 980, 2464, 4548, 6364]}, "edge": {"target": [], "time": []}}}, "displayed_time": "15.49", "trialTime": 16419, "trial_type": "mouselab-mdp", "trial_index": 22, "time_elapsed": 801906, "internal_node_id": "0.0-4.0-1.0-13.0"}}, {"uniqueid": "w41244801:a68400499", "current_trial": 23, "dateTime": 1691145475195, "trialdata": {"revealed_states": [], "clicked_states": ["22", "21", "20", "31", "32", "33", "28", "27", "29"], "num_clicks_accrued": [0, 0, 0, 0, 0, 0, 0, 0, 0, 0, 0, 0, 0], "stateRewards": ["", 1, 2, 8, -2, 23, -69, -18, -16, 54, -21, 71, -1, -4, 7, 11, 43, -6, 88, 6, -55, 72, 43, 1, -3, -2, -1, 68, -31, -54, 4, -8, 25, -2], "withholdReward": false, "trial_id": "mdp_trial_15", "block": "test", "trialIndex": 16, "score": 67.4, "costs": -12.600000000000001, "simulationMode": [null, null, null, null, null], "rewards": [-1, -4, 7, 6, 72], "path": ["0", "0", "12", "13", "14", "19", "21"], "rt": [22016, 23, 130, 56, 185], "actions": ["right", "right", "right", "down", "down"], "actionTimes": [23410, 23930, 24570, 25146, 25842], "queries": {"click": {"state": {"target": ["22", "21", "20", "31", "32", "33", "28", "27", "29"], "time": [3179, 5187, 7891, 9731, 11651, 13859, 16291, 18515, 20667]}, "edge": {"target": [], "time": []}}, "mouseover": {"state": {"target": ["12", "22", "21", "21", "20", "19", "31", "32", "33", "30", "25", "28", "27", "29", "29", "29", "25", "26", "11"], "time": [1486, 1920, 3370, 3654, 6554, 8070, 8437, 10337, 11887, 15687, 15753, 16187, 16570, 18770, 19021, 19354, 21054, 21087, 21271]}, "edge": {"target": [], "time": []}}, "mouseout": {"state": {"target": ["21", "12", "12", "22", "21", "21", "20", "19", "31", "32", "33", "32", "30", "25", "28", "27", "27", "29", "29", "29", "25", "26", "11"], "time": [553, 653, 1503, 3337, 3504, 5454, 8054, 8087, 9920, 11820, 14304, 15503, 15737, 15787, 16504, 18598, 18720, 18854, 19037, 20954, 21071, 21104, 22537]}, "edge": {"target": [], "time": []}}}, "displayed_time": "26.34", "trialTime": 28058, "trial_type": "mouselab-mdp", "trial_index": 23, "time_elapsed": 830306, "internal_node_id": "0.0-4.0-1.0-14.0"}}, {"uniqueid": "w41244801:a68400499", "current_trial": 24, "dateTime": 1691145515242, "trialdata": {"revealed_states": [], "clicked_states": ["21", "22", "31", "32", "33", "27", "28", "29", "10", "11", "9", "6", "7", "5", "20"], "num_clicks_accrued": [0, 0, 0, 0, 0, 0, 0, 0, 0, 0, 0, 0, 0], "stateRewards": ["", 2, -4, -4, 13, -80, 62, 13, -11, 57, -13, -44, 1, 4, 3, -4, -29, -88, 15, 16, -58, 68, -45, -1, -3, -1, -9, -44, -86, -19, -7, -36, 59, 66], "withholdReward": false, "trial_id": "mdp_trial_16", "block": "test", "trialIndex": 17, "score": 71, "costs": -20.999999999999996, "simulationMode": [null, null, null, null, null], "rewards": [1, 4, 3, 16, 68], "path": ["0", "0", "12", "13", "14", "19", "21"], "rt": [33634, 100, 77, 190, 169], "actions": ["right", "right", "right", "down", "down"], "actionTimes": [34864, 35479, 36055, 36735, 37398], "queries": {"click": {"state": {"target": ["21", "22", "31", "32", "33", "27", "28", "29", "10", "11", "9", "6", "7", "5", "20"], "time": [2376, 4537, 6665, 8840, 11080, 13576, 15568, 17498, 19456, 21377, 23344, 25393, 27745, 29784, 32040]}, "edge": {"target": [], "time": []}}, "mouseover": {"state": {"target": ["0", "22", "19", "21", "22", "31", "32", "33", "31", "24", "28", "27", "28", "24", "28", "28", "26", "29", "25", "31", "24", "10", "11", "9", "8", "3", "6", "7", "4", "5", "4", "12", "22", "20", "20", "21"], "time": [1292, 1725, 1775, 2212, 2792, 5393, 7909, 9159, 13026, 13125, 13242, 13426, 13742, 13793, 14076, 14909, 15809, 16009, 17709, 17792, 18259, 18609, 19843, 23043, 23610, 23676, 23876, 25759, 28009, 28082, 29993, 30176, 30509, 30843, 31076, 32326]}, "edge": {"target": [], "time": []}}, "mouseout": {"state": {"target": ["0", "22", "19", "21", "22", "31", "32", "33", "31", "24", "28", "27", "28", "24", "28", "28", "26", "29", "29", "25", "31", "24", "10", "11", "9", "8", "3", "6", "7", "4", "5", "4", "7", "12", "22", "20", "20", "21"], "time": [1509, 1742, 1826, 2452, 4826, 6876, 8908, 11140, 13059, 13175, 13292, 13726, 13776, 14043, 14109, 15776, 15909, 17557, 17676, 17726, 18226, 18276, 19776, 22909, 23542, 23643, 23695, 25609, 27820, 28043, 29976, 30009, 30043, 30276, 30526, 30860, 32276, 32359]}, "edge": {"target": [], "time": []}}}, "displayed_time": "37.90", "trialTime": 39727, "trial_type": "mouselab-mdp", "trial_index": 24, "time_elapsed": 870353, "internal_node_id": "0.0-4.0-1.0-15.0"}}, {"uniqueid": "w41244801:a68400499", "current_trial": 25, "dateTime": 1691145544602, "trialdata": {"revealed_states": [], "clicked_states": ["21", "22", "16", "18", "17", "20", "31", "32", "33"], "num_clicks_accrued": [0, 0, 0, 0, 0, 0, 0, 0, 0, 0, 0, 0, 0], "stateRewards": ["", -2, -3, 4, 1, 33, -53, 15, 9, -12, 61, -6, -2, 4, 6, -11, 47, -43, -7, -11, 46, 23, -28, -1, -1, 3, -10, 11, 76, -76, 10, 18, -38, 87], "withholdReward": false, "trial_id": "mdp_trial_17", "block": "test", "trialIndex": 18, "score": 85.4, "costs": -12.600000000000001, "simulationMode": [null, null, null, null, null], "rewards": [-1, -1, 3, 10, 87], "path": ["0", "0", "23", "24", "25", "30", "33"], "rt": [20062, 484, 205, 121, 184], "actions": ["left", "left", "left", "down", "left"], "actionTimes": [24231, 25222, 25926, 26542, 27222], "queries": {"click": {"state": {"target": ["21", "22", "16", "18", "17", "20", "31", "32", "33"], "time": [5095, 7191, 9023, 11063, 13072, 14983, 17016, 19143, 21079]}, "edge": {"target": [], "time": []}}, "mouseover": {"state": {"target": ["22", "21", "22", "15", "16", "18", "15", "17", "20", "19", "31", "32", "33", "29", "30"], "time": [4718, 4953, 5435, 7435, 7735, 9435, 11335, 11469, 13685, 15152, 15485, 17587, 19435, 21569, 23318]}, "edge": {"target": [], "time": []}}, "mouseout": {"state": {"target": ["0", "22", "21", "22", "15", "16", "18", "15", "17", "20", "20", "19", "31", "32", "33", "29", "30"], "time": [4602, 4735, 5335, 7319, 7535, 9218, 11285, 11402, 13252, 15067, 15136, 15169, 17304, 19226, 21302, 23252, 23335]}, "edge": {"target": [], "time": []}}}, "displayed_time": "27.75", "trialTime": 29046, "trial_type": "mouselab-mdp", "trial_index": 25, "time_elapsed": 899713, "internal_node_id": "0.0-4.0-1.0-16.0"}}, {"uniqueid": "w41244801:a68400499", "current_trial": 26, "dateTime": 1691145571650, "trialdata": {"revealed_states": [], "clicked_states": ["22", "21", "20", "16", "18", "17", "31", "33", "32", "27"], "num_clicks_accrued": [0, 0, 0, 0, 0, 0, 0, 0, 0, 0, 0, 0, 0], "stateRewards": ["", -1, 2, -6, 6, 43, 78, 78, -2, 55, -29, -17, -2, -4, 1, -15, 13, 7, -79, 8, -28, -68, 36, -1, -3, 3, -16, 84, -18, 87, 10, 32, 13, -81], "withholdReward": false, "trial_id": "mdp_trial_18", "block": "test", "trialIndex": 19, "score": 53, "costs": -14.000000000000002, "simulationMode": [null, null, null, null, null], "rewards": [-1, -3, 3, -16, 84], "path": ["0", "0", "23", "24", "25", "26", "27"], "rt": [21349, 2, 81, 121, 2], "actions": ["left", "left", "left", "up", "up"], "actionTimes": [22620, 23120, 23731, 24372, 24870], "queries": {"click": {"state": {"target": ["22", "21", "20", "16", "18", "17", "31", "33", "32", "27"], "time": [2469, 4173, 6309, 8181, 10157, 12076, 13861, 15797, 17677, 19533]}, "edge": {"target": [], "time": []}}, "mouseover": {"state": {"target": ["22", "21", "20", "16", "15", "18", "15", "17", "14", "31", "30", "33", "32", "30", "25", "27", "28"], "time": [2282, 3065, 5198, 6782, 8565, 8965, 10382, 10598, 12331, 12932, 14333, 14670, 16165, 17849, 17868, 18165, 19765]}, "edge": {"target": [], "time": []}}, "mouseout": {"state": {"target": ["0", "22", "21", "20", "16", "15", "18", "15", "17", "14", "31", "30", "33", "32", "30", "25", "27", "28"], "time": [1284, 2648, 5065, 6448, 8515, 8698, 10331, 10482, 12298, 12365, 14215, 14481, 16016, 17815, 17865, 17881, 19731, 21731]}, "edge": {"target": [], "time": []}}}, "displayed_time": "25.40", "trialTime": 26740, "trial_type": "mouselab-mdp", "trial_index": 26, "time_elapsed": 926760, "internal_node_id": "0.0-4.0-1.0-17.0"}}, {"uniqueid": "w41244801:a68400499", "current_trial": 27, "dateTime": 1691145589857, "trialdata": {"revealed_states": [], "clicked_states": ["22"], "num_clicks_accrued": [0, 0, 0, 0, 0, 0, 0, 0, 0, 0, 0, 0, 0], "stateRewards": ["", 2, 3, 6, -5, -74, -53, 17, -12, 46, 44, 18, -2, 4, 1, -8, 22, -23, -49, 9, -45, 55, 81, 1, -1, -7, -16, -83, -71, -45, 2, 51, 82, 61], "withholdReward": false, "trial_id": "mdp_trial_19", "block": "test", "trialIndex": 20, "score": 91.6, "costs": -1.4, "simulationMode": [null, null, null, null, null], "rewards": [-2, 4, 1, 9, 81], "path": ["0", "0", "12", "13", "14", "19", "22"], "rt": [3828, 15, 82, 53, 116], "actions": ["right", "right", "right", "down", "left"], "actionTimes": [5919, 6437, 7037, 7591, 8238], "queries": {"click": {"state": {"target": ["22"], "time": [2967]}, "edge": {"target": [], "time": []}}, "mouseover": {"state": {"target": ["0", "22", "21"], "time": [2105, 2753, 3370]}, "edge": {"target": [], "time": []}}, "mouseout": {"state": {"target": ["0", "0", "22", "21"], "time": [1385, 2220, 3254, 5236]}, "edge": {"target": [], "time": []}}}, "displayed_time": "16.09", "trialTime": 17902, "trial_type": "mouselab-mdp", "trial_index": 27, "time_elapsed": 944968, "internal_node_id": "0.0-4.0-1.0-18.0"}}, {"uniqueid": "w41244801:a68400499", "current_trial": 28, "dateTime": 1691145607505, "trialdata": {"revealed_states": [], "clicked_states": ["22", "21", "20", "16"], "num_clicks_accrued": [0, 0, 0, 0, 0, 0, 0, 0, 0, 0, 0, 0, 0], "stateRewards": ["", -2, 4, -7, -3, -76, 39, -28, 10, 14, 12, 60, 2, -3, 6, -10, 88, -34, -41, -3, 72, -13, -56, 1, 3, 2, 8, -51, 23, -57, 1, 14, -46, -16], "withholdReward": false, "trial_id": "mdp_trial_20", "block": "test", "trialIndex": 21, "score": 77.4, "costs": -5.6, "simulationMode": [null, null, null, null, null], "rewards": [2, -3, 6, -10, 88], "path": ["0", "0", "12", "13", "14", "15", "16"], "rt": [9482, 78, 111, 118, 142], "actions": ["right", "right", "right", "up", "up"], "actionTimes": [11291, 11891, 12506, 13130, 13770], "queries": {"click": {"state": {"target": ["22", "21", "20", "16"], "time": [2851, 4628, 6541, 8452]}, "edge": {"target": [], "time": []}}, "mouseover": {"state": {"target": ["0", "22", "21", "19", "14", "15", "16", "15", "20", "15", "16", "18"], "time": [2352, 2676, 3428, 5310, 5360, 5479, 5576, 5976, 6243, 6793, 6877, 9093]}, "edge": {"target": [], "time": []}}, "mouseout": {"state": {"target": ["23", "0", "22", "21", "19", "14", "15", "16", "15", "20", "15", "16", "18"], "time": [1075, 2460, 3160, 5276, 5343, 5410, 5543, 5960, 5993, 6693, 6827, 8843, 16293]}, "edge": {"target": [], "time": []}}}, "displayed_time": "15.81", "trialTime": 17306, "trial_type": "mouselab-mdp", "trial_index": 28, "time_elapsed": 962615, "internal_node_id": "0.0-4.0-1.0-19.0"}}, {"uniqueid": "w41244801:a68400499", "current_trial": 29, "dateTime": 1691145651545, "trialdata": {"revealed_states": [], "clicked_states": ["21", "16", "20", "22", "17", "31", "18", "33", "32", "29", "28", "27", "10", "11", "9", "5", "7", "6"], "num_clicks_accrued": [0, 0, 0, 0, 0, 0, 0, 0, 0, 0, 0, 0, 0], "stateRewards": ["", -1, -3, -7, -7, -76, 30, -49, 11, -70, 56, 2, 1, 4, -3, -14, -59, -83, -25, -9, -21, -67, -73, -2, 4, 4, -9, -11, -32, 60, 9, -87, 22, -64], "withholdReward": false, "trial_id": "mdp_trial_21", "block": "test", "trialIndex": 22, "score": 31.800000000000008, "costs": -25.199999999999992, "simulationMode": [null, null, null, null, null], "rewards": [-2, 4, 4, -9, 60], "path": ["0", "0", "23", "24", "25", "26", "29"], "rt": [37328, 525, 253, 100, 182], "actions": ["left", "left", "left", "up", "left"], "actionTimes": [38665, 39695, 40440, 41056, 41735], "queries": {"click": {"state": {"target": ["21", "16", "20", "22", "17", "31", "18", "33", "32", "29", "28", "27", "10", "11", "9", "5", "7", "6"], "time": [2601, 4456, 6336, 8224, 10136, 12040, 14666, 16560, 18408, 20408, 22480, 24369, 26464, 28464, 30360, 32289, 34249, 36193]}, "edge": {"target": [], "time": []}}, "mouseover": {"state": {"target": ["0", "22", "21", "19", "14", "16", "15", "14", "20", "19", "22", "14", "17", "15", "18", "30", "31", "23", "18", "16", "18", "23", "24", "33", "32", "29", "28", "27", "0", "1", "2", "10", "11", "11", "9", "3", "4", "5", "4", "7", "6", "0"], "time": [1349, 1766, 2317, 2951, 3017, 3350, 4634, 4684, 4967, 6517, 6784, 9100, 9284, 10334, 10617, 11117, 11200, 12517, 13017, 14250, 14567, 14917, 14950, 15217, 17284, 18919, 21000, 22817, 24667, 24834, 24934, 25134, 26917, 27201, 28851, 30602, 30735, 31285, 32470, 32518, 35285, 36685]}, "edge": {"target": [], "time": []}}, "mouseout": {"state": {"target": ["0", "0", "22", "21", "19", "14", "16", "15", "14", "20", "19", "22", "14", "17", "15", "18", "30", "31", "31", "23", "18", "16", "18", "18", "23", "24", "33", "32", "29", "28", "27", "0", "1", "2", "10", "11", "11", "9", "3", "4", "5", "4", "7", "6", "0"], "time": [899, 1378, 2116, 2689, 2984, 3068, 4617, 4667, 4834, 6500, 6584, 8484, 9134, 10301, 10384, 10834, 11134, 12317, 12501, 12534, 13700, 14300, 14675, 14851, 14934, 14984, 16733, 18667, 20600, 22734, 24600, 24800, 24884, 24984, 26767, 26967, 28634, 30568, 30618, 30768, 32468, 32501, 34316, 36385, 36718]}, "edge": {"target": [], "time": []}}}, "displayed_time": "42.24", "trialTime": 43704, "trial_type": "mouselab-mdp", "trial_index": 29, "time_elapsed": 1006655, "internal_node_id": "0.0-4.0-1.0-20.0"}}, {"uniqueid": "w41244801:a68400499", "current_trial": 30, "dateTime": 1691145688911, "trialdata": {"revealed_states": [], "clicked_states": ["22", "21", "20", "16", "18", "17", "31", "33", "32", "27", "28", "10", "11", "9"], "num_clicks_accrued": [0, 0, 0, 0, 0, 0, 0, 0, 0, 0, 0, 0, 0], "stateRewards": ["", 1, -4, -4, 8, 1, -79, 68, -10, -79, 8, -74, -1, -3, -6, 14, 43, 23, 9, 5, -51, 63, 61, -2, 4, 6, -10, 69, -32, 57, 15, -80, -80, -77], "withholdReward": false, "trial_id": "mdp_trial_22", "block": "test", "trialIndex": 23, "score": 47.400000000000006, "costs": -19.599999999999998, "simulationMode": [null, null, null, null, null], "rewards": [-2, 4, 6, -10, 69], "path": ["0", "0", "23", "24", "25", "26", "27"], "rt": [31633, 14, 97, 64, 74], "actions": ["left", "left", "left", "up", "up"], "actionTimes": [33196, 33715, 34331, 34915, 35491], "queries": {"click": {"state": {"target": ["22", "21", "20", "16", "18", "17", "31", "33", "32", "27", "28", "10", "11", "9"], "time": [2452, 5086, 7724, 9716, 11740, 13828, 15677, 17877, 19780, 21700, 23589, 26644, 28572, 30501]}, "edge": {"target": [], "time": []}}, "mouseover": {"state": {"target": ["22", "21", "20", "15", "16", "20", "14", "15", "16", "18", "15", "17", "15", "12", "0", "23", "31", "31", "32", "33", "32", "30", "25", "26", "27", "28", "26", "29", "10", "11", "9", "2", "7", "7"], "time": [2328, 3098, 5514, 5815, 6015, 7266, 8182, 8265, 8416, 10348, 12015, 12281, 14031, 14064, 14084, 14131, 14248, 14568, 15931, 16165, 18348, 19998, 20048, 20081, 20281, 23548, 24032, 25714, 26464, 27231, 28882, 31281, 31365, 31599]}, "edge": {"target": [], "time": []}}, "mouseout": {"state": {"target": ["25", "24", "23", "0", "22", "21", "20", "15", "16", "20", "14", "15", "16", "18", "15", "17", "15", "12", "0", "23", "31", "31", "32", "33", "32", "30", "25", "26", "27", "27", "28", "26", "29", "10", "11", "9", "10", "2", "7", "7"], "time": [847, 897, 1080, 2064, 2765, 5298, 5731, 5865, 7181, 8131, 8215, 8348, 9881, 11982, 12081, 14015, 14048, 14081, 14115, 14148, 14365, 15881, 16065, 18198, 19965, 20032, 20065, 20148, 22923, 23348, 23632, 24081, 26231, 26915, 28751, 30715, 31265, 31331, 31381, 32198]}, "edge": {"target": [], "time": []}}}, "displayed_time": "36.00", "trialTime": 37050, "trial_type": "mouselab-mdp", "trial_index": 30, "time_elapsed": 1044022, "internal_node_id": "0.0-4.0-1.0-21.0"}}, {"uniqueid": "w41244801:a68400499", "current_trial": 31, "dateTime": 1691145729328, "trialdata": {"revealed_states": [], "clicked_states": ["22", "21", "20", "16", "18", "17", "31", "33", "32", "27", "29", "28", "10", "11", "9", "5"], "num_clicks_accrued": [0, 0, 0, 0, 0, 0, 0, 0, 0, 0, 0, 0, 0], "stateRewards": ["", 2, 1, -3, 7, 46, 11, -36, 16, 71, 5, 1, 2, -2, -8, -3, -4, 6, 55, 7, 68, -54, 2, 1, 1, 6, -6, 42, -4, -84, -11, -65, 63, 25], "withholdReward": false, "trial_id": "mdp_trial_23", "block": "test", "trialIndex": 24, "score": 64.60000000000001, "costs": -22.399999999999995, "simulationMode": [null, null, null, null, null], "rewards": [2, 1, -3, 16, 71], "path": ["0", "0", "1", "2", "3", "8", "9"], "rt": [33969, 85, 245, 359, 205], "actions": ["up", "up", "up", "left", "up"], "actionTimes": [35615, 36215, 36958, 37839, 38535], "queries": {"click": {"state": {"target": ["22", "21", "20", "16", "18", "17", "31", "33", "32", "27", "29", "28", "10", "11", "9", "5"], "time": [2656, 4552, 6400, 8872, 11072, 13112, 14968, 16831, 18776, 20704, 22712, 24552, 26424, 28744, 30704, 32728]}, "edge": {"target": [], "time": []}}, "mouseover": {"state": {"target": ["12", "22", "21", "20", "16", "15", "18", "15", "17", "15", "12", "0", "23", "24", "31", "30", "30", "30", "33", "32", "30", "25", "27", "29", "26", "28", "10", "11", "9", "5", "5", "4", "7"], "time": [2160, 2343, 3293, 4944, 6743, 9110, 9244, 11227, 11294, 13310, 13460, 13660, 13710, 13781, 14060, 15260, 15510, 15811, 16077, 17043, 18944, 18994, 19228, 21260, 22894, 22994, 24760, 26677, 29144, 30944, 31444, 33360, 34777]}, "edge": {"target": [], "time": []}}, "mouseout": {"state": {"target": ["0", "12", "22", "21", "20", "16", "15", "18", "15", "17", "17", "15", "12", "0", "23", "24", "31", "30", "30", "30", "33", "32", "30", "25", "27", "29", "26", "28", "10", "11", "9", "5", "5", "5", "4"], "time": [1964, 2193, 2860, 4777, 6604, 9077, 9143, 11210, 11260, 13155, 13277, 13327, 13510, 13677, 13744, 14027, 15177, 15310, 15527, 15944, 16977, 18927, 18977, 19011, 20910, 22860, 22960, 24710, 26577, 28843, 30728, 30977, 32833, 33327, 33411]}, "edge": {"target": [], "time": []}}}, "displayed_time": "39.05", "trialTime": 40079, "trial_type": "mouselab-mdp", "trial_index": 31, "time_elapsed": 1084438, "internal_node_id": "0.0-4.0-1.0-22.0"}}, {"uniqueid": "w41244801:a68400499", "current_trial": 32, "dateTime": 1691145777023, "trialdata": {"revealed_states": [], "clicked_states": ["22", "21", "20", "17", "18", "16", "31", "32", "33", "29", "28", "27", "10", "11", "9", "6", "7", "5"], "num_clicks_accrued": [0, 0, 0, 0, 0, 0, 0, 0, 0, 0, 0, 0, 0], "stateRewards": ["", 1, 4, -8, -5, -15, -7, 21, 13, -30, 40, -65, 1, 1, 5, -14, 35, 27, -38, -11, 36, -58, -47, -2, 4, -3, 13, -16, -49, 22, 15, -56, -44, -10], "withholdReward": false, "trial_id": "mdp_trial_24", "block": "test", "trialIndex": 25, "score": -5.199999999999989, "costs": -25.199999999999992, "simulationMode": [null, null, null, null, null], "rewards": [1, 1, 5, -14, 27], "path": ["0", "0", "12", "13", "14", "15", "17"], "rt": [38706, 86, 182, 163, 152], "actions": ["right", "right", "right", "up", "right"], "actionTimes": [40157, 40757, 41453, 42117, 42773], "queries": {"click": {"state": {"target": ["22", "21", "20", "17", "18", "16", "31", "32", "33", "29", "28", "27", "10", "11", "9", "6", "7", "5"], "time": [2358, 4350, 6343, 8326, 10302, 12183, 14510, 16438, 18382, 20422, 22446, 24526, 26656, 28782, 30751, 32710, 34678, 36646]}, "edge": {"target": [], "time": []}}, "mouseover": {"state": {"target": ["0", "12", "22", "21", "19", "20", "20", "17", "17", "16", "18", "16", "12", "31", "31", "32", "33", "29", "26", "28", "27", "10", "11", "9", "2", "7", "6", "7", "4", "5", "4", "3", "2"], "time": [2018, 2068, 2168, 2785, 4535, 4619, 4918, 6602, 7002, 8635, 9418, 10502, 12518, 13785, 14368, 14818, 16818, 18802, 21068, 21218, 22618, 26136, 26969, 29085, 31085, 31252, 31335, 33752, 35018, 35235, 36885, 38018, 38518]}, "edge": {"target": [], "time": []}}, "mouseout": {"state": {"target": ["7", "0", "12", "22", "21", "19", "20", "20", "17", "17", "16", "18", "16", "18", "12", "31", "31", "32", "33", "29", "26", "28", "27", "27", "10", "11", "9", "2", "7", "6", "7", "4", "5", "4", "7", "7", "3", "2"], "time": [697, 2035, 2085, 2701, 4485, 4552, 4651, 6468, 6702, 8410, 9202, 10435, 12402, 12468, 13535, 13985, 14752, 16651, 18618, 21018, 21185, 22569, 24610, 25785, 26745, 28882, 31018, 31218, 31268, 32935, 34985, 35089, 36868, 36918, 37068, 37818, 38485, 38535]}, "edge": {"target": [], "time": []}}}, "displayed_time": "43.29", "trialTime": 47365, "trial_type": "mouselab-mdp", "trial_index": 32, "time_elapsed": 1132134, "internal_node_id": "0.0-4.0-1.0-23.0"}}, {"uniqueid": "w41244801:a68400499", "current_trial": 33, "dateTime": 1691145811743, "trialdata": {"revealed_states": [], "clicked_states": ["22", "20", "18", "17", "16", "21", "31", "32", "33", "29", "27", "28"], "num_clicks_accrued": [0, 0, 0, 0, 0, 0, 0, 0, 0, 0, 0, 0, 0], "stateRewards": ["", -2, -1, -3, -1, -78, -6, 2, -1, 22, -88, 32, 2, 2, -7, -8, -51, -17, 54, 2, -44, 54, 75, 2, -2, -8, -15, -29, 12, -67, 15, -1, -47, -47], "withholdReward": false, "trial_id": "mdp_trial_25", "block": "test", "trialIndex": 26, "score": 57.2, "costs": -16.8, "simulationMode": [null, null, null, null, null], "rewards": [2, 2, -7, 2, 75], "path": ["0", "0", "12", "13", "14", "19", "22"], "rt": [27451, 571, 288, 105, 225], "actions": ["right", "right", "right", "down", "left"], "actionTimes": [28904, 30015, 30799, 31400, 32119], "queries": {"click": {"state": {"target": ["22", "20", "18", "17", "16", "21", "31", "32", "33", "29", "27", "28"], "time": [2497, 5912, 8832, 10953, 12888, 14800, 16880, 18768, 20704, 22552, 24464, 26297]}, "edge": {"target": [], "time": []}}, "mouseover": {"state": {"target": ["12", "22", "21", "20", "19", "14", "15", "18", "19", "19", "18", "18", "17", "16", "15", "13", "12", "22", "21", "21", "31", "32", "33", "29", "27", "28"], "time": [2225, 2374, 2991, 5758, 6408, 6492, 6541, 6908, 7941, 8258, 8325, 8724, 9675, 11275, 13108, 13175, 13258, 13508, 13725, 14108, 15208, 17442, 19258, 21292, 23258, 24825]}, "edge": {"target": [], "time": []}}, "mouseout": {"state": {"target": ["1", "12", "22", "22", "21", "20", "19", "14", "15", "18", "19", "19", "18", "18", "17", "16", "15", "13", "12", "22", "21", "21", "31", "32", "33", "29", "27", "28", "28", "0", "7", "0"], "time": [857, 2258, 2580, 2927, 5692, 6191, 6475, 6525, 6575, 7875, 8025, 8291, 8375, 9092, 11108, 13075, 13125, 13227, 13275, 13577, 13792, 14925, 17208, 19013, 20875, 23108, 24659, 26382, 26492, 33325, 33576, 33675]}, "edge": {"target": [], "time": []}}}, "displayed_time": "32.61", "trialTime": 34407, "trial_type": "mouselab-mdp", "trial_index": 33, "time_elapsed": 1166853, "internal_node_id": "0.0-4.0-1.0-24.0"}}, {"uniqueid": "w41244801:a68400499", "current_trial": 34, "dateTime": 1691145828318, "trialdata": {"revealed_states": [], "clicked_states": ["21", "22"], "num_clicks_accrued": [0, 0, 0, 0, 0, 0, 0, 0, 0, 0, 0, 0, 0], "stateRewards": ["", 2, -3, 5, -14, -63, -9, -24, -11, -54, -43, 68, 2, -2, -4, 7, -64, 30, 47, 12, -74, 11, 86, 1, -3, 3, 10, -71, -42, -52, -1, -29, -16, 69], "withholdReward": false, "trial_id": "mdp_trial_26", "block": "test", "trialIndex": 27, "score": 91.2, "costs": -2.8, "simulationMode": [null, null, null, null, null], "rewards": [2, -2, -4, 12, 86], "path": ["0", "0", "12", "13", "14", "19", "22"], "rt": [5771, 36, 461, 183, 234], "actions": ["right", "right", "right", "down", "left"], "actionTimes": [7364, 7940, 8914, 9619, 10356], "queries": {"click": {"state": {"target": ["21", "22"], "time": [2590, 4540]}, "edge": {"target": [], "time": []}}, "mouseover": {"state": {"target": ["12", "22", "21", "22", "19", "20"], "time": [2067, 2167, 2467, 3101, 4685, 4718]}, "edge": {"target": [], "time": []}}, "mouseout": {"state": {"target": ["23", "0", "12", "22", "21", "21", "22", "19"], "time": [634, 2034, 2101, 2184, 2664, 2751, 4668, 4701]}, "edge": {"target": [], "time": []}}}, "displayed_time": "15.59", "trialTime": 16259, "trial_type": "mouselab-mdp", "trial_index": 34, "time_elapsed": 1183429, "internal_node_id": "0.0-4.0-1.0-25.0"}}, {"uniqueid": "w41244801:a68400499", "current_trial": 35, "dateTime": 1691145852334, "trialdata": {"revealed_states": [], "clicked_states": ["22", "21", "20", "18", "16", "17", "31", "33"], "num_clicks_accrued": [0, 0, 0, 0, 0, 0, 0, 0, 0, 0, 0, 0, 0], "stateRewards": ["", -2, -3, 8, -4, -30, 31, 69, 9, 66, 87, 64, -2, 2, 8, 5, 47, 16, -39, -8, -54, 51, -19, 1, -2, -2, -11, -25, -26, 43, -9, 19, -84, 86], "withholdReward": false, "trial_id": "mdp_trial_27", "block": "test", "trialIndex": 28, "score": 62.8, "costs": -11.200000000000001, "simulationMode": [null, null, null, null, null], "rewards": [1, -2, -2, -9, 86], "path": ["0", "0", "23", "24", "25", "30", "33"], "rt": [17873, 87, 121, 81, 161], "actions": ["left", "left", "left", "down", "left"], "actionTimes": [19685, 20268, 20885, 21461, 22125], "queries": {"click": {"state": {"target": ["22", "21", "20", "18", "16", "17", "31", "33"], "time": [2472, 4366, 6430, 8327, 10246, 12254, 14174, 16158]}, "edge": {"target": [], "time": []}}, "mouseover": {"state": {"target": ["12", "22", "21", "20", "15", "18", "16", "17", "22", "31", "30", "33", "32"], "time": [1928, 2311, 3061, 4561, 6711, 6911, 8662, 10761, 12578, 13345, 14445, 14628, 16461]}, "edge": {"target": [], "time": []}}, "mouseout": {"state": {"target": ["20", "19", "22", "13", "12", "12", "22", "22", "21", "20", "15", "18", "16", "17", "22", "31", "31", "30", "33", "33"], "time": [877, 927, 1060, 1127, 1227, 2128, 2553, 2745, 4512, 6594, 6795, 8461, 10378, 12445, 12645, 14242, 14395, 14562, 16234, 16345]}, "edge": {"target": [], "time": []}}}, "displayed_time": "22.63", "trialTime": 23685, "trial_type": "mouselab-mdp", "trial_index": 35, "time_elapsed": 1207445, "internal_node_id": "0.0-4.0-1.0-26.0"}}, {"uniqueid": "w41244801:a68400499", "current_trial": 36, "dateTime": 1691145890325, "trialdata": {"revealed_states": [], "clicked_states": ["22", "21", "20", "18", "16", "17", "31", "32", "33", "29", "27", "28", "11", "10", "9"], "num_clicks_accrued": [0, 0, 0, 0, 0, 0, 0, 0, 0, 0, 0, 0, 0], "stateRewards": ["", -2, 3, -1, 2, -72, 63, 20, -1, 62, -66, 39, -2, 3, -6, 14, 22, 47, 1, 8, -49, -1, -41, 2, 2, -6, -16, -64, -60, -34, 16, 54, 22, -7], "withholdReward": false, "trial_id": "mdp_trial_28", "block": "test", "trialIndex": 29, "score": 40, "costs": -20.999999999999996, "simulationMode": [null, null, null, null, null], "rewards": [-2, 3, -1, -1, 62], "path": ["0", "0", "1", "2", "3", "8", "9"], "rt": [31574, 444, 198, 386, 222], "actions": ["up", "up", "up", "left", "up"], "actionTimes": [32941, 33876, 34596, 35500, 36220], "queries": {"click": {"state": {"target": ["22", "21", "20", "18", "16", "17", "31", "32", "33", "29", "27", "28", "11", "10", "9"], "time": [2182, 4253, 6142, 7998, 10062, 12134, 14150, 16141, 18102, 20253, 22182, 24030, 25925, 27949, 29837]}, "edge": {"target": [], "time": []}}, "mouseover": {"state": {"target": ["22", "21", "20", "13", "18", "16", "17", "14", "13", "31", "32", "32", "33", "33", "29", "27", "28", "11", "10", "8", "9", "3", "4", "7"], "time": [2012, 2612, 4529, 6412, 6612, 8346, 10412, 12379, 12462, 13079, 14396, 14629, 16412, 16696, 18729, 20663, 22462, 24596, 26246, 28145, 28212, 30095, 30129, 30646]}, "edge": {"target": [], "time": []}}, "mouseout": {"state": {"target": ["32", "31", "23", "0", "22", "21", "20", "13", "18", "16", "17", "14", "13", "31", "32", "32", "33", "33", "29", "27", "28", "11", "10", "8", "9", "9", "3", "4", "7"], "time": [661, 728, 761, 1380, 2345, 4379, 6279, 6479, 8179, 10279, 12362, 12429, 12513, 14362, 14429, 16346, 16429, 18629, 20529, 22362, 24196, 26112, 28112, 28179, 29921, 30062, 30112, 30162, 32062]}, "edge": {"target": [], "time": []}}}, "displayed_time": "36.73", "trialTime": 37660, "trial_type": "mouselab-mdp", "trial_index": 36, "time_elapsed": 1245436, "internal_node_id": "0.0-4.0-1.0-27.0"}}, {"uniqueid": "w41244801:a68400499", "current_trial": 37, "dateTime": 1691145925013, "trialdata": {"revealed_states": [], "clicked_states": ["22", "21", "20", "18", "16", "17", "31", "32", "33", "29", "27", "28", "11", "10"], "num_clicks_accrued": [0, 0, 0, 0, 0, 0, 0, 0, 0, 0, 0, 0, 0], "stateRewards": ["", -2, 4, 3, 5, -61, 4, 30, 1, -47, 83, 10, 1, 4, 7, -14, 19, -74, -83, 6, -2, -2, -65, -1, -2, 4, -11, 12, -1, -68, 11, -38, -28, 66], "withholdReward": false, "trial_id": "mdp_trial_29", "block": "test", "trialIndex": 30, "score": 69.4, "costs": -19.599999999999998, "simulationMode": [null, null, null, null, null], "rewards": [-2, 4, 3, 1, 83], "path": ["0", "0", "1", "2", "3", "8", "10"], "rt": [28816, 132, 202, 406, 178], "actions": ["up", "up", "up", "left", "down"], "actionTimes": [29917, 30572, 31292, 32196, 32867], "queries": {"click": {"state": {"target": ["22", "21", "20", "18", "16", "17", "31", "32", "33", "29", "27", "28", "11", "10"], "time": [2117, 3885, 5717, 7549, 9389, 11213, 13085, 14965, 16900, 19349, 21212, 23165, 25101, 26981]}, "edge": {"target": [], "time": []}}, "mouseover": {"state": {"target": ["0", "12", "22", "21", "20", "15", "18", "16", "17", "15", "13", "12", "0", "23", "31", "32", "33", "29", "27", "28", "11", "10", "8", "9", "9", "8"], "time": [1737, 1803, 2033, 2737, 4454, 5970, 6203, 8004, 9937, 11520, 11553, 11587, 11670, 11787, 11953, 13687, 15270, 17553, 19671, 21520, 24437, 25403, 27170, 27254, 27420, 29140]}, "edge": {"target": [], "time": []}}, "mouseout": {"state": {"target": ["0", "12", "22", "21", "20", "15", "18", "16", "17", "15", "13", "12", "0", "23", "31", "32", "33", "29", "27", "28", "11", "10", "8", "9", "9", "8"], "time": [1770, 1820, 2520, 4170, 5887, 6003, 7737, 9620, 11487, 11537, 11570, 11620, 11737, 11842, 13370, 15048, 16960, 19405, 21421, 24109, 25320, 27137, 27204, 27270, 29137, 29187]}, "edge": {"target": [], "time": []}}}, "displayed_time": "33.37", "trialTime": 34356, "trial_type": "mouselab-mdp", "trial_index": 37, "time_elapsed": 1280124, "internal_node_id": "0.0-4.0-1.0-28.0"}}, {"uniqueid": "w41244801:a68400499", "current_trial": 38, "dateTime": 1691145944637, "trialdata": {"revealed_states": [], "clicked_states": ["22", "21", "20", "18", "16", "17"], "num_clicks_accrued": [0, 0, 0, 0, 0, 0, 0, 0, 0, 0, 0, 0, 0], "stateRewards": ["", -1, -3, 4, -10, -5, 79, -87, -2, 53, 29, -20, -2, -1, -5, 10, 27, 86, 46, -16, -29, 40, 3, 2, 4, -1, -6, 37, 79, -29, 7, 86, -62, 29], "withholdReward": false, "trial_id": "mdp_trial_30", "block": "test", "trialIndex": 31, "score": 79.6, "costs": -8.4, "simulationMode": [null, null, null, null, null], "rewards": [-2, -1, -5, 10, 86], "path": ["0", "0", "12", "13", "14", "15", "17"], "rt": [14034, 119, 150, 60, 45], "actions": ["right", "right", "right", "up", "right"], "actionTimes": [15376, 15992, 16656, 17216, 17767], "queries": {"click": {"state": {"target": ["22", "21", "20", "18", "16", "17"], "time": [2272, 4161, 6273, 8169, 10648, 12569]}, "edge": {"target": [], "time": []}}, "mouseover": {"state": {"target": ["12", "22", "21", "20", "19", "18", "16", "17", "12", "31"], "time": [1936, 2086, 3137, 4553, 6603, 6720, 8542, 10986, 12836, 12970]}, "edge": {"target": [], "time": []}}, "mouseout": {"state": {"target": ["10", "0", "12", "22", "21", "20", "19", "18", "16", "16", "17", "12"], "time": [518, 1886, 2003, 2770, 4353, 6553, 6620, 8420, 10748, 10936, 12786, 12853]}, "edge": {"target": [], "time": []}}}, "displayed_time": "18.29", "trialTime": 19295, "trial_type": "mouselab-mdp", "trial_index": 38, "time_elapsed": 1299747, "internal_node_id": "0.0-4.0-1.0-29.0"}}, {"uniqueid": "w41244801:a68400499", "current_trial": 39, "dateTime": 1691145976420, "trialdata": {"revealed_states": [], "clicked_states": ["22", "21", "20", "18", "16", "17", "31", "33", "32", "29", "27", "28"], "num_clicks_accrued": [0, 0, 0, 0, 0, 0, 0, 0, 0, 0, 0, 0, 0], "stateRewards": ["", -2, 1, -8, 12, -65, -79, 16, 7, -80, -17, -45, -2, 2, -5, -2, -85, 23, -4, -7, 48, 27, -76, 2, 3, 5, 2, 43, 71, -13, 7, -49, 59, -31], "withholdReward": false, "trial_id": "mdp_trial_31", "block": "test", "trialIndex": 32, "score": 66.2, "costs": -16.8, "simulationMode": [null, null, null, null, null], "rewards": [2, 3, 5, 2, 71], "path": ["0", "0", "23", "24", "25", "26", "28"], "rt": [26239, 63, 137, 143, 125], "actions": ["left", "left", "left", "up", "right"], "actionTimes": [27518, 28077, 28717, 29357, 29989], "queries": {"click": {"state": {"target": ["22", "21", "20", "18", "16", "17", "31", "33", "32", "29", "27", "28"], "time": [2113, 4054, 6014, 8111, 10271, 12150, 14118, 15982, 17927, 20334, 22303, 24510]}, "edge": {"target": [], "time": []}}, "mouseover": {"state": {"target": ["22", "21", "20", "14", "15", "18", "16", "17", "13", "12", "0", "31", "32", "33", "32", "30", "29", "27", "28", "10"], "time": [1979, 2611, 4261, 6295, 6362, 6528, 8512, 10553, 12362, 12381, 12397, 12728, 14345, 14745, 16211, 18112, 18512, 20729, 22862, 25028]}, "edge": {"target": [], "time": []}}, "mouseout": {"state": {"target": ["31", "0", "22", "21", "20", "14", "15", "18", "16", "17", "13", "12", "0", "31", "32", "33", "32", "30", "29", "27", "27", "28", "10"], "time": [427, 1293, 2461, 4211, 6101, 6311, 6378, 8178, 10495, 12328, 12378, 12395, 12445, 14295, 14362, 16145, 17994, 18129, 20562, 22363, 22528, 24795, 26728]}, "edge": {"target": [], "time": []}}}, "displayed_time": "30.48", "trialTime": 31437, "trial_type": "mouselab-mdp", "trial_index": 39, "time_elapsed": 1331531, "internal_node_id": "0.0-4.0-1.0-30.0"}}, {"uniqueid": "w41244801:a68400499", "current_trial": 40, "dateTime": 1691145993909, "trialdata": {"revealed_states": [], "clicked_states": ["22", "21"], "num_clicks_accrued": [0, 0, 0, 0, 0, 0, 0, 0, 0, 0, 0, 0, 0], "stateRewards": ["", -1, 1, 3, -8, -23, -15, -14, -11, -23, 58, 68, 1, 3, 5, 12, -17, -41, -7, -10, -4, 82, 10, 1, 4, -4, 11, 73, 55, -55, -1, -86, -86, 54], "withholdReward": false, "trial_id": "mdp_trial_32", "block": "test", "trialIndex": 33, "score": 78.2, "costs": -2.8, "simulationMode": [null, null, null, null, null], "rewards": [1, 3, 5, -10, 82], "path": ["0", "0", "12", "13", "14", "19", "21"], "rt": [5995, 42, 166, 42, 172], "actions": ["right", "right", "right", "down", "down"], "actionTimes": [7644, 8178, 8835, 9395, 10075], "queries": {"click": {"state": {"target": ["22", "21"], "time": [2598, 4556]}, "edge": {"target": [], "time": []}}, "mouseover": {"state": {"target": ["0", "22", "21", "20"], "time": [1717, 2383, 3067, 5001]}, "edge": {"target": [], "time": []}}, "mouseout": {"state": {"target": ["18", "15", "17", "14", "12", "0", "0", "22", "21", "20"], "time": [366, 383, 399, 1016, 1149, 1334, 1833, 2917, 4767, 6867]}, "edge": {"target": [], "time": []}}}, "displayed_time": "15.65", "trialTime": 17147, "trial_type": "mouselab-mdp", "trial_index": 40, "time_elapsed": 1349019, "internal_node_id": "0.0-4.0-1.0-31.0"}}, {"uniqueid": "w41244801:a68400499", "current_trial": 41, "dateTime": 1691146020988, "trialdata": {"revealed_states": [], "clicked_states": ["22", "21", "20", "18", "16", "17", "31", "32", "33"], "num_clicks_accrued": [0, 0, 0, 0, 0, 0, 0, 0, 0, 0, 0, 0, 0], "stateRewards": ["", 1, 1, 6, -14, -40, 37, 16, -13, 33, -68, 49, 2, 4, 3, 6, 55, 27, 32, 10, -65, 20, -87, 2, 1, -6, -5, -42, 12, 29, -8, 16, 76, -33], "withholdReward": false, "trial_id": "mdp_trial_33", "block": "test", "trialIndex": 34, "score": 52.4, "costs": -12.600000000000001, "simulationMode": [null, null, null, null, null], "rewards": [2, 1, -6, -8, 76], "path": ["0", "0", "23", "24", "25", "30", "32"], "rt": [20638, 503, 218, 122, 145], "actions": ["left", "left", "left", "down", "down"], "actionTimes": [21977, 22993, 23713, 24328, 24968], "queries": {"click": {"state": {"target": ["22", "21", "20", "18", "16", "17", "31", "32", "33"], "time": [2122, 4018, 5977, 8082, 10010, 12050, 14641, 16619, 19402]}, "edge": {"target": [], "time": []}}, "mouseover": {"state": {"target": ["22", "21", "20", "14", "18", "16", "16", "17", "13", "12", "0", "23", "31", "31", "32", "33", "30", "31"], "time": [2004, 2487, 4304, 6187, 6287, 8371, 8837, 10272, 12337, 12371, 12437, 14021, 14120, 14375, 15663, 16970, 19654, 19970]}, "edge": {"target": [], "time": []}}, "mouseout": {"state": {"target": ["0", "22", "21", "20", "14", "18", "16", "16", "16", "17", "13", "12", "0", "23", "31", "31", "32", "33", "30", "31"], "time": [1470, 2354, 4204, 6137, 6204, 8270, 8421, 10085, 10222, 12254, 12354, 12404, 12504, 14037, 14220, 15388, 16694, 19604, 19920, 20037]}, "edge": {"target": [], "time": []}}}, "displayed_time": "25.47", "trialTime": 26696, "trial_type": "mouselab-mdp", "trial_index": 41, "time_elapsed": 1376098, "internal_node_id": "0.0-4.0-1.0-32.0"}}, {"uniqueid": "w41244801:a68400499", "current_trial": 42, "dateTime": 1691146038067, "trialdata": {"revealed_states": [], "clicked_states": ["22", "20", "21", "18"], "num_clicks_accrued": [0, 0, 0, 0, 0, 0, 0, 0, 0, 0, 0, 0, 0], "stateRewards": ["", 2, 4, 4, -8, -36, -33, 38, 16, -51, 57, 57, 1, 3, 4, -6, 45, 68, 87, 1, 63, 24, -55, -2, 2, -6, -13, -63, -50, 8, 2, 80, 6, 60], "withholdReward": false, "trial_id": "mdp_trial_34", "block": "test", "trialIndex": 35, "score": 83.4, "costs": -5.6, "simulationMode": [null, null, null, null, null], "rewards": [1, 3, 4, -6, 87], "path": ["0", "0", "12", "13", "14", "15", "18"], "rt": [10266, 86, 161, 143, 309], "actions": ["right", "right", "right", "up", "left"], "actionTimes": [11835, 12434, 13090, 13754, 14554], "queries": {"click": {"state": {"target": ["22", "20", "21", "18"], "time": [2267, 4843, 6907, 8939]}, "edge": {"target": [], "time": []}}, "mouseover": {"state": {"target": ["22", "21", "20", "21", "18", "16", "15", "14", "19"], "time": [2092, 2709, 4776, 5192, 7659, 9244, 11076, 11110, 11176]}, "edge": {"target": [], "time": []}}, "mouseout": {"state": {"target": ["12", "0", "22", "21", "20", "21", "18", "16", "15", "14"], "time": [858, 1859, 2559, 4442, 5126, 7093, 9145, 11059, 11093, 11142]}, "edge": {"target": [], "time": []}}}, "displayed_time": "15.57", "trialTime": 16698, "trial_type": "mouselab-mdp", "trial_index": 42, "time_elapsed": 1393178, "internal_node_id": "0.0-4.0-1.0-33.0"}}, {"uniqueid": "w41244801:a68400499", "current_trial": 43, "dateTime": 1691146066699, "trialdata": {"revealed_states": [], "clicked_states": ["22", "20", "21", "18", "16", "17", "31", "32", "33", "29"], "num_clicks_accrued": [0, 0, 0, 0, 0, 0, 0, 0, 0, 0, 0, 0, 0], "stateRewards": ["", 2, -1, 4, -9, -43, 7, 54, -13, 38, -40, -83, -1, 2, -8, -10, 34, -33, 11, -14, -79, 65, 26, 1, 2, 4, 10, 21, 1, 86, 4, -53, 28, -29], "withholdReward": false, "trial_id": "mdp_trial_35", "block": "test", "trialIndex": 36, "score": 89, "costs": -14.000000000000002, "simulationMode": [null, null, null, null, null], "rewards": [1, 2, 4, 10, 86], "path": ["0", "0", "23", "24", "25", "26", "29"], "rt": [21822, 511, 174, 210, 174], "actions": ["left", "left", "left", "up", "left"], "actionTimes": [23433, 24464, 25144, 25864, 26544], "queries": {"click": {"state": {"target": ["22", "20", "21", "18", "16", "17", "31", "32", "33", "29"], "time": [2321, 4289, 6169, 8617, 10553, 12499, 14433, 16361, 18401, 20328]}, "edge": {"target": [], "time": []}}, "mouseover": {"state": {"target": ["22", "21", "20", "21", "18", "18", "16", "17", "13", "12", "0", "31", "32", "33", "29", "27", "28"], "time": [2100, 2784, 3451, 4617, 6517, 6867, 9034, 10934, 12801, 12884, 12951, 13267, 14968, 16784, 19718, 20667, 21350]}, "edge": {"target": [], "time": []}}, "mouseout": {"state": {"target": ["19", "19", "22", "12", "0", "22", "21", "20", "21", "18", "18", "16", "17", "17", "13", "12", "0", "31", "32", "33", "29", "27"], "time": [399, 716, 783, 999, 1653, 2518, 3393, 4451, 6350, 6667, 8851, 10784, 12591, 12717, 12851, 12917, 12967, 14618, 16535, 19434, 20534, 21267]}, "edge": {"target": [], "time": []}}}, "displayed_time": "27.05", "trialTime": 28288, "trial_type": "mouselab-mdp", "trial_index": 43, "time_elapsed": 1421810, "internal_node_id": "0.0-4.0-1.0-34.0"}}, {"uniqueid": "w41244801:a68400499", "current_trial": 44, "dateTime": 1691146098602, "trialdata": {"revealed_states": [], "clicked_states": ["22", "21", "20", "18", "16", "17", "7", "6", "5", "10", "11", "9"], "num_clicks_accrued": [0, 0, 0, 0, 0, 0, 0, 0, 0, 0, 0, 0, 0], "stateRewards": ["", 1, 1, -7, -9, -44, 24, -83, -15, 44, -24, 72, -2, -3, 4, -5, 57, 55, 29, -11, 22, 12, -25, -1, 2, 7, 12, 33, -8, 47, -4, 8, 50, -4], "withholdReward": false, "trial_id": "mdp_trial_36", "block": "test", "trialIndex": 37, "score": 35.2, "costs": -16.8, "simulationMode": [null, null, null, null, null], "rewards": [1, 1, -7, -15, 72], "path": ["0", "0", "1", "2", "3", "8", "11"], "rt": [25660, 144, 94, 501, 181], "actions": ["up", "up", "up", "left", "left"], "actionTimes": [26947, 27586, 28202, 29226, 29922], "queries": {"click": {"state": {"target": ["22", "21", "20", "18", "16", "17", "7", "6", "5", "10", "11", "9"], "time": [2059, 3979, 5875, 7931, 9787, 11723, 13828, 15827, 17724, 19603, 21475, 24499]}, "edge": {"target": [], "time": []}}, "mouseover": {"state": {"target": ["22", "21", "20", "14", "18", "16", "17", "15", "7", "6", "5", "2", "10", "11", "9", "9", "8"], "time": [1906, 2372, 4189, 6172, 6322, 8239, 10023, 12156, 12522, 14206, 16106, 17989, 18206, 19922, 21874, 24289, 24672]}, "edge": {"target": [], "time": []}}, "mouseout": {"state": {"target": ["28", "23", "0", "22", "21", "20", "14", "18", "16", "17", "15", "7", "6", "5", "5", "2", "10", "11", "9", "9", "8"], "time": [605, 838, 1489, 2255, 4122, 5967, 6239, 8072, 9972, 12106, 12206, 14022, 16022, 17815, 17939, 18006, 19773, 21739, 23856, 24656, 24689]}, "edge": {"target": [], "time": []}}}, "displayed_time": "30.43", "trialTime": 31546, "trial_type": "mouselab-mdp", "trial_index": 44, "time_elapsed": 1453713, "internal_node_id": "0.0-4.0-1.0-35.0"}}, {"uniqueid": "w41244801:a68400499", "current_trial": 45, "dateTime": 1691146137027, "trialdata": {"revealed_states": [], "clicked_states": ["21", "22", "20", "18", "16", "17", "31", "33", "32", "29", "27", "28", "10", "11", "9"], "num_clicks_accrued": [0, 0, 0, 0, 0, 0, 0, 0, 0, 0, 0, 0, 0], "stateRewards": ["", 2, -4, 1, -12, -59, -53, -74, 16, -88, -66, 66, 1, -2, 8, -9, -14, 22, 25, -1, -39, 47, -14, -1, -1, -2, 1, -4, 52, -26, 15, -7, 46, 43], "withholdReward": false, "trial_id": "mdp_trial_37", "block": "test", "trialIndex": 38, "score": 60, "costs": -20.999999999999996, "simulationMode": [null, null, null, null, null], "rewards": [2, -4, 1, 16, 66], "path": ["0", "0", "1", "2", "3", "8", "11"], "rt": [32618, 114, 218, 36, 87], "actions": ["up", "up", "up", "left", "left"], "actionTimes": [33959, 34583, 35303, 35855, 36456], "queries": {"click": {"state": {"target": ["21", "22", "20", "18", "16", "17", "31", "33", "32", "29", "27", "28", "10", "11", "9"], "time": [2576, 4656, 6585, 8744, 11136, 13016, 14929, 16872, 18880, 20953, 23096, 24984, 27024, 29129, 31105]}, "edge": {"target": [], "time": []}}, "mouseover": {"state": {"target": ["22", "21", "22", "19", "20", "20", "14", "18", "16", "17", "14", "31", "30", "33", "32", "29", "26", "27", "27", "28", "10", "11", "9", "8"], "time": [2215, 2499, 3382, 5283, 5366, 5615, 6932, 7049, 10849, 12349, 13299, 13765, 15149, 15332, 17165, 19459, 21283, 21389, 22983, 23333, 25650, 27400, 29503, 31366]}, "edge": {"target": [], "time": []}}, "mouseout": {"state": {"target": ["0", "22", "21", "22", "19", "20", "20", "14", "18", "16", "16", "17", "14", "31", "31", "30", "33", "32", "29", "26", "27", "27", "28", "10", "11", "9", "8"], "time": [2148, 2282, 2601, 5266, 5332, 5466, 6597, 6966, 10615, 11227, 11365, 13216, 13332, 15023, 15132, 15266, 17066, 19116, 21200, 21300, 22066, 23283, 25150, 27300, 29316, 31350, 31400]}, "edge": {"target": [], "time": []}}}, "displayed_time": "36.95", "trialTime": 38063, "trial_type": "mouselab-mdp", "trial_index": 45, "time_elapsed": 1492137, "internal_node_id": "0.0-4.0-1.0-36.0"}}, {"uniqueid": "w41244801:a68400499", "current_trial": 46, "dateTime": 1691146175842, "trialdata": {"revealed_states": [], "clicked_states": ["22", "21", "20", "18", "16", "17", "31", "33", "32", "29", "27", "28", "11", "10", "9", "7"], "num_clicks_accrued": [0, 0, 0, 0, 0, 0, 0, 0, 0, 0, 0, 0, 0], "stateRewards": ["", -2, -3, 8, 14, -73, 73, 84, -12, -2, -50, -17, 2, 1, -2, -9, -44, -27, -33, 16, -63, -47, -66, -2, 1, 4, -5, -33, -11, 50, 9, 38, -79, 31], "withholdReward": false, "trial_id": "mdp_trial_38", "block": "test", "trialIndex": 39, "score": 78.60000000000001, "costs": -22.399999999999995, "simulationMode": [null, null, null, null, null], "rewards": [-2, -3, 8, 14, 84], "path": ["0", "0", "1", "2", "3", "4", "7"], "rt": [32736, 36, 133, 76, 188], "actions": ["up", "up", "up", "right", "down"], "actionTimes": [34099, 34635, 35299, 35875, 36571], "queries": {"click": {"state": {"target": ["22", "21", "20", "18", "16", "17", "31", "33", "32", "29", "27", "28", "11", "10", "9", "7"], "time": [2132, 4045, 5988, 7901, 9756, 11661, 13476, 15532, 17396, 19261, 21284, 23204, 25092, 27045, 28908, 30772]}, "edge": {"target": [], "time": []}}, "mouseover": {"state": {"target": ["0", "22", "22", "21", "20", "14", "18", "16", "17", "12", "31", "30", "33", "32", "29", "27", "28", "11", "10", "8", "9", "8", "3", "7", "7", "6", "18"], "time": [1664, 1863, 1993, 2613, 4296, 6247, 6497, 8430, 9997, 11997, 12280, 13846, 14113, 15813, 18096, 19897, 21530, 23697, 25330, 27263, 27513, 29147, 29180, 29263, 29563, 31080, 33213]}, "edge": {"target": [], "time": []}}, "mouseout": {"state": {"target": ["0", "22", "22", "21", "20", "14", "18", "16", "17", "12", "31", "30", "33", "32", "29", "27", "28", "11", "10", "8", "9", "8", "3", "7", "7", "6"], "time": [1696, 1913, 2380, 4230, 6163, 6263, 8063, 9930, 11930, 12013, 13797, 13913, 15730, 17480, 19430, 21463, 23287, 25263, 27213, 27280, 29113, 29164, 29197, 29286, 30879, 33163]}, "edge": {"target": [], "time": []}}}, "displayed_time": "37.07", "trialTime": 38459, "trial_type": "mouselab-mdp", "trial_index": 46, "time_elapsed": 1530953, "internal_node_id": "0.0-4.0-1.0-37.0"}}, {"uniqueid": "w41244801:a68400499", "current_trial": 47, "dateTime": 1691146202185, "trialdata": {"revealed_states": [], "clicked_states": ["22", "20", "21", "18", "16", "17", "31", "33", "32"], "num_clicks_accrued": [0, 0, 0, 0, 0, 0, 0, 0, 0, 0, 0, 0, 0], "stateRewards": ["", -2, 2, 5, -14, -56, 64, 84, -5, 52, 39, 85, -2, 1, 7, 8, 21, 29, -78, -9, -10, -69, 10, -2, -1, -7, 15, 72, 20, 41, -2, 52, 80, 22], "withholdReward": false, "trial_id": "mdp_trial_39", "block": "test", "trialIndex": 40, "score": 55.4, "costs": -12.600000000000001, "simulationMode": [null, null, null, null, null], "rewards": [-2, -1, -7, -2, 80], "path": ["0", "0", "23", "24", "25", "30", "32"], "rt": [19950, 56, 106, 41, 133], "actions": ["left", "left", "left", "down", "down"], "actionTimes": [22143, 22702, 23319, 23855, 24479], "queries": {"click": {"state": {"target": ["22", "20", "21", "18", "16", "17", "31", "33", "32"], "time": [3177, 5136, 7080, 9040, 10912, 13088, 15112, 17129, 19088]}, "edge": {"target": [], "time": []}}, "mouseover": {"state": {"target": ["0", "22", "21", "20", "21", "13", "18", "16", "16", "17", "31", "31", "30", "33", "32", "30"], "time": [2594, 3060, 3794, 4427, 5411, 7361, 7477, 9327, 9644, 11178, 13377, 13727, 15944, 16377, 17827, 20994]}, "edge": {"target": [], "time": []}}, "mouseout": {"state": {"target": ["18", "15", "15", "18", "0", "22", "21", "20", "21", "22", "13", "18", "16", "16", "16", "17", "31", "31", "30", "33", "32", "30"], "time": [494, 526, 1510, 1560, 2727, 3627, 3894, 5294, 7261, 7327, 7411, 9228, 9378, 11003, 11094, 13260, 13527, 15361, 15962, 17335, 20944, 21227]}, "edge": {"target": [], "time": []}}}, "displayed_time": "24.98", "trialTime": 25983, "trial_type": "mouselab-mdp", "trial_index": 47, "time_elapsed": 1557296, "internal_node_id": "0.0-4.0-1.0-38.0"}}, {"uniqueid": "w41244801:a68400499", "current_trial": 48, "dateTime": 1691146234448, "trialdata": {"revealed_states": [], "clicked_states": ["21", "22", "20", "18", "16", "17", "31", "33", "32", "29", "27", "28"], "num_clicks_accrued": [0, 0, 0, 0, 0, 0, 0, 0, 0, 0, 0, 0, 0], "stateRewards": ["", 2, 4, -6, -13, -75, -81, 30, 7, 5, 59, -65, -1, -1, 7, 14, -38, 36, -41, 1, -54, -5, 64, 2, -1, 5, 6, -19, 79, 11, 16, -33, -50, 58], "withholdReward": false, "trial_id": "mdp_trial_40", "block": "test", "trialIndex": 41, "score": 74.2, "costs": -16.8, "simulationMode": [null, null, null, null, null], "rewards": [2, -1, 5, 6, 79], "path": ["0", "0", "23", "24", "25", "26", "28"], "rt": [26425, 89, 106, 89, 129], "actions": ["left", "left", "left", "up", "right"], "actionTimes": [27735, 28334, 28951, 29550, 30191], "queries": {"click": {"state": {"target": ["21", "22", "20", "18", "16", "17", "31", "33", "32", "29", "27", "28"], "time": [2672, 4576, 6873, 8832, 10696, 12536, 14529, 16423, 18704, 20559, 22496, 24352]}, "edge": {"target": [], "time": []}}, "mouseover": {"state": {"target": ["21", "22", "19", "20", "20", "14", "18", "18", "16", "17", "17", "13", "31", "30", "33", "32", "29", "27", "28", "11", "10"], "time": [2559, 3242, 4776, 4896, 5376, 7109, 7299, 7492, 9175, 10892, 11342, 12742, 13275, 14709, 14793, 16775, 19276, 20914, 22826, 24692, 26975]}, "edge": {"target": [], "time": []}}, "mouseout": {"state": {"target": ["0", "21", "22", "19", "20", "20", "14", "18", "18", "16", "17", "17", "13", "31", "30", "33", "32", "32", "29", "27", "27", "28", "11", "10"], "time": [1326, 2959, 4759, 4842, 4959, 7043, 7142, 7326, 8892, 10843, 10980, 12709, 12759, 14692, 14742, 16610, 18970, 19092, 20759, 22528, 22676, 24592, 26942, 26992]}, "edge": {"target": [], "time": []}}}, "displayed_time": "30.70", "trialTime": 31894, "trial_type": "mouselab-mdp", "trial_index": 48, "time_elapsed": 1589559, "internal_node_id": "0.0-4.0-1.0-39.0"}}, {"uniqueid": "w41244801:a68400499", "current_trial": 49, "dateTime": 1691146323241, "trialdata": {"rt": 88788, "response": {"Q0": "$-2 to $2", "Q1": "$-32 to $32", "Q2": "$-88 to $88", "Q3": "The cost for clicking on nodes varied between nodes.", "Q4": "Very unmotivated"}, "question_order": [0, 1, 2, 3, 4], "trial_id": "final_quiz_control", "trial_type": "survey-multi-choice", "trial_index": 49, "time_elapsed": 1678352, "internal_node_id": "0.0-4.0-2.0"}}, {"uniqueid": "w41244801:a68400499", "current_trial": 50, "dateTime": 1691146586045, "trialdata": {"rt": 262798, "response": {"Q0": "I inspected only the edge nodes to try and find the highest amount in the fewest inspections possible. I didn't bother to inspect the early nodes.", "Q1": "Yes, I began by inspecting the early nodes to determine the value range. I then realized it is best to only inspect the edge nodes for the highest value. ", "Q2": "I didn't find it difficult."}, "trial_id": "self_report_control", "trial_type": "survey-text", "trial_index": 50, "time_elapsed": 1941156, "internal_node_id": "0.0-4.0-3.0"}}, {"uniqueid": "w41244801:a68400499", "current_trial": 51, "dateTime": 1691146616917, "trialdata": {"rt": 30867, "response": {"gender": "male", "age": "30", "colorblind": "0", "effort": "0"}, "trial_type": "survey-html-form", "trial_index": 51, "time_elapsed": 1972028, "internal_node_id": "0.0-4.0-4.0"}}, {"uniqueid": "w41244801:a68400499", "current_trial": 52, "dateTime": 1691146698276, "trialdata": {"rt": 81354, "response": {"Q0": "No", "Q1": "Yes, but this one was different. The inspected values only remained for a few seconds.", "Q2": ""}, "trial_type": "survey-text", "trial_index": 52, "time_elapsed": 2053387, "internal_node_id": "0.0-4.0-5.0"}}, {"uniqueid": "w41244801:a68400499", "current_trial": 53, "dateTime": 1691146703668, "trialdata": {"rt": 5388, "stimulus": "Press 'Finish HIT' in order to reach the completion code. Once the data has been saved, you will receive the code either in this window or in the original browser window where you started the experiment.\n", "response": 0, "trial_type": "html-button-response", "trial_index": 53, "time_elapsed": 2058779, "internal_node_id": "0.0-5.0"}}, {"uniqueid": "w41244801:a68400499", "current_trial": 54, "dateTime": 1691146704673, "trialdata": {"success": true, "trial_type": "fullscreen", "trial_index": 54, "time_elapsed": 2059783, "internal_node_id": "0.0-6.0"}}], "questiondata": {"params": {"CODE": "C6DMOQA6", "MIN_TIME": 14, "inspectCost": 1, "startTime": "Fri Aug 04 2023 12:24:01 GMT+0200 (South Africa Standard Time)", "bonusRate": 0.002, "variance": "1_2_4_8_44", "branching": "31123"}, "final_score": 2345.8}, "eventdata": [{"eventtype": "initialized", "value": null, "timestamp": 1691144640451, "interval": 0}, {"eventtype": "window_resize", "value": [1024, 767], "timestamp": 1691144640451, "interval": 0}, {"eventtype": "window_resize", "value": [1024, 767], "timestamp": 1691144640912, "interval": 461}, {"eventtype": "focus", "value": "off", "timestamp": 1691144648697, "interval": 7785}, {"eventtype": "focus", "value": "on", "timestamp": 1691144652456, "interval": 3759}, {"eventtype": "window_resize", "value": [1920, 1080], "timestamp": 1691144668524, "interval": 16068}, {"eventtype": "window_resize", "value": [1024, 767], "timestamp": 1691146703900, "interval": 2035376}], "useragent": "Mozilla/5.0 (Windows NT 10.0; Win64; x64) AppleWebKit/537.36 (KHTML, like Gecko) Chrome/115.0.0.0 Safari/537.36", "mode": "live", "id": "w41244801:a68400499", "status": "user data saved", "Beginhit": "2023-08-04 10:23:57.146291", "Beginexp": "2023-08-04 10:24:28.891433", "Endhit": "2023-08-04 10:58:25.34273", "psiturkStatus": 3, "browser": "<redacted>", "platform": "windows", "language": "en-US", "excludeReason": "alreadyparticipated"}