{"condition": 1, "counterbalance": 0, "assignmentId": "a18149825", "workerId": "w86755331", "hitId": "h78721611", "currenttrial": 56, "bonus": 0, "data": [{"uniqueid": "w86755331:a18149825", "current_trial": 0, "dateTime": 1693481300910, "trialdata": {"success": true, "trial_type": "fullscreen", "trial_index": 0, "time_elapsed": 70105, "internal_node_id": "0.0-0.0"}}, {"uniqueid": "w86755331:a18149825", "current_trial": 1, "dateTime": 1693481374284, "trialdata": {"view_history": [{"page_index": 0, "viewing_time": 73393}], "rt": 73394, "trial_id": "exp_instructions_misaligned", "trial_type": "instructions", "trial_index": 1, "time_elapsed": 143479, "internal_node_id": "0.0-1.0"}}, {"uniqueid": "w86755331:a18149825", "current_trial": 2, "dateTime": 1693481933397, "trialdata": {"view_history": [{"page_index": 0, "viewing_time": 76414}, {"page_index": 1, "viewing_time": 117573}, {"page_index": 2, "viewing_time": 311489}, {"page_index": 3, "viewing_time": 53633}], "rt": 559108, "trial_id": "mouselab_instructions_1_misaligned", "trial_type": "instructions", "trial_index": 2, "time_elapsed": 702593, "internal_node_id": "0.0-2.0-1.0"}}, {"uniqueid": "w86755331:a18149825", "current_trial": 3, "dateTime": 1693481962635, "trialdata": {"revealed_states": [], "clicked_states": [], "num_clicks_accrued": [0, 0, 0, 0, 0, 0, 0, 0, 0, 0, 0, 0, 0], "stateRewards": ["", 10, -10, 10, -10, -10, 10, -10, 10, -10, 10, -10, 10, -10, 10, 10, -10, -10, 10, -10, 10, 10, -10, 10, -10, -10, 10, 10, -10, -10, -10, -10, 10, 10], "withholdReward": false, "trial_id": "practice_1", "block": "test", "trialIndex": 0, "score": -6.5, "costs": 0, "simulationMode": [null, null, null, null, null], "rewards": [10, -10, 10, -10, -10], "path": ["0", "0", "1", "2", "3", "4", "7"], "rt": [1738, 776, 1964, 129, 236], "actions": ["up", "up", "up", "right", "down"], "actionTimes": [6245, 7525, 10012, 10660, 11402], "queries": {"click": {"state": {"target": [], "time": []}, "edge": {"target": [], "time": []}}, "mouseover": {"state": {"target": [], "time": []}, "edge": {"target": [], "time": []}}, "mouseout": {"state": {"target": ["0", "0", "0", "7", "4", "4"], "time": [3632, 18912, 19066, 19113, 20100, 26185]}, "edge": {"target": [], "time": []}}}, "displayed_time": "11.92", "trialTime": 28081, "trial_type": "mouselab-mdp", "trial_index": 3, "time_elapsed": 731829, "internal_node_id": "0.0-2.0-2.0-0.0"}}, {"uniqueid": "w86755331:a18149825", "current_trial": 4, "dateTime": 1693481981082, "trialdata": {"revealed_states": [], "clicked_states": [], "num_clicks_accrued": [0, 0, 0, 0, 0, 0, 0, 0, 0, 0, 0, 0, 0], "stateRewards": ["", 10, -10, 10, -10, -10, -10, 10, -10, -10, 10, 10, -10, -10, -10, 10, -10, -10, 10, -10, 10, -10, -10, 10, 10, -10, -10, 10, -10, -10, 10, 10, -10, 10], "withholdReward": false, "trial_id": "practice_2", "block": "test", "trialIndex": 1, "score": -6.5, "costs": 0, "simulationMode": [null, null, null, null, null], "rewards": [10, -10, 10, -10, -10], "path": ["0", "0", "1", "2", "3", "8", "9"], "rt": [961, 1, 7, 83, 134], "actions": ["up", "up", "up", "left", "up"], "actionTimes": [4125, 4636, 5176, 5768, 6419], "queries": {"click": {"state": {"target": [], "time": []}, "edge": {"target": [], "time": []}}, "mouseover": {"state": {"target": [], "time": []}, "edge": {"target": [], "time": []}}, "mouseout": {"state": {"target": ["5", "2", "1", "1", "2"], "time": [1734, 1968, 2100, 17370, 17398]}, "edge": {"target": [], "time": []}}}, "displayed_time": "6.94", "trialTime": 18115, "trial_type": "mouselab-mdp", "trial_index": 4, "time_elapsed": 750276, "internal_node_id": "0.0-2.0-2.0-1.0"}}, {"uniqueid": "w86755331:a18149825", "current_trial": 5, "dateTime": 1693482051103, "trialdata": {"view_history": [{"page_index": 0, "viewing_time": 61310}, {"page_index": 1, "viewing_time": 8702}], "rt": 70012, "trial_id": "mouselab_instructions_2_misaligned", "trial_type": "instructions", "trial_index": 5, "time_elapsed": 820299, "internal_node_id": "0.0-2.0-3.0"}}, {"uniqueid": "w86755331:a18149825", "current_trial": 6, "dateTime": 1693482102180, "trialdata": {"rt": 51067, "response": {"Q0": "The cost for clicking on nodes may vary between nodes.", "Q1": "The better I perform the higher my bonus will be.", "Q2": "No, the amount of cash at each node of the web may be different each time.", "Q3": "To get the highest total score.", "Q4": "Only before moving the spider.", "Q5": "3 seconds"}, "question_order": [0, 1, 2, 3, 4, 5], "correct": {"Q0": "The cost for clicking on nodes may vary between nodes.", "Q1": "The better I perform the higher my bonus will be.", "Q2": "No, the amount of cash at each node of the web may be different each time.", "Q3": "To get the highest total score.", "Q4": "Only before moving the spider.", "Q5": "3 seconds"}, "trial_id": "mouselab_quiz_misaligned", "trial_type": "survey-multi-choice", "trial_index": 6, "time_elapsed": 871375, "internal_node_id": "0.0-2.0-4.0"}}, {"uniqueid": "w86755331:a18149825", "current_trial": 7, "dateTime": 1693482128352, "trialdata": {"rt": 26156, "response": {"Q0": "No"}, "question_order": [0], "trial_id": "repeat_check", "trial_type": "survey-multi-choice", "trial_index": 7, "time_elapsed": 897547, "internal_node_id": "0.0-4.0-0.0"}}, {"uniqueid": "w86755331:a18149825", "current_trial": 8, "dateTime": 1693482137037, "trialdata": {"rt": 8672, "stimulus": "\n<h1> Get ready to start the game! </h1>\n\nThank you for reading the instructions. Get ready start with the 40 rounds of this game.\n<br><br>\nIf you need to take a break, feel free to take one after the end of a round, before continuing to the next one.\n<br><br>\nRemember, the more money the spider gets, the bigger your bonus will be!\n<br><br>\n<div style='text-align: center;'>Press <code>space</code> to begin.</div>\n\n<br><br>\n(If, at any point, the <code>space</code> key does not take you to the next page, click once on the text and try again.)", "response": " ", "trial_id": "mdp_ready", "trial_type": "html-keyboard-response", "trial_index": 8, "time_elapsed": 906233, "internal_node_id": "0.0-6.0-0.0"}}, {"uniqueid": "w86755331:a18149825", "current_trial": 9, "dateTime": 1693482172383, "trialdata": {"revealed_states": [], "clicked_states": [], "num_clicks_accrued": [0, 0, 0, 0, 0, 0, 0, 0, 0, 0, 0, 0, 0], "stateRewards": ["", 1, 1, 1, -3, -7, -1, -41, -10, 20, -72, -63, 1, -4, -2, 2, -66, 30, -84, -2, 49, 23, 71, -1, -4, 4, -12, 67, 5, 18, -16, 88, 56, -5], "withholdReward": false, "trial_id": "mdp_trial_1", "block": "test", "trialIndex": 2, "score": 13, "costs": 0, "simulationMode": [null, null, null, null, null], "rewards": [1, 1, 1, -10, 20], "path": ["0", "0", "1", "2", "3", "8", "9"], "rt": [12002, 1477, 5761, 4467, 180], "actions": ["up", "up", "up", "left", "up"], "actionTimes": [14374, 16370, 22655, 27628, 28325], "queries": {"click": {"state": {"target": [], "time": []}, "edge": {"target": [], "time": []}}, "mouseover": {"state": {"target": ["0"], "time": [3691]}, "edge": {"target": [], "time": []}}, "mouseout": {"state": {"target": ["0", "0"], "time": [1759, 3741]}, "edge": {"target": [], "time": []}}}, "displayed_time": "28.84", "trialTime": 35005, "trial_type": "mouselab-mdp", "trial_index": 9, "time_elapsed": 941578, "internal_node_id": "0.0-6.0-1.0-0.0"}}, {"uniqueid": "w86755331:a18149825", "current_trial": 10, "dateTime": 1693482191204, "trialdata": {"revealed_states": [], "clicked_states": [], "num_clicks_accrued": [0, 0, 0, 0, 0, 0, 0, 0, 0, 0, 0, 0, 0], "stateRewards": ["", 1, 4, 5, -5, 58, -80, 75, 6, 25, -39, 46, 2, -2, 4, 2, 59, 31, -22, -12, -61, 15, 72, 1, -2, -7, 8, 77, 76, -23, -7, 71, -15, -3], "withholdReward": false, "trial_id": "mdp_trial_2", "block": "test", "trialIndex": 3, "score": 65, "costs": 0, "simulationMode": [null, null, null, null, null], "rewards": [2, -2, 4, 2, 59], "path": ["0", "0", "12", "13", "14", "15", "16"], "rt": [3397, 220, 1077, 497, 321], "actions": ["right", "right", "right", "up", "up"], "actionTimes": [5185, 5921, 7494, 8514, 9356], "queries": {"click": {"state": {"target": [], "time": []}, "edge": {"target": [], "time": []}}, "mouseover": {"state": {"target": [], "time": []}, "edge": {"target": [], "time": []}}, "mouseout": {"state": {"target": ["0", "0"], "time": [1519, 12532]}, "edge": {"target": [], "time": []}}}, "displayed_time": "15.79", "trialTime": 18482, "trial_type": "mouselab-mdp", "trial_index": 10, "time_elapsed": 960399, "internal_node_id": "0.0-6.0-1.0-1.0"}}, {"uniqueid": "w86755331:a18149825", "current_trial": 11, "dateTime": 1693482209423, "trialdata": {"revealed_states": [], "clicked_states": [], "num_clicks_accrued": [0, 0, 0, 0, 0, 0, 0, 0, 0, 0, 0, 0, 0], "stateRewards": ["", 1, 1, -7, -9, -44, 24, -83, -15, 44, -24, 72, -2, -3, 4, -5, 57, 55, 29, -11, 22, 12, -25, -1, 2, 7, 12, 33, -8, 47, -4, 8, 50, -4], "withholdReward": false, "trial_id": "mdp_trial_3", "block": "test", "trialIndex": 4, "score": -58, "costs": 0, "simulationMode": [null, null, null, null, null], "rewards": [1, 1, -7, -9, -44], "path": ["0", "0", "1", "2", "3", "4", "5"], "rt": [2816, 1, 238, 545, 159], "actions": ["up", "up", "up", "right", "up"], "actionTimes": [4383, 4908, 5661, 6719, 7399], "queries": {"click": {"state": {"target": [], "time": []}, "edge": {"target": [], "time": []}}, "mouseover": {"state": {"target": [], "time": []}, "edge": {"target": [], "time": []}}, "mouseout": {"state": {"target": ["0", "0"], "time": [1281, 9054]}, "edge": {"target": [], "time": []}}}, "displayed_time": "15.57", "trialTime": 17875, "trial_type": "mouselab-mdp", "trial_index": 11, "time_elapsed": 978619, "internal_node_id": "0.0-6.0-1.0-2.0"}}, {"uniqueid": "w86755331:a18149825", "current_trial": 12, "dateTime": 1693482232296, "trialdata": {"revealed_states": [], "clicked_states": [], "num_clicks_accrued": [0, 0, 0, 0, 0, 0, 0, 0, 0, 0, 0, 0, 0], "stateRewards": ["", 1, -2, -8, -13, 4, 34, -84, -4, -49, 88, -70, -1, 3, -4, 10, -77, 13, -34, 15, -21, -16, 27, 1, -2, 8, -8, -6, 38, -26, 6, -15, 66, -3], "withholdReward": false, "trial_id": "mdp_trial_4", "block": "test", "trialIndex": 5, "score": -27, "costs": 0, "simulationMode": [null, null, null, null, null], "rewards": [1, -2, 8, -8, -26], "path": ["0", "0", "23", "24", "25", "26", "29"], "rt": [5094, 565, 123, 212, 249], "actions": ["left", "left", "left", "up", "left"], "actionTimes": [6956, 8015, 8673, 9395, 10147], "queries": {"click": {"state": {"target": [], "time": []}, "edge": {"target": [], "time": []}}, "mouseover": {"state": {"target": ["0"], "time": [2330]}, "edge": {"target": [], "time": []}}, "mouseout": {"state": {"target": ["0", "0"], "time": [1553, 2346]}, "edge": {"target": [], "time": []}}}, "displayed_time": "15.86", "trialTime": 22507, "trial_type": "mouselab-mdp", "trial_index": 12, "time_elapsed": 1001491, "internal_node_id": "0.0-6.0-1.0-3.0"}}, {"uniqueid": "w86755331:a18149825", "current_trial": 13, "dateTime": 1693482251961, "trialdata": {"revealed_states": [], "clicked_states": [], "num_clicks_accrued": [0, 0, 0, 0, 0, 0, 0, 0, 0, 0, 0, 0, 0], "stateRewards": ["", -2, -3, 7, -13, 60, 9, 37, -6, 37, 20, 1, 2, -2, -8, 6, -80, -31, -10, -7, 70, -65, -44, -1, 1, 7, 6, -11, 73, -85, 16, -21, 47, 34], "withholdReward": false, "trial_id": "mdp_trial_5", "block": "test", "trialIndex": 6, "score": 70, "costs": 0, "simulationMode": [null, null, null, null, null], "rewards": [-1, 1, 7, 16, 47], "path": ["0", "0", "23", "24", "25", "30", "32"], "rt": [4317, 1728, 613, 44, 653], "actions": ["left", "left", "left", "down", "down"], "actionTimes": [7017, 9256, 10373, 10922, 12098], "queries": {"click": {"state": {"target": [], "time": []}, "edge": {"target": [], "time": []}}, "mouseover": {"state": {"target": ["0"], "time": [4376]}, "edge": {"target": [], "time": []}}, "mouseout": {"state": {"target": ["0", "0"], "time": [1231, 4409]}, "edge": {"target": [], "time": []}}}, "displayed_time": "16.70", "trialTime": 19214, "trial_type": "mouselab-mdp", "trial_index": 13, "time_elapsed": 1021156, "internal_node_id": "0.0-6.0-1.0-4.0"}}, {"uniqueid": "w86755331:a18149825", "current_trial": 14, "dateTime": 1693482274450, "trialdata": {"revealed_states": [], "clicked_states": [], "num_clicks_accrued": [0, 0, 0, 0, 0, 0, 0, 0, 0, 0, 0, 0, 0], "stateRewards": ["", -1, -1, 7, -15, -43, -21, -84, -9, -45, -66, 2, 1, -2, 2, 8, -27, 44, -52, -5, -84, 11, 53, 1, 4, -4, 16, 83, -82, -15, -16, 68, -43, 81], "withholdReward": false, "trial_id": "mdp_trial_6", "block": "test", "trialIndex": 7, "score": -49, "costs": 0, "simulationMode": [null, null, null, null, null], "rewards": [-1, -1, 7, -9, -45], "path": ["0", "0", "1", "2", "3", "8", "9"], "rt": [1233, 334, 49, 21, 50], "actions": ["up", "up", "up", "left", "up"], "actionTimes": [3081, 3937, 4488, 5042, 5603], "queries": {"click": {"state": {"target": [], "time": []}, "edge": {"target": [], "time": []}}, "mouseover": {"state": {"target": [], "time": []}, "edge": {"target": [], "time": []}}, "mouseout": {"state": {"target": ["0", "0"], "time": [1552, 7084]}, "edge": {"target": [], "time": []}}}, "displayed_time": "15.85", "trialTime": 22065, "trial_type": "mouselab-mdp", "trial_index": 14, "time_elapsed": 1043646, "internal_node_id": "0.0-6.0-1.0-5.0"}}, {"uniqueid": "w86755331:a18149825", "current_trial": 15, "dateTime": 1693482298099, "trialdata": {"revealed_states": [], "clicked_states": [], "num_clicks_accrued": [0, 0, 0, 0, 0, 0, 0, 0, 0, 0, 0, 0, 0], "stateRewards": ["", 2, -3, -2, 14, -4, 85, 46, 15, -28, 41, 31, -1, -1, -1, 5, 62, 79, 57, 12, -73, -64, 86, -1, 1, -3, -5, 68, 11, -32, 8, -80, -21, -56], "withholdReward": false, "trial_id": "mdp_trial_7", "block": "test", "trialIndex": 8, "score": -16, "costs": 0, "simulationMode": [null, null, null, null, null], "rewards": [2, -3, -2, 15, -28], "path": ["0", "0", "1", "2", "3", "8", "9"], "rt": [4626, 981, 577, 377, 391], "actions": ["up", "up", "up", "left", "up"], "actionTimes": [9016, 10491, 11586, 12469, 13366], "queries": {"click": {"state": {"target": [], "time": []}, "edge": {"target": [], "time": []}}, "mouseover": {"state": {"target": [], "time": []}, "edge": {"target": [], "time": []}}, "mouseout": {"state": {"target": ["0", "12", "13", "15", "17", "17"], "time": [4086, 20994, 21024, 21127, 21526, 22311]}, "edge": {"target": [], "time": []}}}, "displayed_time": "18.39", "trialTime": 23166, "trial_type": "mouselab-mdp", "trial_index": 15, "time_elapsed": 1067293, "internal_node_id": "0.0-6.0-1.0-6.0"}}, {"uniqueid": "w86755331:a18149825", "current_trial": 16, "dateTime": 1693482326828, "trialdata": {"revealed_states": [], "clicked_states": [], "num_clicks_accrued": [0, 0, 0, 0, 0, 0, 0, 0, 0, 0, 0, 0, 0], "stateRewards": ["", 1, 1, 5, 6, -29, -7, 3, -16, 9, -46, 65, -1, 4, -1, -16, -63, -77, -87, 8, 80, -50, 43, -1, -1, -5, 5, -38, -71, -62, 9, 81, -50, -52], "withholdReward": false, "trial_id": "mdp_trial_8", "block": "test", "trialIndex": 9, "score": 90, "costs": 0, "simulationMode": [null, null, null, null, null], "rewards": [-1, 4, -1, 8, 80], "path": ["0", "0", "12", "13", "14", "19", "20"], "rt": [510, 248, 41, 20, 302], "actions": ["right", "right", "right", "down", "right"], "actionTimes": [9843, 10656, 11192, 11720, 12551], "queries": {"click": {"state": {"target": [], "time": []}, "edge": {"target": [], "time": []}}, "mouseover": {"state": {"target": [], "time": []}, "edge": {"target": [], "time": []}}, "mouseout": {"state": {"target": ["16", "6", "7", "1", "1", "0", "0"], "time": [1062, 7982, 8048, 8296, 13648, 13768, 18564]}, "edge": {"target": [], "time": []}}}, "displayed_time": "23.34", "trialTime": 28272, "trial_type": "mouselab-mdp", "trial_index": 16, "time_elapsed": 1096023, "internal_node_id": "0.0-6.0-1.0-7.0"}}, {"uniqueid": "w86755331:a18149825", "current_trial": 17, "dateTime": 1693482349057, "trialdata": {"revealed_states": [], "clicked_states": [], "num_clicks_accrued": [0, 0, 0, 0, 0, 0, 0, 0, 0, 0, 0, 0, 0], "stateRewards": ["", -2, 3, -1, 2, -72, 63, 20, -1, 62, -66, 39, -2, 3, -6, 14, 22, 47, 1, 8, -49, -1, -41, 2, 2, -6, -16, -64, -60, -34, 16, 54, 22, -7], "withholdReward": false, "trial_id": "mdp_trial_9", "block": "test", "trialIndex": 10, "score": 36, "costs": 0, "simulationMode": [null, null, null, null, null], "rewards": [2, 2, -6, 16, 22], "path": ["0", "0", "23", "24", "25", "30", "32"], "rt": [570, 156, 74, 578, 34], "actions": ["left", "left", "left", "down", "down"], "actionTimes": [7270, 7921, 8511, 9607, 10147], "queries": {"click": {"state": {"target": [], "time": []}, "edge": {"target": [], "time": []}}, "mouseover": {"state": {"target": [], "time": []}, "edge": {"target": [], "time": []}}, "mouseout": {"state": {"target": ["2", "0", "0", "1", "0"], "time": [4329, 4575, 6042, 17195, 17244]}, "edge": {"target": [], "time": []}}}, "displayed_time": "20.70", "trialTime": 21797, "trial_type": "mouselab-mdp", "trial_index": 17, "time_elapsed": 1118252, "internal_node_id": "0.0-6.0-1.0-8.0"}}, {"uniqueid": "w86755331:a18149825", "current_trial": 18, "dateTime": 1693482366482, "trialdata": {"revealed_states": [], "clicked_states": [], "num_clicks_accrued": [0, 0, 0, 0, 0, 0, 0, 0, 0, 0, 0, 0, 0], "stateRewards": ["", 1, 3, -2, 15, 51, 15, -19, 11, 67, -45, -73, 2, 4, -2, -13, 36, 9, -28, 10, -30, 31, 16, 1, 2, -1, -16, 14, -22, 36, -1, 88, -5, 45], "withholdReward": false, "trial_id": "mdp_trial_10", "block": "test", "trialIndex": 11, "score": 68, "costs": 0, "simulationMode": [null, null, null, null, null], "rewards": [1, 3, -2, 15, 51], "path": ["0", "0", "1", "2", "3", "4", "5"], "rt": [3796, 10, 35, 71, 133], "actions": ["up", "up", "up", "right", "up"], "actionTimes": [6042, 6554, 7130, 7731, 8377], "queries": {"click": {"state": {"target": [], "time": []}, "edge": {"target": [], "time": []}}, "mouseover": {"state": {"target": [], "time": []}, "edge": {"target": [], "time": []}}, "mouseout": {"state": {"target": ["2", "1", "0"], "time": [1093, 1444, 14908]}, "edge": {"target": [], "time": []}}}, "displayed_time": "16.25", "trialTime": 16967, "trial_type": "mouselab-mdp", "trial_index": 18, "time_elapsed": 1135677, "internal_node_id": "0.0-6.0-1.0-9.0"}}, {"uniqueid": "w86755331:a18149825", "current_trial": 19, "dateTime": 1693482400898, "trialdata": {"revealed_states": [], "clicked_states": [], "num_clicks_accrued": [0, 0, 0, 0, 0, 0, 0, 0, 0, 0, 0, 0, 0], "stateRewards": ["", -2, 3, 8, -9, 59, 41, -50, -1, 82, 66, 33, 2, -2, 7, 8, 1, -38, 12, -16, 24, -37, 67, 1, 4, -2, 5, 35, -83, 28, 8, -27, 69, -64], "withholdReward": false, "trial_id": "mdp_trial_11", "block": "test", "trialIndex": 12, "score": -46, "costs": 0, "simulationMode": [null, null, null, null, null], "rewards": [2, -2, 7, -16, -37], "path": ["0", "0", "12", "13", "14", "19", "21"], "rt": [1275, 816, 8060, 1234, 231], "actions": ["right", "right", "right", "down", "down"], "actionTimes": [10567, 11892, 20468, 22227, 22973], "queries": {"click": {"state": {"target": [], "time": []}, "edge": {"target": [], "time": []}}, "mouseover": {"state": {"target": [], "time": []}, "edge": {"target": [], "time": []}}, "mouseout": {"state": {"target": ["0"], "time": [8982]}, "edge": {"target": [], "time": []}}}, "displayed_time": "23.49", "trialTime": 33963, "trial_type": "mouselab-mdp", "trial_index": 19, "time_elapsed": 1170093, "internal_node_id": "0.0-6.0-1.0-10.0"}}, {"uniqueid": "w86755331:a18149825", "current_trial": 20, "dateTime": 1693482418101, "trialdata": {"revealed_states": [], "clicked_states": [], "num_clicks_accrued": [0, 0, 0, 0, 0, 0, 0, 0, 0, 0, 0, 0, 0], "stateRewards": ["", -1, -3, -6, -2, -7, 80, -45, -3, -38, -72, 76, 2, 1, 7, 4, -62, 14, -74, 14, -87, -21, -88, -2, 1, -7, -10, 66, 56, -76, 10, -29, -72, -70], "withholdReward": false, "trial_id": "mdp_trial_12", "block": "test", "trialIndex": 13, "score": -19, "costs": 0, "simulationMode": [null, null, null, null, null], "rewards": [-1, -3, -6, -2, -7], "path": ["0", "0", "1", "2", "3", "4", "5"], "rt": [968, 78, 8, 193, 2], "actions": ["up", "up", "up", "right", "up"], "actionTimes": [2882, 3460, 3990, 4707, 5216], "queries": {"click": {"state": {"target": [], "time": []}, "edge": {"target": [], "time": []}}, "mouseover": {"state": {"target": [], "time": []}, "edge": {"target": [], "time": []}}, "mouseout": {"state": {"target": ["0"], "time": [1596]}, "edge": {"target": [], "time": []}}}, "displayed_time": "15.92", "trialTime": 16721, "trial_type": "mouselab-mdp", "trial_index": 20, "time_elapsed": 1187295, "internal_node_id": "0.0-6.0-1.0-11.0"}}, {"uniqueid": "w86755331:a18149825", "current_trial": 21, "dateTime": 1693482440155, "trialdata": {"revealed_states": [], "clicked_states": [], "num_clicks_accrued": [0, 0, 0, 0, 0, 0, 0, 0, 0, 0, 0, 0, 0], "stateRewards": ["", 1, 1, 1, 15, -76, 52, -32, 14, -57, 37, 49, 1, -4, -3, 6, 83, -76, 25, 9, 36, -1, -17, -1, 4, 4, -2, -22, -21, 58, -15, -57, 49, -24], "withholdReward": false, "trial_id": "mdp_trial_13", "block": "test", "trialIndex": 14, "score": 41, "costs": 0, "simulationMode": [null, null, null, null, null], "rewards": [-1, 4, 4, -15, 49], "path": ["0", "0", "23", "24", "25", "30", "32"], "rt": [3012, 108, 135, 4, 169], "actions": ["left", "left", "left", "down", "down"], "actionTimes": [8784, 9398, 10058, 10576, 11259], "queries": {"click": {"state": {"target": [], "time": []}, "edge": {"target": [], "time": []}}, "mouseover": {"state": {"target": [], "time": []}, "edge": {"target": [], "time": []}}, "mouseout": {"state": {"target": ["0", "0"], "time": [5423, 12836]}, "edge": {"target": [], "time": []}}}, "displayed_time": "19.77", "trialTime": 21599, "trial_type": "mouselab-mdp", "trial_index": 21, "time_elapsed": 1209349, "internal_node_id": "0.0-6.0-1.0-12.0"}}, {"uniqueid": "w86755331:a18149825", "current_trial": 22, "dateTime": 1693482469643, "trialdata": {"revealed_states": [], "clicked_states": ["23", "24", "28"], "num_clicks_accrued": [0, 0, 0, 0, 0, 0, 0, 0, 0, 0, 0, 0, 0], "stateRewards": ["", -2, 4, 3, 5, -61, 4, 30, 1, -47, 83, 10, 1, 4, 7, -14, 19, -74, -83, 6, -2, -2, -65, -1, -2, 4, -11, 12, -1, -68, 11, -38, -28, 66], "withholdReward": false, "trial_id": "mdp_trial_14", "block": "test", "trialIndex": 15, "score": 13.75, "costs": -2.25, "simulationMode": [null, null, null, null, null], "rewards": [-2, 4, 3, 1, 10], "path": ["0", "0", "1", "2", "3", "8", "11"], "rt": [8216, 207, 893, 447, 408], "actions": ["up", "up", "up", "left", "left"], "actionTimes": [15995, 16737, 18140, 19093, 20004], "queries": {"click": {"state": {"target": ["23", "24", "28"], "time": [8839, 10367, 11974]}, "edge": {"target": [], "time": []}}, "mouseover": {"state": {"target": ["23", "24", "28", "1"], "time": [8431, 10063, 11412, 13061]}, "edge": {"target": [], "time": []}}, "mouseout": {"state": {"target": ["0", "12", "0", "23", "24", "28"], "time": [3739, 3945, 6045, 9727, 10500, 12927]}, "edge": {"target": [], "time": []}}}, "displayed_time": "21.78", "trialTime": 28981, "trial_type": "mouselab-mdp", "trial_index": 22, "time_elapsed": 1238838, "internal_node_id": "0.0-6.0-1.0-13.0"}}, {"uniqueid": "w86755331:a18149825", "current_trial": 23, "dateTime": 1693482494318, "trialdata": {"revealed_states": [], "clicked_states": ["12", "13", "1", "2", "23", "24"], "num_clicks_accrued": [0, 0, 0, 0, 0, 0, 0, 0, 0, 0, 0, 0, 0], "stateRewards": ["", 2, 4, 7, -6, -76, -81, 2, 5, -66, -3, 36, -2, -4, 6, -2, -69, 4, -49, -6, 67, 38, -67, 2, 1, 1, 6, -68, -21, 52, -16, -16, 6, -70], "withholdReward": false, "trial_id": "mdp_trial_15", "block": "test", "trialIndex": 16, "score": 61.7, "costs": -0.29999999999999993, "simulationMode": [null, null, null, null, null], "rewards": [2, 1, 1, 6, 52], "path": ["0", "0", "23", "24", "25", "26", "29"], "rt": [8639, 173, 37, 40, 39], "actions": ["left", "left", "left", "up", "left"], "actionTimes": [10187, 10869, 11429, 11998, 12531], "queries": {"click": {"state": {"target": ["12", "13", "1", "2", "23", "24"], "time": [2424, 3554, 4746, 6003, 7681, 8485]}, "edge": {"target": [], "time": []}}, "mouseover": {"state": {"target": ["12", "13", "1", "2", "10", "23", "24"], "time": [2093, 3089, 4373, 5558, 7141, 7357, 8157]}, "edge": {"target": [], "time": []}}, "mouseout": {"state": {"target": ["3", "2", "1", "12", "13", "1", "2", "10", "23", "24"], "time": [541, 657, 723, 3023, 4222, 5523, 6457, 7157, 8023, 8699]}, "edge": {"target": [], "time": []}}}, "displayed_time": "15.55", "trialTime": 24200, "trial_type": "mouselab-mdp", "trial_index": 23, "time_elapsed": 1263513, "internal_node_id": "0.0-6.0-1.0-14.0"}}, {"uniqueid": "w86755331:a18149825", "current_trial": 24, "dateTime": 1693482529955, "trialdata": {"revealed_states": [], "clicked_states": ["26", "3", "4", "5"], "num_clicks_accrued": [0, 0, 0, 0, 0, 0, 0, 0, 0, 0, 0, 0, 0], "stateRewards": ["", 1, -3, -4, -11, -56, 61, -47, -16, -28, -9, 69, -2, -3, -4, -8, 40, -86, 59, -4, 80, 27, 54, -1, 3, -1, 8, 67, 23, 50, 6, 83, -43, -29], "withholdReward": false, "trial_id": "mdp_trial_16", "block": "test", "trialIndex": 17, "score": 60.8, "costs": -6.199999999999999, "simulationMode": [null, null, null, null, null], "rewards": [-2, -3, -4, -4, 80], "path": ["0", "0", "12", "13", "14", "19", "20"], "rt": [8448, 78, 238, 40, 167], "actions": ["right", "right", "right", "down", "right"], "actionTimes": [12584, 13158, 13916, 14469, 15145], "queries": {"click": {"state": {"target": ["26", "3", "4", "5"], "time": [5517, 6790, 8247, 9174]}, "edge": {"target": [], "time": []}}, "mouseover": {"state": {"target": ["28", "26", "3", "4", "5", "9", "9", "9", "3"], "time": [4728, 4974, 6275, 7425, 8641, 9625, 10009, 10859, 12026]}, "edge": {"target": [], "time": []}}, "mouseout": {"state": {"target": ["24", "28", "26", "3", "4", "5", "9", "9", "9", "3"], "time": [3092, 4779, 5975, 7003, 8454, 9542, 9709, 10776, 11992, 12058]}, "edge": {"target": [], "time": []}}}, "displayed_time": "18.14", "trialTime": 35054, "trial_type": "mouselab-mdp", "trial_index": 24, "time_elapsed": 1299150, "internal_node_id": "0.0-6.0-1.0-15.0"}}, {"uniqueid": "w86755331:a18149825", "current_trial": 25, "dateTime": 1693482567710, "trialdata": {"revealed_states": [], "clicked_states": [], "num_clicks_accrued": [0, 0, 0, 0, 0, 0, 0, 0, 0, 0, 0, 0, 0], "stateRewards": ["", 1, 1, 6, -14, -40, 37, 16, -13, 33, -68, 49, 2, 4, 3, 6, 55, 27, 32, 10, -65, 20, -87, 2, 1, -6, -5, -42, 12, 29, -8, 16, 76, -33], "withholdReward": false, "trial_id": "mdp_trial_17", "block": "test", "trialIndex": 18, "score": 44, "costs": 0, "simulationMode": [null, null, null, null, null], "rewards": [1, 1, 6, -13, 49], "path": ["0", "0", "1", "2", "3", "8", "11"], "rt": [660, 54, 223, 105, 114], "actions": ["up", "up", "up", "left", "left"], "actionTimes": [19041, 19590, 20342, 20958, 21584], "queries": {"click": {"state": {"target": [], "time": []}, "edge": {"target": [], "time": []}}, "mouseover": {"state": {"target": [], "time": []}, "edge": {"target": [], "time": []}}, "mouseout": {"state": {"target": ["2", "1"], "time": [17217, 17331]}, "edge": {"target": [], "time": []}}}, "displayed_time": "32.38", "trialTime": 37251, "trial_type": "mouselab-mdp", "trial_index": 25, "time_elapsed": 1336905, "internal_node_id": "0.0-6.0-1.0-16.0"}}, {"uniqueid": "w86755331:a18149825", "current_trial": 26, "dateTime": 1693482585312, "trialdata": {"revealed_states": [], "clicked_states": [], "num_clicks_accrued": [0, 0, 0, 0, 0, 0, 0, 0, 0, 0, 0, 0, 0], "stateRewards": ["", 2, -3, 5, 11, -79, 54, 11, -9, -78, 33, 22, -2, -1, 2, 14, 43, 34, 1, 10, 49, -65, 39, -1, 1, -1, 3, -16, -2, 11, 2, 12, 48, -65], "withholdReward": false, "trial_id": "mdp_trial_18", "block": "test", "trialIndex": 19, "score": 47, "costs": 0, "simulationMode": [null, null, null, null, null], "rewards": [-2, -1, 2, 14, 34], "path": ["0", "0", "12", "13", "14", "15", "17"], "rt": [1589, 82, 47, 318, 299], "actions": ["right", "right", "right", "up", "right"], "actionTimes": [3230, 3810, 4374, 5213, 6010], "queries": {"click": {"state": {"target": [], "time": []}, "edge": {"target": [], "time": []}}, "mouseover": {"state": {"target": [], "time": []}, "edge": {"target": [], "time": []}}, "mouseout": {"state": {"target": [], "time": []}, "edge": {"target": [], "time": []}}}, "displayed_time": "15.64", "trialTime": 17013, "trial_type": "mouselab-mdp", "trial_index": 26, "time_elapsed": 1354508, "internal_node_id": "0.0-6.0-1.0-17.0"}}, {"uniqueid": "w86755331:a18149825", "current_trial": 27, "dateTime": 1693482605341, "trialdata": {"revealed_states": [], "clicked_states": [], "num_clicks_accrued": [0, 0, 0, 0, 0, 0, 0, 0, 0, 0, 0, 0, 0], "stateRewards": ["", -2, 2, -2, -7, -50, -62, -45, 7, 36, -24, -72, -1, -1, 8, -1, -67, 20, -52, 2, 35, -50, 80, -1, 1, 6, -6, -70, 6, 88, 8, -47, 74, -19], "withholdReward": false, "trial_id": "mdp_trial_19", "block": "test", "trialIndex": 20, "score": -5, "costs": 0, "simulationMode": [null, null, null, null, null], "rewards": [-1, 1, 6, 8, -19], "path": ["0", "0", "23", "24", "25", "30", "33"], "rt": [2707, 99, 132, 157, 116], "actions": ["left", "left", "left", "down", "left"], "actionTimes": [6834, 7428, 8078, 8759, 9395], "queries": {"click": {"state": {"target": [], "time": []}, "edge": {"target": [], "time": []}}, "mouseover": {"state": {"target": [], "time": []}, "edge": {"target": [], "time": []}}, "mouseout": {"state": {"target": [], "time": []}, "edge": {"target": [], "time": []}}}, "displayed_time": "18.13", "trialTime": 19407, "trial_type": "mouselab-mdp", "trial_index": 27, "time_elapsed": 1374536, "internal_node_id": "0.0-6.0-1.0-18.0"}}, {"uniqueid": "w86755331:a18149825", "current_trial": 28, "dateTime": 1693482628645, "trialdata": {"revealed_states": [], "clicked_states": [], "num_clicks_accrued": [0, 0, 0, 0, 0, 0, 0, 0, 0, 0, 0, 0, 0], "stateRewards": ["", 2, -1, 5, 8, 75, -35, -77, 1, -9, -81, -58, 1, 2, -7, 5, 77, -16, 19, 16, -10, -18, 40, -2, 3, 7, -5, 64, 1, -62, 10, 27, 10, 65], "withholdReward": false, "trial_id": "mdp_trial_20", "block": "test", "trialIndex": 21, "score": -74, "costs": 0, "simulationMode": [null, null, null, null, null], "rewards": [2, -1, 5, 1, -81], "path": ["0", "0", "1", "2", "3", "8", "10"], "rt": [825, 39, 370, 385, 146], "actions": ["up", "up", "up", "left", "down"], "actionTimes": [2949, 3509, 4390, 5289, 5950], "queries": {"click": {"state": {"target": [], "time": []}, "edge": {"target": [], "time": []}}, "mouseover": {"state": {"target": [], "time": []}, "edge": {"target": [], "time": []}}, "mouseout": {"state": {"target": [], "time": []}, "edge": {"target": [], "time": []}}}, "displayed_time": "16.13", "trialTime": 22820, "trial_type": "mouselab-mdp", "trial_index": 28, "time_elapsed": 1397840, "internal_node_id": "0.0-6.0-1.0-19.0"}}, {"uniqueid": "w86755331:a18149825", "current_trial": 29, "dateTime": 1693482649139, "trialdata": {"revealed_states": [], "clicked_states": ["8", "4", "14", "25"], "num_clicks_accrued": [0, 0, 0, 0, 0, 0, 0, 0, 0, 0, 0, 0, 0], "stateRewards": ["", -2, -3, 1, -14, 48, -49, 67, -1, -35, -48, 3, -2, 1, -4, -5, 86, -84, 39, 1, 48, 41, -42, -1, -4, 2, -7, 18, -86, 17, 7, -9, 57, -69], "withholdReward": false, "trial_id": "mdp_trial_21", "block": "test", "trialIndex": 22, "score": -101, "costs": -5, "simulationMode": [null, null, null, null, null], "rewards": [-1, -4, 2, -7, -86], "path": ["0", "0", "23", "24", "25", "26", "28"], "rt": [6636, 14, 435, 77, 75], "actions": ["left", "left", "left", "up", "right"], "actionTimes": [9200, 9733, 10669, 11260, 11858], "queries": {"click": {"state": {"target": ["8", "4", "14", "25"], "time": [3855, 4992, 6237, 8056]}, "edge": {"target": [], "time": []}}, "mouseover": {"state": {"target": ["8", "8", "3", "4", "18", "14", "13", "12", "0", "23", "24", "25", "24"], "time": [3064, 3484, 4280, 4597, 5480, 5797, 6764, 6784, 6813, 6874, 7097, 7764, 8630]}, "edge": {"target": [], "time": []}}, "mouseout": {"state": {"target": ["0", "8", "8", "3", "4", "18", "14", "13", "12", "0", "23", "24", "25", "24"], "time": [3001, 3097, 4264, 4330, 5447, 5514, 6747, 6781, 6797, 6840, 7047, 7730, 8277, 8647]}, "edge": {"target": [], "time": []}}}, "displayed_time": "16.57", "trialTime": 19911, "trial_type": "mouselab-mdp", "trial_index": 29, "time_elapsed": 1418334, "internal_node_id": "0.0-6.0-1.0-20.0"}}, {"uniqueid": "w86755331:a18149825", "current_trial": 30, "dateTime": 1693482668705, "trialdata": {"revealed_states": [], "clicked_states": [], "num_clicks_accrued": [0, 0, 0, 0, 0, 0, 0, 0, 0, 0, 0, 0, 0], "stateRewards": ["", 1, 1, -5, 8, -6, 45, 16, -6, -7, -22, -38, -1, -4, 8, -11, -16, 21, -45, -15, -59, -32, 42, -1, 3, 6, 11, -7, 34, -27, -8, 85, 43, -9], "withholdReward": false, "trial_id": "mdp_trial_22", "block": "test", "trialIndex": 23, "score": -16, "costs": 0, "simulationMode": [null, null, null, null, null], "rewards": [1, 1, -5, -6, -7], "path": ["0", "0", "1", "2", "3", "8", "9"], "rt": [484, 113, 112, 277, 3], "actions": ["up", "up", "up", "left", "up"], "actionTimes": [2157, 2806, 3423, 4238, 4747], "queries": {"click": {"state": {"target": [], "time": []}, "edge": {"target": [], "time": []}}, "mouseover": {"state": {"target": [], "time": []}, "edge": {"target": [], "time": []}}, "mouseout": {"state": {"target": [], "time": []}, "edge": {"target": [], "time": []}}}, "displayed_time": "15.67", "trialTime": 19052, "trial_type": "mouselab-mdp", "trial_index": 30, "time_elapsed": 1437900, "internal_node_id": "0.0-6.0-1.0-21.0"}}, {"uniqueid": "w86755331:a18149825", "current_trial": 31, "dateTime": 1693482689356, "trialdata": {"revealed_states": [], "clicked_states": [], "num_clicks_accrued": [0, 0, 0, 0, 0, 0, 0, 0, 0, 0, 0, 0, 0], "stateRewards": ["", -1, 1, 3, -8, -23, -15, -14, -11, -23, 58, 68, 1, 3, 5, 12, -17, -41, -7, -10, -4, 82, 10, 1, 4, -4, 11, 73, 55, -55, -1, -86, -86, 54], "withholdReward": false, "trial_id": "mdp_trial_23", "block": "test", "trialIndex": 24, "score": 81, "costs": 0, "simulationMode": [null, null, null, null, null], "rewards": [1, 3, 5, -10, 82], "path": ["0", "0", "12", "13", "14", "19", "21"], "rt": [2490, 519, 37, 711, 193], "actions": ["right", "right", "right", "down", "down"], "actionTimes": [6364, 7389, 7957, 9198, 9914], "queries": {"click": {"state": {"target": [], "time": []}, "edge": {"target": [], "time": []}}, "mouseover": {"state": {"target": ["0"], "time": [4621]}, "edge": {"target": [], "time": []}}, "mouseout": {"state": {"target": ["0", "0"], "time": [3526, 4650]}, "edge": {"target": [], "time": []}}}, "displayed_time": "17.88", "trialTime": 20147, "trial_type": "mouselab-mdp", "trial_index": 31, "time_elapsed": 1458551, "internal_node_id": "0.0-6.0-1.0-22.0"}}, {"uniqueid": "w86755331:a18149825", "current_trial": 32, "dateTime": 1693482711585, "trialdata": {"revealed_states": [], "clicked_states": [], "num_clicks_accrued": [0, 0, 0, 0, 0, 0, 0, 0, 0, 0, 0, 0, 0], "stateRewards": ["", -1, 1, -2, 5, 73, 15, 61, 8, 7, 38, 76, 2, 2, -4, -6, -6, -26, 43, -5, -45, -85, -35, -2, 1, -4, 15, -10, 69, 72, -11, 84, -49, -38], "withholdReward": false, "trial_id": "mdp_trial_24", "block": "test", "trialIndex": 25, "score": 79, "costs": 0, "simulationMode": [null, null, null, null, null], "rewards": [-2, 1, -4, 15, 69], "path": ["0", "0", "23", "24", "25", "26", "28"], "rt": [1624, 82, 369, 3, 34], "actions": ["left", "left", "left", "up", "right"], "actionTimes": [7970, 8555, 9443, 9961, 10524], "queries": {"click": {"state": {"target": [], "time": []}, "edge": {"target": [], "time": []}}, "mouseover": {"state": {"target": [], "time": []}, "edge": {"target": [], "time": []}}, "mouseout": {"state": {"target": ["0"], "time": [5981]}, "edge": {"target": [], "time": []}}}, "displayed_time": "20.35", "trialTime": 21711, "trial_type": "mouselab-mdp", "trial_index": 32, "time_elapsed": 1480780, "internal_node_id": "0.0-6.0-1.0-23.0"}}, {"uniqueid": "w86755331:a18149825", "current_trial": 33, "dateTime": 1693482729104, "trialdata": {"revealed_states": [], "clicked_states": [], "num_clicks_accrued": [0, 0, 0, 0, 0, 0, 0, 0, 0, 0, 0, 0, 0], "stateRewards": ["", 1, 2, 7, 13, 88, -71, 27, 3, 60, 5, -53, -2, 2, -6, -1, -30, 79, 47, -4, -14, 46, 68, 1, 1, 8, 10, -14, 86, 48, -11, -67, -44, 5], "withholdReward": false, "trial_id": "mdp_trial_25", "block": "test", "trialIndex": 26, "score": -48, "costs": 0, "simulationMode": [null, null, null, null, null], "rewards": [1, 2, 7, 13, -71], "path": ["0", "0", "1", "2", "3", "4", "6"], "rt": [615, 67, 47, 408, 96], "actions": ["up", "up", "up", "right", "right"], "actionTimes": [2650, 3225, 3787, 4715, 5320], "queries": {"click": {"state": {"target": [], "time": []}, "edge": {"target": [], "time": []}}, "mouseover": {"state": {"target": [], "time": []}, "edge": {"target": [], "time": []}}, "mouseout": {"state": {"target": ["0", "0"], "time": [1073, 1236]}, "edge": {"target": [], "time": []}}}, "displayed_time": "16.04", "trialTime": 16982, "trial_type": "mouselab-mdp", "trial_index": 33, "time_elapsed": 1498300, "internal_node_id": "0.0-6.0-1.0-24.0"}}, {"uniqueid": "w86755331:a18149825", "current_trial": 34, "dateTime": 1693482746618, "trialdata": {"revealed_states": [], "clicked_states": [], "num_clicks_accrued": [0, 0, 0, 0, 0, 0, 0, 0, 0, 0, 0, 0, 0], "stateRewards": ["", 1, -1, 4, -2, -75, -75, 84, -9, -60, -79, 59, 2, -4, 8, 9, -17, -82, 80, 14, -4, 49, 49, -1, 3, 6, -11, -33, 34, 55, 9, -57, 5, 59], "withholdReward": false, "trial_id": "mdp_trial_26", "block": "test", "trialIndex": 27, "score": 69, "costs": 0, "simulationMode": [null, null, null, null, null], "rewards": [2, -4, 8, 14, 49], "path": ["0", "0", "12", "13", "14", "19", "21"], "rt": [1084, 83, 155, 155, 57], "actions": ["right", "right", "right", "down", "down"], "actionTimes": [2936, 3530, 4202, 4870, 5437], "queries": {"click": {"state": {"target": [], "time": []}, "edge": {"target": [], "time": []}}, "mouseover": {"state": {"target": [], "time": []}, "edge": {"target": [], "time": []}}, "mouseout": {"state": {"target": ["2", "1"], "time": [962, 1128]}, "edge": {"target": [], "time": []}}}, "displayed_time": "15.85", "trialTime": 17002, "trial_type": "mouselab-mdp", "trial_index": 34, "time_elapsed": 1515813, "internal_node_id": "0.0-6.0-1.0-25.0"}}, {"uniqueid": "w86755331:a18149825", "current_trial": 35, "dateTime": 1693482765584, "trialdata": {"revealed_states": [], "clicked_states": [], "num_clicks_accrued": [0, 0, 0, 0, 0, 0, 0, 0, 0, 0, 0, 0, 0], "stateRewards": ["", -1, 3, 8, 10, -86, 61, -36, 10, 17, -60, 24, -1, -3, 3, 11, 50, 60, 33, -3, -20, 58, -6, 1, -4, -4, 13, -70, -71, 43, 14, 52, 82, -11], "withholdReward": false, "trial_id": "mdp_trial_27", "block": "test", "trialIndex": 28, "score": 70, "costs": 0, "simulationMode": [null, null, null, null, null], "rewards": [-1, -3, 3, 11, 60], "path": ["0", "0", "12", "13", "14", "15", "17"], "rt": [784, 12, 994, 64, 14], "actions": ["right", "right", "right", "up", "right"], "actionTimes": [4396, 4911, 6425, 7021, 7546], "queries": {"click": {"state": {"target": [], "time": []}, "edge": {"target": [], "time": []}}, "mouseover": {"state": {"target": [], "time": []}, "edge": {"target": [], "time": []}}, "mouseout": {"state": {"target": ["0"], "time": [3269]}, "edge": {"target": [], "time": []}}}, "displayed_time": "17.61", "trialTime": 18433, "trial_type": "mouselab-mdp", "trial_index": 35, "time_elapsed": 1534779, "internal_node_id": "0.0-6.0-1.0-26.0"}}, {"uniqueid": "w86755331:a18149825", "current_trial": 36, "dateTime": 1693482782657, "trialdata": {"revealed_states": [], "clicked_states": [], "num_clicks_accrued": [0, 0, 0, 0, 0, 0, 0, 0, 0, 0, 0, 0, 0], "stateRewards": ["", -1, 2, -6, 6, -82, -19, -39, -16, -83, 11, -33, -2, -2, 4, -6, -82, -1, -19, -6, -10, -67, -41, -2, 1, -7, 16, -23, -78, -52, 14, 31, -71, 74], "withholdReward": false, "trial_id": "mdp_trial_28", "block": "test", "trialIndex": 29, "score": -18, "costs": 0, "simulationMode": [null, null, null, null, null], "rewards": [-1, 2, -6, 6, -19], "path": ["0", "0", "1", "2", "3", "4", "6"], "rt": [688, 120, 72, 118, 90], "actions": ["up", "up", "up", "right", "right"], "actionTimes": [2304, 2936, 3521, 4149, 4755], "queries": {"click": {"state": {"target": [], "time": []}, "edge": {"target": [], "time": []}}, "mouseover": {"state": {"target": [], "time": []}, "edge": {"target": [], "time": []}}, "mouseout": {"state": {"target": ["0"], "time": [1246]}, "edge": {"target": [], "time": []}}}, "displayed_time": "15.62", "trialTime": 16540, "trial_type": "mouselab-mdp", "trial_index": 36, "time_elapsed": 1551852, "internal_node_id": "0.0-6.0-1.0-27.0"}}, {"uniqueid": "w86755331:a18149825", "current_trial": 37, "dateTime": 1693482800061, "trialdata": {"revealed_states": [], "clicked_states": [], "num_clicks_accrued": [0, 0, 0, 0, 0, 0, 0, 0, 0, 0, 0, 0, 0], "stateRewards": ["", 1, -4, -6, -1, -21, 17, -72, 10, 77, 67, -46, -1, 4, -2, 14, -66, -49, -45, -15, -52, 23, -67, 2, -2, -2, 15, -3, 45, -64, 5, -44, 83, 61], "withholdReward": false, "trial_id": "mdp_trial_29", "block": "test", "trialIndex": 30, "score": 86, "costs": 0, "simulationMode": [null, null, null, null, null], "rewards": [2, -2, -2, 5, 83], "path": ["0", "0", "23", "24", "25", "30", "32"], "rt": [771, 28, 278, 34, 183], "actions": ["left", "left", "left", "down", "down"], "actionTimes": [2443, 2996, 3796, 4336, 5035], "queries": {"click": {"state": {"target": [], "time": []}, "edge": {"target": [], "time": []}}, "mouseover": {"state": {"target": [], "time": []}, "edge": {"target": [], "time": []}}, "mouseout": {"state": {"target": ["0"], "time": [1323]}, "edge": {"target": [], "time": []}}}, "displayed_time": "15.67", "trialTime": 16848, "trial_type": "mouselab-mdp", "trial_index": 37, "time_elapsed": 1569256, "internal_node_id": "0.0-6.0-1.0-28.0"}}, {"uniqueid": "w86755331:a18149825", "current_trial": 38, "dateTime": 1693482821112, "trialdata": {"revealed_states": [], "clicked_states": [], "num_clicks_accrued": [0, 0, 0, 0, 0, 0, 0, 0, 0, 0, 0, 0, 0], "stateRewards": ["", 1, 2, 3, 16, 63, -25, 16, -4, -14, 82, -66, -1, -3, -3, -11, -14, 19, 46, 3, -34, -82, 66, -2, -3, 4, -5, -63, 77, -37, -1, -45, -41, 84], "withholdReward": false, "trial_id": "mdp_trial_30", "block": "test", "trialIndex": 31, "score": -69, "costs": 0, "simulationMode": [null, null, null, null, null], "rewards": [-2, -3, 4, -5, -63], "path": ["0", "0", "23", "24", "25", "26", "27"], "rt": [939, 136, 98, 61, 35], "actions": ["left", "left", "left", "up", "up"], "actionTimes": [2594, 3233, 3839, 4407, 4954], "queries": {"click": {"state": {"target": [], "time": []}, "edge": {"target": [], "time": []}}, "mouseover": {"state": {"target": [], "time": []}, "edge": {"target": [], "time": []}}, "mouseout": {"state": {"target": ["0"], "time": [1286]}, "edge": {"target": [], "time": []}}}, "displayed_time": "15.66", "trialTime": 20473, "trial_type": "mouselab-mdp", "trial_index": 38, "time_elapsed": 1590307, "internal_node_id": "0.0-6.0-1.0-29.0"}}, {"uniqueid": "w86755331:a18149825", "current_trial": 39, "dateTime": 1693482839401, "trialdata": {"revealed_states": [], "clicked_states": [], "num_clicks_accrued": [0, 0, 0, 0, 0, 0, 0, 0, 0, 0, 0, 0, 0], "stateRewards": ["", -2, 2, 8, -6, -25, 3, 87, 2, -62, -2, 74, -2, -1, 2, -1, 79, 49, -37, -14, 5, 67, -9, -1, 2, -2, 5, 15, 38, 32, -14, -38, -38, 30], "withholdReward": false, "trial_id": "mdp_trial_31", "block": "test", "trialIndex": 32, "score": 84, "costs": 0, "simulationMode": [null, null, null, null, null], "rewards": [-2, 2, 8, 2, 74], "path": ["0", "0", "1", "2", "3", "8", "11"], "rt": [877, 49, 45, 131, 35], "actions": ["up", "up", "up", "left", "left"], "actionTimes": [3049, 3616, 4195, 4831, 5386], "queries": {"click": {"state": {"target": [], "time": []}, "edge": {"target": [], "time": []}}, "mouseover": {"state": {"target": [], "time": []}, "edge": {"target": [], "time": []}}, "mouseout": {"state": {"target": ["0"], "time": [1817]}, "edge": {"target": [], "time": []}}}, "displayed_time": "16.18", "trialTime": 17717, "trial_type": "mouselab-mdp", "trial_index": 39, "time_elapsed": 1608596, "internal_node_id": "0.0-6.0-1.0-30.0"}}, {"uniqueid": "w86755331:a18149825", "current_trial": 40, "dateTime": 1693482857309, "trialdata": {"revealed_states": [], "clicked_states": [], "num_clicks_accrued": [0, 0, 0, 0, 0, 0, 0, 0, 0, 0, 0, 0, 0], "stateRewards": ["", -2, 1, 6, -2, -10, -78, -69, 14, -15, 7, -1, 1, -1, -2, 13, 77, 32, 87, 5, -74, 30, -26, 1, 3, 4, 12, 39, 54, -43, 2, 10, 23, 13], "withholdReward": false, "trial_id": "mdp_trial_32", "block": "test", "trialIndex": 33, "score": 88, "costs": 0, "simulationMode": [null, null, null, null, null], "rewards": [1, -1, -2, 13, 77], "path": ["0", "0", "12", "13", "14", "15", "16"], "rt": [647, 63, 62, 233, 507], "actions": ["right", "right", "right", "up", "up"], "actionTimes": [2907, 3463, 4044, 4799, 5823], "queries": {"click": {"state": {"target": [], "time": []}, "edge": {"target": [], "time": []}}, "mouseover": {"state": {"target": [], "time": []}, "edge": {"target": [], "time": []}}, "mouseout": {"state": {"target": ["0"], "time": [1905]}, "edge": {"target": [], "time": []}}}, "displayed_time": "16.26", "trialTime": 17343, "trial_type": "mouselab-mdp", "trial_index": 40, "time_elapsed": 1626505, "internal_node_id": "0.0-6.0-1.0-31.0"}}, {"uniqueid": "w86755331:a18149825", "current_trial": 41, "dateTime": 1693482874690, "trialdata": {"revealed_states": [], "clicked_states": [], "num_clicks_accrued": [0, 0, 0, 0, 0, 0, 0, 0, 0, 0, 0, 0, 0], "stateRewards": ["", -1, -3, -7, -7, -76, 30, -49, 11, -70, 56, 2, 1, 4, -3, -14, -59, -83, -25, -9, -21, -67, -73, -2, 4, 4, -9, -11, -32, 60, 9, -87, 22, -64], "withholdReward": false, "trial_id": "mdp_trial_33", "block": "test", "trialIndex": 34, "score": 2, "costs": 0, "simulationMode": [null, null, null, null, null], "rewards": [-1, -3, -7, 11, 2], "path": ["0", "0", "1", "2", "3", "8", "11"], "rt": [559, 20, 133, 397, 4], "actions": ["up", "up", "up", "left", "left"], "actionTimes": [2178, 2704, 3349, 4247, 4770], "queries": {"click": {"state": {"target": [], "time": []}, "edge": {"target": [], "time": []}}, "mouseover": {"state": {"target": [], "time": []}, "edge": {"target": [], "time": []}}, "mouseout": {"state": {"target": ["0"], "time": [1224]}, "edge": {"target": [], "time": []}}}, "displayed_time": "15.62", "trialTime": 16621, "trial_type": "mouselab-mdp", "trial_index": 41, "time_elapsed": 1643885, "internal_node_id": "0.0-6.0-1.0-32.0"}}, {"uniqueid": "w86755331:a18149825", "current_trial": 42, "dateTime": 1693482896011, "trialdata": {"revealed_states": [], "clicked_states": [], "num_clicks_accrued": [0, 0, 0, 0, 0, 0, 0, 0, 0, 0, 0, 0, 0], "stateRewards": ["", -2, -3, -6, -7, 9, 16, 65, 5, -41, 20, -25, -1, -4, 1, -11, -49, -4, 71, 1, 39, -62, 52, -2, -3, 7, -9, -28, -70, 84, 8, 24, -58, 82], "withholdReward": false, "trial_id": "mdp_trial_34", "block": "test", "trialIndex": 35, "score": 47, "costs": 0, "simulationMode": [null, null, null, null, null], "rewards": [-2, -3, -6, -7, 65], "path": ["0", "0", "1", "2", "3", "4", "7"], "rt": [616, 56, 911, 244, 331], "actions": ["up", "up", "up", "right", "down"], "actionTimes": [5115, 5682, 7118, 7867, 8706], "queries": {"click": {"state": {"target": [], "time": []}, "edge": {"target": [], "time": []}}, "mouseover": {"state": {"target": [], "time": []}, "edge": {"target": [], "time": []}}, "mouseout": {"state": {"target": ["0"], "time": [4048]}, "edge": {"target": [], "time": []}}}, "displayed_time": "18.50", "trialTime": 20735, "trial_type": "mouselab-mdp", "trial_index": 42, "time_elapsed": 1665206, "internal_node_id": "0.0-6.0-1.0-33.0"}}, {"uniqueid": "w86755331:a18149825", "current_trial": 43, "dateTime": 1693482934088, "trialdata": {"revealed_states": [], "clicked_states": [], "num_clicks_accrued": [0, 0, 0, 0, 0, 0, 0, 0, 0, 0, 0, 0, 0], "stateRewards": ["", -1, -3, -6, 14, 41, 18, 63, -14, 80, 21, 17, -2, -4, -2, -5, 13, 70, 8, -4, -64, -10, -20, 2, -1, 4, -1, -17, -55, 42, -7, 47, 54, 15], "withholdReward": false, "trial_id": "mdp_trial_35", "block": "test", "trialIndex": 36, "score": 0, "costs": 0, "simulationMode": [null, null, null, null, null], "rewards": [-2, -4, -2, -5, 13], "path": ["0", "0", "12", "13", "14", "15", "16"], "rt": [1180, 139, 1987, 769, 22], "actions": ["right", "right", "right", "up", "up"], "actionTimes": [14704, 15365, 17863, 19129, 19665], "queries": {"click": {"state": {"target": [], "time": []}, "edge": {"target": [], "time": []}}, "mouseover": {"state": {"target": [], "time": []}, "edge": {"target": [], "time": []}}, "mouseout": {"state": {"target": ["0", "0"], "time": [13162, 35207]}, "edge": {"target": [], "time": []}}}, "displayed_time": "27.52", "trialTime": 37514, "trial_type": "mouselab-mdp", "trial_index": 43, "time_elapsed": 1703283, "internal_node_id": "0.0-6.0-1.0-34.0"}}, {"uniqueid": "w86755331:a18149825", "current_trial": 44, "dateTime": 1693482956957, "trialdata": {"revealed_states": [], "clicked_states": [], "num_clicks_accrued": [0, 0, 0, 0, 0, 0, 0, 0, 0, 0, 0, 0, 0], "stateRewards": ["", 2, 4, -6, -13, -75, -81, 30, 7, 5, 59, -65, -1, -1, 7, 14, -38, 36, -41, 1, -54, -5, 64, 2, -1, 5, 6, -19, 79, 11, 16, -33, -50, 58], "withholdReward": false, "trial_id": "mdp_trial_36", "block": "test", "trialIndex": 37, "score": -48, "costs": 0, "simulationMode": [null, null, null, null, null], "rewards": [-1, -1, 7, 1, -54], "path": ["0", "0", "12", "13", "14", "19", "20"], "rt": [2438, 1927, 338, 149, 172], "actions": ["right", "right", "right", "down", "right"], "actionTimes": [8052, 10492, 11344, 11997, 12669], "queries": {"click": {"state": {"target": [], "time": []}, "edge": {"target": [], "time": []}}, "mouseover": {"state": {"target": [], "time": []}, "edge": {"target": [], "time": []}}, "mouseout": {"state": {"target": ["0"], "time": [5149]}, "edge": {"target": [], "time": []}}}, "displayed_time": "19.61", "trialTime": 22170, "trial_type": "mouselab-mdp", "trial_index": 44, "time_elapsed": 1726152, "internal_node_id": "0.0-6.0-1.0-35.0"}}, {"uniqueid": "w86755331:a18149825", "current_trial": 45, "dateTime": 1693482973758, "trialdata": {"revealed_states": [], "clicked_states": [], "num_clicks_accrued": [0, 0, 0, 0, 0, 0, 0, 0, 0, 0, 0, 0, 0], "stateRewards": ["", -2, -4, -8, 8, 63, -50, -19, -7, -17, -31, 31, 1, 3, -5, 12, -35, -63, -29, -4, -17, -75, -79, -2, -3, -2, 8, -3, -85, 10, -2, -82, -82, 56], "withholdReward": false, "trial_id": "mdp_trial_37", "block": "test", "trialIndex": 38, "score": -56, "costs": 0, "simulationMode": [null, null, null, null, null], "rewards": [-2, -4, -8, 8, -50], "path": ["0", "0", "1", "2", "3", "4", "6"], "rt": [474, 342, 70, 314, 228], "actions": ["up", "up", "up", "right", "right"], "actionTimes": [2634, 3500, 4079, 4906, 5653], "queries": {"click": {"state": {"target": [], "time": []}, "edge": {"target": [], "time": []}}, "mouseover": {"state": {"target": [], "time": []}, "edge": {"target": [], "time": []}}, "mouseout": {"state": {"target": ["0"], "time": [1275]}, "edge": {"target": [], "time": []}}}, "displayed_time": "16.16", "trialTime": 16230, "trial_type": "mouselab-mdp", "trial_index": 45, "time_elapsed": 1742953, "internal_node_id": "0.0-6.0-1.0-36.0"}}, {"uniqueid": "w86755331:a18149825", "current_trial": 46, "dateTime": 1693482996315, "trialdata": {"revealed_states": [], "clicked_states": [], "num_clicks_accrued": [0, 0, 0, 0, 0, 0, 0, 0, 0, 0, 0, 0, 0], "stateRewards": ["", -1, 1, -5, -6, -78, 47, -13, 12, 48, -88, 20, 2, -3, -2, 13, -20, 37, -57, 14, -38, 30, 31, -2, -2, 8, 2, -23, 78, 28, 12, -74, -88, 8], "withholdReward": false, "trial_id": "mdp_trial_38", "block": "test", "trialIndex": 39, "score": -72, "costs": 0, "simulationMode": [null, null, null, null, null], "rewards": [-2, -2, 8, 12, -88], "path": ["0", "0", "23", "24", "25", "30", "32"], "rt": [419, 69, 128, 122, 197], "actions": ["left", "left", "left", "down", "down"], "actionTimes": [6714, 7302, 7960, 8594, 9296], "queries": {"click": {"state": {"target": [], "time": []}, "edge": {"target": [], "time": []}}, "mouseover": {"state": {"target": [], "time": []}, "edge": {"target": [], "time": []}}, "mouseout": {"state": {"target": ["0", "0"], "time": [5386, 5481]}, "edge": {"target": [], "time": []}}}, "displayed_time": "20.30", "trialTime": 21962, "trial_type": "mouselab-mdp", "trial_index": 46, "time_elapsed": 1765510, "internal_node_id": "0.0-6.0-1.0-37.0"}}, {"uniqueid": "w86755331:a18149825", "current_trial": 47, "dateTime": 1693483017204, "trialdata": {"revealed_states": [], "clicked_states": [], "num_clicks_accrued": [0, 0, 0, 0, 0, 0, 0, 0, 0, 0, 0, 0, 0], "stateRewards": ["", 2, -1, 5, 6, 10, 86, 55, 10, -45, 63, -71, 1, -2, 5, -8, -50, -72, 36, 15, 61, 12, 33, -1, -4, 6, 5, 79, -56, -21, -16, -87, 60, -81], "withholdReward": false, "trial_id": "mdp_trial_39", "block": "test", "trialIndex": 40, "score": -29, "costs": 0, "simulationMode": [null, null, null, null, null], "rewards": [2, -1, 5, 10, -45], "path": ["0", "0", "1", "2", "3", "8", "9"], "rt": [2482, 86, 10, 502, 39], "actions": ["up", "up", "up", "left", "up"], "actionTimes": [5905, 6516, 7040, 8064, 8618], "queries": {"click": {"state": {"target": [], "time": []}, "edge": {"target": [], "time": []}}, "mouseover": {"state": {"target": [], "time": []}, "edge": {"target": [], "time": []}}, "mouseout": {"state": {"target": ["2", "1"], "time": [2495, 2611]}, "edge": {"target": [], "time": []}}}, "displayed_time": "17.42", "trialTime": 20298, "trial_type": "mouselab-mdp", "trial_index": 47, "time_elapsed": 1786399, "internal_node_id": "0.0-6.0-1.0-38.0"}}, {"uniqueid": "w86755331:a18149825", "current_trial": 48, "dateTime": 1693483035658, "trialdata": {"revealed_states": [], "clicked_states": [], "num_clicks_accrued": [0, 0, 0, 0, 0, 0, 0, 0, 0, 0, 0, 0, 0], "stateRewards": ["", 2, 2, 3, -15, 23, -14, 73, -7, -32, -20, -6, 1, 1, -5, -12, 73, 6, -84, 11, -81, -57, 13, -2, -1, -4, -8, -52, -58, 49, 13, 5, -41, -41], "withholdReward": false, "trial_id": "mdp_trial_40", "block": "test", "trialIndex": 41, "score": -67, "costs": 0, "simulationMode": [null, null, null, null, null], "rewards": [-2, -1, -4, -8, -52], "path": ["0", "0", "23", "24", "25", "26", "27"], "rt": [2144, 163, 149, 42, 149], "actions": ["left", "left", "left", "up", "up"], "actionTimes": [3607, 4293, 4962, 5521, 6163], "queries": {"click": {"state": {"target": [], "time": []}, "edge": {"target": [], "time": []}}, "mouseover": {"state": {"target": [], "time": []}, "edge": {"target": [], "time": []}}, "mouseout": {"state": {"target": ["0"], "time": [1076]}, "edge": {"target": [], "time": []}}}, "displayed_time": "15.46", "trialTime": 17882, "trial_type": "mouselab-mdp", "trial_index": 48, "time_elapsed": 1804852, "internal_node_id": "0.0-6.0-1.0-39.0"}}, {"uniqueid": "w86755331:a18149825", "current_trial": 49, "dateTime": 1693483157621, "trialdata": {"rt": 121950, "response": {"Q0": "$-2 to $2", "Q1": "$-4 to $4", "Q2": "$-32 to $32", "Q3": "The cost for clicking on nodes varied between nodes.", "Q4": "Very motivated"}, "question_order": [0, 1, 2, 3, 4], "trial_id": "final_quiz_control", "trial_type": "survey-multi-choice", "trial_index": 49, "time_elapsed": 1926816, "internal_node_id": "0.0-6.0-2.0"}}, {"uniqueid": "w86755331:a18149825", "current_trial": 50, "dateTime": 1693483200627, "trialdata": {"rt": 42982, "response": {"Q0": "no, just went for it.", "Q1": "thought about it less.", "Q2": "Caring about the prize."}, "trial_id": "self_report_control", "trial_type": "survey-text", "trial_index": 50, "time_elapsed": 1969823, "internal_node_id": "0.0-6.0-3.0"}}, {"uniqueid": "w86755331:a18149825", "current_trial": 51, "dateTime": 1693483360884, "trialdata": {"rt": 160249, "response": {"Q0": "Agree", "Q1": "Agree", "Q2": "Neither disagree nor agree", "Q3": "Agree", "Q4": "Disagree", "Q5": "Disagree", "Q6": "Agree"}, "question_order": [0, 1, 2, 3, 4, 5, 6], "trial_id": "self_report_2", "trial_type": "survey-multi-choice", "trial_index": 51, "time_elapsed": 2130079, "internal_node_id": "0.0-6.0-4.0"}}, {"uniqueid": "w86755331:a18149825", "current_trial": 52, "dateTime": 1693483390642, "trialdata": {"rt": 29748, "response": {"gender": "male", "age": "25", "colorblind": "0", "effort": "1"}, "trial_type": "survey-html-form", "trial_index": 52, "time_elapsed": 2159838, "internal_node_id": "0.0-6.0-5.0"}}, {"uniqueid": "w86755331:a18149825", "current_trial": 53, "dateTime": 1693483436071, "trialdata": {"rt": 45418, "response": {"Q0": "how to check nodes money", "Q1": "no i didnt remember", "Q2": ""}, "trial_type": "survey-text", "trial_index": 53, "time_elapsed": 2205266, "internal_node_id": "0.0-6.0-6.0"}}, {"uniqueid": "w86755331:a18149825", "current_trial": 54, "dateTime": 1693483468673, "trialdata": {"rt": 32590, "stimulus": "<h1>Completion Code Instructions (1/2)</h1>\n<br><br><br><br>\nYou have reached the end of the experiment! The completion code consists of two parts: (1) a code with 2 characters (2) a code with 6 characters. On this page, you will receive the second part of the code. The first part of the completion code will be on the next page.\n<br><br>\nThe second part of your completion code is: <b>EWEK22</b>\n<br><br>\nPlease note this down. Then, press 'Finish HIT' in order to find the first part of your completion code. Once the data has been saved, you will receive this code either in this window or in the original browser window where you started the experiment.\n", "response": 0, "trial_type": "html-button-response", "trial_index": 54, "time_elapsed": 2237869, "internal_node_id": "0.0-6.0-7.0"}}, {"uniqueid": "w86755331:a18149825", "current_trial": 55, "dateTime": 1693483469682, "trialdata": {"success": true, "trial_type": "fullscreen", "trial_index": 55, "time_elapsed": 2238878, "internal_node_id": "0.0-7.0"}}], "questiondata": {"params": {"CODE": "C6DMOQA6", "MIN_TIME": 14, "inspectCost": 1, "startTime": "Thu Aug 31 2023 13:27:08 GMT+0200 (South Africa Standard Time)", "bonusRate": 0.002, "variance": "1_2_4_8_44", "branching": "31123"}, "final_score": 398.25}, "eventdata": [{"eventtype": "initialized", "value": null, "timestamp": 1693481227650, "interval": 0}, {"eventtype": "window_resize", "value": [1025, 612], "timestamp": 1693481227650, "interval": 0}, {"eventtype": "window_resize", "value": [1025, 612], "timestamp": 1693481228162, "interval": 512}, {"eventtype": "focus", "value": "off", "timestamp": 1693481240070, "interval": 11908}, {"eventtype": "focus", "value": "on", "timestamp": 1693481297474, "interval": 57404}, {"eventtype": "window_resize", "value": [1280, 720], "timestamp": 1693481300147, "interval": 2673}, {"eventtype": "window_resize", "value": [1025, 612], "timestamp": 1693481301961, "interval": 1814}, {"eventtype": "focus", "value": "off", "timestamp": 1693481322436, "interval": 20475}, {"eventtype": "focus", "value": "on", "timestamp": 1693481374060, "interval": 51624}, {"eventtype": "focus", "value": "off", "timestamp": 1693481451505, "interval": 77445}, {"eventtype": "focus", "value": "on", "timestamp": 1693481454579, "interval": 3074}, {"eventtype": "focus", "value": "off", "timestamp": 1693481585451, "interval": 130872}, {"eventtype": "focus", "value": "on", "timestamp": 1693481586410, "interval": 959}, {"eventtype": "focus", "value": "off", "timestamp": 1693481588823, "interval": 2413}, {"eventtype": "focus", "value": "on", "timestamp": 1693481878070, "interval": 289247}, {"eventtype": "window_resize", "value": [1280, 626], "timestamp": 1693481881480, "interval": 3410}, {"eventtype": "window_resize", "value": [1025, 612], "timestamp": 1693482301272, "interval": 419792}], "useragent": "Mozilla/5.0 (Windows NT 10.0; Win64; x64) AppleWebKit/537.36 (KHTML, like Gecko) Chrome/116.0.0.0 Safari/537.36 Edg/116.0.1938.62", "mode": "live", "id": "w86755331:a18149825", "status": "user data saved", "Beginhit": "2023-08-31 11:27:04.344561", "Beginexp": "2023-08-31 11:28:21.547187", "Endhit": "2023-08-31 12:04:31.40753", "psiturkStatus": 3, "browser": "<redacted>", "platform": "windows", "language": "en-US"}