{"condition": 0, "counterbalance": 0, "assignmentId": "a84393610", "workerId": "w75379115", "hitId": "h57248579", "currenttrial": 55, "bonus": 0, "data": [{"uniqueid": "w75379115:a84393610", "current_trial": 0, "dateTime": 1691142165491, "trialdata": {"success": true, "trial_type": "fullscreen", "trial_index": 0, "time_elapsed": 9109, "internal_node_id": "0.0-0.0"}}, {"uniqueid": "w75379115:a84393610", "current_trial": 1, "dateTime": 1691142197036, "trialdata": {"view_history": [{"page_index": 0, "viewing_time": 31538}], "rt": 31540, "trial_id": "exp_instructions_control", "trial_type": "instructions", "trial_index": 1, "time_elapsed": 40654, "internal_node_id": "0.0-1.0"}}, {"uniqueid": "w75379115:a84393610", "current_trial": 2, "dateTime": 1691142201891, "trialdata": {"success": true, "trial_type": "fullscreen", "trial_index": 2, "time_elapsed": 45510, "internal_node_id": "0.0-2.0-0.0"}}, {"uniqueid": "w75379115:a84393610", "current_trial": 3, "dateTime": 1691142436173, "trialdata": {"view_history": [{"page_index": 0, "viewing_time": 70279}, {"page_index": 1, "viewing_time": 94728}, {"page_index": 2, "viewing_time": 28298}, {"page_index": 3, "viewing_time": 40972}], "rt": 234277, "trial_id": "mouselab_instructions_1_control", "trial_type": "instructions", "trial_index": 3, "time_elapsed": 279792, "internal_node_id": "0.0-2.0-1.0"}}, {"uniqueid": "w75379115:a84393610", "current_trial": 4, "dateTime": 1691142467380, "trialdata": {"revealed_states": [], "clicked_states": ["1", "2", "3", "4", "6"], "num_clicks_accrued": [0, 0, 0, 0, 0, 0, 0, 0, 0, 0, 0, 0, 0], "stateRewards": ["", 10, 10, 10, 10, -10, 10, -10, 10, 10, 10, -10, -10, -10, 10, -10, 10, -10, 10, 10, 10, 10, 10, -10, -10, 10, 10, 10, 10, -10, -10, -10, 10, -10], "withholdReward": false, "trial_id": "practice_1", "block": "test", "trialIndex": 0, "score": 51, "costs": -2.5, "simulationMode": [null, null, null, null, null], "rewards": [10, 10, 10, 10, 10], "path": ["0", "0", "1", "2", "3", "4", "6"], "rt": [18513, 125, 86, 41, 42], "actions": ["up", "up", "up", "right", "right"], "actionTimes": [20476, 21099, 21682, 22216, 22757], "queries": {"click": {"state": {"target": ["1", "2", "3", "4", "6"], "time": [6585, 10692, 14276, 16808, 18377]}, "edge": {"target": [], "time": []}}, "mouseover": {"state": {"target": ["0", "1", "12", "1", "2", "2", "3", "4", "7", "4", "3", "4", "4", "6"], "time": [2577, 3441, 4907, 6176, 7255, 10303, 11305, 11621, 12038, 13589, 13940, 14791, 15942, 17238]}, "edge": {"target": [], "time": []}}, "mouseout": {"state": {"target": ["0", "0", "1", "12", "1", "2", "1", "2", "3", "4", "7", "4", "3", "4", "4", "6"], "time": [705, 3258, 4841, 6023, 7137, 9392, 10258, 11171, 11422, 11638, 13492, 13891, 14723, 15657, 17193, 19039]}, "edge": {"target": [], "time": []}}}, "displayed_time": "23.27", "trialTime": 29889, "trial_type": "mouselab-mdp", "trial_index": 4, "time_elapsed": 310999, "internal_node_id": "0.0-2.0-2.0-0.0"}}, {"uniqueid": "w75379115:a84393610", "current_trial": 5, "dateTime": 1691142486262, "trialdata": {"revealed_states": [], "clicked_states": [], "num_clicks_accrued": [0, 0, 0, 0, 0, 0, 0, 0, 0, 0, 0, 0, 0], "stateRewards": ["", -10, 10, -10, -10, -10, 10, -10, -10, -10, -10, -10, -10, -10, -10, -10, 10, -10, 10, -10, 10, -10, -10, 10, 10, -10, 10, 10, -10, -10, -10, 10, 10, -10], "withholdReward": false, "trial_id": "practice_2", "block": "test", "trialIndex": 1, "score": 13.5, "costs": 0, "simulationMode": [null, null, null, null, null], "rewards": [10, 10, -10, -10, 10], "path": ["0", "0", "23", "24", "25", "30", "31"], "rt": [5197, 92, 3970, 229, 153], "actions": ["left", "left", "left", "down", "right"], "actionTimes": [8591, 9181, 13660, 14384, 15041], "queries": {"click": {"state": {"target": [], "time": []}, "edge": {"target": [], "time": []}}, "mouseover": {"state": {"target": ["0", "23", "24", "25", "30", "31", "24", "23"], "time": [4220, 5021, 5418, 5803, 6051, 6722, 7388, 7755]}, "edge": {"target": [], "time": []}}, "mouseout": {"state": {"target": ["0", "0", "0", "23", "24", "25", "30", "31", "24", "23", "24", "31", "30", "25"], "time": [2635, 3769, 4235, 5388, 5752, 6020, 6668, 7301, 7402, 10071, 10120, 11128, 11388, 17108]}, "edge": {"target": [], "time": []}}}, "displayed_time": "15.54", "trialTime": 18349, "trial_type": "mouselab-mdp", "trial_index": 5, "time_elapsed": 329881, "internal_node_id": "0.0-2.0-2.0-1.0"}}, {"uniqueid": "w75379115:a84393610", "current_trial": 6, "dateTime": 1691142570539, "trialdata": {"view_history": [{"page_index": 0, "viewing_time": 74438}, {"page_index": 1, "viewing_time": 9835}], "rt": 84274, "trial_id": "mouselab_instructions_2_control", "trial_type": "instructions", "trial_index": 6, "time_elapsed": 414158, "internal_node_id": "0.0-2.0-3.0"}}, {"uniqueid": "w75379115:a84393610", "current_trial": 7, "dateTime": 1691142621860, "trialdata": {"rt": 51316, "response": {"Q0": "The cost for clicking on nodes may vary between nodes.", "Q1": "The better I perform the higher my bonus will be.", "Q2": "No, the amount of cash at each node of the web may be different each time.", "Q3": "To get the highest total score.", "Q4": "Only before moving the spider.", "Q5": "3 seconds"}, "question_order": [0, 1, 2, 3, 4, 5], "correct": {"Q0": "The cost for clicking on nodes may vary between nodes.", "Q1": "The better I perform the higher my bonus will be.", "Q2": "No, the amount of cash at each node of the web may be different each time.", "Q3": "To get the highest total score.", "Q4": "Only before moving the spider.", "Q5": "3 seconds"}, "trial_id": "mouselab_quiz_control", "trial_type": "survey-multi-choice", "trial_index": 7, "time_elapsed": 465479, "internal_node_id": "0.0-2.0-4.0"}}, {"uniqueid": "w75379115:a84393610", "current_trial": 8, "dateTime": 1691142641107, "trialdata": {"rt": 19238, "stimulus": "\n<h1> Get ready to start the game! </h1>\n\nThank you for reading the instructions. Get ready start with the 40 rounds of this game.\n<br><br>\nIf you need to take a break, feel free to take one after the end of a round, before continuing to the next one.\n<br><br>\nRemember, the more money the spider gets, the bigger your bonus will be!\n<br><br>\n<div style='text-align: center;'>Press <code>space</code> to begin.</div>\n\n<br><br>\n(If, at any point, the <code>space</code> key does not take you to the next page, click once on the text and try again.)", "response": " ", "trial_id": "mdp_ready", "trial_type": "html-keyboard-response", "trial_index": 8, "time_elapsed": 484726, "internal_node_id": "0.0-4.0-0.0"}}, {"uniqueid": "w75379115:a84393610", "current_trial": 9, "dateTime": 1691142660025, "trialdata": {"revealed_states": [], "clicked_states": ["1", "12", "23"], "num_clicks_accrued": [0, 0, 0, 0, 0, 0, 0, 0, 0, 0, 0, 0, 0], "stateRewards": ["", -2, -3, 7, -13, 60, 9, 37, -6, 37, 20, 1, 2, -2, -8, 6, -80, -31, -10, -7, 70, -65, -44, -1, 1, 7, 6, -11, 73, -85, 16, -21, 47, 34], "withholdReward": false, "trial_id": "mdp_trial_1", "block": "test", "trialIndex": 2, "score": 50.8, "costs": -4.199999999999999, "simulationMode": [null, null, null, null, null, null], "rewards": [2, -2, -8, -7, 70], "path": ["0", "0", "12", "13", "14", "19", "20"], "rt": [9344, 1276, 258, 140, 89, 327], "actions": ["right", "right", "right", "right", "down", "right"], "actionTimes": [11443, 12724, 13480, 14116, 14709, 15531], "queries": {"click": {"state": {"target": ["1", "12", "23"], "time": [4774, 8740, 10756]}, "edge": {"target": [], "time": []}}, "mouseover": {"state": {"target": ["1", "2", "12", "0", "23"], "time": [2454, 5187, 8455, 9870, 10520]}, "edge": {"target": [], "time": []}}, "mouseout": {"state": {"target": ["0", "1", "2", "1", "12", "0"], "time": [2189, 5101, 8160, 8255, 9836, 9919]}, "edge": {"target": [], "time": []}}}, "displayed_time": "16.10", "trialTime": 18446, "trial_type": "mouselab-mdp", "trial_index": 9, "time_elapsed": 503644, "internal_node_id": "0.0-4.0-1.0-0.0"}}, {"uniqueid": "w75379115:a84393610", "current_trial": 10, "dateTime": 1691142680390, "trialdata": {"revealed_states": [], "clicked_states": ["12", "14", "21"], "num_clicks_accrued": [0, 0, 0, 0, 0, 0, 0, 0, 0, 0, 0, 0, 0], "stateRewards": ["", 2, 3, -3, 12, -43, 81, -82, -15, 58, -7, -75, -1, -1, 3, -5, 50, -25, -8, 4, 66, 65, -66, 2, -4, 2, -1, -10, 10, 37, 11, 88, -37, 8], "withholdReward": false, "trial_id": "mdp_trial_2", "block": "test", "trialIndex": 3, "score": 65.8, "costs": -4.199999999999999, "simulationMode": [null, null, null, null, null, null], "rewards": [-1, -1, 3, 4, 65], "path": ["0", "0", "12", "13", "14", "19", "21"], "rt": [7101, 749, 58, 310, 536, 105], "actions": ["right", "right", "right", "right", "down", "down"], "actionTimes": [9237, 9991, 10559, 11381, 12422, 13022], "queries": {"click": {"state": {"target": ["12", "14", "21"], "time": [4905, 6737, 8453]}, "edge": {"target": [], "time": []}}, "mouseover": {"state": {"target": ["0", "23", "12", "13", "14", "19", "21"], "time": [2685, 3267, 4587, 5293, 6500, 7156, 7514]}, "edge": {"target": [], "time": []}}, "mouseout": {"state": {"target": ["23", "0", "0", "23", "12", "13", "14", "19", "21"], "time": [1136, 1483, 3203, 4301, 5234, 6429, 7099, 7418, 17819]}, "edge": {"target": [], "time": []}}}, "displayed_time": "16.14", "trialTime": 20006, "trial_type": "mouselab-mdp", "trial_index": 10, "time_elapsed": 524008, "internal_node_id": "0.0-4.0-1.0-1.0"}}, {"uniqueid": "w75379115:a84393610", "current_trial": 11, "dateTime": 1691142698031, "trialdata": {"revealed_states": [], "clicked_states": ["2", "4", "6"], "num_clicks_accrued": [0, 0, 0, 0, 0, 0, 0, 0, 0, 0, 0, 0, 0], "stateRewards": ["", 1, 2, -8, 9, 18, -83, -11, 6, -64, -48, 17, -2, -2, -5, -3, -24, -3, -86, -2, 48, -41, -22, -2, 4, 7, 8, 81, 13, -48, 10, 61, 19, 57], "withholdReward": false, "trial_id": "mdp_trial_3", "block": "test", "trialIndex": 4, "score": 13.8, "costs": -4.199999999999999, "simulationMode": [null, null, null, null, null], "rewards": [1, 2, -8, 6, 17], "path": ["0", "0", "1", "2", "3", "8", "11"], "rt": [7151, 159, 21, 532, 136], "actions": ["up", "up", "up", "left", "left"], "actionTimes": [8731, 9397, 9931, 10968, 11610], "queries": {"click": {"state": {"target": ["2", "4", "6"], "time": [2940, 4689, 6490]}, "edge": {"target": [], "time": []}}, "mouseover": {"state": {"target": ["1", "2", "4", "6"], "time": [2237, 2521, 3686, 5319]}, "edge": {"target": [], "time": []}}, "mouseout": {"state": {"target": ["0", "1", "2", "4", "6", "12"], "time": [904, 2321, 3435, 5205, 7369, 13574]}, "edge": {"target": [], "time": []}}}, "displayed_time": "15.58", "trialTime": 17083, "trial_type": "mouselab-mdp", "trial_index": 11, "time_elapsed": 541650, "internal_node_id": "0.0-4.0-1.0-2.0"}}, {"uniqueid": "w75379115:a84393610", "current_trial": 12, "dateTime": 1691142715566, "trialdata": {"revealed_states": [], "clicked_states": [], "num_clicks_accrued": [0, 0, 0, 0, 0, 0, 0, 0, 0, 0, 0, 0, 0], "stateRewards": ["", -2, -3, 1, -14, 48, -49, 67, -1, -35, -48, 3, -2, 1, -4, -5, 86, -84, 39, 1, 48, 41, -42, -1, -4, 2, -7, 18, -86, 17, 7, -9, 57, -69], "withholdReward": false, "trial_id": "mdp_trial_4", "block": "test", "trialIndex": 5, "score": 8, "costs": 0, "simulationMode": [null, null, null, null, null], "rewards": [-1, -4, 2, -7, 18], "path": ["0", "0", "23", "24", "25", "26", "27"], "rt": [5961, 60, 563, 81, 67], "actions": ["left", "left", "left", "up", "up"], "actionTimes": [7667, 8233, 9302, 9886, 10455], "queries": {"click": {"state": {"target": [], "time": []}, "edge": {"target": [], "time": []}}, "mouseover": {"state": {"target": ["0", "23", "23"], "time": [3068, 4135, 4605]}, "edge": {"target": [], "time": []}}, "mouseout": {"state": {"target": ["0", "0", "23", "23", "0"], "time": [1236, 3168, 4387, 7270, 12850]}, "edge": {"target": [], "time": []}}}, "displayed_time": "15.71", "trialTime": 16983, "trial_type": "mouselab-mdp", "trial_index": 12, "time_elapsed": 559184, "internal_node_id": "0.0-4.0-1.0-3.0"}}, {"uniqueid": "w75379115:a84393610", "current_trial": 13, "dateTime": 1691142732188, "trialdata": {"revealed_states": [], "clicked_states": ["23", "30", "32"], "num_clicks_accrued": [0, 0, 0, 0, 0, 0, 0, 0, 0, 0, 0, 0, 0], "stateRewards": ["", -1, 3, 2, 9, 41, 4, -46, -12, -54, -87, -25, 2, 3, -1, 11, -77, 12, -33, -9, -32, 35, 72, 1, 3, -7, 4, 37, 65, -73, 6, 77, -43, 8], "withholdReward": false, "trial_id": "mdp_trial_5", "block": "test", "trialIndex": 6, "score": 25.8, "costs": -4.199999999999999, "simulationMode": [null, null, null, null, null, null], "rewards": [2, 3, -1, -9, 35], "path": ["0", "0", "12", "13", "14", "19", "21"], "rt": [5914, 1470, 123, 10, 524, 76], "actions": ["left", "right", "right", "right", "down", "down"], "actionTimes": [7665, 9140, 9767, 10287, 11317, 11902], "queries": {"click": {"state": {"target": ["23", "30", "32"], "time": [3259, 5208, 6927]}, "edge": {"target": [], "time": []}}, "mouseover": {"state": {"target": ["1", "23", "23", "24", "31", "31", "30", "32"], "time": [2592, 2761, 3057, 3645, 4167, 4258, 4927, 5807]}, "edge": {"target": [], "time": []}}, "mouseout": {"state": {"target": ["0", "1", "23", "23", "24", "31", "31", "30", "32"], "time": [973, 2709, 2789, 3268, 4108, 4190, 4807, 5217, 14059]}, "edge": {"target": [], "time": []}}}, "displayed_time": "15.75", "trialTime": 16092, "trial_type": "mouselab-mdp", "trial_index": 13, "time_elapsed": 575806, "internal_node_id": "0.0-4.0-1.0-4.0"}}, {"uniqueid": "w75379115:a84393610", "current_trial": 14, "dateTime": 1691142751991, "trialdata": {"revealed_states": [], "clicked_states": ["12", "14", "16"], "num_clicks_accrued": [0, 0, 0, 0, 0, 0, 0, 0, 0, 0, 0, 0, 0], "stateRewards": ["", -2, -4, 4, -11, -63, -60, -7, 2, -14, 81, -43, -1, -1, -5, 7, 10, 69, 40, 8, -83, 52, 60, 1, 2, 5, -5, 16, 64, 14, -3, 29, 7, -51], "withholdReward": false, "trial_id": "mdp_trial_6", "block": "test", "trialIndex": 7, "score": 76.8, "costs": -4.199999999999999, "simulationMode": [null, null, null, null, null], "rewards": [-2, -4, 4, 2, 81], "path": ["0", "0", "1", "2", "3", "8", "10"], "rt": [7127, 58, 116, 470, 94], "actions": ["up", "up", "up", "left", "down"], "actionTimes": [11582, 12165, 12785, 13756, 14347], "queries": {"click": {"state": {"target": ["12", "14", "16"], "time": [5239, 7533, 9083]}, "edge": {"target": [], "time": []}}, "mouseover": {"state": {"target": ["12", "13", "14", "15", "14", "15", "16"], "time": [4569, 5722, 6422, 7135, 7349, 8201, 8828]}, "edge": {"target": [], "time": []}}, "mouseout": {"state": {"target": ["0", "12", "13", "14", "15", "14", "15", "16", "13"], "time": [3885, 5669, 6028, 7035, 7284, 7542, 8651, 15684, 15773]}, "edge": {"target": [], "time": []}}}, "displayed_time": "18.46", "trialTime": 19305, "trial_type": "mouselab-mdp", "trial_index": 14, "time_elapsed": 595609, "internal_node_id": "0.0-4.0-1.0-5.0"}}, {"uniqueid": "w75379115:a84393610", "current_trial": 15, "dateTime": 1691142770345, "trialdata": {"revealed_states": [], "clicked_states": ["2", "8", "11"], "num_clicks_accrued": [0, 0, 0, 0, 0, 0, 0, 0, 0, 0, 0, 0, 0], "stateRewards": ["", 1, 3, 3, -10, 52, 68, 59, 12, 7, 49, 21, -2, -3, -4, -2, -2, 63, 63, -4, 44, 43, -76, -2, -3, -6, 13, 48, 36, 12, -5, -36, -33, -11], "withholdReward": false, "trial_id": "mdp_trial_7", "block": "test", "trialIndex": 8, "score": 35.8, "costs": -4.199999999999999, "simulationMode": [null, null, null, null, null], "rewards": [1, 3, 3, 12, 21], "path": ["0", "0", "1", "2", "3", "8", "11"], "rt": [6634, 48, 12, 16, 5], "actions": ["up", "up", "up", "left", "left"], "actionTimes": [9601, 10141, 10673, 11210, 11764], "queries": {"click": {"state": {"target": ["2", "8", "11"], "time": [3941, 5824, 7623]}, "edge": {"target": [], "time": []}}, "mouseover": {"state": {"target": ["1", "2", "8", "11"], "time": [3311, 3640, 4548, 6322]}, "edge": {"target": [], "time": []}}, "mouseout": {"state": {"target": ["0", "1", "2", "8", "11", "10", "23"], "time": [3207, 3407, 4410, 6245, 12742, 12790, 12874]}, "edge": {"target": [], "time": []}}}, "displayed_time": "16.97", "trialTime": 17865, "trial_type": "mouselab-mdp", "trial_index": 15, "time_elapsed": 613963, "internal_node_id": "0.0-4.0-1.0-6.0"}}, {"uniqueid": "w75379115:a84393610", "current_trial": 16, "dateTime": 1691142788112, "trialdata": {"revealed_states": [], "clicked_states": ["1", "4", "5"], "num_clicks_accrued": [0, 0, 0, 0, 0, 0, 0, 0, 0, 0, 0, 0, 0], "stateRewards": ["", -1, -3, 1, -4, -48, -63, -49, -2, -84, -19, 65, 2, -2, -2, -12, -4, 59, 9, 6, 75, 69, -13, -1, -3, -3, -2, -37, -68, -36, 13, 32, 18, -14], "withholdReward": false, "trial_id": "mdp_trial_8", "block": "test", "trialIndex": 9, "score": 74.8, "costs": -4.199999999999999, "simulationMode": [null, null, null, null, null], "rewards": [2, -2, -2, 6, 75], "path": ["0", "0", "12", "13", "14", "19", "20"], "rt": [6605, 72, 298, 86, 190], "actions": ["right", "right", "right", "down", "right"], "actionTimes": [8350, 8924, 9733, 10323, 11012], "queries": {"click": {"state": {"target": ["1", "4", "5"], "time": [2424, 4119, 6189]}, "edge": {"target": [], "time": []}}, "mouseover": {"state": {"target": ["1", "2", "4", "5", "7"], "time": [2069, 2869, 3102, 4586, 6870]}, "edge": {"target": [], "time": []}}, "mouseout": {"state": {"target": ["0", "1", "2", "4", "5", "4", "7", "0"], "time": [1853, 2801, 2895, 4451, 6818, 6853, 6888, 12919]}, "edge": {"target": [], "time": []}}}, "displayed_time": "15.75", "trialTime": 17274, "trial_type": "mouselab-mdp", "trial_index": 16, "time_elapsed": 631731, "internal_node_id": "0.0-4.0-1.0-7.0"}}, {"uniqueid": "w75379115:a84393610", "current_trial": 17, "dateTime": 1691142805430, "trialdata": {"revealed_states": [], "clicked_states": ["13", "15", "17"], "num_clicks_accrued": [0, 0, 0, 0, 0, 0, 0, 0, 0, 0, 0, 0, 0], "stateRewards": ["", -1, -2, 8, -6, -79, -6, 87, 9, -5, -66, -38, 2, 2, 5, -6, -82, 74, 85, -8, 67, -30, -15, 1, -2, -2, -2, 87, 64, 49, 7, 2, -38, -9], "withholdReward": false, "trial_id": "mdp_trial_9", "block": "test", "trialIndex": 10, "score": 72.8, "costs": -4.199999999999999, "simulationMode": [null, null, null, null, null], "rewards": [2, 2, 5, -6, 74], "path": ["0", "0", "12", "13", "14", "15", "17"], "rt": [7021, 54, 240, 76, 29], "actions": ["right", "right", "right", "up", "right"], "actionTimes": [8236, 8794, 9544, 10114, 10650], "queries": {"click": {"state": {"target": ["13", "15", "17"], "time": [2186, 4218, 6086]}, "edge": {"target": [], "time": []}}, "mouseover": {"state": {"target": ["12", "13", "18", "15", "14", "19", "17", "14", "13"], "time": [1553, 1987, 2671, 2837, 4767, 4809, 5605, 6890, 7027]}, "edge": {"target": [], "time": []}}, "mouseout": {"state": {"target": ["0", "12", "13", "18", "15", "14", "19", "17", "14", "13"], "time": [638, 1621, 2631, 2688, 4670, 4792, 5055, 6865, 6921, 7075]}, "edge": {"target": [], "time": []}}}, "displayed_time": "15.23", "trialTime": 16742, "trial_type": "mouselab-mdp", "trial_index": 17, "time_elapsed": 649049, "internal_node_id": "0.0-4.0-1.0-8.0"}}, {"uniqueid": "w75379115:a84393610", "current_trial": 18, "dateTime": 1691142823746, "trialdata": {"revealed_states": [], "clicked_states": ["12", "18", "21"], "num_clicks_accrued": [0, 0, 0, 0, 0, 0, 0, 0, 0, 0, 0, 0, 0], "stateRewards": ["", 2, -1, 3, -12, -83, 6, -33, 9, 28, 24, -50, -2, -1, -2, -5, -87, 37, 82, 12, 80, -5, 10, -2, -3, -6, 9, 22, -1, 16, 9, 77, -62, 58], "withholdReward": false, "trial_id": "mdp_trial_10", "block": "test", "trialIndex": 11, "score": 67.8, "costs": -4.199999999999999, "simulationMode": [null, null, null, null, null], "rewards": [-2, -1, -2, -5, 82], "path": ["0", "0", "12", "13", "14", "15", "18"], "rt": [6806, 78, 65, 633, 124], "actions": ["right", "right", "right", "up", "left"], "actionTimes": [9296, 9869, 10438, 11574, 12203], "queries": {"click": {"state": {"target": ["12", "18", "21"], "time": [3575, 5427, 7276]}, "edge": {"target": [], "time": []}}, "mouseover": {"state": {"target": ["12", "12", "18", "19", "21", "20"], "time": [2955, 3322, 4009, 5873, 6209, 7806]}, "edge": {"target": [], "time": []}}, "mouseout": {"state": {"target": ["0", "12", "12", "18", "19", "21", "20", "20", "21"], "time": [1988, 3021, 3939, 5807, 5924, 7284, 7823, 13308, 13524]}, "edge": {"target": [], "time": []}}}, "displayed_time": "16.50", "trialTime": 17727, "trial_type": "mouselab-mdp", "trial_index": 18, "time_elapsed": 667364, "internal_node_id": "0.0-4.0-1.0-9.0"}}, {"uniqueid": "w75379115:a84393610", "current_trial": 19, "dateTime": 1691142841722, "trialdata": {"revealed_states": [], "clicked_states": [], "num_clicks_accrued": [0, 0, 0, 0, 0, 0, 0, 0, 0, 0, 0, 0, 0], "stateRewards": ["", 1, 2, 3, 16, 63, -25, 16, -4, -14, 82, -66, -1, -3, -3, -11, -14, 19, 46, 3, -34, -82, 66, -2, -3, 4, -5, -63, 77, -37, -1, -45, -41, 84], "withholdReward": false, "trial_id": "mdp_trial_11", "block": "test", "trialIndex": 12, "score": 28, "costs": 0, "simulationMode": [null, null, null, null, null], "rewards": [-1, -3, -3, -11, 46], "path": ["0", "0", "12", "13", "14", "15", "18"], "rt": [4950, 341, 168, 190, 188], "actions": ["right", "right", "right", "up", "left"], "actionTimes": [7948, 8788, 9463, 10150, 10831], "queries": {"click": {"state": {"target": [], "time": []}, "edge": {"target": [], "time": []}}, "mouseover": {"state": {"target": ["0", "23", "24", "25", "30"], "time": [4911, 5478, 5526, 5879, 6614]}, "edge": {"target": [], "time": []}}, "mouseout": {"state": {"target": ["22", "0", "0", "23", "24", "25", "30"], "time": [1079, 1959, 5447, 5509, 5608, 6577, 12143]}, "edge": {"target": [], "time": []}}}, "displayed_time": "17.00", "trialTime": 17588, "trial_type": "mouselab-mdp", "trial_index": 19, "time_elapsed": 685341, "internal_node_id": "0.0-4.0-1.0-10.0"}}, {"uniqueid": "w75379115:a84393610", "current_trial": 20, "dateTime": 1691142862570, "trialdata": {"revealed_states": [], "clicked_states": ["25", "31", "32"], "num_clicks_accrued": [0, 0, 0, 0, 0, 0, 0, 0, 0, 0, 0, 0, 0], "stateRewards": ["", -2, -1, -3, -1, -78, -6, 2, -1, 22, -88, 32, 2, 2, -7, -8, -51, -17, 54, 2, -44, 54, 75, 2, -2, -8, -15, -29, 12, -67, 15, -1, -47, -47], "withholdReward": false, "trial_id": "mdp_trial_12", "block": "test", "trialIndex": 13, "score": -99.2, "costs": -4.199999999999999, "simulationMode": [null, null, null, null, null], "rewards": [-2, -1, -3, -1, -88], "path": ["0", "0", "1", "2", "3", "8", "10"], "rt": [6426, 103, 75, 36, 36], "actions": ["up", "up", "up", "left", "down"], "actionTimes": [8658, 9270, 9842, 10387, 10916], "queries": {"click": {"state": {"target": ["25", "31", "32"], "time": [2969, 4498, 6218]}, "edge": {"target": [], "time": []}}, "mouseover": {"state": {"target": ["23", "24", "25", "30", "32", "31", "32", "23"], "time": [2277, 2382, 2648, 3297, 3483, 4229, 4879, 7180]}, "edge": {"target": [], "time": []}}, "mouseout": {"state": {"target": ["0", "23", "24", "25", "30", "32", "31", "32", "31", "23", "0"], "time": [2272, 2313, 2599, 3262, 3347, 4147, 4813, 7034, 7113, 12050, 12148]}, "edge": {"target": [], "time": []}}}, "displayed_time": "16.24", "trialTime": 20305, "trial_type": "mouselab-mdp", "trial_index": 20, "time_elapsed": 706188, "internal_node_id": "0.0-4.0-1.0-11.0"}}, {"uniqueid": "w75379115:a84393610", "current_trial": 21, "dateTime": 1691142881015, "trialdata": {"revealed_states": [], "clicked_states": ["12", "18", "17"], "num_clicks_accrued": [0, 0, 0, 0, 0, 0, 0, 0, 0, 0, 0, 0, 0], "stateRewards": ["", -1, 1, 8, -8, -49, 62, -78, 16, 28, -81, 78, -2, -3, -1, -4, 67, 49, -2, -13, -16, -39, 83, 1, -4, 4, -5, -20, 7, 84, 7, -32, -59, 19], "withholdReward": false, "trial_id": "mdp_trial_13", "block": "test", "trialIndex": 14, "score": 34.8, "costs": -4.199999999999999, "simulationMode": [null, null, null, null, null], "rewards": [-2, -3, -1, -4, 49], "path": ["0", "0", "12", "13", "14", "15", "17"], "rt": [6401, 90, 60, 41, 6], "actions": ["right", "right", "right", "up", "right"], "actionTimes": [9556, 10147, 10702, 11254, 11792], "queries": {"click": {"state": {"target": ["12", "18", "17"], "time": [3862, 5661, 7661]}, "edge": {"target": [], "time": []}}, "mouseover": {"state": {"target": ["0", "12", "18", "15", "17"], "time": [3474, 3592, 4342, 6243, 6643]}, "edge": {"target": [], "time": []}}, "mouseout": {"state": {"target": ["0", "0", "12", "18", "15", "17", "14"], "time": [2640, 3490, 4239, 6092, 6540, 12742, 12829]}, "edge": {"target": [], "time": []}}}, "displayed_time": "17.16", "trialTime": 17859, "trial_type": "mouselab-mdp", "trial_index": 21, "time_elapsed": 724633, "internal_node_id": "0.0-4.0-1.0-12.0"}}, {"uniqueid": "w75379115:a84393610", "current_trial": 22, "dateTime": 1691142898294, "trialdata": {"revealed_states": [], "clicked_states": ["20", "16", "17"], "num_clicks_accrued": [0, 0, 0, 0, 0, 0, 0, 0, 0, 0, 0, 0, 0], "stateRewards": ["", 2, 3, -1, 6, 44, -4, -59, -14, -3, 64, 16, 1, -3, 3, 6, 3, 49, 19, 3, -49, -14, -86, 1, 2, -3, -8, -33, 14, 32, -13, -77, -47, -67], "withholdReward": false, "trial_id": "mdp_trial_14", "block": "test", "trialIndex": 15, "score": 51.8, "costs": -4.199999999999999, "simulationMode": [null, null, null, null, null], "rewards": [1, -3, 3, 6, 49], "path": ["0", "0", "12", "13", "14", "15", "17"], "rt": [7186, 75, 118, 63, 3], "actions": ["right", "right", "right", "up", "right"], "actionTimes": [8709, 9287, 9895, 10458, 10971], "queries": {"click": {"state": {"target": ["20", "16", "17"], "time": [2963, 4764, 6330]}, "edge": {"target": [], "time": []}}, "mouseover": {"state": {"target": ["12", "13", "14", "19", "20", "15", "16", "17", "15"], "time": [1792, 1834, 2079, 2178, 2328, 3460, 3562, 5236, 7166]}, "edge": {"target": [], "time": []}}, "mouseout": {"state": {"target": ["0", "12", "13", "14", "19", "20", "15", "16", "17", "15", "16", "15", "13"], "time": [1762, 1830, 1861, 2095, 2209, 3360, 3480, 5114, 7162, 7196, 12378, 12595, 12626]}, "edge": {"target": [], "time": []}}}, "displayed_time": "15.53", "trialTime": 16790, "trial_type": "mouselab-mdp", "trial_index": 22, "time_elapsed": 741913, "internal_node_id": "0.0-4.0-1.0-13.0"}}, {"uniqueid": "w75379115:a84393610", "current_trial": 23, "dateTime": 1691142915288, "trialdata": {"revealed_states": [], "clicked_states": ["6", "11", "17"], "num_clicks_accrued": [0, 0, 0, 0, 0, 0, 0, 0, 0, 0, 0, 0, 0], "stateRewards": ["", -2, 1, 6, -2, -10, -78, -69, 14, -15, 7, -1, 1, -1, -2, 13, 77, 32, 87, 5, -74, 30, -26, 1, 3, 4, 12, 39, 54, -43, 2, 10, 23, 13], "withholdReward": false, "trial_id": "mdp_trial_15", "block": "test", "trialIndex": 16, "score": 38.8, "costs": -4.199999999999999, "simulationMode": [null, null, null, null, null], "rewards": [1, -1, -2, 13, 32], "path": ["0", "0", "12", "13", "14", "15", "17"], "rt": [6641, 91, 81, 661, 94], "actions": ["right", "right", "right", "up", "right"], "actionTimes": [7997, 8593, 9166, 10332, 10929], "queries": {"click": {"state": {"target": ["6", "11", "17"], "time": [2239, 3759, 5471]}, "edge": {"target": [], "time": []}}, "mouseover": {"state": {"target": ["1", "1", "6", "4", "3", "8", "11", "8", "18", "15", "17"], "time": [1472, 1754, 1849, 2650, 2696, 2749, 3005, 4127, 4200, 4469, 4685]}, "edge": {"target": [], "time": []}}, "mouseout": {"state": {"target": ["1", "1", "6", "4", "3", "8", "11", "8", "18", "15", "17"], "time": [1487, 1770, 2632, 2678, 2733, 2868, 4112, 4144, 4418, 4601, 6218]}, "edge": {"target": [], "time": []}}}, "displayed_time": "15.36", "trialTime": 16408, "trial_type": "mouselab-mdp", "trial_index": 23, "time_elapsed": 758906, "internal_node_id": "0.0-4.0-1.0-14.0"}}, {"uniqueid": "w75379115:a84393610", "current_trial": 24, "dateTime": 1691142932062, "trialdata": {"revealed_states": [], "clicked_states": ["32", "9", "5"], "num_clicks_accrued": [0, 0, 0, 0, 0, 0, 0, 0, 0, 0, 0, 0, 0], "stateRewards": ["", 2, -4, 1, -12, -59, -53, -74, 16, -88, -66, 66, 1, -2, 8, -9, -14, 22, 25, -1, -39, 47, -14, -1, -1, -2, 1, -4, 52, -26, 15, -7, 46, 43], "withholdReward": false, "trial_id": "mdp_trial_16", "block": "test", "trialIndex": 17, "score": 52.8, "costs": -4.199999999999999, "simulationMode": [null, null, null, null, null], "rewards": [-1, -1, -2, 15, 46], "path": ["0", "0", "23", "24", "25", "30", "32"], "rt": [7190, 570, 167, 96, 155], "actions": ["left", "left", "left", "down", "down"], "actionTimes": [8484, 9545, 10222, 10822, 11481], "queries": {"click": {"state": {"target": ["32", "9", "5"], "time": [2379, 4243, 5979]}, "edge": {"target": [], "time": []}}, "mouseover": {"state": {"target": ["32", "30", "8", "9", "5", "2"], "time": [2110, 2692, 2791, 3029, 4847, 6807]}, "edge": {"target": [], "time": []}}, "mouseout": {"state": {"target": ["0", "32", "30", "8", "9", "5", "2", "7", "12"], "time": [1775, 2674, 2709, 2859, 4660, 6708, 14276, 14343, 14728]}, "edge": {"target": [], "time": []}}}, "displayed_time": "15.30", "trialTime": 16187, "trial_type": "mouselab-mdp", "trial_index": 24, "time_elapsed": 775680, "internal_node_id": "0.0-4.0-1.0-15.0"}}, {"uniqueid": "w75379115:a84393610", "current_trial": 25, "dateTime": 1691142950930, "trialdata": {"revealed_states": [], "clicked_states": ["33", "5", "6"], "num_clicks_accrued": [0, 0, 0, 0, 0, 0, 0, 0, 0, 0, 0, 0, 0], "stateRewards": ["", 1, -1, 4, -2, -75, -75, 84, -9, -60, -79, 59, 2, -4, 8, 9, -17, -82, 80, 14, -4, 49, 49, -1, 3, 6, -11, -33, 34, 55, 9, -57, 5, 59], "withholdReward": false, "trial_id": "mdp_trial_17", "block": "test", "trialIndex": 18, "score": 71.8, "costs": -4.199999999999999, "simulationMode": [null, null, null, null, null], "rewards": [-1, 3, 6, 9, 59], "path": ["0", "0", "23", "24", "25", "30", "33"], "rt": [6936, 734, 171, 76, 106], "actions": ["left", "left", "left", "down", "left"], "actionTimes": [10437, 11661, 12334, 12905, 13515], "queries": {"click": {"state": {"target": ["33", "5", "6"], "time": [4314, 6629, 8563]}, "edge": {"target": [], "time": []}}, "mouseover": {"state": {"target": ["33", "25", "8", "5", "6", "6"], "time": [4044, 4800, 4910, 5345, 7494, 7924]}, "edge": {"target": [], "time": []}}, "mouseout": {"state": {"target": ["0", "33", "25", "8", "5", "6", "6", "18"], "time": [2876, 4744, 4816, 4944, 7202, 7512, 14547, 14644]}, "edge": {"target": [], "time": []}}}, "displayed_time": "17.51", "trialTime": 18389, "trial_type": "mouselab-mdp", "trial_index": 25, "time_elapsed": 794548, "internal_node_id": "0.0-4.0-1.0-16.0"}}, {"uniqueid": "w75379115:a84393610", "current_trial": 26, "dateTime": 1691142968149, "trialdata": {"revealed_states": [], "clicked_states": ["33", "29", "11"], "num_clicks_accrued": [0, 0, 0, 0, 0, 0, 0, 0, 0, 0, 0, 0, 0], "stateRewards": ["", -2, 2, 8, -6, -25, 3, 87, 2, -62, -2, 74, -2, -1, 2, -1, 79, 49, -37, -14, 5, 67, -9, -1, 2, -2, 5, 15, 38, 32, -14, -38, -38, 30], "withholdReward": false, "trial_id": "mdp_trial_18", "block": "test", "trialIndex": 19, "score": 79.8, "costs": -4.199999999999999, "simulationMode": [null, null, null, null, null], "rewards": [-2, 2, 8, 2, 74], "path": ["0", "0", "1", "2", "3", "8", "11"], "rt": [7214, 4, 78, 544, 120], "actions": ["up", "up", "up", "left", "left"], "actionTimes": [9261, 9764, 10353, 11401, 12028], "queries": {"click": {"state": {"target": ["33", "29", "11"], "time": [3075, 4944, 6542]}, "edge": {"target": [], "time": []}}, "mouseover": {"state": {"target": ["23", "30", "33", "29", "27", "11", "11", "27"], "time": [2474, 2608, 2841, 3657, 5436, 5608, 5858, 7267]}, "edge": {"target": [], "time": []}}, "mouseout": {"state": {"target": ["0", "23", "30", "33", "29", "27", "11", "11", "27", "29", "25", "31"], "time": [2459, 2491, 2775, 3539, 5358, 5512, 5661, 7235, 7318, 13492, 13541, 13828]}, "edge": {"target": [], "time": []}}}, "displayed_time": "16.05", "trialTime": 16704, "trial_type": "mouselab-mdp", "trial_index": 26, "time_elapsed": 811767, "internal_node_id": "0.0-4.0-1.0-17.0"}}, {"uniqueid": "w75379115:a84393610", "current_trial": 27, "dateTime": 1691142986381, "trialdata": {"revealed_states": [], "clicked_states": ["29", "11", "9"], "num_clicks_accrued": [0, 0, 0, 0, 0, 0, 0, 0, 0, 0, 0, 0, 0], "stateRewards": ["", 2, 4, 7, 7, -79, -2, -21, -5, -53, 47, -21, 1, -3, -1, 7, 83, 7, 84, -7, 80, -37, 69, 2, -4, 5, 2, 4, -20, -30, 7, 71, 44, -81], "withholdReward": false, "trial_id": "mdp_trial_19", "block": "test", "trialIndex": 20, "score": 65.8, "costs": -4.199999999999999, "simulationMode": [null, null, null, null, null], "rewards": [1, -3, -1, -7, 80], "path": ["0", "0", "12", "13", "14", "19", "20"], "rt": [7573, 42, 37, 122, 174], "actions": ["right", "right", "right", "down", "right"], "actionTimes": [10193, 10735, 11282, 11899, 12568], "queries": {"click": {"state": {"target": ["29", "11", "9"], "time": [3631, 5175, 6847]}, "edge": {"target": [], "time": []}}, "mouseover": {"state": {"target": ["23", "26", "29", "11", "9", "27"], "time": [2827, 3213, 3277, 4116, 5696, 8444]}, "edge": {"target": [], "time": []}}, "mouseout": {"state": {"target": ["0", "0", "23", "26", "29", "11", "9", "27", "30"], "time": [2044, 2795, 2877, 3229, 3943, 5610, 7579, 8461, 13461]}, "edge": {"target": [], "time": []}}}, "displayed_time": "16.63", "trialTime": 17588, "trial_type": "mouselab-mdp", "trial_index": 27, "time_elapsed": 830000, "internal_node_id": "0.0-4.0-1.0-18.0"}}, {"uniqueid": "w75379115:a84393610", "current_trial": 28, "dateTime": 1691143004031, "trialdata": {"revealed_states": [], "clicked_states": ["20", "16", "5"], "num_clicks_accrued": [0, 0, 0, 0, 0, 0, 0, 0, 0, 0, 0, 0, 0], "stateRewards": ["", -2, 1, -5, 2, -68, 80, 33, 10, 67, -59, 20, -1, -3, 3, 14, 74, -2, 24, -16, 63, 80, 46, -1, 4, 6, 12, 83, -38, -43, -4, 43, 14, -79], "withholdReward": false, "trial_id": "mdp_trial_20", "block": "test", "trialIndex": 21, "score": 82.8, "costs": -4.199999999999999, "simulationMode": [null, null, null, null, null], "rewards": [-1, -3, 3, 14, 74], "path": ["0", "0", "12", "13", "14", "15", "16"], "rt": [6338, 17, 262, 345, 96], "actions": ["right", "right", "right", "up", "up"], "actionTimes": [7840, 8356, 9117, 9966, 10569], "queries": {"click": {"state": {"target": ["20", "16", "5"], "time": [2541, 4091, 5909]}, "edge": {"target": [], "time": []}}, "mouseover": {"state": {"target": ["12", "13", "20", "15", "16", "6", "5"], "time": [1588, 1623, 2153, 3043, 3372, 4608, 4921]}, "edge": {"target": [], "time": []}}, "mouseout": {"state": {"target": ["0", "12", "13", "20", "15", "16", "6", "5", "4", "1", "0"], "time": [1571, 1620, 1656, 2950, 3290, 4591, 4623, 11390, 11425, 11454, 11489]}, "edge": {"target": [], "time": []}}}, "displayed_time": "15.51", "trialTime": 17149, "trial_type": "mouselab-mdp", "trial_index": 28, "time_elapsed": 847649, "internal_node_id": "0.0-4.0-1.0-19.0"}}, {"uniqueid": "w75379115:a84393610", "current_trial": 29, "dateTime": 1691143021402, "trialdata": {"revealed_states": [], "clicked_states": ["5", "16", "21"], "num_clicks_accrued": [0, 0, 0, 0, 0, 0, 0, 0, 0, 0, 0, 0, 0], "stateRewards": ["", -1, 1, -1, 2, 19, 85, -18, 2, -3, -26, 36, 2, 4, 7, -9, -18, 70, 72, -5, 35, -20, -28, 1, -2, -4, -3, -59, -11, -63, -2, -72, 59, -69], "withholdReward": false, "trial_id": "mdp_trial_21", "block": "test", "trialIndex": 22, "score": 15.8, "costs": -4.199999999999999, "simulationMode": [null, null, null, null, null], "rewards": [-1, 1, -1, 2, 19], "path": ["0", "0", "1", "2", "3", "4", "5"], "rt": [7056, 16, 37, 14, 53], "actions": ["up", "up", "up", "right", "up"], "actionTimes": [8779, 9288, 9843, 10369, 10927], "queries": {"click": {"state": {"target": ["5", "16", "21"], "time": [2892, 4559, 6343]}, "edge": {"target": [], "time": []}}, "mouseover": {"state": {"target": ["12", "7", "4", "5", "6", "16", "20", "21", "20"], "time": [1989, 2304, 2325, 2623, 3337, 3789, 5377, 5723, 7444]}, "edge": {"target": [], "time": []}}, "mouseout": {"state": {"target": ["0", "0", "12", "7", "4", "5", "6", "16", "20", "21", "20", "20"], "time": [924, 1958, 2021, 2323, 2373, 3322, 3621, 5029, 5638, 7388, 7463, 11808]}, "edge": {"target": [], "time": []}}}, "displayed_time": "15.73", "trialTime": 16769, "trial_type": "mouselab-mdp", "trial_index": 29, "time_elapsed": 865021, "internal_node_id": "0.0-4.0-1.0-20.0"}}, {"uniqueid": "w75379115:a84393610", "current_trial": 30, "dateTime": 1691143038525, "trialdata": {"revealed_states": [], "clicked_states": ["25", "6", "9"], "num_clicks_accrued": [0, 0, 0, 0, 0, 0, 0, 0, 0, 0, 0, 0, 0], "stateRewards": ["", -2, 1, -3, -16, -39, -52, 30, -7, -41, -59, 11, 2, 1, 8, 2, -11, -26, -42, -13, 87, -59, -48, -1, -1, -1, 16, -79, 31, 50, -1, -84, 34, -82], "withholdReward": false, "trial_id": "mdp_trial_22", "block": "test", "trialIndex": 23, "score": 80.8, "costs": -4.199999999999999, "simulationMode": [null, null, null, null, null], "rewards": [2, 1, 8, -13, 87], "path": ["0", "0", "12", "13", "14", "19", "20"], "rt": [6932, 112, 45, 28, 45], "actions": ["right", "right", "right", "down", "right"], "actionTimes": [8438, 9045, 9596, 10161, 10712], "queries": {"click": {"state": {"target": ["25", "6", "9"], "time": [2587, 4116, 5687]}, "edge": {"target": [], "time": []}}, "mouseover": {"state": {"target": ["23", "24", "25", "6", "4", "9"], "time": [1914, 1967, 2299, 3070, 4500, 4860]}, "edge": {"target": [], "time": []}}, "mouseout": {"state": {"target": ["0", "0", "23", "24", "25", "6", "4", "9", "10", "0"], "time": [900, 1883, 1950, 2018, 3006, 4483, 4517, 7532, 11868, 12236]}, "edge": {"target": [], "time": []}}}, "displayed_time": "15.51", "trialTime": 16452, "trial_type": "mouselab-mdp", "trial_index": 30, "time_elapsed": 882143, "internal_node_id": "0.0-4.0-1.0-21.0"}}, {"uniqueid": "w75379115:a84393610", "current_trial": 31, "dateTime": 1691143056422, "trialdata": {"revealed_states": [], "clicked_states": ["20", "16", "5"], "num_clicks_accrued": [0, 0, 0, 0, 0, 0, 0, 0, 0, 0, 0, 0, 0], "stateRewards": ["", -2, -1, 3, -3, 71, -58, -21, 7, -10, -75, -37, 2, 4, -1, -12, -79, -29, -48, 3, -41, -10, -30, -1, -2, 1, -15, 13, 66, 22, -1, -42, -86, -55], "withholdReward": false, "trial_id": "mdp_trial_23", "block": "test", "trialIndex": 24, "score": 63.8, "costs": -4.199999999999999, "simulationMode": [null, null, null, null, null], "rewards": [-2, -1, 3, -3, 71], "path": ["0", "0", "1", "2", "3", "4", "5"], "rt": [7244, 34, 419, 587, 152], "actions": ["up", "up", "up", "right", "up"], "actionTimes": [9256, 9785, 10702, 11791, 12436], "queries": {"click": {"state": {"target": ["20", "16", "5"], "time": [2704, 5370, 6970]}, "edge": {"target": [], "time": []}}, "mouseover": {"state": {"target": ["12", "19", "20", "14", "15", "16", "6", "16", "6", "5", "3", "8", "9"], "time": [2037, 2101, 2435, 3151, 3341, 3483, 4716, 5101, 5683, 5966, 7869, 7950, 8102]}, "edge": {"target": [], "time": []}}, "mouseout": {"state": {"target": ["0", "0", "12", "19", "20", "14", "15", "16", "6", "16", "6", "5", "3", "8", "9"], "time": [1033, 2032, 2053, 2150, 3034, 3288, 3416, 4685, 5003, 5634, 5700, 7849, 7901, 8049, 8121]}, "edge": {"target": [], "time": []}}}, "displayed_time": "16.02", "trialTime": 17214, "trial_type": "mouselab-mdp", "trial_index": 31, "time_elapsed": 900041, "internal_node_id": "0.0-4.0-1.0-22.0"}}, {"uniqueid": "w75379115:a84393610", "current_trial": 32, "dateTime": 1691143073851, "trialdata": {"revealed_states": [], "clicked_states": ["5", "27", "32"], "num_clicks_accrued": [0, 0, 0, 0, 0, 0, 0, 0, 0, 0, 0, 0, 0], "stateRewards": ["", 1, 1, -6, -2, 7, 77, 3, 16, -16, 66, 31, -1, 3, -8, -6, 33, -50, -48, 7, -60, -66, 36, 2, -3, 3, -7, -12, -61, -79, -4, 8, 74, -70], "withholdReward": false, "trial_id": "mdp_trial_24", "block": "test", "trialIndex": 25, "score": 67.8, "costs": -4.199999999999999, "simulationMode": [null, null, null, null, null], "rewards": [2, -3, 3, -4, 74], "path": ["0", "0", "23", "24", "25", "30", "32"], "rt": [7374, 451, 172, 78, 110], "actions": ["left", "left", "left", "down", "down"], "actionTimes": [8858, 9813, 10487, 11061, 11673], "queries": {"click": {"state": {"target": ["5", "27", "32"], "time": [2715, 4565, 6098]}, "edge": {"target": [], "time": []}}, "mouseover": {"state": {"target": ["10", "5", "27", "26", "25", "30", "32", "32"], "time": [2013, 2311, 3412, 4864, 4896, 4917, 4963, 5338]}, "edge": {"target": [], "time": []}}, "mouseout": {"state": {"target": ["0", "10", "5", "27", "26", "25", "30", "32", "32"], "time": [1662, 2029, 3062, 4845, 4878, 4912, 4947, 5229, 7620]}, "edge": {"target": [], "time": []}}}, "displayed_time": "15.49", "trialTime": 16820, "trial_type": "mouselab-mdp", "trial_index": 32, "time_elapsed": 917469, "internal_node_id": "0.0-4.0-1.0-23.0"}}, {"uniqueid": "w75379115:a84393610", "current_trial": 33, "dateTime": 1691143091734, "trialdata": {"revealed_states": [], "clicked_states": ["16", "5", "33"], "num_clicks_accrued": [0, 0, 0, 0, 0, 0, 0, 0, 0, 0, 0, 0, 0], "stateRewards": ["", -1, 1, -2, 5, 73, 15, 61, 8, 7, 38, 76, 2, 2, -4, -6, -6, -26, 43, -5, -45, -85, -35, -2, 1, -4, 15, -10, 69, 72, -11, 84, -49, -38], "withholdReward": false, "trial_id": "mdp_trial_25", "block": "test", "trialIndex": 26, "score": 71.8, "costs": -4.199999999999999, "simulationMode": [null, null, null, null, null], "rewards": [-1, 1, -2, 5, 73], "path": ["0", "0", "1", "2", "3", "4", "5"], "rt": [6005, 54, 779, 23, 70], "actions": ["up", "up", "up", "right", "up"], "actionTimes": [8028, 8578, 9898, 10420, 10993], "queries": {"click": {"state": {"target": ["16", "5", "33"], "time": [2728, 4273, 5976]}, "edge": {"target": [], "time": []}}, "mouseover": {"state": {"target": ["15", "16", "5", "23", "31", "33"], "time": [2122, 2506, 3441, 4810, 5074, 5297]}, "edge": {"target": [], "time": []}}, "mouseout": {"state": {"target": ["0", "15", "16", "5", "23", "31", "33", "31"], "time": [1488, 2441, 3178, 4740, 4847, 5122, 12307, 13059]}, "edge": {"target": [], "time": []}}}, "displayed_time": "16.03", "trialTime": 17264, "trial_type": "mouselab-mdp", "trial_index": 33, "time_elapsed": 935353, "internal_node_id": "0.0-4.0-1.0-24.0"}}, {"uniqueid": "w75379115:a84393610", "current_trial": 34, "dateTime": 1691143110652, "trialdata": {"revealed_states": [], "clicked_states": ["5", "29", "32"], "num_clicks_accrued": [0, 0, 0, 0, 0, 0, 0, 0, 0, 0, 0, 0, 0], "stateRewards": ["", -1, 1, -6, -1, 80, 23, 2, -11, 73, -81, 59, 1, 3, 5, -1, -26, 28, -3, 16, -59, -13, -50, -2, -2, 2, 15, -50, 86, 17, -4, 37, 35, 44], "withholdReward": false, "trial_id": "mdp_trial_26", "block": "test", "trialIndex": 27, "score": 68.8, "costs": -4.199999999999999, "simulationMode": [null, null, null, null, null], "rewards": [-1, 1, -6, -1, 80], "path": ["0", "0", "1", "2", "3", "4", "5"], "rt": [7610, 5, 594, 43, 55], "actions": ["up", "up", "up", "right", "up"], "actionTimes": [11021, 11521, 12631, 13176, 13765], "queries": {"click": {"state": {"target": ["5", "29", "32"], "time": [4268, 7133, 9034]}, "edge": {"target": [], "time": []}}, "mouseover": {"state": {"target": ["7", "4", "5", "3", "26", "29", "32", "30", "29", "32"], "time": [3730, 3897, 4048, 4642, 4705, 4881, 6279, 6597, 6732, 7501]}, "edge": {"target": [], "time": []}}, "mouseout": {"state": {"target": ["0", "7", "4", "5", "3", "26", "29", "32", "30", "29", "29", "32"], "time": [3550, 3748, 3963, 4622, 4669, 4718, 5998, 6581, 6629, 7143, 7372, 16314]}, "edge": {"target": [], "time": []}}}, "displayed_time": "17.42", "trialTime": 18470, "trial_type": "mouselab-mdp", "trial_index": 34, "time_elapsed": 954270, "internal_node_id": "0.0-4.0-1.0-25.0"}}, {"uniqueid": "w75379115:a84393610", "current_trial": 35, "dateTime": 1691143127522, "trialdata": {"revealed_states": [], "clicked_states": ["5", "11", "32"], "num_clicks_accrued": [0, 0, 0, 0, 0, 0, 0, 0, 0, 0, 0, 0, 0], "stateRewards": ["", 2, 3, 8, 11, 25, -80, 6, -4, -56, 84, -23, -2, -4, -3, 4, -51, -9, -61, -15, -64, 67, -35, 1, -1, -7, -6, 83, 59, -15, 12, -79, 56, 41], "withholdReward": false, "trial_id": "mdp_trial_27", "block": "test", "trialIndex": 28, "score": 56.8, "costs": -4.199999999999999, "simulationMode": [null, null, null, null, null], "rewards": [1, -1, -7, 12, 56], "path": ["0", "0", "23", "24", "25", "30", "32"], "rt": [6088, 425, 65, 75, 95], "actions": ["left", "left", "left", "down", "down"], "actionTimes": [7410, 8325, 8883, 9460, 10062], "queries": {"click": {"state": {"target": ["5", "11", "32"], "time": [2205, 3789, 5321]}, "edge": {"target": [], "time": []}}, "mouseover": {"state": {"target": ["7", "4", "5", "8", "11", "32"], "time": [1670, 1749, 1869, 2685, 2856, 4352]}, "edge": {"target": [], "time": []}}, "mouseout": {"state": {"target": ["0", "7", "4", "5", "8", "11", "32"], "time": [1535, 1718, 1800, 2633, 2728, 4252, 5333]}, "edge": {"target": [], "time": []}}}, "displayed_time": "15.33", "trialTime": 16261, "trial_type": "mouselab-mdp", "trial_index": 35, "time_elapsed": 971140, "internal_node_id": "0.0-4.0-1.0-26.0"}}, {"uniqueid": "w75379115:a84393610", "current_trial": 36, "dateTime": 1691143144264, "trialdata": {"revealed_states": [], "clicked_states": ["20", "32", "29"], "num_clicks_accrued": [0, 0, 0, 0, 0, 0, 0, 0, 0, 0, 0, 0, 0], "stateRewards": ["", 1, -1, 8, -3, 38, 85, -20, -4, 8, 23, 73, 2, -4, 6, -13, 44, 7, -28, -11, -77, 45, -69, 1, -1, -7, -11, 75, -51, -87, 7, 36, -53, -26], "withholdReward": false, "trial_id": "mdp_trial_28", "block": "test", "trialIndex": 29, "score": 38.8, "costs": -4.199999999999999, "simulationMode": [null, null, null, null, null], "rewards": [1, -1, 8, -3, 38], "path": ["0", "0", "1", "2", "3", "4", "5"], "rt": [6724, 558, 208, 127, 119], "actions": ["up", "up", "up", "right", "up"], "actionTimes": [8050, 9115, 9815, 10434, 11061], "queries": {"click": {"state": {"target": ["20", "32", "29"], "time": [2324, 3973, 5656]}, "edge": {"target": [], "time": []}}, "mouseover": {"state": {"target": ["12", "20", "19", "32", "29", "24"], "time": [1506, 2072, 2695, 3077, 5265, 6411]}, "edge": {"target": [], "time": []}}, "mouseout": {"state": {"target": ["12", "20", "19", "32", "29", "24"], "time": [1525, 2674, 2718, 4916, 6340, 6434]}, "edge": {"target": [], "time": []}}}, "displayed_time": "15.33", "trialTime": 16057, "trial_type": "mouselab-mdp", "trial_index": 36, "time_elapsed": 987882, "internal_node_id": "0.0-4.0-1.0-27.0"}}, {"uniqueid": "w75379115:a84393610", "current_trial": 37, "dateTime": 1691143161562, "trialdata": {"revealed_states": [], "clicked_states": ["5", "9", "29"], "num_clicks_accrued": [0, 0, 0, 0, 0, 0, 0, 0, 0, 0, 0, 0, 0], "stateRewards": ["", 1, -1, 4, 5, -32, 18, 20, 6, -88, -74, 9, -2, 1, -2, -14, 34, -77, -38, -1, 80, -36, 73, 2, 3, -8, 10, -48, -73, -71, -11, -22, 20, 54], "withholdReward": false, "trial_id": "mdp_trial_29", "block": "test", "trialIndex": 30, "score": -98.2, "costs": -4.199999999999999, "simulationMode": [null, null, null, null, null], "rewards": [-2, 1, -2, -14, -77], "path": ["0", "0", "12", "13", "14", "15", "17"], "rt": [7310, 31, 24, 5, 683], "actions": ["right", "right", "right", "up", "right"], "actionTimes": [8714, 9246, 9788, 10288, 11481], "queries": {"click": {"state": {"target": ["5", "9", "29"], "time": [2585, 4383, 5993]}, "edge": {"target": [], "time": []}}, "mouseover": {"state": {"target": ["1", "1", "2", "3", "5", "9", "11", "26", "29", "26", "28", "11"], "time": [1519, 1696, 1849, 1916, 2283, 3063, 4783, 4889, 5335, 6767, 6817, 7450]}, "edge": {"target": [], "time": []}}, "mouseout": {"state": {"target": ["0", "1", "1", "2", "3", "5", "9", "11", "26", "29", "26", "28", "11", "4", "4", "6", "16", "18"], "time": [1516, 1549, 1832, 1866, 1946, 2978, 4765, 4802, 5080, 6732, 6799, 6837, 7584, 12899, 13148, 13182, 16217, 16298]}, "edge": {"target": [], "time": []}}}, "displayed_time": "15.41", "trialTime": 16629, "trial_type": "mouselab-mdp", "trial_index": 37, "time_elapsed": 1005181, "internal_node_id": "0.0-4.0-1.0-28.0"}}, {"uniqueid": "w75379115:a84393610", "current_trial": 38, "dateTime": 1691143179217, "trialdata": {"revealed_states": [], "clicked_states": ["17", "29", "9"], "num_clicks_accrued": [0, 0, 0, 0, 0, 0, 0, 0, 0, 0, 0, 0, 0], "stateRewards": ["", 1, 4, -4, 14, 35, 51, 19, -13, 54, 78, -74, -2, -1, -3, 13, -11, -42, -73, -15, -24, -3, -69, 2, -1, 5, 16, -27, 73, 58, 9, -60, 5, -60], "withholdReward": false, "trial_id": "mdp_trial_30", "block": "test", "trialIndex": 31, "score": 75.8, "costs": -4.199999999999999, "simulationMode": [null, null, null, null, null], "rewards": [2, -1, 5, 16, 58], "path": ["0", "0", "23", "24", "25", "26", "29"], "rt": [6756, 419, 88, 531, 49], "actions": ["left", "left", "left", "up", "left"], "actionTimes": [8196, 9110, 9716, 10739, 11331], "queries": {"click": {"state": {"target": ["17", "29", "9"], "time": [2327, 4073, 5744]}, "edge": {"target": [], "time": []}}, "mouseover": {"state": {"target": ["12", "15", "17", "1", "28", "26", "29", "30", "25", "3", "9", "11"], "time": [1570, 1906, 2007, 2707, 2748, 3002, 3139, 4756, 4778, 5157, 5375, 6759]}, "edge": {"target": [], "time": []}}, "mouseout": {"state": {"target": ["0", "12", "15", "17", "1", "28", "26", "29", "30", "25", "3", "9", "11", "28", "23"], "time": [1549, 1593, 1925, 2674, 2727, 2958, 3069, 4440, 4772, 4796, 5190, 6689, 6798, 16492, 16539]}, "edge": {"target": [], "time": []}}}, "displayed_time": "15.44", "trialTime": 16958, "trial_type": "mouselab-mdp", "trial_index": 38, "time_elapsed": 1022835, "internal_node_id": "0.0-4.0-1.0-29.0"}}, {"uniqueid": "w75379115:a84393610", "current_trial": 39, "dateTime": 1691143197696, "trialdata": {"revealed_states": [], "clicked_states": ["29", "32", "21"], "num_clicks_accrued": [0, 0, 0, 0, 0, 0, 0, 0, 0, 0, 0, 0, 0], "stateRewards": ["", -1, 1, -5, -6, -78, 47, -13, 12, 48, -88, 20, 2, -3, -2, 13, -20, 37, -57, 14, -38, 30, 31, -2, -2, 8, 2, -23, 78, 28, 12, -74, -88, 8], "withholdReward": false, "trial_id": "mdp_trial_31", "block": "test", "trialIndex": 32, "score": 36.8, "costs": -4.199999999999999, "simulationMode": [null, null, null, null, null], "rewards": [2, -3, -2, 14, 30], "path": ["0", "0", "12", "13", "14", "19", "21"], "rt": [6728, 7, 562, 111, 406], "actions": ["right", "right", "right", "down", "down"], "actionTimes": [9896, 10412, 11498, 12113, 13026], "queries": {"click": {"state": {"target": ["29", "32", "21"], "time": [4123, 5856, 7650]}, "edge": {"target": [], "time": []}}, "mouseover": {"state": {"target": ["23", "24", "26", "29", "33", "32", "21", "20"], "time": [3325, 3377, 3852, 3915, 4503, 4913, 6634, 8888]}, "edge": {"target": [], "time": []}}, "mouseout": {"state": {"target": ["23", "24", "26", "29", "33", "32", "21", "20", "19"], "time": [3374, 3400, 3869, 4403, 4886, 6235, 8786, 13618, 13667]}, "edge": {"target": [], "time": []}}}, "displayed_time": "17.17", "trialTime": 17798, "trial_type": "mouselab-mdp", "trial_index": 39, "time_elapsed": 1041315, "internal_node_id": "0.0-4.0-1.0-30.0"}}, {"uniqueid": "w75379115:a84393610", "current_trial": 40, "dateTime": 1691143252867, "trialdata": {"revealed_states": [], "clicked_states": ["19", "21", "32"], "num_clicks_accrued": [0, 0, 0, 0, 0, 0, 0, 0, 0, 0, 0, 0, 0], "stateRewards": ["", -1, 4, -5, 9, 29, -75, -42, -16, 24, -28, -41, 2, -3, 1, 10, 60, 47, 55, -1, -53, 22, -40, 2, -3, -6, 4, -26, 44, 54, 15, -76, 42, 14], "withholdReward": false, "trial_id": "mdp_trial_32", "block": "test", "trialIndex": 33, "score": 45.8, "costs": -4.199999999999999, "simulationMode": [null, null, null, null, null], "rewards": [2, -3, -6, 15, 42], "path": ["0", "0", "23", "24", "25", "30", "32"], "rt": [6778, 416, 148, 313, 153], "actions": ["left", "left", "left", "down", "down"], "actionTimes": [46462, 47425, 48076, 48884, 49557], "queries": {"click": {"state": {"target": ["19", "21", "32"], "time": [40827, 42775, 44358]}, "edge": {"target": [], "time": []}}, "mouseover": {"state": {"target": ["12", "13", "14", "19", "21", "30", "32"], "time": [40087, 40139, 40240, 40537, 41321, 43187, 43564]}, "edge": {"target": [], "time": []}}, "mouseout": {"state": {"target": ["0", "0", "12", "13", "14", "19", "21", "30", "32"], "time": [38985, 40057, 40105, 40170, 40287, 41276, 43088, 43421, 45456]}, "edge": {"target": [], "time": []}}}, "displayed_time": "53.69", "trialTime": 54451, "trial_type": "mouselab-mdp", "trial_index": 40, "time_elapsed": 1096486, "internal_node_id": "0.0-4.0-1.0-31.0"}}, {"uniqueid": "w75379115:a84393610", "current_trial": 41, "dateTime": 1691143270188, "trialdata": {"revealed_states": [], "clicked_states": ["20", "32", "9"], "num_clicks_accrued": [0, 0, 0, 0, 0, 0, 0, 0, 0, 0, 0, 0, 0], "stateRewards": ["", 1, 1, -2, 7, -31, -6, 76, 1, -36, -16, -53, 2, 1, 7, 13, -47, -10, 47, -7, 72, 46, -56, -2, -2, -2, 11, -80, 44, 38, 16, 67, 85, -78], "withholdReward": false, "trial_id": "mdp_trial_33", "block": "test", "trialIndex": 34, "score": 90.8, "costs": -4.199999999999999, "simulationMode": [null, null, null, null, null], "rewards": [-2, -2, -2, 16, 85], "path": ["0", "0", "23", "24", "25", "30", "32"], "rt": [6801, 104, 85, 7, 100], "actions": ["left", "left", "left", "down", "down"], "actionTimes": [8638, 9249, 9829, 10372, 10963], "queries": {"click": {"state": {"target": ["20", "32", "9"], "time": [2949, 4630, 6530]}, "edge": {"target": [], "time": []}}, "mouseover": {"state": {"target": ["19", "20", "22", "32", "0", "10", "8", "9", "8"], "time": [2596, 2695, 3346, 3679, 5610, 5909, 5959, 6262, 7211]}, "edge": {"target": [], "time": []}}, "mouseout": {"state": {"target": ["0", "19", "20", "22", "32", "0", "10", "8", "9", "8", "11", "10", "18", "12"], "time": [2244, 2646, 3326, 3362, 5277, 5629, 5929, 6011, 7179, 7245, 12378, 12696, 13127, 13762]}, "edge": {"target": [], "time": []}}}, "displayed_time": "15.85", "trialTime": 16610, "trial_type": "mouselab-mdp", "trial_index": 41, "time_elapsed": 1113806, "internal_node_id": "0.0-4.0-1.0-32.0"}}, {"uniqueid": "w75379115:a84393610", "current_trial": 42, "dateTime": 1691143286966, "trialdata": {"revealed_states": [], "clicked_states": ["32", "21", "17"], "num_clicks_accrued": [0, 0, 0, 0, 0, 0, 0, 0, 0, 0, 0, 0, 0], "stateRewards": ["", -1, -2, -8, 8, -27, -82, 19, -14, -62, 4, 1, -2, 2, 6, 10, 73, -51, -2, 2, 73, -48, 54, -1, 2, -4, 11, -25, 47, 86, 15, 33, 43, -42], "withholdReward": false, "trial_id": "mdp_trial_34", "block": "test", "trialIndex": 35, "score": 50.8, "costs": -4.199999999999999, "simulationMode": [null, null, null, null, null], "rewards": [-1, 2, -4, 15, 43], "path": ["0", "0", "23", "24", "25", "30", "32"], "rt": [7064, 451, 84, 15, 31], "actions": ["left", "left", "left", "down", "down"], "actionTimes": [8459, 9408, 9990, 10505, 11091], "queries": {"click": {"state": {"target": ["32", "21", "17"], "time": [2810, 4355, 6242]}, "edge": {"target": [], "time": []}}, "mouseover": {"state": {"target": ["23", "24", "25", "30", "32", "21", "19", "15", "16", "6", "16", "17", "16"], "time": [1499, 1556, 1907, 2454, 2523, 3623, 4890, 4927, 4946, 5291, 5580, 5930, 6923]}, "edge": {"target": [], "time": []}}, "mouseout": {"state": {"target": ["0", "23", "24", "25", "30", "32", "21", "19", "15", "16", "6", "16", "17", "16", "19"], "time": [858, 1521, 1876, 2421, 2487, 3206, 4873, 4905, 4942, 4965, 5508, 5763, 6254, 6939, 12705]}, "edge": {"target": [], "time": []}}}, "displayed_time": "15.40", "trialTime": 16048, "trial_type": "mouselab-mdp", "trial_index": 42, "time_elapsed": 1130584, "internal_node_id": "0.0-4.0-1.0-33.0"}}, {"uniqueid": "w75379115:a84393610", "current_trial": 43, "dateTime": 1691143305642, "trialdata": {"revealed_states": [], "clicked_states": ["9", "32", "21"], "num_clicks_accrued": [0, 0, 0, 0, 0, 0, 0, 0, 0, 0, 0, 0, 0], "stateRewards": ["", 2, 1, -3, 7, 46, 11, -36, 16, 71, 5, 1, 2, -2, -8, -3, -4, 6, 55, 7, 68, -54, 2, 1, 1, 6, -6, 42, -4, -84, -11, -65, 63, 25], "withholdReward": false, "trial_id": "mdp_trial_35", "block": "test", "trialIndex": 36, "score": 82.8, "costs": -4.199999999999999, "simulationMode": [null, null, null, null, null], "rewards": [2, 1, -3, 16, 71], "path": ["0", "0", "1", "2", "3", "8", "9"], "rt": [7172, 16, 218, 548, 33], "actions": ["up", "up", "up", "left", "up"], "actionTimes": [10436, 10956, 11690, 12740, 13275], "queries": {"click": {"state": {"target": ["9", "32", "21"], "time": [4129, 5993, 7878]}, "edge": {"target": [], "time": []}}, "mouseover": {"state": {"target": ["11", "9", "30", "32", "33", "21", "22", "22"], "time": [3658, 3858, 4522, 4735, 6595, 7291, 8624, 8889]}, "edge": {"target": [], "time": []}}, "mouseout": {"state": {"target": ["32", "31", "23", "11", "9", "30", "32", "33", "21", "22", "22"], "time": [523, 575, 1607, 3673, 4408, 4539, 6372, 6867, 8556, 8650, 8906]}, "edge": {"target": [], "time": []}}}, "displayed_time": "17.27", "trialTime": 18008, "trial_type": "mouselab-mdp", "trial_index": 43, "time_elapsed": 1149260, "internal_node_id": "0.0-4.0-1.0-34.0"}}, {"uniqueid": "w75379115:a84393610", "current_trial": 44, "dateTime": 1691143322646, "trialdata": {"revealed_states": [], "clicked_states": ["9", "32", "21"], "num_clicks_accrued": [0, 0, 0, 0, 0, 0, 0, 0, 0, 0, 0, 0, 0], "stateRewards": ["", -2, 2, 3, -7, 76, 63, 21, 15, 35, -8, -44, 1, 1, -2, -12, 23, 24, 76, -9, 46, 66, -49, -2, -1, 7, 12, 40, -71, -45, -6, 38, -49, 46], "withholdReward": false, "trial_id": "mdp_trial_36", "block": "test", "trialIndex": 37, "score": 52.8, "costs": -4.199999999999999, "simulationMode": [null, null, null, null, null], "rewards": [1, 1, -2, -9, 66], "path": ["0", "0", "12", "13", "14", "19", "21"], "rt": [7027, 42, 26, 474, 121], "actions": ["right", "right", "right", "down", "down"], "actionTimes": [8413, 8948, 9467, 10448, 11076], "queries": {"click": {"state": {"target": ["9", "32", "21"], "time": [2490, 4020, 5910]}, "edge": {"target": [], "time": []}}, "mouseover": {"state": {"target": ["1", "9", "8", "32", "21"], "time": [1856, 2206, 2780, 2938, 5123]}, "edge": {"target": [], "time": []}}, "mouseout": {"state": {"target": ["0", "1", "9", "8", "32", "21"], "time": [1822, 1874, 2759, 2798, 4725, 7173]}, "edge": {"target": [], "time": []}}}, "displayed_time": "15.39", "trialTime": 16310, "trial_type": "mouselab-mdp", "trial_index": 44, "time_elapsed": 1166264, "internal_node_id": "0.0-4.0-1.0-35.0"}}, {"uniqueid": "w75379115:a84393610", "current_trial": 45, "dateTime": 1691143340986, "trialdata": {"revealed_states": [], "clicked_states": ["17", "21", "32"], "num_clicks_accrued": [0, 0, 0, 0, 0, 0, 0, 0, 0, 0, 0, 0, 0], "stateRewards": ["", -1, 1, 6, -6, 70, 66, 67, -16, -75, -35, 37, -1, 4, 4, -6, 47, -9, 63, 15, 21, -63, 13, 1, 3, -6, 10, 79, -29, 18, -15, 9, -67, -19], "withholdReward": false, "trial_id": "mdp_trial_37", "block": "test", "trialIndex": 38, "score": 82.8, "costs": -4.199999999999999, "simulationMode": [null, null, null, null, null], "rewards": [1, 3, -6, 10, 79], "path": ["0", "0", "23", "24", "25", "26", "27"], "rt": [8409, 5, 77, 182, 236], "actions": ["left", "left", "left", "up", "up"], "actionTimes": [10874, 11373, 11961, 12633, 13372], "queries": {"click": {"state": {"target": ["17", "21", "32"], "time": [3573, 5404, 7188]}, "edge": {"target": [], "time": []}}, "mouseover": {"state": {"target": ["2", "12", "13", "14", "17", "21", "32", "32"], "time": [2786, 2851, 3083, 3119, 3251, 4285, 5835, 6351]}, "edge": {"target": [], "time": []}}, "mouseout": {"state": {"target": ["0", "2", "12", "13", "14", "17", "17", "21", "32", "32", "30", "33", "33", "30", "31"], "time": [2593, 2803, 3037, 3116, 3170, 3583, 3919, 5719, 6067, 7800, 14569, 14922, 16803, 16820, 16835]}, "edge": {"target": [], "time": []}}}, "displayed_time": "16.47", "trialTime": 17594, "trial_type": "mouselab-mdp", "trial_index": 45, "time_elapsed": 1184604, "internal_node_id": "0.0-4.0-1.0-36.0"}}, {"uniqueid": "w75379115:a84393610", "current_trial": 46, "dateTime": 1691143357808, "trialdata": {"revealed_states": [], "clicked_states": ["27", "17", "5"], "num_clicks_accrued": [0, 0, 0, 0, 0, 0, 0, 0, 0, 0, 0, 0, 0], "stateRewards": ["", 1, 4, 5, 8, -55, -11, 8, 16, -37, 77, -22, -2, 3, -8, -10, 45, 87, -67, 4, 17, -33, -22, -1, -3, 7, 6, -39, -85, 75, -1, 7, -48, 45], "withholdReward": false, "trial_id": "mdp_trial_38", "block": "test", "trialIndex": 39, "score": 65.8, "costs": -4.199999999999999, "simulationMode": [null, null, null, null, null], "rewards": [-2, 3, -8, -10, 87], "path": ["0", "0", "12", "13", "14", "15", "17"], "rt": [6991, 119, 93, 41, 14], "actions": ["right", "right", "right", "up", "right"], "actionTimes": [8395, 9007, 9597, 10144, 10667], "queries": {"click": {"state": {"target": ["27", "17", "5"], "time": [2274, 4256, 6290]}, "edge": {"target": [], "time": []}}, "mouseover": {"state": {"target": ["28", "28", "27", "10", "2", "17", "16", "5"], "time": [1551, 1787, 2005, 2751, 2778, 3170, 4642, 4964]}, "edge": {"target": [], "time": []}}, "mouseout": {"state": {"target": ["0", "28", "28", "27", "10", "2", "17", "16", "5", "5", "4"], "time": [801, 1670, 1837, 2704, 2771, 2792, 4638, 4703, 6301, 11688, 11736]}, "edge": {"target": [], "time": []}}}, "displayed_time": "15.41", "trialTime": 16199, "trial_type": "mouselab-mdp", "trial_index": 46, "time_elapsed": 1201426, "internal_node_id": "0.0-4.0-1.0-37.0"}}, {"uniqueid": "w75379115:a84393610", "current_trial": 47, "dateTime": 1691143375148, "trialdata": {"revealed_states": [], "clicked_states": ["17", "9", "32"], "num_clicks_accrued": [0, 0, 0, 0, 0, 0, 0, 0, 0, 0, 0, 0, 0], "stateRewards": ["", -1, 4, -3, 3, 57, -61, 5, -11, 23, -1, 34, -2, -4, -1, -13, 27, 38, -36, 4, -45, 21, 88, 1, -2, -1, 1, -69, -5, -78, -12, -9, 38, -54], "withholdReward": false, "trial_id": "mdp_trial_39", "block": "test", "trialIndex": 40, "score": 19.8, "costs": -4.199999999999999, "simulationMode": [null, null, null, null, null], "rewards": [1, -2, -1, -12, 38], "path": ["0", "0", "23", "24", "25", "30", "32"], "rt": [7232, 386, 127, 34, 75], "actions": ["left", "left", "left", "down", "down"], "actionTimes": [8710, 9589, 10212, 10754, 11344], "queries": {"click": {"state": {"target": ["17", "9", "32"], "time": [2225, 4006, 5657]}, "edge": {"target": [], "time": []}}, "mouseover": {"state": {"target": ["17", "15", "9", "28", "30", "32"], "time": [1969, 2502, 2871, 4455, 4518, 4771]}, "edge": {"target": [], "time": []}}, "mouseout": {"state": {"target": ["0", "17", "15", "9", "28", "30", "32"], "time": [1495, 2489, 2522, 4401, 4472, 4720, 6472]}, "edge": {"target": [], "time": []}}}, "displayed_time": "15.48", "trialTime": 16571, "trial_type": "mouselab-mdp", "trial_index": 47, "time_elapsed": 1218766, "internal_node_id": "0.0-4.0-1.0-38.0"}}, {"uniqueid": "w75379115:a84393610", "current_trial": 48, "dateTime": 1691143392294, "trialdata": {"revealed_states": [], "clicked_states": ["32", "17", "9"], "num_clicks_accrued": [0, 0, 0, 0, 0, 0, 0, 0, 0, 0, 0, 0, 0], "stateRewards": ["", 1, -2, -3, 14, -42, -87, -37, -11, -50, 33, -44, -2, 4, -7, 13, 48, -75, -66, 12, 23, -2, 82, 1, -4, 3, 12, 51, -15, -26, -11, -52, -29, 82], "withholdReward": false, "trial_id": "mdp_trial_40", "block": "test", "trialIndex": 41, "score": 25.8, "costs": -4.199999999999999, "simulationMode": [null, null, null, null, null], "rewards": [-2, 4, -7, 12, 23], "path": ["0", "0", "12", "13", "14", "19", "20"], "rt": [7587, 267, 51, 112, 63], "actions": ["right", "right", "right", "down", "right"], "actionTimes": [9095, 9865, 10418, 11045, 11611], "queries": {"click": {"state": {"target": ["32", "17", "9"], "time": [2484, 4417, 6419]}, "edge": {"target": [], "time": []}}, "mouseover": {"state": {"target": ["32", "31", "0", "15", "17", "4", "9", "2", "1", "0"], "time": [2214, 2863, 2899, 3214, 3283, 4902, 5549, 7102, 7415, 7483]}, "edge": {"target": [], "time": []}}, "mouseout": {"state": {"target": ["0", "32", "31", "0", "15", "17", "4", "9", "2", "1", "0", "23", "24"], "time": [1916, 2849, 2883, 2916, 3231, 4815, 4936, 7008, 7381, 7449, 7531, 12546, 12900]}, "edge": {"target": [], "time": []}}}, "displayed_time": "15.52", "trialTime": 16379, "trial_type": "mouselab-mdp", "trial_index": 48, "time_elapsed": 1235912, "internal_node_id": "0.0-4.0-1.0-39.0"}}, {"uniqueid": "w75379115:a84393610", "current_trial": 49, "dateTime": 1691143438598, "trialdata": {"rt": 46415, "response": {"Q0": "$-88 to $88", "Q1": "$-16 to $16", "Q2": "$-88 to $88", "Q3": "The cost was always $1.4.", "Q4": "Very motivated"}, "question_order": [0, 1, 2, 3, 4], "trial_id": "final_quiz_control", "trial_type": "survey-multi-choice", "trial_index": 49, "time_elapsed": 1282217, "internal_node_id": "0.0-4.0-2.0"}}, {"uniqueid": "w75379115:a84393610", "current_trial": 50, "dateTime": 1691143683874, "trialdata": {"rt": 245254, "response": {"Q0": "I would first use the note inspector to see 3 possible exit ways and choose the one with the green postive number", "Q1": "I did the first time I would use all three uses for the node inspector for one exit then I switched it around to use all 3 for 3 different exits.", "Q2": "Not difficult at times though I would get a huge - figure but as I played more I was able to get more money"}, "trial_id": "self_report_control", "trial_type": "survey-text", "trial_index": 50, "time_elapsed": 1527493, "internal_node_id": "0.0-4.0-3.0"}}, {"uniqueid": "w75379115:a84393610", "current_trial": 51, "dateTime": 1691143698974, "trialdata": {"rt": 15095, "response": {"gender": "female", "age": "23", "colorblind": "0", "effort": "0"}, "trial_type": "survey-html-form", "trial_index": 51, "time_elapsed": 1542593, "internal_node_id": "0.0-4.0-4.0"}}, {"uniqueid": "w75379115:a84393610", "current_trial": 52, "dateTime": 1691143721272, "trialdata": {"rt": 22290, "response": {"Q0": "No it was simpe", "Q1": "No this is my first time", "Q2": "None."}, "trial_type": "survey-text", "trial_index": 52, "time_elapsed": 1564891, "internal_node_id": "0.0-4.0-5.0"}}, {"uniqueid": "w75379115:a84393610", "current_trial": 53, "dateTime": 1691143723822, "trialdata": {"rt": 2545, "stimulus": "Press 'Finish HIT' in order to reach the completion code. Once the data has been saved, you will receive the code either in this window or in the original browser window where you started the experiment.\n", "response": 0, "trial_type": "html-button-response", "trial_index": 53, "time_elapsed": 1567441, "internal_node_id": "0.0-5.0"}}, {"uniqueid": "w75379115:a84393610", "current_trial": 54, "dateTime": 1691143724832, "trialdata": {"success": true, "trial_type": "fullscreen", "trial_index": 54, "time_elapsed": 1568451, "internal_node_id": "0.0-6.0"}}], "questiondata": {"params": {"CODE": "C6DMOQA6", "MIN_TIME": 14, "inspectCost": 1, "startTime": "Fri Aug 04 2023 11:42:34 GMT+0200 (South Africa Standard Time)", "bonusRate": 0.002, "variance": "1_2_4_8_44", "branching": "31123"}, "final_score": 1895.4}, "eventdata": [{"eventtype": "initialized", "value": null, "timestamp": 1691142153739, "interval": 0}, {"eventtype": "window_resize", "value": [1440, 815], "timestamp": 1691142153739, "interval": 0}, {"eventtype": "window_resize", "value": [1440, 815], "timestamp": 1691142154245, "interval": 506}, {"eventtype": "window_resize", "value": [1440, 900], "timestamp": 1691142164706, "interval": 10461}, {"eventtype": "focus", "value": "off", "timestamp": 1691143642398, "interval": 1477692}, {"eventtype": "focus", "value": "on", "timestamp": 1691143674217, "interval": 31819}, {"eventtype": "window_resize", "value": [1440, 815], "timestamp": 1691143724039, "interval": 49822}], "useragent": "Mozilla/5.0 (Macintosh; Intel Mac OS X 10_15_7) AppleWebKit/537.36 (KHTML, like Gecko) Chrome/115.0.0.0 Safari/537.36", "mode": "live", "id": "w75379115:a84393610", "status": "user data saved", "Beginhit": "2023-08-04 09:42:31.37814", "Beginexp": "2023-08-04 09:42:45.788763", "Endhit": "2023-08-04 10:08:46.578068", "psiturkStatus": 3, "browser": "<redacted>", "platform": "macos", "language": "en-GB"}