{"condition": 1, "counterbalance": 0, "assignmentId": "a26794754", "workerId": "w43005655", "hitId": "h73229307", "currenttrial": 19, "bonus": 0, "data": [{"uniqueid": "w43005655:a26794754", "current_trial": 0, "dateTime": 1693480515504, "trialdata": {"success": true, "trial_type": "fullscreen", "trial_index": 0, "time_elapsed": 3395, "internal_node_id": "0.0-0.0"}}, {"uniqueid": "w43005655:a26794754", "current_trial": 1, "dateTime": 1693480523098, "trialdata": {"view_history": [{"page_index": 0, "viewing_time": 7569}], "rt": 7570, "trial_id": "exp_instructions_misaligned", "trial_type": "instructions", "trial_index": 1, "time_elapsed": 10990, "internal_node_id": "0.0-1.0"}}, {"uniqueid": "w43005655:a26794754", "current_trial": 2, "dateTime": 1693480589501, "trialdata": {"view_history": [{"page_index": 0, "viewing_time": 18167}, {"page_index": 1, "viewing_time": 1200}, {"page_index": 0, "viewing_time": 5636}, {"page_index": 1, "viewing_time": 19994}, {"page_index": 2, "viewing_time": 6712}, {"page_index": 3, "viewing_time": 14691}], "rt": 66400, "trial_id": "mouselab_instructions_1_misaligned", "trial_type": "instructions", "trial_index": 2, "time_elapsed": 77393, "internal_node_id": "0.0-2.0-1.0"}}, {"uniqueid": "w43005655:a26794754", "current_trial": 3, "dateTime": 1693480607218, "trialdata": {"revealed_states": [], "clicked_states": [], "num_clicks_accrued": [0, 0, 0, 0, 0, 0, 0, 0, 0, 0, 0, 0, 0], "stateRewards": ["", -10, 10, 10, -10, -10, -10, 10, -10, 10, -10, -10, 10, -10, -10, -10, -10, -10, 10, -10, -10, 10, 10, -10, 10, -10, -10, -10, 10, -10, 10, -10, 10, 10], "withholdReward": false, "trial_id": "practice_1", "block": "test", "trialIndex": 0, "score": -26.5, "costs": 0, "simulationMode": [null, null, null, null, null], "rewards": [-10, 10, -10, -10, -10], "path": ["0", "0", "23", "24", "25", "26", "27"], "rt": [2695, 1932, 1031, 744, 480], "actions": ["left", "left", "left", "up", "up"], "actionTimes": [7345, 9797, 11342, 12609, 13605], "queries": {"click": {"state": {"target": [], "time": []}, "edge": {"target": [], "time": []}}, "mouseover": {"state": {"target": [], "time": []}, "edge": {"target": [], "time": []}}, "mouseout": {"state": {"target": ["7", "1", "0"], "time": [2124, 2157, 2191]}, "edge": {"target": [], "time": []}}}, "displayed_time": "14.15", "trialTime": 17177, "trial_type": "mouselab-mdp", "trial_index": 3, "time_elapsed": 95108, "internal_node_id": "0.0-2.0-2.0-0.0"}}, {"uniqueid": "w43005655:a26794754", "current_trial": 4, "dateTime": 1693480619428, "trialdata": {"revealed_states": [], "clicked_states": [], "num_clicks_accrued": [0, 0, 0, 0, 0, 0, 0, 0, 0, 0, 0, 0, 0], "stateRewards": ["", -10, -10, -10, -10, -10, 10, 10, -10, 10, -10, 10, -10, 10, 10, 10, 10, 10, -10, -10, -10, -10, -10, 10, 10, -10, 10, -10, 10, 10, 10, -10, 10, 10], "withholdReward": false, "trial_id": "practice_2", "block": "test", "trialIndex": 1, "score": -26.5, "costs": 0, "simulationMode": [null, null, null, null, null], "rewards": [-10, -10, -10, -10, 10], "path": ["0", "0", "1", "2", "3", "4", "6"], "rt": [1459, 195, 1042, 1379, 236], "actions": ["up", "up", "up", "right", "right"], "actionTimes": [3409, 4134, 5706, 7617, 8392], "queries": {"click": {"state": {"target": [], "time": []}, "edge": {"target": [], "time": []}}, "mouseover": {"state": {"target": [], "time": []}, "edge": {"target": [], "time": []}}, "mouseout": {"state": {"target": [], "time": []}, "edge": {"target": [], "time": []}}}, "displayed_time": "8.93", "trialTime": 11573, "trial_type": "mouselab-mdp", "trial_index": 4, "time_elapsed": 107319, "internal_node_id": "0.0-2.0-2.0-1.0"}}, {"uniqueid": "w43005655:a26794754", "current_trial": 5, "dateTime": 1693480630429, "trialdata": {"view_history": [{"page_index": 0, "viewing_time": 8537}, {"page_index": 1, "viewing_time": 2457}], "rt": 10994, "trial_id": "mouselab_instructions_2_misaligned", "trial_type": "instructions", "trial_index": 5, "time_elapsed": 118321, "internal_node_id": "0.0-2.0-3.0"}}, {"uniqueid": "w43005655:a26794754", "current_trial": 6, "dateTime": 1693480686056, "trialdata": {"rt": 55620, "response": {"Q0": "There is no cost for clicking on nodes.", "Q1": "The better I perform the higher my bonus will be.", "Q2": "Yes.", "Q3": "To get the highest total score.", "Q4": "Only before moving the spider.", "Q5": "3 seconds"}, "question_order": [0, 1, 2, 3, 4, 5], "correct": {"Q0": "The cost for clicking on nodes may vary between nodes.", "Q1": "The better I perform the higher my bonus will be.", "Q2": "No, the amount of cash at each node of the web may be different each time.", "Q3": "To get the highest total score.", "Q4": "Only before moving the spider.", "Q5": "3 seconds"}, "trial_id": "mouselab_quiz_misaligned", "trial_type": "survey-multi-choice", "trial_index": 6, "time_elapsed": 173948, "internal_node_id": "0.0-2.0-4.0"}}, {"uniqueid": "w43005655:a26794754", "current_trial": 7, "dateTime": 1693480693727, "trialdata": {"success": true, "trial_type": "fullscreen", "trial_index": 7, "time_elapsed": 181619, "internal_node_id": "0.0-2.1-0.1-0.1"}}, {"uniqueid": "w43005655:a26794754", "current_trial": 8, "dateTime": 1693480837254, "trialdata": {"view_history": [{"page_index": 0, "viewing_time": 58733}, {"page_index": 1, "viewing_time": 55942}, {"page_index": 2, "viewing_time": 14293}, {"page_index": 3, "viewing_time": 14554}], "rt": 143522, "trial_id": "mouselab_instructions_1_misaligned", "trial_type": "instructions", "trial_index": 8, "time_elapsed": 325146, "internal_node_id": "0.0-2.1-1.1"}}, {"uniqueid": "w43005655:a26794754", "current_trial": 9, "dateTime": 1693480848253, "trialdata": {"revealed_states": [], "clicked_states": [], "num_clicks_accrued": [0, 0, 0, 0, 0, 0, 0, 0, 0, 0, 0, 0, 0], "stateRewards": ["", -10, 10, 10, -10, -10, -10, 10, -10, 10, -10, -10, 10, -10, -10, -10, -10, -10, 10, -10, -10, 10, 10, -10, 10, -10, -10, -10, 10, -10, 10, -10, 10, 10], "withholdReward": false, "trial_id": "practice_1", "block": "test", "trialIndex": 2, "score": 13.5, "costs": 0, "simulationMode": [null, null, null, null, null], "rewards": [-10, 10, -10, 10, 10], "path": ["0", "0", "23", "24", "25", "30", "33"], "rt": [1101, 274, 71, 1349, 665], "actions": ["left", "left", "left", "down", "left"], "actionTimes": [3509, 4293, 4890, 6783, 7972], "queries": {"click": {"state": {"target": [], "time": []}, "edge": {"target": [], "time": []}}, "mouseover": {"state": {"target": [], "time": []}, "edge": {"target": [], "time": []}}, "mouseout": {"state": {"target": ["0"], "time": [1590]}, "edge": {"target": [], "time": []}}}, "displayed_time": "8.48", "trialTime": 10346, "trial_type": "mouselab-mdp", "trial_index": 9, "time_elapsed": 336143, "internal_node_id": "0.0-2.1-2.1-0.1"}}, {"uniqueid": "w43005655:a26794754", "current_trial": 10, "dateTime": 1693480856931, "trialdata": {"revealed_states": [], "clicked_states": [], "num_clicks_accrued": [0, 0, 0, 0, 0, 0, 0, 0, 0, 0, 0, 0, 0], "stateRewards": ["", -10, -10, -10, -10, -10, 10, 10, -10, 10, -10, 10, -10, 10, 10, 10, 10, 10, -10, -10, -10, -10, -10, 10, 10, -10, 10, -10, 10, 10, 10, -10, 10, 10], "withholdReward": false, "trial_id": "practice_2", "block": "test", "trialIndex": 3, "score": 13.5, "costs": 0, "simulationMode": [null, null, null, null, null], "rewards": [-10, 10, 10, 10, -10], "path": ["0", "0", "12", "13", "14", "15", "18"], "rt": [802, 386, 45, 246, 170], "actions": ["right", "right", "right", "up", "left"], "actionTimes": [3100, 3999, 4568, 5341, 6028], "queries": {"click": {"state": {"target": [], "time": []}, "edge": {"target": [], "time": []}}, "mouseover": {"state": {"target": [], "time": []}, "edge": {"target": [], "time": []}}, "mouseout": {"state": {"target": ["0"], "time": [1964]}, "edge": {"target": [], "time": []}}}, "displayed_time": "6.56", "trialTime": 7893, "trial_type": "mouselab-mdp", "trial_index": 10, "time_elapsed": 344819, "internal_node_id": "0.0-2.1-2.1-1.1"}}, {"uniqueid": "w43005655:a26794754", "current_trial": 11, "dateTime": 1693480885314, "trialdata": {"view_history": [{"page_index": 0, "viewing_time": 25483}, {"page_index": 1, "viewing_time": 2888}], "rt": 28372, "trial_id": "mouselab_instructions_2_misaligned", "trial_type": "instructions", "trial_index": 11, "time_elapsed": 373206, "internal_node_id": "0.0-2.1-3.1"}}, {"uniqueid": "w43005655:a26794754", "current_trial": 12, "dateTime": 1693480916104, "trialdata": {"rt": 30787, "response": {"Q0": "There is no cost for clicking on nodes.", "Q1": "The better I perform the higher my bonus will be.", "Q2": "No, the amount of cash at each node of the web may be different each time.", "Q3": "To get the highest total score.", "Q4": "Only before moving the spider.", "Q5": "3 seconds"}, "question_order": [0, 1, 2, 3, 4, 5], "correct": {"Q0": "The cost for clicking on nodes may vary between nodes.", "Q1": "The better I perform the higher my bonus will be.", "Q2": "No, the amount of cash at each node of the web may be different each time.", "Q3": "To get the highest total score.", "Q4": "Only before moving the spider.", "Q5": "3 seconds"}, "trial_id": "mouselab_quiz_misaligned", "trial_type": "survey-multi-choice", "trial_index": 12, "time_elapsed": 403996, "internal_node_id": "0.0-2.1-4.1"}}, {"uniqueid": "w43005655:a26794754", "current_trial": 13, "dateTime": 1693480925534, "trialdata": {"success": true, "trial_type": "fullscreen", "trial_index": 13, "time_elapsed": 413426, "internal_node_id": "0.0-2.2-0.2-0.2"}}, {"uniqueid": "w43005655:a26794754", "current_trial": 14, "dateTime": 1693480939009, "trialdata": {"view_history": [{"page_index": 0, "viewing_time": 3063}, {"page_index": 1, "viewing_time": 6695}, {"page_index": 2, "viewing_time": 2166}, {"page_index": 3, "viewing_time": 1546}], "rt": 13471, "trial_id": "mouselab_instructions_1_misaligned", "trial_type": "instructions", "trial_index": 14, "time_elapsed": 426901, "internal_node_id": "0.0-2.2-1.2"}}, {"uniqueid": "w43005655:a26794754", "current_trial": 15, "dateTime": 1693480950123, "trialdata": {"revealed_states": [], "clicked_states": [], "num_clicks_accrued": [0, 0, 0, 0, 0, 0, 0, 0, 0, 0, 0, 0, 0], "stateRewards": ["", -10, 10, 10, -10, -10, -10, 10, -10, 10, -10, -10, 10, -10, -10, -10, -10, -10, 10, -10, -10, 10, 10, -10, 10, -10, -10, -10, 10, -10, 10, -10, 10, 10], "withholdReward": false, "trial_id": "practice_1", "block": "test", "trialIndex": 4, "score": -6.5, "costs": 0, "simulationMode": [null, null, null, null, null], "rewards": [-10, 10, 10, -10, -10], "path": ["0", "0", "1", "2", "3", "8", "10"], "rt": [954, 327, 1031, 1086, 30], "actions": ["up", "up", "up", "left", "down"], "actionTimes": [3782, 4651, 6209, 7811, 8360], "queries": {"click": {"state": {"target": [], "time": []}, "edge": {"target": [], "time": []}}, "mouseover": {"state": {"target": [], "time": []}, "edge": {"target": [], "time": []}}, "mouseout": {"state": {"target": ["0"], "time": [1726]}, "edge": {"target": [], "time": []}}}, "displayed_time": "8.90", "trialTime": 10303, "trial_type": "mouselab-mdp", "trial_index": 15, "time_elapsed": 438013, "internal_node_id": "0.0-2.2-2.2-0.2"}}, {"uniqueid": "w43005655:a26794754", "current_trial": 16, "dateTime": 1693480958146, "trialdata": {"revealed_states": [], "clicked_states": [], "num_clicks_accrued": [0, 0, 0, 0, 0, 0, 0, 0, 0, 0, 0, 0, 0], "stateRewards": ["", -10, -10, -10, -10, -10, 10, 10, -10, 10, -10, 10, -10, 10, 10, 10, 10, 10, -10, -10, -10, -10, -10, 10, 10, -10, 10, -10, 10, 10, 10, -10, 10, 10], "withholdReward": false, "trial_id": "practice_2", "block": "test", "trialIndex": 5, "score": 13.5, "costs": 0, "simulationMode": [null, null, null, null, null], "rewards": [-10, 10, 10, 10, -10], "path": ["0", "0", "12", "13", "14", "15", "18"], "rt": [550, 161, 31, 64, 31], "actions": ["right", "right", "right", "up", "left"], "actionTimes": [3047, 3726, 4267, 4880, 5447], "queries": {"click": {"state": {"target": [], "time": []}, "edge": {"target": [], "time": []}}, "mouseover": {"state": {"target": [], "time": []}, "edge": {"target": [], "time": []}}, "mouseout": {"state": {"target": ["0", "12", "0"], "time": [584, 639, 1856]}, "edge": {"target": [], "time": []}}}, "displayed_time": "5.99", "trialTime": 7155, "trial_type": "mouselab-mdp", "trial_index": 16, "time_elapsed": 446036, "internal_node_id": "0.0-2.2-2.2-1.2"}}, {"uniqueid": "w43005655:a26794754", "current_trial": 17, "dateTime": 1693480962568, "trialdata": {"view_history": [{"page_index": 0, "viewing_time": 3207}, {"page_index": 1, "viewing_time": 1205}], "rt": 4413, "trial_id": "mouselab_instructions_2_misaligned", "trial_type": "instructions", "trial_index": 17, "time_elapsed": 450460, "internal_node_id": "0.0-2.2-3.2"}}, {"uniqueid": "w43005655:a26794754", "current_trial": 18, "dateTime": 1693480985638, "trialdata": {"rt": 23065, "response": {"Q0": "There is no cost for clicking on nodes.", "Q1": "The better I perform the higher my bonus will be.", "Q2": "No, the amount of cash at each node of the web may be different each time.", "Q3": "To get the highest total score.", "Q4": "Any time during the round.", "Q5": "3 seconds"}, "question_order": [0, 1, 2, 3, 4, 5], "correct": {"Q0": "The cost for clicking on nodes may vary between nodes.", "Q1": "The better I perform the higher my bonus will be.", "Q2": "No, the amount of cash at each node of the web may be different each time.", "Q3": "To get the highest total score.", "Q4": "Only before moving the spider.", "Q5": "3 seconds"}, "trial_id": "mouselab_quiz_misaligned", "trial_type": "survey-multi-choice", "trial_index": 18, "time_elapsed": 473530, "internal_node_id": "0.0-2.2-4.2"}}], "questiondata": {"params": {"CODE": "C6DMOQA6", "MIN_TIME": 14, "inspectCost": 1, "startTime": "Thu Aug 31 2023 12:15:11 GMT+0100 (British Summer Time)", "bonusRate": 0.002, "variance": "1_2_4_8_44", "branching": "31123"}}, "eventdata": [{"eventtype": "initialized", "value": null, "timestamp": 1693480510959, "interval": 0}, {"eventtype": "window_resize", "value": [1028, 778], "timestamp": 1693480510960, "interval": 1}, {"eventtype": "window_resize", "value": [1028, 778], "timestamp": 1693480511294, "interval": 334}, {"eventtype": "window_resize", "value": [1536, 864], "timestamp": 1693480514759, "interval": 3465}, {"eventtype": "focus", "value": "off", "timestamp": 1693480690553, "interval": 175794}, {"eventtype": "focus", "value": "on", "timestamp": 1693480690554, "interval": 1}, {"eventtype": "window_resize", "value": [1028, 778], "timestamp": 1693480690819, "interval": 265}, {"eventtype": "window_resize", "value": [1536, 864], "timestamp": 1693480692981, "interval": 2162}, {"eventtype": "focus", "value": "off", "timestamp": 1693480923095, "interval": 230114}, {"eventtype": "focus", "value": "on", "timestamp": 1693480923095, "interval": 0}, {"eventtype": "window_resize", "value": [1028, 778], "timestamp": 1693480923319, "interval": 224}, {"eventtype": "window_resize", "value": [1536, 864], "timestamp": 1693480924810, "interval": 1491}, {"eventtype": "focus", "value": "off", "timestamp": 1693480987918, "interval": 63108}, {"eventtype": "focus", "value": "on", "timestamp": 1693480987918, "interval": 0}, {"eventtype": "window_resize", "value": [1028, 778], "timestamp": 1693480988135, "interval": 217}], "useragent": "Mozilla/5.0 (Windows NT 10.0; Win64; x64) AppleWebKit/537.36 (KHTML, like Gecko) Chrome/116.0.0.0 Safari/537.36", "mode": "live", "id": "w43005655:a26794754", "status": "user data saved", "Beginhit": "2023-08-31 11:15:06.828717", "Beginexp": "2023-08-31 11:15:12.711172", "Endhit": null, "psiturkStatus": 6, "browser": "<redacted>", "platform": "windows", "language": "en-GB", "excludeReason": "quizfail"}