{"condition": 1, "counterbalance": 0, "assignmentId": "a87289227", "workerId": "w70964388", "hitId": "h68468450", "currenttrial": 56, "bonus": 0, "data": [{"uniqueid": "w70964388:a87289227", "current_trial": 0, "dateTime": 1693481289913, "trialdata": {"success": true, "trial_type": "fullscreen", "trial_index": 0, "time_elapsed": 4370, "internal_node_id": "0.0-0.0"}}, {"uniqueid": "w70964388:a87289227", "current_trial": 1, "dateTime": 1693481319674, "trialdata": {"view_history": [{"page_index": 0, "viewing_time": 29745}], "rt": 29748, "trial_id": "exp_instructions_misaligned", "trial_type": "instructions", "trial_index": 1, "time_elapsed": 34131, "internal_node_id": "0.0-1.0"}}, {"uniqueid": "w70964388:a87289227", "current_trial": 2, "dateTime": 1693481970103, "trialdata": {"view_history": [{"page_index": 0, "viewing_time": 105758}, {"page_index": 1, "viewing_time": 456505}, {"page_index": 2, "viewing_time": 33783}, {"page_index": 3, "viewing_time": 54369}], "rt": 650419, "trial_id": "mouselab_instructions_1_misaligned", "trial_type": "instructions", "trial_index": 2, "time_elapsed": 684559, "internal_node_id": "0.0-2.0-1.0"}}, {"uniqueid": "w70964388:a87289227", "current_trial": 3, "dateTime": 1693481995344, "trialdata": {"revealed_states": [], "clicked_states": ["1", "2", "10", "8"], "num_clicks_accrued": [0, 0, 0, 0, 0, 0, 0, 0, 0, 0, 0, 0, 0], "stateRewards": ["", -10, 10, -10, 10, 10, -10, -10, -10, -10, 10, 10, -10, -10, 10, 10, 10, 10, -10, -10, 10, -10, 10, -10, -10, -10, -10, -10, 10, -10, 10, -10, -10, -10], "withholdReward": false, "trial_id": "practice_1", "block": "test", "trialIndex": 0, "score": -28.5, "costs": -2, "simulationMode": [null, null, null, null, null], "rewards": [-10, 10, -10, -10, -10], "path": ["0", "0", "1", "2", "3", "8", "9"], "rt": [10967, 349, 2083, 313, 150], "actions": ["up", "up", "up", "left", "up"], "actionTimes": [12935, 13786, 16386, 17199, 17852], "queries": {"click": {"state": {"target": ["1", "2", "10", "8"], "time": [3810, 5595, 8016, 10009]}, "edge": {"target": [], "time": []}}, "mouseover": {"state": {"target": ["1", "2", "10", "8", "3", "2"], "time": [3273, 4971, 7533, 9000, 10668, 10767]}, "edge": {"target": [], "time": []}}, "mouseout": {"state": {"target": ["0", "0", "1", "2", "10", "8", "8", "3", "2", "1", "0", "23"], "time": [1017, 3073, 4518, 7418, 8884, 10215, 10634, 10684, 10884, 23221, 23251, 23827]}, "edge": {"target": [], "time": []}}}, "displayed_time": "18.37", "trialTime": 24389, "trial_type": "mouselab-mdp", "trial_index": 3, "time_elapsed": 709798, "internal_node_id": "0.0-2.0-2.0-0.0"}}, {"uniqueid": "w70964388:a87289227", "current_trial": 4, "dateTime": 1693482014266, "trialdata": {"revealed_states": [], "clicked_states": ["23", "13"], "num_clicks_accrued": [0, 0, 0, 0, 0, 0, 0, 0, 0, 0, 0, 0, 0], "stateRewards": ["", -10, -10, 10, -10, -10, -10, 10, 10, -10, -10, -10, -10, -10, 10, 10, -10, -10, -10, -10, 10, -10, -10, -10, 10, 10, 10, -10, -10, -10, -10, 10, 10, -10], "withholdReward": false, "trial_id": "practice_2", "block": "test", "trialIndex": 1, "score": -27.5, "costs": -1, "simulationMode": [null, null, null, null, null], "rewards": [-10, -10, 10, -10, -10], "path": ["0", "0", "1", "2", "3", "4", "5"], "rt": [5020, 537, 280, 128, 69], "actions": ["up", "up", "up", "right", "up"], "actionTimes": [9899, 10949, 11724, 12373, 12962], "queries": {"click": {"state": {"target": ["23", "13"], "time": [6360, 8045]}, "edge": {"target": [], "time": []}}, "mouseover": {"state": {"target": ["23", "13"], "time": [5659, 7579]}, "edge": {"target": [], "time": []}}, "mouseout": {"state": {"target": ["0", "0", "23"], "time": [4061, 5610, 7227]}, "edge": {"target": [], "time": []}}}, "displayed_time": "13.46", "trialTime": 18569, "trial_type": "mouselab-mdp", "trial_index": 4, "time_elapsed": 728721, "internal_node_id": "0.0-2.0-2.0-1.0"}}, {"uniqueid": "w70964388:a87289227", "current_trial": 5, "dateTime": 1693482067778, "trialdata": {"view_history": [{"page_index": 0, "viewing_time": 34298}, {"page_index": 1, "viewing_time": 19204}], "rt": 53503, "trial_id": "mouselab_instructions_2_misaligned", "trial_type": "instructions", "trial_index": 5, "time_elapsed": 782235, "internal_node_id": "0.0-2.0-3.0"}}, {"uniqueid": "w70964388:a87289227", "current_trial": 6, "dateTime": 1693482138592, "trialdata": {"rt": 70801, "response": {"Q0": "The cost for clicking on nodes may vary between nodes.", "Q1": "The better I perform the higher my bonus will be.", "Q2": "No, the amount of cash at each node of the web may be different each time.", "Q3": "To get the highest total score.", "Q4": "Only before moving the spider.", "Q5": "3 seconds"}, "question_order": [0, 1, 2, 3, 4, 5], "correct": {"Q0": "The cost for clicking on nodes may vary between nodes.", "Q1": "The better I perform the higher my bonus will be.", "Q2": "No, the amount of cash at each node of the web may be different each time.", "Q3": "To get the highest total score.", "Q4": "Only before moving the spider.", "Q5": "3 seconds"}, "trial_id": "mouselab_quiz_misaligned", "trial_type": "survey-multi-choice", "trial_index": 6, "time_elapsed": 853049, "internal_node_id": "0.0-2.0-4.0"}}, {"uniqueid": "w70964388:a87289227", "current_trial": 7, "dateTime": 1693482154385, "trialdata": {"rt": 15773, "response": {"Q0": "No"}, "question_order": [0], "trial_id": "repeat_check", "trial_type": "survey-multi-choice", "trial_index": 7, "time_elapsed": 868840, "internal_node_id": "0.0-4.0-0.0"}}, {"uniqueid": "w70964388:a87289227", "current_trial": 8, "dateTime": 1693482158962, "trialdata": {"rt": 4562, "stimulus": "\n<h1> Get ready to start the game! </h1>\n\nThank you for reading the instructions. Get ready start with the 40 rounds of this game.\n<br><br>\nIf you need to take a break, feel free to take one after the end of a round, before continuing to the next one.\n<br><br>\nRemember, the more money the spider gets, the bigger your bonus will be!\n<br><br>\n<div style='text-align: center;'>Press <code>space</code> to begin.</div>\n\n<br><br>\n(If, at any point, the <code>space</code> key does not take you to the next page, click once on the text and try again.)", "response": " ", "trial_id": "mdp_ready", "trial_type": "html-keyboard-response", "trial_index": 8, "time_elapsed": 873419, "internal_node_id": "0.0-6.0-0.0"}}, {"uniqueid": "w70964388:a87289227", "current_trial": 9, "dateTime": 1693482178294, "trialdata": {"revealed_states": [], "clicked_states": ["24", "13", "2"], "num_clicks_accrued": [0, 0, 0, 0, 0, 0, 0, 0, 0, 0, 0, 0, 0], "stateRewards": ["", -2, -4, -6, 12, -58, -70, -80, 2, 16, -88, -62, 1, 2, -5, 11, 77, -35, -44, -5, 18, -83, 87, 1, -3, -5, 13, -44, -21, -86, 10, -52, 8, 29], "withholdReward": false, "trial_id": "mdp_trial_1", "block": "test", "trialIndex": 2, "score": -91.05, "costs": -1.0499999999999998, "simulationMode": [null, null, null, null, null], "rewards": [1, 2, -5, -5, -83], "path": ["0", "0", "12", "13", "14", "19", "21"], "rt": [7712, 140, 256, 17, 130], "actions": ["right", "right", "right", "down", "down"], "actionTimes": [9902, 10550, 11299, 11827, 12472], "queries": {"click": {"state": {"target": ["24", "13", "2"], "time": [4002, 5709, 7609]}, "edge": {"target": [], "time": []}}, "mouseover": {"state": {"target": ["23", "24", "23", "13", "7", "2", "2"], "time": [2993, 3493, 4874, 5208, 6658, 6724, 7148]}, "edge": {"target": [], "time": []}}, "mouseout": {"state": {"target": ["23", "24", "23", "13", "7", "2", "2", "8"], "time": [3312, 4841, 4895, 6425, 6674, 6757, 15447, 15507]}, "edge": {"target": [], "time": []}}}, "displayed_time": "16.19", "trialTime": 19008, "trial_type": "mouselab-mdp", "trial_index": 9, "time_elapsed": 892750, "internal_node_id": "0.0-6.0-1.0-0.0"}}, {"uniqueid": "w70964388:a87289227", "current_trial": 10, "dateTime": 1693482198900, "trialdata": {"revealed_states": [], "clicked_states": [], "num_clicks_accrued": [0, 0, 0, 0, 0, 0, 0, 0, 0, 0, 0, 0, 0], "stateRewards": ["", -1, -4, -1, -5, -28, -23, -15, -15, -38, 59, -87, 2, 2, -5, 9, -55, -39, -71, -6, 85, -85, -11, -1, -2, 5, -10, 1, 25, 41, -4, 69, -35, 86], "withholdReward": false, "trial_id": "mdp_trial_2", "block": "test", "trialIndex": 3, "score": -39, "costs": 0, "simulationMode": [null, null, null, null, null], "rewards": [-1, -4, -1, -5, -28], "path": ["0", "0", "1", "2", "3", "4", "5"], "rt": [2177, 138, 223, 63, 48], "actions": ["up", "up", "up", "right", "up"], "actionTimes": [4879, 5556, 6277, 6833, 7400], "queries": {"click": {"state": {"target": [], "time": []}, "edge": {"target": [], "time": []}}, "mouseover": {"state": {"target": [], "time": []}, "edge": {"target": [], "time": []}}, "mouseout": {"state": {"target": ["0", "0"], "time": [1666, 10385]}, "edge": {"target": [], "time": []}}}, "displayed_time": "16.70", "trialTime": 20289, "trial_type": "mouselab-mdp", "trial_index": 10, "time_elapsed": 913355, "internal_node_id": "0.0-6.0-1.0-1.0"}}, {"uniqueid": "w70964388:a87289227", "current_trial": 11, "dateTime": 1693482219834, "trialdata": {"revealed_states": [], "clicked_states": [], "num_clicks_accrued": [0, 0, 0, 0, 0, 0, 0, 0, 0, 0, 0, 0, 0], "stateRewards": ["", -2, -1, 3, -3, 71, -58, -21, 7, -10, -75, -37, 2, 4, -1, -12, -79, -29, -48, 3, -41, -10, -30, -1, -2, 1, -15, 13, 66, 22, -1, -42, -86, -55], "withholdReward": false, "trial_id": "mdp_trial_3", "block": "test", "trialIndex": 4, "score": -89, "costs": 0, "simulationMode": [null, null, null, null, null], "rewards": [-1, -2, 1, -1, -86], "path": ["0", "0", "23", "24", "25", "30", "32"], "rt": [2111, 258, 321, 306, 1112], "actions": ["left", "left", "left", "down", "down"], "actionTimes": [3823, 4572, 5402, 6206, 7813], "queries": {"click": {"state": {"target": [], "time": []}, "edge": {"target": [], "time": []}}, "mouseover": {"state": {"target": [], "time": []}, "edge": {"target": [], "time": []}}, "mouseout": {"state": {"target": ["0", "23", "24", "25", "30", "33", "30", "23"], "time": [13448, 13981, 14434, 14882, 15346, 16048, 16611, 18463]}, "edge": {"target": [], "time": []}}}, "displayed_time": "15.71", "trialTime": 20604, "trial_type": "mouselab-mdp", "trial_index": 11, "time_elapsed": 934291, "internal_node_id": "0.0-6.0-1.0-2.0"}}, {"uniqueid": "w70964388:a87289227", "current_trial": 12, "dateTime": 1693482252564, "trialdata": {"revealed_states": [], "clicked_states": ["16", "21", "27", "33", "9"], "num_clicks_accrued": [0, 0, 0, 0, 0, 0, 0, 0, 0, 0, 0, 0, 0], "stateRewards": ["", 2, 3, 6, -5, -74, -53, 17, -12, 46, 44, 18, -2, 4, 1, -8, 22, -23, -49, 9, -45, 55, 81, 1, -1, -7, -16, -83, -71, -45, 2, 51, 82, 61], "withholdReward": false, "trial_id": "mdp_trial_4", "block": "test", "trialIndex": 5, "score": -104.75, "costs": -10.75, "simulationMode": [null, null, null, null, null], "rewards": [1, -1, -7, -16, -71], "path": ["0", "0", "23", "24", "25", "26", "28"], "rt": [21149, 197, 234, 95, 101], "actions": ["left", "left", "left", "up", "right"], "actionTimes": [22858, 23575, 24329, 24923, 25527], "queries": {"click": {"state": {"target": ["16", "21", "27", "33", "9"], "time": [3075, 6064, 9582, 14558, 18749]}, "edge": {"target": [], "time": []}}, "mouseover": {"state": {"target": ["16", "16", "15", "19", "21", "23", "26", "27", "29", "33", "9", "5", "4"], "time": [2376, 2693, 3709, 3876, 4375, 7308, 7414, 7864, 10824, 11190, 17003, 19666, 19778]}, "edge": {"target": [], "time": []}}, "mouseout": {"state": {"target": ["23", "16", "16", "15", "19", "21", "23", "26", "27", "29", "33", "9", "5", "4"], "time": [563, 2424, 3691, 3741, 4092, 7241, 7325, 7792, 10674, 10957, 16542, 19409, 19728, 19792]}, "edge": {"target": [], "time": []}}}, "displayed_time": "26.05", "trialTime": 32410, "trial_type": "mouselab-mdp", "trial_index": 12, "time_elapsed": 967020, "internal_node_id": "0.0-6.0-1.0-3.0"}}, {"uniqueid": "w70964388:a87289227", "current_trial": 13, "dateTime": 1693482271721, "trialdata": {"revealed_states": [], "clicked_states": [], "num_clicks_accrued": [0, 0, 0, 0, 0, 0, 0, 0, 0, 0, 0, 0, 0], "stateRewards": ["", 1, 1, -5, 8, -6, 45, 16, -6, -7, -22, -38, -1, -4, 8, -11, -16, 21, -45, -15, -59, -32, 42, -1, 3, 6, 11, -7, 34, -27, -8, 85, 43, -9], "withholdReward": false, "trial_id": "mdp_trial_5", "block": "test", "trialIndex": 6, "score": -71, "costs": 0, "simulationMode": [null, null, null, null, null], "rewards": [-1, -4, 8, -15, -59], "path": ["0", "0", "12", "13", "14", "19", "20"], "rt": [1318, 92, 114, 77, 25], "actions": ["right", "right", "right", "down", "right"], "actionTimes": [4255, 4839, 5445, 6042, 6571], "queries": {"click": {"state": {"target": [], "time": []}, "edge": {"target": [], "time": []}}, "mouseover": {"state": {"target": [], "time": []}, "edge": {"target": [], "time": []}}, "mouseout": {"state": {"target": ["8", "2", "0"], "time": [1932, 1977, 8197]}, "edge": {"target": [], "time": []}}}, "displayed_time": "16.94", "trialTime": 18821, "trial_type": "mouselab-mdp", "trial_index": 13, "time_elapsed": 986176, "internal_node_id": "0.0-6.0-1.0-4.0"}}, {"uniqueid": "w70964388:a87289227", "current_trial": 14, "dateTime": 1693482292844, "trialdata": {"revealed_states": [], "clicked_states": [], "num_clicks_accrued": [0, 0, 0, 0, 0, 0, 0, 0, 0, 0, 0, 0, 0], "stateRewards": ["", 2, 3, 6, -12, -29, 12, 87, 4, 35, -30, 67, 2, 3, -5, -9, 44, 69, -8, 1, 45, -8, 28, -2, -1, -8, 11, -12, -5, 81, 9, 87, 82, 88], "withholdReward": false, "trial_id": "mdp_trial_6", "block": "test", "trialIndex": 7, "score": 50, "costs": 0, "simulationMode": [null, null, null, null, null], "rewards": [2, 3, 6, 4, 35], "path": ["0", "0", "1", "2", "3", "8", "9"], "rt": [4846, 332, 442, 124, 150], "actions": ["up", "up", "up", "left", "up"], "actionTimes": [6716, 7548, 8491, 9121, 9765], "queries": {"click": {"state": {"target": [], "time": []}, "edge": {"target": [], "time": []}}, "mouseover": {"state": {"target": [], "time": []}, "edge": {"target": [], "time": []}}, "mouseout": {"state": {"target": ["0"], "time": [2463]}, "edge": {"target": [], "time": []}}}, "displayed_time": "15.87", "trialTime": 20792, "trial_type": "mouselab-mdp", "trial_index": 14, "time_elapsed": 1007299, "internal_node_id": "0.0-6.0-1.0-5.0"}}, {"uniqueid": "w70964388:a87289227", "current_trial": 15, "dateTime": 1693482313127, "trialdata": {"revealed_states": [], "clicked_states": [], "num_clicks_accrued": [0, 0, 0, 0, 0, 0, 0, 0, 0, 0, 0, 0, 0], "stateRewards": ["", 2, 4, -5, 7, 81, 35, 6, 11, 14, -72, 42, -1, 2, 3, -7, -77, -44, -40, -15, -85, 51, -32, -2, -1, -5, 7, -74, 47, 52, 16, -49, 48, -46], "withholdReward": false, "trial_id": "mdp_trial_7", "block": "test", "trialIndex": 8, "score": 26, "costs": 0, "simulationMode": [null, null, null, null, null], "rewards": [2, 4, -5, 11, 14], "path": ["0", "0", "1", "2", "3", "8", "9"], "rt": [6079, 1027, 143, 1, 171], "actions": ["up", "up", "up", "left", "up"], "actionTimes": [8112, 9637, 10302, 10794, 11498], "queries": {"click": {"state": {"target": [], "time": []}, "edge": {"target": [], "time": []}}, "mouseover": {"state": {"target": [], "time": []}, "edge": {"target": [], "time": []}}, "mouseout": {"state": {"target": ["0"], "time": [6207]}, "edge": {"target": [], "time": []}}}, "displayed_time": "16.03", "trialTime": 19955, "trial_type": "mouselab-mdp", "trial_index": 15, "time_elapsed": 1027583, "internal_node_id": "0.0-6.0-1.0-6.0"}}, {"uniqueid": "w70964388:a87289227", "current_trial": 16, "dateTime": 1693482331662, "trialdata": {"revealed_states": [], "clicked_states": [], "num_clicks_accrued": [0, 0, 0, 0, 0, 0, 0, 0, 0, 0, 0, 0, 0], "stateRewards": ["", -1, 4, -3, 3, 57, -61, 5, -11, 23, -1, 34, -2, -4, -1, -13, 27, 38, -36, 4, -45, 21, 88, 1, -2, -1, 1, -69, -5, -78, -12, -9, 38, -54], "withholdReward": false, "trial_id": "mdp_trial_8", "block": "test", "trialIndex": 9, "score": 23, "costs": 0, "simulationMode": [null, null, null, null, null], "rewards": [-1, 4, -3, -11, 34], "path": ["0", "0", "1", "2", "3", "8", "11"], "rt": [4968, 266, 185, 112, 228], "actions": ["up", "up", "up", "left", "left"], "actionTimes": [7028, 7811, 8514, 9123, 9858], "queries": {"click": {"state": {"target": [], "time": []}, "edge": {"target": [], "time": []}}, "mouseover": {"state": {"target": [], "time": []}, "edge": {"target": [], "time": []}}, "mouseout": {"state": {"target": [], "time": []}, "edge": {"target": [], "time": []}}}, "displayed_time": "16.06", "trialTime": 18208, "trial_type": "mouselab-mdp", "trial_index": 16, "time_elapsed": 1046119, "internal_node_id": "0.0-6.0-1.0-7.0"}}, {"uniqueid": "w70964388:a87289227", "current_trial": 17, "dateTime": 1693482348995, "trialdata": {"revealed_states": [], "clicked_states": [], "num_clicks_accrued": [0, 0, 0, 0, 0, 0, 0, 0, 0, 0, 0, 0, 0], "stateRewards": ["", 1, -3, -4, -11, -56, 61, -47, -16, -28, -9, 69, -2, -3, -4, -8, 40, -86, 59, -4, 80, 27, 54, -1, 3, -1, 8, 67, 23, 50, 6, 83, -43, -29], "withholdReward": false, "trial_id": "mdp_trial_9", "block": "test", "trialIndex": 10, "score": -73, "costs": 0, "simulationMode": [null, null, null, null, null], "rewards": [1, -3, -4, -11, -56], "path": ["0", "0", "1", "2", "3", "4", "5"], "rt": [1498, 136, 218, 55, 178], "actions": ["up", "up", "up", "right", "up"], "actionTimes": [3202, 3831, 4547, 5099, 5788], "queries": {"click": {"state": {"target": [], "time": []}, "edge": {"target": [], "time": []}}, "mouseover": {"state": {"target": [], "time": []}, "edge": {"target": [], "time": []}}, "mouseout": {"state": {"target": ["0"], "time": [15059]}, "edge": {"target": [], "time": []}}}, "displayed_time": "15.72", "trialTime": 17004, "trial_type": "mouselab-mdp", "trial_index": 17, "time_elapsed": 1063451, "internal_node_id": "0.0-6.0-1.0-8.0"}}, {"uniqueid": "w70964388:a87289227", "current_trial": 18, "dateTime": 1693482367898, "trialdata": {"revealed_states": [], "clicked_states": [], "num_clicks_accrued": [0, 0, 0, 0, 0, 0, 0, 0, 0, 0, 0, 0, 0], "stateRewards": ["", 2, 4, -3, 16, -58, 30, -35, 11, -60, 47, 27, -2, -1, -7, -16, 23, -70, 68, -10, -65, -43, -34, -2, 1, 7, 9, -63, 34, -31, -8, -12, -86, 59], "withholdReward": false, "trial_id": "mdp_trial_10", "block": "test", "trialIndex": 11, "score": 41, "costs": 0, "simulationMode": [null, null, null, null, null], "rewards": [2, 4, -3, 11, 27], "path": ["0", "0", "1", "2", "3", "8", "11"], "rt": [958, 318, 267, 59, 197], "actions": ["up", "up", "up", "left", "left"], "actionTimes": [3161, 3978, 4743, 5320, 6039], "queries": {"click": {"state": {"target": [], "time": []}, "edge": {"target": [], "time": []}}, "mouseover": {"state": {"target": [], "time": []}, "edge": {"target": [], "time": []}}, "mouseout": {"state": {"target": ["0"], "time": [7258]}, "edge": {"target": [], "time": []}}}, "displayed_time": "16.21", "trialTime": 18572, "trial_type": "mouselab-mdp", "trial_index": 18, "time_elapsed": 1082354, "internal_node_id": "0.0-6.0-1.0-9.0"}}, {"uniqueid": "w70964388:a87289227", "current_trial": 19, "dateTime": 1693482387291, "trialdata": {"revealed_states": [], "clicked_states": [], "num_clicks_accrued": [0, 0, 0, 0, 0, 0, 0, 0, 0, 0, 0, 0, 0], "stateRewards": ["", 1, 1, 6, -14, -40, 37, 16, -13, 33, -68, 49, 2, 4, 3, 6, 55, 27, 32, 10, -65, 20, -87, 2, 1, -6, -5, -42, 12, 29, -8, 16, 76, -33], "withholdReward": false, "trial_id": "mdp_trial_11", "block": "test", "trialIndex": 12, "score": -73, "costs": 0, "simulationMode": [null, null, null, null, null], "rewards": [1, 1, 6, -13, -68], "path": ["0", "0", "1", "2", "3", "8", "10"], "rt": [825, 624, 261, 52, 93], "actions": ["up", "up", "up", "left", "down"], "actionTimes": [2374, 3491, 4245, 4801, 5407], "queries": {"click": {"state": {"target": [], "time": []}, "edge": {"target": [], "time": []}}, "mouseover": {"state": {"target": [], "time": []}, "edge": {"target": [], "time": []}}, "mouseout": {"state": {"target": [], "time": []}, "edge": {"target": [], "time": []}}}, "displayed_time": "15.55", "trialTime": 19054, "trial_type": "mouselab-mdp", "trial_index": 19, "time_elapsed": 1101746, "internal_node_id": "0.0-6.0-1.0-10.0"}}, {"uniqueid": "w70964388:a87289227", "current_trial": 20, "dateTime": 1693482412818, "trialdata": {"revealed_states": [], "clicked_states": [], "num_clicks_accrued": [0, 0, 0, 0, 0, 0, 0, 0, 0, 0, 0, 0, 0], "stateRewards": ["", -2, -1, -4, -15, -14, -67, 32, -3, -59, 63, 31, 2, -1, -7, -15, 71, -66, -27, -3, -54, -39, 72, 2, 1, 1, -13, 77, -40, 35, -9, 35, 75, 57], "withholdReward": false, "trial_id": "mdp_trial_12", "block": "test", "trialIndex": 13, "score": -69, "costs": 0, "simulationMode": [null, null, null, null, null], "rewards": [-2, -1, -4, -3, -59], "path": ["0", "0", "1", "2", "3", "8", "9"], "rt": [1214, 83, 339, 2, 130], "actions": ["up", "up", "up", "left", "up"], "actionTimes": [2783, 3369, 4224, 4724, 5366], "queries": {"click": {"state": {"target": [], "time": []}, "edge": {"target": [], "time": []}}, "mouseover": {"state": {"target": [], "time": []}, "edge": {"target": [], "time": []}}, "mouseout": {"state": {"target": [], "time": []}, "edge": {"target": [], "time": []}}}, "displayed_time": "15.57", "trialTime": 25186, "trial_type": "mouselab-mdp", "trial_index": 20, "time_elapsed": 1127274, "internal_node_id": "0.0-6.0-1.0-11.0"}}, {"uniqueid": "w70964388:a87289227", "current_trial": 21, "dateTime": 1693482432178, "trialdata": {"revealed_states": [], "clicked_states": [], "num_clicks_accrued": [0, 0, 0, 0, 0, 0, 0, 0, 0, 0, 0, 0, 0], "stateRewards": ["", -1, -4, -1, -11, 43, 69, 39, 4, 17, -20, -82, -2, -1, 4, 8, -79, 24, -79, 11, 36, 64, 41, 2, 4, -1, 11, -79, -47, 75, -3, 63, -36, -19], "withholdReward": false, "trial_id": "mdp_trial_13", "block": "test", "trialIndex": 14, "score": 15, "costs": 0, "simulationMode": [null, null, null, null, null], "rewards": [-1, -4, -1, 4, 17], "path": ["0", "0", "1", "2", "3", "8", "9"], "rt": [1210, 481, 252, 90, 57], "actions": ["up", "up", "up", "left", "up"], "actionTimes": [2979, 3963, 4718, 5307, 5858], "queries": {"click": {"state": {"target": [], "time": []}, "edge": {"target": [], "time": []}}, "mouseover": {"state": {"target": [], "time": []}, "edge": {"target": [], "time": []}}, "mouseout": {"state": {"target": ["0"], "time": [17799]}, "edge": {"target": [], "time": []}}}, "displayed_time": "15.77", "trialTime": 19024, "trial_type": "mouselab-mdp", "trial_index": 21, "time_elapsed": 1146633, "internal_node_id": "0.0-6.0-1.0-12.0"}}, {"uniqueid": "w70964388:a87289227", "current_trial": 22, "dateTime": 1693482455704, "trialdata": {"revealed_states": [], "clicked_states": [], "num_clicks_accrued": [0, 0, 0, 0, 0, 0, 0, 0, 0, 0, 0, 0, 0], "stateRewards": ["", -2, 3, 3, -14, 62, 36, 49, 16, 11, 17, -84, 2, -1, 6, 2, -82, -73, 49, -6, -87, 48, 50, -1, -2, -1, -16, -11, 37, -44, 4, 55, 73, -10], "withholdReward": false, "trial_id": "mdp_trial_14", "block": "test", "trialIndex": 15, "score": -64, "costs": 0, "simulationMode": [null, null, null, null, null], "rewards": [-2, 3, 3, 16, -84], "path": ["0", "0", "1", "2", "3", "8", "11"], "rt": [3703, 619, 325, 125, 171], "actions": ["up", "up", "up", "left", "left"], "actionTimes": [10080, 11210, 12057, 12708, 13380], "queries": {"click": {"state": {"target": [], "time": []}, "edge": {"target": [], "time": []}}, "mouseover": {"state": {"target": [], "time": []}, "edge": {"target": [], "time": []}}, "mouseout": {"state": {"target": [], "time": []}, "edge": {"target": [], "time": []}}}, "displayed_time": "20.38", "trialTime": 23172, "trial_type": "mouselab-mdp", "trial_index": 22, "time_elapsed": 1170159, "internal_node_id": "0.0-6.0-1.0-13.0"}}, {"uniqueid": "w70964388:a87289227", "current_trial": 23, "dateTime": 1693482476090, "trialdata": {"revealed_states": [], "clicked_states": [], "num_clicks_accrued": [0, 0, 0, 0, 0, 0, 0, 0, 0, 0, 0, 0, 0], "stateRewards": ["", 1, 2, -3, -6, 50, -7, 7, -7, -80, 21, -1, 2, 2, 4, -1, 33, 84, 1, 14, -53, 81, 6, -2, -2, -3, -9, -87, -38, -59, -5, -74, -3, -71], "withholdReward": false, "trial_id": "mdp_trial_15", "block": "test", "trialIndex": 16, "score": -87, "costs": 0, "simulationMode": [null, null, null, null, null], "rewards": [1, 2, -3, -7, -80], "path": ["0", "0", "1", "2", "3", "8", "9"], "rt": [3386, 263, 261, 189, 41], "actions": ["up", "up", "up", "left", "up"], "actionTimes": [7843, 8606, 9391, 10084, 10618], "queries": {"click": {"state": {"target": [], "time": []}, "edge": {"target": [], "time": []}}, "mouseover": {"state": {"target": [], "time": []}, "edge": {"target": [], "time": []}}, "mouseout": {"state": {"target": [], "time": []}, "edge": {"target": [], "time": []}}}, "displayed_time": "18.46", "trialTime": 20048, "trial_type": "mouselab-mdp", "trial_index": 23, "time_elapsed": 1190547, "internal_node_id": "0.0-6.0-1.0-14.0"}}, {"uniqueid": "w70964388:a87289227", "current_trial": 24, "dateTime": 1693482493764, "trialdata": {"revealed_states": [], "clicked_states": [], "num_clicks_accrued": [0, 0, 0, 0, 0, 0, 0, 0, 0, 0, 0, 0, 0], "stateRewards": ["", 2, 3, -3, 12, -43, 81, -82, -15, 58, -7, -75, -1, -1, 3, -5, 50, -25, -8, 4, 66, 65, -66, 2, -4, 2, -1, -10, 10, 37, 11, 88, -37, 8], "withholdReward": false, "trial_id": "mdp_trial_16", "block": "test", "trialIndex": 17, "score": 36, "costs": 0, "simulationMode": [null, null, null, null, null], "rewards": [2, -4, 2, -1, 37], "path": ["0", "0", "23", "24", "25", "26", "29"], "rt": [1600, 179, 87, 13, 816], "actions": ["left", "left", "left", "up", "left"], "actionTimes": [2742, 3427, 4019, 4529, 5881], "queries": {"click": {"state": {"target": [], "time": []}, "edge": {"target": [], "time": []}}, "mouseover": {"state": {"target": [], "time": []}, "edge": {"target": [], "time": []}}, "mouseout": {"state": {"target": [], "time": []}, "edge": {"target": [], "time": []}}}, "displayed_time": "15.15", "trialTime": 17290, "trial_type": "mouselab-mdp", "trial_index": 24, "time_elapsed": 1208220, "internal_node_id": "0.0-6.0-1.0-15.0"}}, {"uniqueid": "w70964388:a87289227", "current_trial": 25, "dateTime": 1693482511475, "trialdata": {"revealed_states": [], "clicked_states": [], "num_clicks_accrued": [0, 0, 0, 0, 0, 0, 0, 0, 0, 0, 0, 0, 0], "stateRewards": ["", 2, -1, 5, 8, 75, -35, -77, 1, -9, -81, -58, 1, 2, -7, 5, 77, -16, 19, 16, -10, -18, 40, -2, 3, 7, -5, 64, 1, -62, 10, 27, 10, 65], "withholdReward": false, "trial_id": "mdp_trial_17", "block": "test", "trialIndex": 18, "score": -59, "costs": 0, "simulationMode": [null, null, null, null, null], "rewards": [-2, 3, 7, -5, -62], "path": ["0", "0", "23", "24", "25", "26", "29"], "rt": [1241, 732, 215, 65, 3], "actions": ["left", "left", "left", "up", "left"], "actionTimes": [2820, 4074, 4791, 5377, 5880], "queries": {"click": {"state": {"target": [], "time": []}, "edge": {"target": [], "time": []}}, "mouseover": {"state": {"target": [], "time": []}, "edge": {"target": [], "time": []}}, "mouseout": {"state": {"target": [], "time": []}, "edge": {"target": [], "time": []}}}, "displayed_time": "15.58", "trialTime": 17344, "trial_type": "mouselab-mdp", "trial_index": 25, "time_elapsed": 1225931, "internal_node_id": "0.0-6.0-1.0-16.0"}}, {"uniqueid": "w70964388:a87289227", "current_trial": 26, "dateTime": 1693482549229, "trialdata": {"revealed_states": [], "clicked_states": ["14", "29"], "num_clicks_accrued": [0, 0, 0, 0, 0, 0, 0, 0, 0, 0, 0, 0, 0], "stateRewards": ["", 2, -3, -4, -1, 25, -16, 16, 10, -71, -20, -55, 1, 3, -4, -9, 1, 32, 11, -6, 32, -50, -41, -1, 4, 4, -8, 7, -81, 70, 2, -52, 45, -10], "withholdReward": false, "trial_id": "mdp_trial_18", "block": "test", "trialIndex": 19, "score": -69.1, "costs": -3.0999999999999996, "simulationMode": [null, null, null, null, null, null], "rewards": [2, -3, -4, 10, -71], "path": ["0", "0", "1", "2", "3", "8", "9"], "rt": [6780, 4757, 98, 98, 595, 416], "actions": ["up", "up", "up", "up", "left", "up"], "actionTimes": [12075, 16836, 17440, 18040, 19153, 20073], "queries": {"click": {"state": {"target": ["14", "29"], "time": [7642, 10045]}, "edge": {"target": [], "time": []}}, "mouseover": {"state": {"target": ["12", "13", "14", "25", "26", "29"], "time": [6844, 6904, 7237, 9054, 9445, 9708]}, "edge": {"target": [], "time": []}}, "mouseout": {"state": {"target": ["0", "12", "13", "14", "25", "26"], "time": [6832, 6871, 7156, 8902, 9139, 9562]}, "edge": {"target": [], "time": []}}}, "displayed_time": "20.59", "trialTime": 37395, "trial_type": "mouselab-mdp", "trial_index": 26, "time_elapsed": 1263684, "internal_node_id": "0.0-6.0-1.0-17.0"}}, {"uniqueid": "w70964388:a87289227", "current_trial": 27, "dateTime": 1693482569321, "trialdata": {"revealed_states": [], "clicked_states": [], "num_clicks_accrued": [0, 0, 0, 0, 0, 0, 0, 0, 0, 0, 0, 0, 0], "stateRewards": ["", -2, 2, 3, -7, 76, 63, 21, 15, 35, -8, -44, 1, 1, -2, -12, 23, 24, 76, -9, 46, 66, -49, -2, -1, 7, 12, 40, -71, -45, -6, 38, -49, 46], "withholdReward": false, "trial_id": "mdp_trial_19", "block": "test", "trialIndex": 20, "score": 72, "costs": 0, "simulationMode": [null, null, null, null, null], "rewards": [-2, 2, 3, -7, 76], "path": ["0", "0", "1", "2", "3", "4", "5"], "rt": [3966, 237, 102, 971, 210], "actions": ["up", "up", "up", "right", "up"], "actionTimes": [6958, 7703, 8302, 9770, 10478], "queries": {"click": {"state": {"target": [], "time": []}, "edge": {"target": [], "time": []}}, "mouseover": {"state": {"target": [], "time": []}, "edge": {"target": [], "time": []}}, "mouseout": {"state": {"target": ["29", "24", "23", "0"], "time": [1569, 1612, 1629, 3448]}, "edge": {"target": [], "time": []}}}, "displayed_time": "17.00", "trialTime": 19662, "trial_type": "mouselab-mdp", "trial_index": 27, "time_elapsed": 1283776, "internal_node_id": "0.0-6.0-1.0-18.0"}}, {"uniqueid": "w70964388:a87289227", "current_trial": 28, "dateTime": 1693482595180, "trialdata": {"revealed_states": [], "clicked_states": [], "num_clicks_accrued": [0, 0, 0, 0, 0, 0, 0, 0, 0, 0, 0, 0, 0], "stateRewards": ["", 1, -1, 1, -14, -10, 67, -28, -11, 72, 40, -65, -1, 1, 1, -2, 8, -55, 34, -10, 61, 33, -15, 2, -4, 7, 4, -75, 63, -21, -16, 61, 19, 21], "withholdReward": false, "trial_id": "mdp_trial_20", "block": "test", "trialIndex": 21, "score": -56, "costs": 0, "simulationMode": [null, null, null, null, null], "rewards": [-1, 1, 1, -2, -55], "path": ["0", "0", "12", "13", "14", "15", "17"], "rt": [3323, 628, 207, 45, 21], "actions": ["right", "right", "right", "up", "right"], "actionTimes": [7793, 8920, 9631, 10170, 10711], "queries": {"click": {"state": {"target": [], "time": []}, "edge": {"target": [], "time": []}}, "mouseover": {"state": {"target": [], "time": []}, "edge": {"target": [], "time": []}}, "mouseout": {"state": {"target": [], "time": []}, "edge": {"target": [], "time": []}}}, "displayed_time": "18.47", "trialTime": 25499, "trial_type": "mouselab-mdp", "trial_index": 28, "time_elapsed": 1309636, "internal_node_id": "0.0-6.0-1.0-19.0"}}, {"uniqueid": "w70964388:a87289227", "current_trial": 29, "dateTime": 1693482623124, "trialdata": {"revealed_states": [], "clicked_states": [], "num_clicks_accrued": [0, 0, 0, 0, 0, 0, 0, 0, 0, 0, 0, 0, 0], "stateRewards": ["", -1, -3, -7, -7, -76, 30, -49, 11, -70, 56, 2, 1, 4, -3, -14, -59, -83, -25, -9, -21, -67, -73, -2, 4, 4, -9, -11, -32, 60, 9, -87, 22, -64], "withholdReward": false, "trial_id": "mdp_trial_21", "block": "test", "trialIndex": 22, "score": -67, "costs": 0, "simulationMode": [null, null, null, null, null], "rewards": [-1, -3, -7, -7, -49], "path": ["0", "0", "1", "2", "3", "4", "7"], "rt": [2346, 237, 154, 6, 524], "actions": ["up", "up", "up", "right", "down"], "actionTimes": [8148, 8910, 9579, 10135, 11183], "queries": {"click": {"state": {"target": [], "time": []}, "edge": {"target": [], "time": []}}, "mouseover": {"state": {"target": [], "time": []}, "edge": {"target": [], "time": []}}, "mouseout": {"state": {"target": [], "time": []}, "edge": {"target": [], "time": []}}}, "displayed_time": "19.81", "trialTime": 27378, "trial_type": "mouselab-mdp", "trial_index": 29, "time_elapsed": 1337579, "internal_node_id": "0.0-6.0-1.0-20.0"}}, {"uniqueid": "w70964388:a87289227", "current_trial": 30, "dateTime": 1693482644837, "trialdata": {"revealed_states": [], "clicked_states": ["28"], "num_clicks_accrued": [0, 0, 0, 0, 0, 0, 0, 0, 0, 0, 0, 0, 0], "stateRewards": ["", -1, -4, -6, -15, 21, -67, -63, 9, 51, 69, -14, -1, 3, 8, -8, 39, 72, 63, 15, 19, 47, 15, 1, 4, 5, 16, -18, 34, 35, -14, -80, 40, 1], "withholdReward": false, "trial_id": "mdp_trial_22", "block": "test", "trialIndex": 23, "score": 57.85, "costs": -2.15, "simulationMode": [null, null, null, null, null], "rewards": [1, 4, 5, 16, 34], "path": ["0", "0", "23", "24", "25", "26", "28"], "rt": [8226, 163, 562, 109, 453], "actions": ["left", "left", "left", "up", "right"], "actionTimes": [10176, 10872, 11970, 12633, 13609], "queries": {"click": {"state": {"target": ["28"], "time": [3933]}, "edge": {"target": [], "time": []}}, "mouseover": {"state": {"target": ["23", "26", "29", "26", "28", "8", "9"], "time": [2630, 2704, 2786, 3038, 3433, 5322, 5751]}, "edge": {"target": [], "time": []}}, "mouseout": {"state": {"target": ["0", "23", "26", "29", "26", "28", "8"], "time": [2620, 2669, 2751, 2934, 3252, 5255, 5368]}, "edge": {"target": [], "time": []}}}, "displayed_time": "15.96", "trialTime": 21022, "trial_type": "mouselab-mdp", "trial_index": 30, "time_elapsed": 1359292, "internal_node_id": "0.0-6.0-1.0-21.0"}}, {"uniqueid": "w70964388:a87289227", "current_trial": 31, "dateTime": 1693482668532, "trialdata": {"revealed_states": [], "clicked_states": ["6", "16"], "num_clicks_accrued": [0, 0, 0, 0, 0, 0, 0, 0, 0, 0, 0, 0, 0], "stateRewards": ["", 2, -1, 4, -9, -43, 7, 54, -13, 38, -40, -83, -1, 2, -8, -10, 34, -33, 11, -14, -79, 65, 26, 1, 2, 4, 10, 21, 1, 86, 4, -53, 28, -29], "withholdReward": false, "trial_id": "mdp_trial_23", "block": "test", "trialIndex": 24, "score": 12.7, "costs": -4.3, "simulationMode": [null, null, null, null, null], "rewards": [-1, 2, -8, -10, 34], "path": ["0", "0", "12", "13", "14", "15", "16"], "rt": [10590, 209, 112, 112, 170], "actions": ["right", "right", "right", "up", "up"], "actionTimes": [12901, 13640, 14280, 14965, 15672], "queries": {"click": {"state": {"target": ["6", "16"], "time": [3910, 7876]}, "edge": {"target": [], "time": []}}, "mouseover": {"state": {"target": ["4", "6", "16", "15", "14", "19", "21", "21"], "time": [3158, 3410, 4751, 8467, 8569, 8777, 8926, 9294]}, "edge": {"target": [], "time": []}}, "mouseout": {"state": {"target": ["9", "0", "4", "6", "16", "15", "14", "19", "21"], "time": [659, 3011, 3243, 4612, 8427, 8504, 8608, 8816, 8963]}, "edge": {"target": [], "time": []}}}, "displayed_time": "16.32", "trialTime": 23009, "trial_type": "mouselab-mdp", "trial_index": 31, "time_elapsed": 1382988, "internal_node_id": "0.0-6.0-1.0-22.0"}}, {"uniqueid": "w70964388:a87289227", "current_trial": 32, "dateTime": 1693482688342, "trialdata": {"revealed_states": [], "clicked_states": ["5"], "num_clicks_accrued": [0, 0, 0, 0, 0, 0, 0, 0, 0, 0, 0, 0, 0], "stateRewards": ["", -1, -3, 3, 5, 56, 39, 50, -1, -80, 33, -46, 1, -2, -6, -8, 87, 48, 54, -11, -20, -64, -54, -2, 3, -7, -3, 12, 88, 35, -16, -46, -70, -3], "withholdReward": false, "trial_id": "mdp_trial_24", "block": "test", "trialIndex": 25, "score": 57.85, "costs": -2.15, "simulationMode": [null, null, null, null, null], "rewards": [-1, -3, 3, 5, 56], "path": ["0", "0", "1", "2", "3", "4", "5"], "rt": [6527, 116, 92, 8, 13], "actions": ["up", "up", "up", "right", "up"], "actionTimes": [9212, 9839, 10447, 10988, 11555], "queries": {"click": {"state": {"target": ["5"], "time": [4384]}, "edge": {"target": [], "time": []}}, "mouseover": {"state": {"target": ["7", "5", "5"], "time": [3321, 3689, 4022]}, "edge": {"target": [], "time": []}}, "mouseout": {"state": {"target": ["21", "0", "7", "5", "5", "5"], "time": [1186, 3203, 3374, 3741, 4607, 5091]}, "edge": {"target": [], "time": []}}}, "displayed_time": "16.70", "trialTime": 19064, "trial_type": "mouselab-mdp", "trial_index": 32, "time_elapsed": 1402797, "internal_node_id": "0.0-6.0-1.0-23.0"}}, {"uniqueid": "w70964388:a87289227", "current_trial": 33, "dateTime": 1693482708761, "trialdata": {"revealed_states": [], "clicked_states": ["16", "5"], "num_clicks_accrued": [0, 0, 0, 0, 0, 0, 0, 0, 0, 0, 0, 0, 0], "stateRewards": ["", -2, 1, -5, 2, -68, 80, 33, 10, 67, -59, 20, -1, -3, 3, 14, 74, -2, 24, -16, 63, 80, 46, -1, 4, 6, 12, 83, -38, -43, -4, 43, 14, -79], "withholdReward": false, "trial_id": "mdp_trial_25", "block": "test", "trialIndex": 26, "score": 82.7, "costs": -4.3, "simulationMode": [null, null, null, null, null], "rewards": [-1, -3, 3, 14, 74], "path": ["0", "0", "12", "13", "14", "15", "16"], "rt": [7826, 79, 113, 1393, 83], "actions": ["right", "right", "right", "up", "up"], "actionTimes": [10448, 11070, 11704, 13618, 14206], "queries": {"click": {"state": {"target": ["16", "5"], "time": [3816, 7058]}, "edge": {"target": [], "time": []}}, "mouseover": {"state": {"target": ["16", "6", "5", "4", "7"], "time": [3399, 4482, 4842, 7832, 7915]}, "edge": {"target": [], "time": []}}, "mouseout": {"state": {"target": ["6", "1", "0", "16", "6", "5", "4", "7", "0"], "time": [1362, 1396, 3027, 4433, 4533, 7818, 7895, 7984, 19105]}, "edge": {"target": [], "time": []}}}, "displayed_time": "16.63", "trialTime": 19742, "trial_type": "mouselab-mdp", "trial_index": 33, "time_elapsed": 1423217, "internal_node_id": "0.0-6.0-1.0-24.0"}}, {"uniqueid": "w70964388:a87289227", "current_trial": 34, "dateTime": 1693482737712, "trialdata": {"revealed_states": [], "clicked_states": ["9", "27", "33"], "num_clicks_accrued": [0, 0, 0, 0, 0, 0, 0, 0, 0, 0, 0, 0, 0], "stateRewards": ["", -2, 1, 6, -2, -10, -78, -69, 14, -15, 7, -1, 1, -1, -2, 13, 77, 32, 87, 5, -74, 30, -26, 1, 3, 4, 12, 39, 54, -43, 2, 10, 23, 13], "withholdReward": false, "trial_id": "mdp_trial_26", "block": "test", "trialIndex": 27, "score": 52.55, "costs": -6.449999999999999, "simulationMode": [null, null, null, null, null], "rewards": [1, 3, 4, 12, 39], "path": ["0", "0", "23", "24", "25", "26", "27"], "rt": [10904, 27, 33, 54, 564], "actions": ["left", "left", "left", "up", "up"], "actionTimes": [14343, 14899, 15469, 16056, 17168], "queries": {"click": {"state": {"target": ["9", "27", "33"], "time": [4651, 7602, 10775]}, "edge": {"target": [], "time": []}}, "mouseover": {"state": {"target": ["4", "9", "11", "27", "29", "33"], "time": [3962, 4345, 5210, 5797, 8745, 9115]}, "edge": {"target": [], "time": []}}, "mouseout": {"state": {"target": ["0", "4", "9", "11", "27", "29", "33", "1"], "time": [3559, 4013, 5163, 5245, 8522, 8792, 26848, 26998]}, "edge": {"target": [], "time": []}}}, "displayed_time": "17.72", "trialTime": 28240, "trial_type": "mouselab-mdp", "trial_index": 34, "time_elapsed": 1452168, "internal_node_id": "0.0-6.0-1.0-25.0"}}, {"uniqueid": "w70964388:a87289227", "current_trial": 35, "dateTime": 1693482760942, "trialdata": {"revealed_states": [], "clicked_states": ["16", "5"], "num_clicks_accrued": [0, 0, 0, 0, 0, 0, 0, 0, 0, 0, 0, 0, 0], "stateRewards": ["", 1, -2, -3, 14, -42, -87, -37, -11, -50, 33, -44, -2, 4, -7, 13, 48, -75, -66, 12, 23, -2, 82, 1, -4, 3, 12, 51, -15, -26, -11, -52, -29, 82], "withholdReward": false, "trial_id": "mdp_trial_27", "block": "test", "trialIndex": 28, "score": 51.7, "costs": -4.3, "simulationMode": [null, null, null, null, null], "rewards": [-2, 4, -7, 13, 48], "path": ["0", "0", "12", "13", "14", "15", "16"], "rt": [10078, 132, 748, 263, 151], "actions": ["right", "right", "right", "up", "up"], "actionTimes": [13312, 14011, 15293, 16108, 16778], "queries": {"click": {"state": {"target": ["16", "5"], "time": [5488, 9329]}, "edge": {"target": [], "time": []}}, "mouseover": {"state": {"target": ["16", "16", "6", "5", "4"], "time": [4643, 5009, 6388, 6893, 10453]}, "edge": {"target": [], "time": []}}, "mouseout": {"state": {"target": ["16", "16", "6", "5", "4"], "time": [4695, 6289, 6587, 10085, 10493]}, "edge": {"target": [], "time": []}}}, "displayed_time": "17.31", "trialTime": 22499, "trial_type": "mouselab-mdp", "trial_index": 35, "time_elapsed": 1475398, "internal_node_id": "0.0-6.0-1.0-26.0"}}, {"uniqueid": "w70964388:a87289227", "current_trial": 36, "dateTime": 1693482797190, "trialdata": {"revealed_states": [], "clicked_states": ["29", "9", "5", "16", "21", "20", "32"], "num_clicks_accrued": [0, 0, 0, 0, 0, 0, 0, 0, 0, 0, 0, 0, 0], "stateRewards": ["", 1, 1, 5, 6, -29, -7, 3, -16, 9, -46, 65, -1, 4, -1, -16, -63, -77, -87, 8, 80, -50, 43, -1, -1, -5, 5, -38, -71, -62, 9, 81, -50, -52], "withholdReward": false, "trial_id": "mdp_trial_28", "block": "test", "trialIndex": 29, "score": 74.95, "costs": -15.05, "simulationMode": [null, null, null, null, null, null], "rewards": [-1, 4, -1, 8, 80], "path": ["0", "0", "12", "13", "14", "19", "20"], "rt": [21720, 1857, 409, 355, 129, 225], "actions": ["right", "right", "right", "right", "down", "right"], "actionTimes": [24444, 26311, 27231, 28126, 28800, 29582], "queries": {"click": {"state": {"target": ["29", "9", "5", "16", "21", "20", "32"], "time": [4058, 7138, 10399, 13618, 16715, 19926, 23151]}, "edge": {"target": [], "time": []}}, "mouseover": {"state": {"target": ["23", "26", "29", "11", "9", "9", "5", "6", "16", "15", "14", "19", "21", "20", "30", "32"], "time": [3080, 3363, 3452, 4720, 4774, 5274, 8297, 10962, 11494, 14129, 14186, 14395, 14712, 17325, 20843, 21374]}, "edge": {"target": [], "time": []}}, "mouseout": {"state": {"target": ["7", "1", "0", "0", "23", "26", "29", "11", "9", "9", "5", "6", "16", "15", "14", "19", "21", "20", "30"], "time": [1357, 1391, 1425, 3042, 3112, 3423, 4688, 4771, 4804, 7861, 10878, 11062, 14114, 14174, 14297, 14513, 17147, 20432, 21061]}, "edge": {"target": [], "time": []}}}, "displayed_time": "30.12", "trialTime": 35536, "trial_type": "mouselab-mdp", "trial_index": 36, "time_elapsed": 1511645, "internal_node_id": "0.0-6.0-1.0-27.0"}}, {"uniqueid": "w70964388:a87289227", "current_trial": 37, "dateTime": 1693482822985, "trialdata": {"revealed_states": [], "clicked_states": ["9", "10", "7"], "num_clicks_accrued": [0, 0, 0, 0, 0, 0, 0, 0, 0, 0, 0, 0, 0], "stateRewards": ["", -1, 1, 3, -8, -23, -15, -14, -11, -23, 58, 68, 1, 3, 5, 12, -17, -41, -7, -10, -4, 82, 10, 1, 4, -4, 11, 73, 55, -55, -1, -86, -86, 54], "withholdReward": false, "trial_id": "mdp_trial_29", "block": "test", "trialIndex": 30, "score": 43.55, "costs": -6.449999999999999, "simulationMode": [null, null, null, null, null], "rewards": [-1, 1, 3, -11, 58], "path": ["0", "0", "1", "2", "3", "8", "10"], "rt": [14339, 140, 122, 55, 90], "actions": ["up", "up", "up", "left", "down"], "actionTimes": [16642, 17324, 17972, 18569, 19242], "queries": {"click": {"state": {"target": ["9", "10", "7"], "time": [4378, 7726, 11692]}, "edge": {"target": [], "time": []}}, "mouseover": {"state": {"target": ["9", "9", "8", "10", "2", "7", "16", "18", "16", "16"], "time": [3445, 3962, 5101, 5510, 8340, 8476, 12695, 13082, 13329, 13712]}, "edge": {"target": [], "time": []}}, "mouseout": {"state": {"target": ["32", "0", "9", "9", "8", "10", "2", "7", "16", "18", "16", "16"], "time": [1193, 2983, 3533, 5046, 5245, 7935, 8427, 12477, 12879, 13244, 13377, 15145]}, "edge": {"target": [], "time": []}}}, "displayed_time": "19.79", "trialTime": 25079, "trial_type": "mouselab-mdp", "trial_index": 37, "time_elapsed": 1537440, "internal_node_id": "0.0-6.0-1.0-28.0"}}, {"uniqueid": "w70964388:a87289227", "current_trial": 38, "dateTime": 1693482841909, "trialdata": {"revealed_states": [], "clicked_states": ["32", "31"], "num_clicks_accrued": [0, 0, 0, 0, 0, 0, 0, 0, 0, 0, 0, 0, 0], "stateRewards": ["", -2, 2, -5, 1, 42, -63, -58, -6, 2, 16, 81, -2, 4, 7, -10, 33, 3, -33, -2, -52, -84, -27, 2, -3, -3, 15, -74, -14, -5, -5, -84, 79, -31], "withholdReward": false, "trial_id": "mdp_trial_30", "block": "test", "trialIndex": 31, "score": 65.7, "costs": -4.3, "simulationMode": [null, null, null, null, null], "rewards": [2, -3, -3, -5, 79], "path": ["0", "0", "23", "24", "25", "30", "32"], "rt": [8553, 54, 79, 789, 209], "actions": ["left", "left", "left", "down", "down"], "actionTimes": [10859, 11455, 12097, 13472, 14212], "queries": {"click": {"state": {"target": ["32", "31"], "time": [4263, 7727]}, "edge": {"target": [], "time": []}}, "mouseover": {"state": {"target": ["23", "31", "32", "31"], "time": [3310, 3525, 3943, 5445]}, "edge": {"target": [], "time": []}}, "mouseout": {"state": {"target": ["7", "0", "0", "23", "31", "32", "31", "23"], "time": [954, 1174, 3302, 3347, 3726, 4907, 16920, 17028]}, "edge": {"target": [], "time": []}}}, "displayed_time": "16.32", "trialTime": 18205, "trial_type": "mouselab-mdp", "trial_index": 38, "time_elapsed": 1556364, "internal_node_id": "0.0-6.0-1.0-29.0"}}, {"uniqueid": "w70964388:a87289227", "current_trial": 39, "dateTime": 1693482860120, "trialdata": {"revealed_states": [], "clicked_states": ["32"], "num_clicks_accrued": [0, 0, 0, 0, 0, 0, 0, 0, 0, 0, 0, 0, 0], "stateRewards": ["", 1, -4, -6, -1, -21, 17, -72, 10, 77, 67, -46, -1, 4, -2, 14, -66, -49, -45, -15, -52, 23, -67, 2, -2, -2, 15, -3, 45, -64, 5, -44, 83, 61], "withholdReward": false, "trial_id": "mdp_trial_31", "block": "test", "trialIndex": 32, "score": 83.85, "costs": -2.15, "simulationMode": [null, null, null, null, null], "rewards": [2, -2, -2, 5, 83], "path": ["0", "0", "23", "24", "25", "30", "32"], "rt": [6067, 181, 221, 45, 61], "actions": ["left", "left", "left", "down", "down"], "actionTimes": [8011, 8720, 9477, 10065, 10678], "queries": {"click": {"state": {"target": ["32"], "time": [3473]}, "edge": {"target": [], "time": []}}, "mouseover": {"state": {"target": ["23", "30", "32", "33"], "time": [2530, 2912, 3113, 4231]}, "edge": {"target": [], "time": []}}, "mouseout": {"state": {"target": ["23", "30", "32"], "time": [2583, 3028, 4097]}, "edge": {"target": [], "time": []}}}, "displayed_time": "15.96", "trialTime": 17484, "trial_type": "mouselab-mdp", "trial_index": 39, "time_elapsed": 1574576, "internal_node_id": "0.0-6.0-1.0-30.0"}}, {"uniqueid": "w70964388:a87289227", "current_trial": 40, "dateTime": 1693482887078, "trialdata": {"revealed_states": [], "clicked_states": ["5", "16", "21", "20", "32"], "num_clicks_accrued": [0, 0, 0, 0, 0, 0, 0, 0, 0, 0, 0, 0, 0], "stateRewards": ["", 2, 4, 7, -6, -76, -81, 2, 5, -66, -3, 36, -2, -4, 6, -2, -69, 4, -49, -6, 67, 38, -67, 2, 1, 1, 6, -68, -21, 52, -16, -16, 6, -70], "withholdReward": false, "trial_id": "mdp_trial_32", "block": "test", "trialIndex": 33, "score": 50.25, "costs": -10.75, "simulationMode": [null, null, null, null, null], "rewards": [-2, -4, 6, -6, 67], "path": ["0", "0", "12", "13", "14", "19", "20"], "rt": [17785, 103, 77, 102, 102], "actions": ["right", "right", "right", "down", "right"], "actionTimes": [19921, 20553, 21159, 21817, 22472], "queries": {"click": {"state": {"target": ["5", "16", "21", "20", "32"], "time": [3529, 6850, 10056, 13329, 16406]}, "edge": {"target": [], "time": []}}, "mouseover": {"state": {"target": ["7", "4", "5", "6", "6", "16", "15", "14", "19", "21", "21", "20", "32", "33"], "time": [2668, 2704, 3139, 4132, 4660, 5342, 7441, 7504, 7556, 7722, 8022, 10649, 14029, 17530]}, "edge": {"target": [], "time": []}}, "mouseout": {"state": {"target": ["33", "25", "1", "0", "7", "4", "5", "6", "6", "16", "16", "15", "14", "19", "21", "21", "20", "32"], "time": [604, 655, 723, 2639, 2693, 2729, 4096, 4169, 5176, 7060, 7427, 7494, 7548, 7659, 7777, 10579, 13778, 17301]}, "edge": {"target": [], "time": []}}}, "displayed_time": "23.05", "trialTime": 26220, "trial_type": "mouselab-mdp", "trial_index": 40, "time_elapsed": 1601533, "internal_node_id": "0.0-6.0-1.0-31.0"}}, {"uniqueid": "w70964388:a87289227", "current_trial": 41, "dateTime": 1693482911671, "trialdata": {"revealed_states": [], "clicked_states": ["32", "29", "9", "5"], "num_clicks_accrued": [0, 0, 0, 0, 0, 0, 0, 0, 0, 0, 0, 0, 0], "stateRewards": ["", -1, 2, -7, -12, -62, 12, -13, 5, 77, -71, 83, 1, -4, 7, 15, -42, -87, -4, 5, -25, 44, 88, -1, 4, -5, -8, 14, 51, 8, -5, 83, -24, -19], "withholdReward": false, "trial_id": "mdp_trial_33", "block": "test", "trialIndex": 34, "score": 67.4, "costs": -8.6, "simulationMode": [null, null, null, null, null], "rewards": [-1, 2, -7, 5, 77], "path": ["0", "0", "1", "2", "3", "8", "9"], "rt": [15315, 166, 92, 713, 333], "actions": ["up", "up", "up", "left", "up"], "actionTimes": [17711, 18383, 18991, 20262, 21128], "queries": {"click": {"state": {"target": ["32", "29", "9", "5"], "time": [4414, 7457, 10649, 13721]}, "edge": {"target": [], "time": []}}, "mouseover": {"state": {"target": ["33", "32", "29", "9", "5", "6", "16"], "time": [3110, 3693, 5769, 9380, 11477, 14766, 14912]}, "edge": {"target": [], "time": []}}, "mouseout": {"state": {"target": ["33", "0", "0", "33", "32", "29", "9", "5", "6", "16"], "time": [908, 1089, 2961, 3163, 4614, 8512, 11127, 14664, 14883, 15472]}, "edge": {"target": [], "time": []}}}, "displayed_time": "21.65", "trialTime": 23861, "trial_type": "mouselab-mdp", "trial_index": 41, "time_elapsed": 1626126, "internal_node_id": "0.0-6.0-1.0-32.0"}}, {"uniqueid": "w70964388:a87289227", "current_trial": 42, "dateTime": 1693482935787, "trialdata": {"revealed_states": [], "clicked_states": ["16", "20", "21", "17"], "num_clicks_accrued": [0, 0, 0, 0, 0, 0, 0, 0, 0, 0, 0, 0, 0], "stateRewards": ["", 1, -4, -6, 11, -20, 8, -30, 1, -38, 88, 42, 2, 3, 5, -12, -8, -74, 30, -8, 67, -19, 42, 2, -1, 4, 13, 50, -68, 2, -8, -15, 87, -46], "withholdReward": false, "trial_id": "mdp_trial_34", "block": "test", "trialIndex": 35, "score": 60.4, "costs": -8.6, "simulationMode": [null, null, null, null, null], "rewards": [2, 3, 5, -8, 67], "path": ["0", "0", "12", "13", "14", "19", "20"], "rt": [14496, 123, 173, 95, 20], "actions": ["right", "right", "right", "down", "right"], "actionTimes": [17191, 17819, 18537, 19156, 19731], "queries": {"click": {"state": {"target": ["16", "20", "21", "17"], "time": [4018, 7259, 10749, 14018]}, "edge": {"target": [], "time": []}}, "mouseover": {"state": {"target": ["14", "15", "16", "20", "21", "17"], "time": [3117, 3377, 3516, 4856, 7850, 12223]}, "edge": {"target": [], "time": []}}, "mouseout": {"state": {"target": ["0", "0", "14", "15", "16", "20", "21", "20", "17"], "time": [1146, 3016, 3333, 3433, 4703, 7767, 11367, 11403, 22923]}, "edge": {"target": [], "time": []}}}, "displayed_time": "20.28", "trialTime": 23418, "trial_type": "mouselab-mdp", "trial_index": 42, "time_elapsed": 1650242, "internal_node_id": "0.0-6.0-1.0-33.0"}}, {"uniqueid": "w70964388:a87289227", "current_trial": 43, "dateTime": 1693482964250, "trialdata": {"revealed_states": [], "clicked_states": ["5", "9", "27", "33"], "num_clicks_accrued": [0, 0, 0, 0, 0, 0, 0, 0, 0, 0, 0, 0, 0], "stateRewards": ["", 1, 1, -3, 2, 22, -25, -11, -5, 50, 49, 3, 1, -1, 8, 14, -85, -30, 57, -6, -39, -16, 59, -2, -1, 5, 5, 59, -16, 8, 4, 67, 56, -9], "withholdReward": false, "trial_id": "mdp_trial_35", "block": "test", "trialIndex": 36, "score": 57.4, "costs": -8.6, "simulationMode": [null, null, null, null, null], "rewards": [-2, -1, 5, 5, 59], "path": ["0", "0", "23", "24", "25", "26", "27"], "rt": [14264, 168, 515, 241, 123], "actions": ["left", "left", "left", "up", "up"], "actionTimes": [17269, 17962, 19029, 19798, 20471], "queries": {"click": {"state": {"target": ["5", "9", "27", "33"], "time": [4510, 7605, 10657, 13882]}, "edge": {"target": [], "time": []}}, "mouseover": {"state": {"target": ["1", "2", "4", "5", "9", "27", "27", "25", "28", "25", "33"], "time": [3685, 3737, 3798, 3919, 5753, 8490, 8922, 11707, 11787, 12328, 12789]}, "edge": {"target": [], "time": []}}, "mouseout": {"state": {"target": ["17", "13", "12", "0", "1", "2", "4", "5", "9", "27", "27", "25", "28", "25"], "time": [1773, 1836, 1986, 3652, 3727, 3786, 3838, 5554, 7823, 8533, 11347, 11753, 12213, 12389]}, "edge": {"target": [], "time": []}}}, "displayed_time": "21.01", "trialTime": 27778, "trial_type": "mouselab-mdp", "trial_index": 43, "time_elapsed": 1678705, "internal_node_id": "0.0-6.0-1.0-34.0"}}, {"uniqueid": "w70964388:a87289227", "current_trial": 44, "dateTime": 1693483033239, "trialdata": {"revealed_states": [], "clicked_states": ["27", "9", "5", "16", "17", "18", "20", "21", "22", "31", "32", "33", "29", "28"], "num_clicks_accrued": [0, 0, 0, 0, 0, 0, 0, 0, 0, 0, 0, 0, 0], "stateRewards": ["", -2, -3, 8, 14, -73, 73, 84, -12, -2, -50, -17, 2, 1, -2, -9, -44, -27, -33, 16, -63, -47, -66, -2, 1, 4, -5, -33, -11, 50, 9, 38, -79, 31], "withholdReward": false, "trial_id": "mdp_trial_36", "block": "test", "trialIndex": 37, "score": 17.900000000000006, "costs": -30.09999999999999, "simulationMode": [null, null, null, null, null], "rewards": [-2, 1, 4, -5, 50], "path": ["0", "0", "23", "24", "25", "26", "29"], "rt": [46524, 86, 288, 425, 43], "actions": ["left", "left", "left", "up", "left"], "actionTimes": [49386, 49997, 50848, 51813, 52362], "queries": {"click": {"state": {"target": ["27", "9", "5", "16", "17", "18", "20", "21", "22", "31", "32", "33", "29", "28"], "time": [4200, 7388, 10460, 13734, 16747, 20030, 23277, 26545, 29594, 32907, 36229, 39486, 42717, 46096]}, "edge": {"target": [], "time": []}}, "mouseover": {"state": {"target": ["28", "26", "27", "9", "9", "9", "5", "16", "17", "14", "17", "15", "18", "20", "21", "22", "31", "32", "33", "29", "26", "28"], "time": [3453, 3653, 3756, 5145, 5358, 5724, 8061, 11689, 14540, 15241, 15635, 17584, 18338, 21205, 23989, 27150, 30489, 33670, 36882, 40540, 43378, 44191]}, "edge": {"target": [], "time": []}}, "mouseout": {"state": {"target": ["33", "25", "24", "0", "28", "26", "27", "9", "9", "9", "5", "16", "17", "14", "17", "15", "18", "20", "21", "22", "31", "32", "33", "29", "26", "28", "11", "10", "2", "1", "23"], "time": [1235, 1334, 1369, 1801, 3488, 3705, 5106, 5184, 5393, 7607, 11205, 14417, 14584, 15585, 17420, 17773, 20654, 23862, 27138, 29804, 33455, 36794, 40377, 43330, 43501, 62141, 62374, 62783, 62941, 63459, 67223]}, "edge": {"target": [], "time": []}}}, "displayed_time": "52.93", "trialTime": 68283, "trial_type": "mouselab-mdp", "trial_index": 44, "time_elapsed": 1747694, "internal_node_id": "0.0-6.0-1.0-35.0"}}, {"uniqueid": "w70964388:a87289227", "current_trial": 45, "dateTime": 1693483052030, "trialdata": {"revealed_states": [], "clicked_states": [], "num_clicks_accrued": [0, 0, 0, 0, 0, 0, 0, 0, 0, 0, 0, 0, 0], "stateRewards": ["", -2, -2, -7, -13, -10, 49, -68, -1, 84, 70, 88, 1, 4, 4, 12, -57, 25, 30, 8, -1, -77, 57, 2, 3, 2, 3, -18, -80, 23, -15, -41, 70, 11], "withholdReward": false, "trial_id": "mdp_trial_37", "block": "test", "trialIndex": 38, "score": -36, "costs": 0, "simulationMode": [null, null, null, null, null], "rewards": [1, 4, 4, 12, -57], "path": ["0", "0", "12", "13", "14", "15", "16"], "rt": [8182, 110, 420, 9, 561], "actions": ["right", "right", "right", "up", "up"], "actionTimes": [10809, 11470, 12410, 12949, 14095], "queries": {"click": {"state": {"target": [], "time": []}, "edge": {"target": [], "time": []}}, "mouseover": {"state": {"target": ["16", "17", "14", "19"], "time": [5121, 6587, 6787, 7885]}, "edge": {"target": [], "time": []}}, "mouseout": {"state": {"target": ["0", "16", "17", "14"], "time": [4753, 6519, 6668, 6827]}, "edge": {"target": [], "time": []}}}, "displayed_time": "16.63", "trialTime": 18035, "trial_type": "mouselab-mdp", "trial_index": 45, "time_elapsed": 1766485, "internal_node_id": "0.0-6.0-1.0-36.0"}}, {"uniqueid": "w70964388:a87289227", "current_trial": 46, "dateTime": 1693483078608, "trialdata": {"revealed_states": [], "clicked_states": ["16", "5", "6", "7"], "num_clicks_accrued": [0, 0, 0, 0, 0, 0, 0, 0, 0, 0, 0, 0, 0], "stateRewards": ["", -2, -3, 1, -7, 39, -67, 16, 5, -20, 73, 66, -1, 4, 5, -3, 23, -68, -87, -8, 3, -3, 17, 1, -4, -2, -13, -32, 34, 61, -5, -11, -18, 12], "withholdReward": false, "trial_id": "mdp_trial_38", "block": "test", "trialIndex": 39, "score": 19.4, "costs": -8.6, "simulationMode": [null, null, null, null, null], "rewards": [-2, -3, 1, -7, 39], "path": ["0", "0", "1", "2", "3", "4", "5"], "rt": [14899, 79, 109, 158, 110], "actions": ["up", "up", "up", "right", "up"], "actionTimes": [16380, 16998, 17679, 18374, 19016], "queries": {"click": {"state": {"target": ["16", "5", "6", "7"], "time": [2791, 6277, 9535, 12459]}, "edge": {"target": [], "time": []}}, "mouseover": {"state": {"target": ["16", "6", "5", "6", "7", "9"], "time": [2324, 3695, 3995, 7245, 10214, 13699]}, "edge": {"target": [], "time": []}}, "mouseout": {"state": {"target": ["12", "0", "16", "6", "5", "5", "6", "7", "9", "11", "11", "0"], "time": [190, 2048, 2994, 3843, 6468, 6958, 10127, 13462, 24561, 24843, 25178, 25325]}, "edge": {"target": [], "time": []}}}, "displayed_time": "19.53", "trialTime": 25790, "trial_type": "mouselab-mdp", "trial_index": 46, "time_elapsed": 1793064, "internal_node_id": "0.0-6.0-1.0-37.0"}}, {"uniqueid": "w70964388:a87289227", "current_trial": 47, "dateTime": 1693483112972, "trialdata": {"revealed_states": [], "clicked_states": ["27", "32", "33", "31", "21", "22", "20", "17"], "num_clicks_accrued": [0, 0, 0, 0, 0, 0, 0, 0, 0, 0, 0, 0, 0], "stateRewards": ["", 1, 1, 7, -11, 80, -20, -53, -14, 3, 31, 27, 2, -1, -8, -10, 33, 41, 86, 9, 78, -37, -13, -1, -2, -6, -8, -80, 75, 4, -16, -49, -74, 24], "withholdReward": false, "trial_id": "mdp_trial_39", "block": "test", "trialIndex": 40, "score": 62.8, "costs": -17.2, "simulationMode": [null, null, null, null, null, null], "rewards": [2, -1, -8, 9, 78], "path": ["0", "0", "12", "13", "14", "19", "20"], "rt": [25637, 1721, 157, 70, 12, 74], "actions": ["right", "right", "right", "right", "down", "right"], "actionTimes": [27538, 29268, 29972, 30582, 31146, 31757], "queries": {"click": {"state": {"target": ["27", "32", "33", "31", "21", "22", "20", "17"], "time": [3446, 6749, 10008, 13170, 16413, 19629, 22747, 26028]}, "edge": {"target": [], "time": []}}, "mouseover": {"state": {"target": ["23", "27", "26", "25", "30", "32", "33", "30", "31", "21", "22", "19", "20", "17"], "time": [2475, 2924, 5086, 5172, 5216, 5690, 7607, 10621, 10721, 14583, 17327, 20233, 20389, 24262]}, "edge": {"target": [], "time": []}}, "mouseout": {"state": {"target": ["0", "23", "27", "26", "25", "30", "32", "33", "30", "31", "21", "22", "19", "20", "17"], "time": [1151, 2517, 5075, 5131, 5206, 5271, 6981, 10608, 10660, 13825, 17056, 20223, 20277, 23004, 26242]}, "edge": {"target": [], "time": []}}}, "displayed_time": "32.36", "trialTime": 33599, "trial_type": "mouselab-mdp", "trial_index": 47, "time_elapsed": 1827428, "internal_node_id": "0.0-6.0-1.0-38.0"}}, {"uniqueid": "w70964388:a87289227", "current_trial": 48, "dateTime": 1693483137093, "trialdata": {"revealed_states": [], "clicked_states": ["17", "16", "20", "21"], "num_clicks_accrued": [0, 0, 0, 0, 0, 0, 0, 0, 0, 0, 0, 0, 0], "stateRewards": ["", 2, -1, 3, -12, -83, 6, -33, 9, 28, 24, -50, -2, -1, -2, -5, -87, 37, 82, 12, 80, -5, 10, -2, -3, -6, 9, 22, -1, 16, 9, 77, -62, 58], "withholdReward": false, "trial_id": "mdp_trial_40", "block": "test", "trialIndex": 41, "score": 78.4, "costs": -8.6, "simulationMode": [null, null, null, null, null, null], "rewards": [-2, -1, -2, 12, 80], "path": ["0", "0", "12", "13", "14", "19", "20"], "rt": [12636, 902, 154, 372, 27, 83], "actions": ["right", "right", "right", "right", "down", "right"], "actionTimes": [15998, 16913, 17636, 18577, 19137, 19776], "queries": {"click": {"state": {"target": ["17", "16", "20", "21"], "time": [4799, 8259, 11540, 14860]}, "edge": {"target": [], "time": []}}, "mouseover": {"state": {"target": ["18", "17", "17", "16", "20", "21"], "time": [3863, 3898, 4419, 5969, 10001, 12452]}, "edge": {"target": [], "time": []}}, "mouseout": {"state": {"target": ["17", "15", "18", "12", "0", "18", "17", "17", "16", "17", "20"], "time": [1983, 2017, 2116, 2367, 2500, 3895, 3927, 5851, 8492, 9445, 12220]}, "edge": {"target": [], "time": []}}}, "displayed_time": "20.31", "trialTime": 23398, "trial_type": "mouselab-mdp", "trial_index": 48, "time_elapsed": 1851548, "internal_node_id": "0.0-6.0-1.0-39.0"}}, {"uniqueid": "w70964388:a87289227", "current_trial": 49, "dateTime": 1693483215624, "trialdata": {"rt": 78496, "response": {"Q0": "$-2 to $2", "Q1": "$-16 to $16", "Q2": "$-88 to $88", "Q3": "There was no cost for clicking on nodes.", "Q4": "Very motivated"}, "question_order": [0, 1, 2, 3, 4], "trial_id": "final_quiz_control", "trial_type": "survey-multi-choice", "trial_index": 49, "time_elapsed": 1930079, "internal_node_id": "0.0-6.0-2.0"}}, {"uniqueid": "w70964388:a87289227", "current_trial": 50, "dateTime": 1693483516176, "trialdata": {"rt": 300482, "response": {"Q0": "Searched for the node with the most money using the node-inspector ", "Q1": "Beware of the nodes with -$ and go to the nods with high $", "Q2": "It was a bit difficult, The fact that I was charged to look at a node made be cautious about the number of nodes I was looking at keeping track of my score while racing against the time limit. All these factors made it hard for me to come up with a plan that was efficient"}, "trial_id": "self_report_control", "trial_type": "survey-text", "trial_index": 50, "time_elapsed": 2230631, "internal_node_id": "0.0-6.0-3.0"}}, {"uniqueid": "w70964388:a87289227", "current_trial": 51, "dateTime": 1693483627342, "trialdata": {"rt": 111145, "response": {"Q0": "Disagree", "Q1": "Strongly disagree", "Q2": "Strongly agree", "Q3": "Strongly agree", "Q4": "Disagree", "Q5": "Disagree", "Q6": "Strongly agree"}, "question_order": [0, 1, 2, 3, 4, 5, 6], "trial_id": "self_report_2", "trial_type": "survey-multi-choice", "trial_index": 51, "time_elapsed": 2341798, "internal_node_id": "0.0-6.0-4.0"}}, {"uniqueid": "w70964388:a87289227", "current_trial": 52, "dateTime": 1693483681002, "trialdata": {"rt": 53607, "response": {"gender": "male", "age": "20", "colorblind": "0", "effort": "0"}, "trial_type": "survey-html-form", "trial_index": 52, "time_elapsed": 2395459, "internal_node_id": "0.0-6.0-5.0"}}, {"uniqueid": "w70964388:a87289227", "current_trial": 53, "dateTime": 1693483713805, "trialdata": {"rt": 32755, "response": {"Q0": "NO", "Q1": "NO", "Q2": "None"}, "trial_type": "survey-text", "trial_index": 53, "time_elapsed": 2428262, "internal_node_id": "0.0-6.0-6.0"}}, {"uniqueid": "w70964388:a87289227", "current_trial": 54, "dateTime": 1693483733644, "trialdata": {"rt": 19818, "stimulus": "<h1>Completion Code Instructions (1/2)</h1>\n<br><br><br><br>\nYou have reached the end of the experiment! The completion code consists of two parts: (1) a code with 2 characters (2) a code with 6 characters. On this page, you will receive the second part of the code. The first part of the completion code will be on the next page.\n<br><br>\nThe second part of your completion code is: <b>EWEK22</b>\n<br><br>\nPlease note this down. Then, press 'Finish HIT' in order to find the first part of your completion code. Once the data has been saved, you will receive this code either in this window or in the original browser window where you started the experiment.\n", "response": 0, "trial_type": "html-button-response", "trial_index": 54, "time_elapsed": 2448101, "internal_node_id": "0.0-6.0-7.0"}}, {"uniqueid": "w70964388:a87289227", "current_trial": 55, "dateTime": 1693483734674, "trialdata": {"success": true, "trial_type": "fullscreen", "trial_index": 55, "time_elapsed": 2449131, "internal_node_id": "0.0-7.0"}}], "questiondata": {"params": {"CODE": "C6DMOQA6", "MIN_TIME": 14, "inspectCost": 1, "startTime": "Thu Aug 31 2023 13:28:04 GMT+0200 (South Africa Standard Time)", "bonusRate": 0.002, "variance": "1_2_4_8_44", "branching": "31123"}}, "eventdata": [{"eventtype": "initialized", "value": null, "timestamp": 1693481283436, "interval": 0}, {"eventtype": "window_resize", "value": [1024, 646], "timestamp": 1693481283436, "interval": 0}, {"eventtype": "window_resize", "value": [1024, 646], "timestamp": 1693481283861, "interval": 425}, {"eventtype": "window_resize", "value": [1366, 768], "timestamp": 1693481289143, "interval": 5282}, {"eventtype": "window_resize", "value": [1024, 646], "timestamp": 1693483734069, "interval": 2444926}], "useragent": "Mozilla/5.0 (Windows NT 10.0; Win64; x64) AppleWebKit/537.36 (KHTML, like Gecko) Chrome/116.0.0.0 Safari/537.36", "mode": "live", "id": "w70964388:a87289227", "status": "user data saved", "Beginhit": "2023-08-31 11:23:38.707752", "Beginexp": "2023-08-31 11:23:47.725358", "Endhit": "2023-08-31 12:04:33.251503", "psiturkStatus": 3, "browser": "<redacted>", "platform": "windows", "language": "en-ZA"}