{"condition": 1, "counterbalance": 0, "assignmentId": "a22801272", "workerId": "w85032499", "hitId": "h38798327", "currenttrial": 68, "bonus": 0, "data": [{"uniqueid": "w85032499:a22801272", "current_trial": 0, "dateTime": 1693660881536, "trialdata": {"success": true, "trial_type": "fullscreen", "trial_index": 0, "time_elapsed": 4627, "internal_node_id": "0.0-0.0"}}, {"uniqueid": "w85032499:a22801272", "current_trial": 1, "dateTime": 1693660905865, "trialdata": {"view_history": [{"page_index": 0, "viewing_time": 24323}], "rt": 24324, "trial_id": "exp_instructions_misaligned", "trial_type": "instructions", "trial_index": 1, "time_elapsed": 28957, "internal_node_id": "0.0-1.0"}}, {"uniqueid": "w85032499:a22801272", "current_trial": 2, "dateTime": 1693660977926, "trialdata": {"view_history": [{"page_index": 0, "viewing_time": 29464}, {"page_index": 1, "viewing_time": 29406}, {"page_index": 2, "viewing_time": 7806}, {"page_index": 3, "viewing_time": 5385}], "rt": 72060, "trial_id": "mouselab_instructions_1_misaligned", "trial_type": "instructions", "trial_index": 2, "time_elapsed": 101018, "internal_node_id": "0.0-2.0-1.0"}}, {"uniqueid": "w85032499:a22801272", "current_trial": 3, "dateTime": 1693661019819, "trialdata": {"revealed_states": [], "clicked_states": ["1", "23", "12"], "num_clicks_accrued": [0, 0, 0, 0, 0, 0, 0, 0, 0, 0, 0, 0, 0], "stateRewards": ["", -10, -10, 10, -10, 10, -10, 10, -10, 10, -10, 10, -10, 10, 10, -10, -10, -10, 10, 10, 10, -10, -10, -10, -10, -10, 10, 10, 10, 10, 10, -10, -10, -10], "withholdReward": false, "trial_id": "practice_1", "block": "test", "trialIndex": 0, "score": -8, "costs": -1.5, "simulationMode": [null, null, null, null, null], "rewards": [-10, 10, 10, -10, -10], "path": ["0", "0", "12", "13", "14", "15", "17"], "rt": [20981, 7230, 2085, 348, 330], "actions": ["right", "right", "right", "up", "right"], "actionTimes": [24936, 32666, 35269, 36132, 36964], "queries": {"click": {"state": {"target": ["1", "23", "12"], "time": [8852, 14906, 19914]}, "edge": {"target": [], "time": []}}, "mouseover": {"state": {"target": ["1", "23", "0", "12", "2", "18"], "time": [7032, 14101, 15782, 16082, 23066, 23532]}, "edge": {"target": [], "time": []}}, "mouseout": {"state": {"target": ["0", "1", "23", "0", "12", "2", "18", "14", "13", "14"], "time": [3441, 13819, 15730, 15930, 20664, 23332, 23566, 27750, 29517, 29531]}, "edge": {"target": [], "time": []}}}, "displayed_time": "37.46", "trialTime": 41282, "trial_type": "mouselab-mdp", "trial_index": 3, "time_elapsed": 142911, "internal_node_id": "0.0-2.0-2.0-0.0"}}, {"uniqueid": "w85032499:a22801272", "current_trial": 4, "dateTime": 1693661056554, "trialdata": {"revealed_states": [], "clicked_states": ["3", "4", "8", "2", "1"], "num_clicks_accrued": [0, 0, 0, 0, 0, 0, 0, 0, 0, 0, 0, 0, 0], "stateRewards": ["", 10, -10, 10, 10, 10, -10, 10, 10, -10, 10, -10, 10, 10, -10, 10, -10, 10, 10, 10, 10, 10, 10, -10, 10, -10, 10, -10, 10, -10, -10, -10, -10, 10], "withholdReward": false, "trial_id": "practice_2", "block": "test", "trialIndex": 1, "score": 31, "costs": -2.5, "simulationMode": [null, null, null, null, null], "rewards": [10, -10, 10, 10, 10], "path": ["0", "0", "1", "2", "3", "4", "5"], "rt": [28151, 169, 175, 164, 227], "actions": ["up", "up", "up", "right", "up"], "actionTimes": [30577, 31252, 31923, 32578, 33324], "queries": {"click": {"state": {"target": ["3", "4", "8", "2", "1"], "time": [5250, 12467, 16691, 22233, 26383]}, "edge": {"target": [], "time": []}}, "mouseover": {"state": {"target": ["1", "2", "3", "7", "4", "3", "8", "4", "7", "2", "1", "1"], "time": [4265, 4431, 4832, 11145, 11480, 14396, 14662, 18381, 21680, 21882, 25281, 26064]}, "edge": {"target": [], "time": []}}, "mouseout": {"state": {"target": ["14", "12", "0", "1", "2", "3", "7", "4", "3", "8", "4", "7", "2", "1", "1"], "time": [1529, 1780, 2047, 4365, 4647, 7432, 11329, 14344, 14515, 18329, 18394, 21780, 25013, 25613, 26696]}, "edge": {"target": [], "time": []}}}, "displayed_time": "33.83", "trialTime": 36615, "trial_type": "mouselab-mdp", "trial_index": 4, "time_elapsed": 179646, "internal_node_id": "0.0-2.0-2.0-1.0"}}, {"uniqueid": "w85032499:a22801272", "current_trial": 5, "dateTime": 1693661082731, "trialdata": {"view_history": [{"page_index": 0, "viewing_time": 20941}, {"page_index": 1, "viewing_time": 5233}], "rt": 26174, "trial_id": "mouselab_instructions_2_misaligned", "trial_type": "instructions", "trial_index": 5, "time_elapsed": 205823, "internal_node_id": "0.0-2.0-3.0"}}, {"uniqueid": "w85032499:a22801272", "current_trial": 6, "dateTime": 1693661156518, "trialdata": {"rt": 73781, "response": {"Q0": "The cost for clicking on nodes may vary between nodes.", "Q1": "The better I perform the higher my bonus will be.", "Q2": "No, the amount of cash at each node of the web may be different each time.", "Q3": "To get the highest total score.", "Q4": "Only before moving the spider.", "Q5": "10 seconds"}, "question_order": [0, 1, 2, 3, 4, 5], "correct": {"Q0": "The cost for clicking on nodes may vary between nodes.", "Q1": "The better I perform the higher my bonus will be.", "Q2": "No, the amount of cash at each node of the web may be different each time.", "Q3": "To get the highest total score.", "Q4": "Only before moving the spider.", "Q5": "3 seconds"}, "trial_id": "mouselab_quiz_misaligned", "trial_type": "survey-multi-choice", "trial_index": 6, "time_elapsed": 279610, "internal_node_id": "0.0-2.0-4.0"}}, {"uniqueid": "w85032499:a22801272", "current_trial": 7, "dateTime": 1693661165779, "trialdata": {"success": true, "trial_type": "fullscreen", "trial_index": 7, "time_elapsed": 288871, "internal_node_id": "0.0-2.1-0.1-0.1"}}, {"uniqueid": "w85032499:a22801272", "current_trial": 8, "dateTime": 1693661204318, "trialdata": {"view_history": [{"page_index": 0, "viewing_time": 8291}, {"page_index": 1, "viewing_time": 9537}, {"page_index": 2, "viewing_time": 4818}, {"page_index": 3, "viewing_time": 15892}], "rt": 38537, "trial_id": "mouselab_instructions_1_misaligned", "trial_type": "instructions", "trial_index": 8, "time_elapsed": 327410, "internal_node_id": "0.0-2.1-1.1"}}, {"uniqueid": "w85032499:a22801272", "current_trial": 9, "dateTime": 1693661234546, "trialdata": {"revealed_states": [], "clicked_states": ["1", "12", "23", "13", "14", "15", "18"], "num_clicks_accrued": [0, 0, 0, 0, 0, 0, 0, 0, 0, 0, 0, 0, 0], "stateRewards": ["", -10, -10, 10, -10, 10, -10, 10, -10, 10, -10, 10, -10, 10, 10, -10, -10, -10, 10, 10, 10, -10, -10, -10, -10, -10, 10, 10, 10, 10, 10, -10, -10, -10], "withholdReward": false, "trial_id": "practice_1", "block": "test", "trialIndex": 2, "score": 10, "costs": -3.5, "simulationMode": [null, null, null, null, null], "rewards": [-10, 10, 10, -10, 10], "path": ["0", "0", "12", "13", "14", "15", "18"], "rt": [21467, 402, 232, 213, 193], "actions": ["right", "right", "right", "up", "left"], "actionTimes": [23936, 24860, 25604, 26334, 27047], "queries": {"click": {"state": {"target": ["1", "12", "23", "13", "14", "15", "18"], "time": [4277, 7568, 10128, 14176, 16673, 18406, 21617]}, "edge": {"target": [], "time": []}}, "mouseover": {"state": {"target": ["1", "2", "12", "0", "23", "22", "21", "19", "13", "14", "15", "17", "18", "17"], "time": [3767, 4717, 7006, 9470, 9855, 10517, 12672, 13340, 13721, 16116, 17269, 19839, 21288, 23188]}, "edge": {"target": [], "time": []}}, "mouseout": {"state": {"target": ["0", "1", "2", "12", "12", "0", "23", "22", "21", "19", "13", "14", "15", "17", "15", "18", "17"], "time": [3484, 4550, 6683, 7779, 8835, 9584, 10484, 10551, 13321, 13438, 16020, 17102, 19622, 21122, 21188, 21813, 23223]}, "edge": {"target": [], "time": []}}}, "displayed_time": "27.55", "trialTime": 30084, "trial_type": "mouselab-mdp", "trial_index": 9, "time_elapsed": 357637, "internal_node_id": "0.0-2.1-2.1-0.1"}}, {"uniqueid": "w85032499:a22801272", "current_trial": 10, "dateTime": 1693661255378, "trialdata": {"revealed_states": [], "clicked_states": ["1", "2", "3", "4", "5"], "num_clicks_accrued": [0, 0, 0, 0, 0, 0, 0, 0, 0, 0, 0, 0, 0], "stateRewards": ["", 10, -10, 10, 10, 10, -10, 10, 10, -10, 10, -10, 10, 10, -10, 10, -10, 10, 10, 10, 10, 10, 10, -10, 10, -10, 10, -10, 10, -10, -10, -10, -10, 10], "withholdReward": false, "trial_id": "practice_2", "block": "test", "trialIndex": 3, "score": 31, "costs": -2.5, "simulationMode": [null, null, null, null, null], "rewards": [10, -10, 10, 10, 10], "path": ["0", "0", "1", "2", "3", "4", "5"], "rt": [13320, 115, 103, 106, 133], "actions": ["up", "up", "up", "right", "up"], "actionTimes": [16067, 16700, 17319, 17940, 18580], "queries": {"click": {"state": {"target": ["1", "2", "3", "4", "5"], "time": [4720, 6259, 8683, 10390, 12257]}, "edge": {"target": [], "time": []}}, "mouseover": {"state": {"target": ["1", "2", "3", "4", "5"], "time": [3818, 5113, 6714, 9950, 10881]}, "edge": {"target": [], "time": []}}, "mouseout": {"state": {"target": ["14", "13", "0", "1", "2", "3", "4", "5"], "time": [1733, 1749, 3651, 4929, 6497, 9815, 10698, 13565]}, "edge": {"target": [], "time": []}}}, "displayed_time": "19.08", "trialTime": 20678, "trial_type": "mouselab-mdp", "trial_index": 10, "time_elapsed": 378469, "internal_node_id": "0.0-2.1-2.1-1.1"}}, {"uniqueid": "w85032499:a22801272", "current_trial": 11, "dateTime": 1693661261459, "trialdata": {"view_history": [{"page_index": 0, "viewing_time": 3800}, {"page_index": 1, "viewing_time": 2275}], "rt": 6076, "trial_id": "mouselab_instructions_2_misaligned", "trial_type": "instructions", "trial_index": 11, "time_elapsed": 384551, "internal_node_id": "0.0-2.1-3.1"}}, {"uniqueid": "w85032499:a22801272", "current_trial": 12, "dateTime": 1693661299865, "trialdata": {"rt": 38398, "response": {"Q0": "The cost is always $2.", "Q1": "The better I perform the higher my bonus will be.", "Q2": "No, the amount of cash at each node of the web may be different each time.", "Q3": "To get the highest total score.", "Q4": "Only before moving the spider.", "Q5": "3 seconds"}, "question_order": [0, 1, 2, 3, 4, 5], "correct": {"Q0": "The cost for clicking on nodes may vary between nodes.", "Q1": "The better I perform the higher my bonus will be.", "Q2": "No, the amount of cash at each node of the web may be different each time.", "Q3": "To get the highest total score.", "Q4": "Only before moving the spider.", "Q5": "3 seconds"}, "trial_id": "mouselab_quiz_misaligned", "trial_type": "survey-multi-choice", "trial_index": 12, "time_elapsed": 422956, "internal_node_id": "0.0-2.1-4.1"}}, {"uniqueid": "w85032499:a22801272", "current_trial": 13, "dateTime": 1693661304707, "trialdata": {"success": true, "trial_type": "fullscreen", "trial_index": 13, "time_elapsed": 427799, "internal_node_id": "0.0-2.2-0.2-0.2"}}, {"uniqueid": "w85032499:a22801272", "current_trial": 14, "dateTime": 1693661334102, "trialdata": {"view_history": [{"page_index": 0, "viewing_time": 5699}, {"page_index": 1, "viewing_time": 18917}, {"page_index": 2, "viewing_time": 2214}, {"page_index": 3, "viewing_time": 2562}], "rt": 29392, "trial_id": "mouselab_instructions_1_misaligned", "trial_type": "instructions", "trial_index": 14, "time_elapsed": 457194, "internal_node_id": "0.0-2.2-1.2"}}, {"uniqueid": "w85032499:a22801272", "current_trial": 15, "dateTime": 1693661341258, "trialdata": {"revealed_states": [], "clicked_states": [], "num_clicks_accrued": [0, 0, 0, 0, 0, 0, 0, 0, 0, 0, 0, 0, 0], "stateRewards": ["", -10, -10, 10, -10, 10, -10, 10, -10, 10, -10, 10, -10, 10, 10, -10, -10, -10, 10, 10, 10, -10, -10, -10, -10, -10, 10, 10, 10, 10, 10, -10, -10, -10], "withholdReward": false, "trial_id": "practice_1", "block": "test", "trialIndex": 4, "score": -6.5, "costs": 0, "simulationMode": [null, null, null, null, null], "rewards": [-10, -10, 10, -10, 10], "path": ["0", "0", "1", "2", "3", "8", "9"], "rt": [1285, 58, 75, 196, 22], "actions": ["up", "up", "up", "left", "up"], "actionTimes": [2826, 3398, 3984, 4689, 5234], "queries": {"click": {"state": {"target": [], "time": []}, "edge": {"target": [], "time": []}}, "mouseover": {"state": {"target": ["12", "13"], "time": [1676, 1726]}, "edge": {"target": [], "time": []}}, "mouseout": {"state": {"target": ["0", "12"], "time": [1646, 1692]}, "edge": {"target": [], "time": []}}}, "displayed_time": "5.74", "trialTime": 6956, "trial_type": "mouselab-mdp", "trial_index": 15, "time_elapsed": 464350, "internal_node_id": "0.0-2.2-2.2-0.2"}}, {"uniqueid": "w85032499:a22801272", "current_trial": 16, "dateTime": 1693661349627, "trialdata": {"revealed_states": [], "clicked_states": [], "num_clicks_accrued": [0, 0, 0, 0, 0, 0, 0, 0, 0, 0, 0, 0, 0], "stateRewards": ["", 10, -10, 10, 10, 10, -10, 10, 10, -10, 10, -10, 10, 10, -10, 10, -10, 10, 10, 10, 10, 10, 10, -10, 10, -10, 10, -10, 10, -10, -10, -10, -10, 10], "withholdReward": false, "trial_id": "practice_2", "block": "test", "trialIndex": 5, "score": 33.5, "costs": 0, "simulationMode": [null, null, null, null, null], "rewards": [10, 10, -10, 10, 10], "path": ["0", "0", "12", "13", "14", "15", "18"], "rt": [793, 468, 204, 155, 105], "actions": ["right", "right", "right", "up", "left"], "actionTimes": [3226, 4212, 4933, 5599, 6204], "queries": {"click": {"state": {"target": [], "time": []}, "edge": {"target": [], "time": []}}, "mouseover": {"state": {"target": ["12"], "time": [2480]}, "edge": {"target": [], "time": []}}, "mouseout": {"state": {"target": ["13", "12", "12"], "time": [1731, 1862, 2495]}, "edge": {"target": [], "time": []}}}, "displayed_time": "6.70", "trialTime": 8178, "trial_type": "mouselab-mdp", "trial_index": 16, "time_elapsed": 472718, "internal_node_id": "0.0-2.2-2.2-1.2"}}, {"uniqueid": "w85032499:a22801272", "current_trial": 17, "dateTime": 1693661354708, "trialdata": {"view_history": [{"page_index": 0, "viewing_time": 3504}, {"page_index": 1, "viewing_time": 1571}], "rt": 5076, "trial_id": "mouselab_instructions_2_misaligned", "trial_type": "instructions", "trial_index": 17, "time_elapsed": 477800, "internal_node_id": "0.0-2.2-3.2"}}, {"uniqueid": "w85032499:a22801272", "current_trial": 18, "dateTime": 1693661371003, "trialdata": {"rt": 16288, "response": {"Q0": "The cost for clicking on nodes may vary between nodes.", "Q1": "The better I perform the higher my bonus will be.", "Q2": "No, the amount of cash at each node of the web may be different each time.", "Q3": "To get the highest total score.", "Q4": "Only before moving the spider.", "Q5": "3 seconds"}, "question_order": [0, 1, 2, 3, 4, 5], "correct": {"Q0": "The cost for clicking on nodes may vary between nodes.", "Q1": "The better I perform the higher my bonus will be.", "Q2": "No, the amount of cash at each node of the web may be different each time.", "Q3": "To get the highest total score.", "Q4": "Only before moving the spider.", "Q5": "3 seconds"}, "trial_id": "mouselab_quiz_misaligned", "trial_type": "survey-multi-choice", "trial_index": 18, "time_elapsed": 494095, "internal_node_id": "0.0-2.2-4.2"}}, {"uniqueid": "w85032499:a22801272", "current_trial": 19, "dateTime": 1693661384490, "trialdata": {"rt": 13469, "response": {"Q0": "No"}, "question_order": [0], "trial_id": "repeat_check", "trial_type": "survey-multi-choice", "trial_index": 19, "time_elapsed": 507582, "internal_node_id": "0.0-4.0-0.0"}}, {"uniqueid": "w85032499:a22801272", "current_trial": 20, "dateTime": 1693661388273, "trialdata": {"rt": 3773, "stimulus": "\n<h1> Get ready to start the game! </h1>\n\nThank you for reading the instructions. Get ready start with the 40 rounds of this game.\n<br><br>\nIf you need to take a break, feel free to take one after the end of a round, before continuing to the next one.\n<br><br>\nRemember, the more money the spider gets, the bigger your bonus will be!\n<br><br>\n<div style='text-align: center;'>Press <code>space</code> to begin.</div>\n\n<br><br>\n(If, at any point, the <code>space</code> key does not take you to the next page, click once on the text and try again.)", "response": " ", "trial_id": "mdp_ready", "trial_type": "html-keyboard-response", "trial_index": 20, "time_elapsed": 511365, "internal_node_id": "0.0-6.0-0.0"}}, {"uniqueid": "w85032499:a22801272", "current_trial": 21, "dateTime": 1693661439942, "trialdata": {"revealed_states": [], "clicked_states": ["1", "12", "23", "2", "7", "3"], "num_clicks_accrued": [0, 0, 0, 0, 0, 0, 0, 0, 0, 0, 0, 0, 0], "stateRewards": ["", -2, -3, 1, -7, 39, -67, 16, 5, -20, 73, 66, -1, 4, 5, -3, 23, -68, -87, -8, 3, -3, 17, 1, -4, -2, -13, -32, 34, 61, -5, -11, -18, 12], "withholdReward": false, "trial_id": "mdp_trial_1", "block": "test", "trialIndex": 6, "score": 2.3000000000000007, "costs": -2.7, "simulationMode": [null, null, null, null, null], "rewards": [-2, -3, 1, -7, 16], "path": ["0", "0", "1", "2", "3", "4", "7"], "rt": [12732, 128, 1028, 415, 155], "actions": ["up", "up", "up", "right", "down"], "actionTimes": [16393, 17026, 18579, 19513, 20169], "queries": {"click": {"state": {"target": ["1", "12", "23", "2", "7", "3"], "time": [5599, 7285, 8461, 9743, 11232, 14268]}, "edge": {"target": [], "time": []}}, "mouseover": {"state": {"target": ["1", "2", "12", "23", "2", "7", "4", "3", "4", "6", "6", "4", "3", "6"], "time": [4663, 6179, 6963, 7911, 9311, 10761, 11609, 12576, 13226, 13276, 13543, 13612, 13794, 14476]}, "edge": {"target": [], "time": []}}, "mouseout": {"state": {"target": ["0", "1", "2", "12", "23", "12", "2", "7", "4", "3", "4", "6", "6", "4", "3", "6", "28", "26"], "time": [4376, 5845, 6561, 7643, 8593, 8994, 9941, 11320, 12493, 13209, 13242, 13293, 13576, 13662, 14459, 14494, 26031, 26045]}, "edge": {"target": [], "time": []}}}, "displayed_time": "20.67", "trialTime": 51496, "trial_type": "mouselab-mdp", "trial_index": 21, "time_elapsed": 563034, "internal_node_id": "0.0-6.0-1.0-0.0"}}, {"uniqueid": "w85032499:a22801272", "current_trial": 22, "dateTime": 1693661462301, "trialdata": {"revealed_states": [], "clicked_states": ["1", "2", "3", "8", "10"], "num_clicks_accrued": [0, 0, 0, 0, 0, 0, 0, 0, 0, 0, 0, 0, 0], "stateRewards": ["", 1, 2, -6, -13, -51, 22, -4, -12, -44, -12, 6, -2, -2, -2, -14, -46, -4, -77, -2, 36, -79, 41, 2, -4, 2, -6, -55, 59, 70, -5, 39, -19, 24], "withholdReward": false, "trial_id": "mdp_trial_2", "block": "test", "trialIndex": 7, "score": 1.25, "costs": -4.75, "simulationMode": [null, null, null, null, null, null], "rewards": [1, 2, -6, -13, 22], "path": ["0", "0", "1", "2", "3", "4", "6"], "rt": [10506, 4534, 169, 505, 103, 115], "actions": ["up", "up", "up", "up", "right", "right"], "actionTimes": [12932, 17468, 18146, 19148, 19764, 20377], "queries": {"click": {"state": {"target": ["1", "2", "3", "8", "10"], "time": [4156, 5703, 6897, 9254, 10664]}, "edge": {"target": [], "time": []}}, "mouseover": {"state": {"target": ["12", "1", "2", "3", "8", "10", "2", "7", "16", "17", "15", "18", "0"], "time": [3294, 3610, 5129, 6210, 8525, 10226, 10977, 11010, 11059, 14078, 14093, 14126, 14697]}, "edge": {"target": [], "time": []}}, "mouseout": {"state": {"target": ["0", "12", "1", "2", "3", "8", "10", "2", "7", "16", "17", "15", "18"], "time": [2060, 3361, 4995, 5882, 8043, 10161, 10976, 10995, 11025, 11093, 14092, 14109, 14142]}, "edge": {"target": [], "time": []}}}, "displayed_time": "20.88", "trialTime": 22156, "trial_type": "mouselab-mdp", "trial_index": 22, "time_elapsed": 585392, "internal_node_id": "0.0-6.0-1.0-1.0"}}, {"uniqueid": "w85032499:a22801272", "current_trial": 23, "dateTime": 1693661488188, "trialdata": {"revealed_states": [], "clicked_states": ["13", "12", "14", "24", "23", "25", "26", "28"], "num_clicks_accrued": [0, 0, 0, 0, 0, 0, 0, 0, 0, 0, 0, 0, 0], "stateRewards": ["", 2, 4, -3, 16, -58, 30, -35, 11, -60, 47, 27, -2, -1, -7, -16, 23, -70, 68, -10, -65, -43, -34, -2, 1, 7, 9, -63, 34, -31, -8, -12, -86, 59], "withholdReward": false, "trial_id": "mdp_trial_3", "block": "test", "trialIndex": 8, "score": 43.2, "costs": -5.799999999999999, "simulationMode": [null, null, null, null, null, null], "rewards": [-2, 1, 7, 9, 34], "path": ["0", "0", "23", "24", "25", "26", "28"], "rt": [15037, 3963, 204, 168, 114, 148], "actions": ["left", "left", "left", "left", "up", "right"], "actionTimes": [16941, 20906, 21605, 22284, 22897, 23549], "queries": {"click": {"state": {"target": ["13", "12", "14", "24", "23", "25", "26", "28"], "time": [3656, 6027, 7614, 9940, 11144, 12921, 13707, 14631]}, "edge": {"target": [], "time": []}}, "mouseover": {"state": {"target": ["13", "12", "12", "13", "14", "15", "23", "24", "23", "25", "26", "28", "23"], "time": [2833, 4515, 5666, 6967, 7183, 8750, 9218, 9266, 10581, 12435, 13317, 14231, 15065]}, "edge": {"target": [], "time": []}}, "mouseout": {"state": {"target": ["0", "0", "13", "12", "12", "13", "14", "15", "23", "24", "23", "24", "25", "26", "28", "23"], "time": [1134, 2583, 4449, 5364, 6933, 7050, 8533, 9150, 9232, 10448, 12031, 12301, 12992, 14101, 15032, 15081]}, "edge": {"target": [], "time": []}}}, "displayed_time": "24.07", "trialTime": 25665, "trial_type": "mouselab-mdp", "trial_index": 23, "time_elapsed": 611279, "internal_node_id": "0.0-6.0-1.0-2.0"}}, {"uniqueid": "w85032499:a22801272", "current_trial": 24, "dateTime": 1693661515230, "trialdata": {"revealed_states": [], "clicked_states": ["1", "2", "3", "23", "12", "26", "28"], "num_clicks_accrued": [0, 0, 0, 0, 0, 0, 0, 0, 0, 0, 0, 0, 0], "stateRewards": ["", 2, 3, -3, 12, -43, 81, -82, -15, 58, -7, -75, -1, -1, 3, -5, 50, -25, -8, 4, 66, 65, -66, 2, -4, 2, -1, -10, 10, 37, 11, 88, -37, 8], "withholdReward": false, "trial_id": "mdp_trial_4", "block": "test", "trialIndex": 9, "score": 4.75, "costs": -4.25, "simulationMode": [null, null, null, null, null], "rewards": [2, -4, 2, -1, 10], "path": ["0", "0", "23", "24", "25", "26", "28"], "rt": [19030, 187, 124, 62, 134], "actions": ["left", "left", "left", "up", "right"], "actionTimes": [22358, 23052, 23688, 24262, 24914], "queries": {"click": {"state": {"target": ["1", "2", "3", "23", "12", "26", "28"], "time": [5876, 7484, 9063, 11397, 12750, 14445, 16058]}, "edge": {"target": [], "time": []}}, "mouseover": {"state": {"target": ["1", "2", "3", "4", "7", "1", "23", "23", "12", "0", "24", "26", "28", "28", "24", "24"], "time": [5117, 7132, 8664, 10296, 10579, 10630, 10698, 11082, 12244, 13529, 13645, 14099, 15161, 15647, 18145, 19380]}, "edge": {"target": [], "time": []}}, "mouseout": {"state": {"target": ["0", "1", "2", "3", "4", "7", "1", "23", "23", "12", "0", "23", "24", "26", "28", "28", "24", "28", "24"], "time": [4949, 6946, 8345, 10181, 10545, 10594, 10645, 10896, 12096, 13512, 13563, 13612, 13662, 15062, 15395, 16529, 18629, 19346, 19430]}, "edge": {"target": [], "time": []}}}, "displayed_time": "25.41", "trialTime": 26872, "trial_type": "mouselab-mdp", "trial_index": 24, "time_elapsed": 638322, "internal_node_id": "0.0-6.0-1.0-3.0"}}, {"uniqueid": "w85032499:a22801272", "current_trial": 25, "dateTime": 1693661533341, "trialdata": {"revealed_states": [], "clicked_states": ["28"], "num_clicks_accrued": [0, 0, 0, 0, 0, 0, 0, 0, 0, 0, 0, 0, 0], "stateRewards": ["", 1, 3, 3, -10, 52, 68, 59, 12, 7, 49, 21, -2, -3, -4, -2, -2, 63, 63, -4, 44, 43, -76, -2, -3, -6, 13, 48, 36, 12, -5, -36, -33, -11], "withholdReward": false, "trial_id": "mdp_trial_5", "block": "test", "trialIndex": 10, "score": 35.85, "costs": -2.15, "simulationMode": [null, null, null, null, null], "rewards": [-2, -3, -6, 13, 36], "path": ["0", "0", "23", "24", "25", "26", "28"], "rt": [9347, 114, 93, 113, 120], "actions": ["left", "left", "left", "up", "right"], "actionTimes": [11536, 12149, 12742, 13362, 13986], "queries": {"click": {"state": {"target": ["28"], "time": [4597]}, "edge": {"target": [], "time": []}}, "mouseover": {"state": {"target": ["23", "24", "28", "23", "24", "24", "23"], "time": [3651, 3879, 4232, 9299, 9463, 9849, 10350]}, "edge": {"target": [], "time": []}}, "mouseout": {"state": {"target": ["0", "23", "24", "28", "23", "24", "24", "23"], "time": [3567, 3817, 4032, 5563, 9331, 9750, 10048, 10381]}, "edge": {"target": [], "time": []}}}, "displayed_time": "16.19", "trialTime": 17951, "trial_type": "mouselab-mdp", "trial_index": 25, "time_elapsed": 656432, "internal_node_id": "0.0-6.0-1.0-4.0"}}, {"uniqueid": "w85032499:a22801272", "current_trial": 26, "dateTime": 1693661560924, "trialdata": {"revealed_states": [], "clicked_states": ["28", "31", "33", "29"], "num_clicks_accrued": [0, 0, 0, 0, 0, 0, 0, 0, 0, 0, 0, 0, 0], "stateRewards": ["", -1, 4, 3, 12, -27, 34, -33, 3, -63, 1, 6, 2, 2, -6, -11, -77, -85, 68, -6, 51, 81, -60, -2, -2, 1, 15, 20, 15, 68, -10, -14, 6, -4], "withholdReward": false, "trial_id": "mdp_trial_6", "block": "test", "trialIndex": 11, "score": 71.4, "costs": -8.6, "simulationMode": [null, null, null, null, null], "rewards": [-2, -2, 1, 15, 68], "path": ["0", "0", "23", "24", "25", "26", "29"], "rt": [20919, 146, 115, 57, 61], "actions": ["left", "left", "left", "up", "left"], "actionTimes": [22534, 23174, 23790, 24350, 24920], "queries": {"click": {"state": {"target": ["28", "31", "33", "29"], "time": [3532, 8603, 12983, 16370]}, "edge": {"target": [], "time": []}}, "mouseover": {"state": {"target": ["28", "24", "31", "30", "33", "29", "24"], "time": [3262, 7978, 8276, 12258, 12527, 14576, 19743]}, "edge": {"target": [], "time": []}}, "mouseout": {"state": {"target": ["0", "28", "24", "31", "30", "33", "29", "24"], "time": [1245, 7944, 8127, 12227, 12358, 14326, 19693, 19758]}, "edge": {"target": [], "time": []}}}, "displayed_time": "25.41", "trialTime": 27413, "trial_type": "mouselab-mdp", "trial_index": 26, "time_elapsed": 684016, "internal_node_id": "0.0-6.0-1.0-5.0"}}, {"uniqueid": "w85032499:a22801272", "current_trial": 27, "dateTime": 1693661579052, "trialdata": {"revealed_states": [], "clicked_states": ["17", "20"], "num_clicks_accrued": [0, 0, 0, 0, 0, 0, 0, 0, 0, 0, 0, 0, 0], "stateRewards": ["", 2, -3, -8, 14, -7, -51, 73, 2, 36, 36, -43, -1, 3, -4, 1, 6, 87, -65, 15, 61, -42, -83, -1, 3, -2, -7, 30, -48, 35, 13, 26, 60, 78], "withholdReward": false, "trial_id": "mdp_trial_7", "block": "test", "trialIndex": 12, "score": 81.7, "costs": -4.3, "simulationMode": [null, null, null, null, null], "rewards": [-1, 3, -4, 1, 87], "path": ["0", "0", "12", "13", "14", "15", "17"], "rt": [11897, 141, 81, 54, 91], "actions": ["right", "right", "right", "up", "right"], "actionTimes": [13462, 14100, 14696, 15263, 15870], "queries": {"click": {"state": {"target": ["17", "20"], "time": [3793, 7241]}, "edge": {"target": [], "time": []}}, "mouseover": {"state": {"target": ["12", "13", "14", "17", "20", "14"], "time": [2977, 3008, 3077, 3413, 5891, 10976]}, "edge": {"target": [], "time": []}}, "mouseout": {"state": {"target": ["0", "12", "13", "14", "17", "20", "14"], "time": [1209, 2995, 3044, 3127, 4792, 8676, 11143]}, "edge": {"target": [], "time": []}}}, "displayed_time": "16.36", "trialTime": 17974, "trial_type": "mouselab-mdp", "trial_index": 27, "time_elapsed": 702143, "internal_node_id": "0.0-6.0-1.0-6.0"}}, {"uniqueid": "w85032499:a22801272", "current_trial": 28, "dateTime": 1693661605756, "trialdata": {"revealed_states": [], "clicked_states": ["17", "20", "29", "33"], "num_clicks_accrued": [0, 0, 0, 0, 0, 0, 0, 0, 0, 0, 0, 0, 0], "stateRewards": ["", -1, -3, 1, 13, -64, -29, 12, -4, -33, 50, 56, 2, -3, 4, 11, -64, -58, -55, 12, 47, 38, -25, -2, 2, 5, -15, 85, 7, 84, 10, 8, 57, 26], "withholdReward": false, "trial_id": "mdp_trial_8", "block": "test", "trialIndex": 13, "score": 65.4, "costs": -8.6, "simulationMode": [null, null, null, null, null], "rewards": [-2, 2, 5, -15, 84], "path": ["0", "0", "23", "24", "25", "26", "29"], "rt": [16973, 107, 110, 138, 62], "actions": ["left", "left", "left", "up", "left"], "actionTimes": [18637, 19265, 19866, 20511, 21066], "queries": {"click": {"state": {"target": ["17", "20", "29", "33"], "time": [2971, 6518, 10767, 14190]}, "edge": {"target": [], "time": []}}, "mouseover": {"state": {"target": ["22", "19", "17", "20", "19", "22", "31", "30", "29", "33"], "time": [2238, 2288, 2722, 3922, 6903, 6922, 7022, 7457, 7622, 11237]}, "edge": {"target": [], "time": []}}, "mouseout": {"state": {"target": ["19", "22", "0", "22", "19", "17", "20", "19", "22", "31", "30", "29"], "time": [870, 887, 2206, 2256, 2340, 3703, 6887, 6920, 6937, 7054, 7471, 11089]}, "edge": {"target": [], "time": []}}}, "displayed_time": "21.56", "trialTime": 26526, "trial_type": "mouselab-mdp", "trial_index": 28, "time_elapsed": 728848, "internal_node_id": "0.0-6.0-1.0-7.0"}}, {"uniqueid": "w85032499:a22801272", "current_trial": 29, "dateTime": 1693661626352, "trialdata": {"revealed_states": [], "clicked_states": ["9", "5", "3"], "num_clicks_accrued": [0, 0, 0, 0, 0, 0, 0, 0, 0, 0, 0, 0, 0], "stateRewards": ["", 2, -4, 4, 9, 69, 9, -75, 12, -86, 66, 25, -1, 3, 2, -13, -88, -3, 1, 4, -69, 49, -84, 2, -1, 4, 2, -18, -81, -52, -15, -69, -54, 25], "withholdReward": false, "trial_id": "mdp_trial_9", "block": "test", "trialIndex": 14, "score": 74.75, "costs": -5.25, "simulationMode": [null, null, null, null, null], "rewards": [2, -4, 4, 9, 69], "path": ["0", "0", "1", "2", "3", "4", "5"], "rt": [14039, 19, 406, 21, 72], "actions": ["up", "up", "up", "right", "up"], "actionTimes": [15694, 16213, 17131, 17662, 18230], "queries": {"click": {"state": {"target": ["9", "5", "3"], "time": [2820, 6306, 11224]}, "edge": {"target": [], "time": []}}, "mouseover": {"state": {"target": ["1", "10", "8", "9", "5", "4", "3", "2", "4", "7"], "time": [2079, 2125, 2158, 2491, 3540, 10425, 10693, 11907, 14094, 14425]}, "edge": {"target": [], "time": []}}, "mouseout": {"state": {"target": ["33", "30", "31", "0", "1", "10", "8", "9", "5", "4", "3", "2", "4", "7"], "time": [774, 808, 824, 2045, 2090, 2143, 2309, 3424, 10245, 10627, 11841, 13543, 14258, 14441]}, "edge": {"target": [], "time": []}}}, "displayed_time": "18.74", "trialTime": 20441, "trial_type": "mouselab-mdp", "trial_index": 29, "time_elapsed": 749443, "internal_node_id": "0.0-6.0-1.0-8.0"}}, {"uniqueid": "w85032499:a22801272", "current_trial": 30, "dateTime": 1693661650182, "trialdata": {"revealed_states": [], "clicked_states": ["28", "29", "33", "31"], "num_clicks_accrued": [0, 0, 0, 0, 0, 0, 0, 0, 0, 0, 0, 0, 0], "stateRewards": ["", -2, -1, -6, -14, -55, 78, -13, 11, 14, -71, 59, 2, 2, 6, -6, 9, 38, 14, 7, 85, 11, 68, 1, -4, -1, -3, -63, -85, 9, -2, 63, -86, -10], "withholdReward": false, "trial_id": "mdp_trial_10", "block": "test", "trialIndex": 15, "score": 48.4, "costs": -8.6, "simulationMode": [null, null, null, null, null], "rewards": [1, -4, -1, -2, 63], "path": ["0", "0", "23", "24", "25", "30", "31"], "rt": [17767, 103, 90, 24, 214], "actions": ["left", "left", "left", "down", "right"], "actionTimes": [19356, 19969, 20554, 21071, 21780], "queries": {"click": {"state": {"target": ["28", "29", "33", "31"], "time": [4300, 7788, 11152, 14511]}, "edge": {"target": [], "time": []}}, "mouseover": {"state": {"target": ["1", "2", "10", "26", "28", "26", "29", "33", "30", "31"], "time": [2381, 2430, 2847, 3613, 3999, 5180, 5429, 8362, 11463, 11629]}, "edge": {"target": [], "time": []}}, "mouseout": {"state": {"target": ["18", "12", "1", "2", "10", "26", "28", "26", "29", "33", "30"], "time": [829, 879, 2413, 2513, 2916, 3798, 5149, 5296, 8163, 11447, 11546]}, "edge": {"target": [], "time": []}}}, "displayed_time": "22.28", "trialTime": 23645, "trial_type": "mouselab-mdp", "trial_index": 30, "time_elapsed": 773273, "internal_node_id": "0.0-6.0-1.0-9.0"}}, {"uniqueid": "w85032499:a22801272", "current_trial": 31, "dateTime": 1693661694068, "trialdata": {"revealed_states": [], "clicked_states": ["9", "5", "17", "20", "29", "33", "31", "28", "18", "22"], "num_clicks_accrued": [0, 0, 0, 0, 0, 0, 0, 0, 0, 0, 0, 0, 0], "stateRewards": ["", 1, -1, 8, -3, 38, 85, -20, -4, 8, 23, 73, 2, -4, 6, -13, 44, 7, -28, -11, -77, 45, -69, 1, -1, -7, -11, 75, -51, -87, 7, 36, -53, -26], "withholdReward": false, "trial_id": "mdp_trial_11", "block": "test", "trialIndex": 16, "score": -90.5, "costs": -21.499999999999996, "simulationMode": [null, null, null, null, null], "rewards": [1, -1, -7, -11, -51], "path": ["0", "0", "23", "24", "25", "26", "28"], "rt": [37350, 44, 53, 46, 54], "actions": ["left", "left", "left", "up", "right"], "actionTimes": [38860, 39410, 39971, 40509, 41066], "queries": {"click": {"state": {"target": ["9", "5", "17", "20", "29", "33", "31", "28", "18", "22"], "time": [3005, 6334, 10570, 13896, 17334, 20841, 24221, 27751, 32156, 35564]}, "edge": {"target": [], "time": []}}, "mouseover": {"state": {"target": ["7", "3", "9", "5", "15", "17", "20", "20", "19", "22", "24", "25", "26", "29", "33", "30", "31", "24", "28", "1", "18", "13", "22"], "time": [2313, 2463, 2633, 3714, 9999, 10232, 11048, 11514, 14263, 14280, 14379, 14496, 14614, 14797, 17728, 21414, 21595, 24513, 24729, 31347, 31715, 32646, 32796]}, "edge": {"target": [], "time": []}}, "mouseout": {"state": {"target": ["31", "0", "7", "3", "9", "5", "15", "17", "20", "20", "19", "22", "24", "25", "26", "29", "29", "33", "30", "31", "24", "28", "1", "18", "13", "22"], "time": [746, 2181, 2347, 2479, 3496, 9783, 10148, 10946, 11146, 14246, 14278, 14297, 14412, 14513, 14679, 17470, 17645, 21379, 21497, 24350, 24563, 31281, 31414, 32614, 32696, 35961]}, "edge": {"target": [], "time": []}}}, "displayed_time": "41.58", "trialTime": 43698, "trial_type": "mouselab-mdp", "trial_index": 31, "time_elapsed": 817159, "internal_node_id": "0.0-6.0-1.0-10.0"}}, {"uniqueid": "w85032499:a22801272", "current_trial": 32, "dateTime": 1693661724351, "trialdata": {"revealed_states": [], "clicked_states": ["10", "7", "5", "9", "28", "31"], "num_clicks_accrued": [0, 0, 0, 0, 0, 0, 0, 0, 0, 0, 0, 0, 0], "stateRewards": ["", -1, 3, 8, 10, -86, 61, -36, 10, 17, -60, 24, -1, -3, 3, 11, 50, 60, 33, -3, -20, 58, -6, 1, -4, -4, 13, -70, -71, 43, 14, 52, 82, -11], "withholdReward": false, "trial_id": "mdp_trial_12", "block": "test", "trialIndex": 17, "score": 46.1, "costs": -12.9, "simulationMode": [null, null, null, null, null], "rewards": [1, -4, -4, 14, 52], "path": ["0", "0", "23", "24", "25", "30", "31"], "rt": [24404, 42, 121, 50, 182], "actions": ["left", "left", "left", "down", "right"], "actionTimes": [26189, 26733, 27360, 27904, 28602], "queries": {"click": {"state": {"target": ["10", "7", "5", "9", "28", "31"], "time": [3300, 6779, 10090, 13400, 18608, 21985]}, "edge": {"target": [], "time": []}}, "mouseover": {"state": {"target": ["10", "8", "10", "2", "7", "4", "5", "9", "11", "28", "24", "31", "30", "33"], "time": [2288, 2388, 2938, 3920, 4021, 7104, 7203, 10521, 13972, 18254, 18969, 19071, 22302, 22485]}, "edge": {"target": [], "time": []}}, "mouseout": {"state": {"target": ["0", "10", "8", "10", "2", "7", "4", "5", "9", "11", "28", "24", "31", "30"], "time": [2195, 2337, 2804, 3508, 3954, 7069, 7153, 10241, 13804, 17740, 18954, 19021, 22269, 22385]}, "edge": {"target": [], "time": []}}}, "displayed_time": "29.10", "trialTime": 30089, "trial_type": "mouselab-mdp", "trial_index": 32, "time_elapsed": 847442, "internal_node_id": "0.0-6.0-1.0-11.0"}}, {"uniqueid": "w85032499:a22801272", "current_trial": 33, "dateTime": 1693661750703, "trialdata": {"revealed_states": [], "clicked_states": ["31", "28", "29", "33", "10"], "num_clicks_accrued": [0, 0, 0, 0, 0, 0, 0, 0, 0, 0, 0, 0, 0], "stateRewards": ["", 2, -3, -2, 14, -4, 85, 46, 15, -28, 41, 31, -1, -1, -1, 5, 62, 79, 57, 12, -73, -64, 86, -1, 1, -3, -5, 68, 11, -32, 8, -80, -21, -56], "withholdReward": false, "trial_id": "mdp_trial_13", "block": "test", "trialIndex": 18, "score": 42.25, "costs": -10.75, "simulationMode": [null, null, null, null, null], "rewards": [2, -3, -2, 15, 41], "path": ["0", "0", "1", "2", "3", "8", "10"], "rt": [20683, 114, 115, 65, 102], "actions": ["up", "up", "up", "left", "down"], "actionTimes": [22103, 22728, 23365, 23929, 24548], "queries": {"click": {"state": {"target": ["31", "28", "29", "33", "10"], "time": [2801, 6169, 9612, 13503, 17415]}, "edge": {"target": [], "time": []}}, "mouseover": {"state": {"target": ["23", "31", "24", "28", "26", "29", "33", "25", "24", "28", "10", "8", "9", "8", "10", "2", "7"], "time": [2246, 2515, 3412, 3563, 7031, 7179, 10194, 14334, 14352, 14379, 14428, 14478, 14744, 16762, 17112, 17712, 17830]}, "edge": {"target": [], "time": []}}, "mouseout": {"state": {"target": ["33", "30", "23", "23", "31", "24", "28", "26", "29", "33", "25", "24", "28", "10", "8", "9", "8", "10", "2"], "time": [563, 594, 662, 2262, 3365, 3478, 6997, 7098, 9963, 14315, 14351, 14361, 14396, 14444, 14661, 16697, 17012, 17679, 17762]}, "edge": {"target": [], "time": []}}}, "displayed_time": "25.06", "trialTime": 26135, "trial_type": "mouselab-mdp", "trial_index": 33, "time_elapsed": 873795, "internal_node_id": "0.0-6.0-1.0-12.0"}}, {"uniqueid": "w85032499:a22801272", "current_trial": 34, "dateTime": 1693661772452, "trialdata": {"revealed_states": [], "clicked_states": ["7", "10", "9", "5"], "num_clicks_accrued": [0, 0, 0, 0, 0, 0, 0, 0, 0, 0, 0, 0, 0], "stateRewards": ["", 1, 1, 7, -11, 80, -20, -53, -14, 3, 31, 27, 2, -1, -8, -10, 33, 41, 86, 9, 78, -37, -13, -1, -2, -6, -8, -80, 75, 4, -16, -49, -74, 24], "withholdReward": false, "trial_id": "mdp_trial_14", "block": "test", "trialIndex": 19, "score": 69.4, "costs": -8.6, "simulationMode": [null, null, null, null, null], "rewards": [1, 1, 7, -11, 80], "path": ["0", "0", "1", "2", "3", "4", "5"], "rt": [15736, 39, 115, 444, 225], "actions": ["up", "up", "up", "right", "up"], "actionTimes": [17008, 17561, 18190, 19151, 19883], "queries": {"click": {"state": {"target": ["7", "10", "9", "5"], "time": [2168, 6236, 9630, 12962]}, "edge": {"target": [], "time": []}}, "mouseover": {"state": {"target": ["7", "2", "10", "8", "9", "5", "6", "18"], "time": [1773, 5740, 5859, 6505, 6639, 10039, 13438, 13555]}, "edge": {"target": [], "time": []}}, "mouseout": {"state": {"target": ["7", "1", "7", "2", "10", "8", "9", "5", "5", "6"], "time": [623, 690, 5722, 5791, 6471, 6572, 9888, 13181, 13404, 13455]}, "edge": {"target": [], "time": []}}}, "displayed_time": "20.39", "trialTime": 21578, "trial_type": "mouselab-mdp", "trial_index": 34, "time_elapsed": 895544, "internal_node_id": "0.0-6.0-1.0-13.0"}}, {"uniqueid": "w85032499:a22801272", "current_trial": 35, "dateTime": 1693661790313, "trialdata": {"revealed_states": [], "clicked_states": ["18", "22", "17"], "num_clicks_accrued": [0, 0, 0, 0, 0, 0, 0, 0, 0, 0, 0, 0, 0], "stateRewards": ["", -1, 3, -5, -2, -13, -9, -34, -7, -81, 32, 35, -2, -2, 1, -14, -32, 81, 7, 4, 82, 56, -8, -1, 3, -8, 6, -24, -24, -53, 2, 38, 61, 54], "withholdReward": false, "trial_id": "mdp_trial_15", "block": "test", "trialIndex": 20, "score": 57.55, "costs": -6.449999999999999, "simulationMode": [null, null, null, null, null], "rewards": [-2, -2, 1, -14, 81], "path": ["0", "0", "12", "13", "14", "15", "17"], "rt": [11852, 50, 57, 28, 605], "actions": ["right", "right", "right", "up", "right"], "actionTimes": [13329, 13883, 14436, 14974, 16068], "queries": {"click": {"state": {"target": ["18", "22", "17"], "time": [2491, 5844, 9161]}, "edge": {"target": [], "time": []}}, "mouseover": {"state": {"target": ["12", "13", "15", "18", "13", "22", "19", "17", "20"], "time": [1679, 1730, 1997, 2197, 2928, 3113, 6145, 6514, 9695]}, "edge": {"target": [], "time": []}}, "mouseout": {"state": {"target": ["18", "12", "13", "15", "18", "13", "22", "19", "17"], "time": [794, 1712, 1795, 2078, 2896, 3012, 6129, 6162, 9462]}, "edge": {"target": [], "time": []}}}, "displayed_time": "16.58", "trialTime": 17679, "trial_type": "mouselab-mdp", "trial_index": 35, "time_elapsed": 913405, "internal_node_id": "0.0-6.0-1.0-14.0"}}, {"uniqueid": "w85032499:a22801272", "current_trial": 36, "dateTime": 1693661807883, "trialdata": {"revealed_states": [], "clicked_states": ["17", "20", "18"], "num_clicks_accrued": [0, 0, 0, 0, 0, 0, 0, 0, 0, 0, 0, 0, 0], "stateRewards": ["", 1, -3, 4, 13, -72, 52, 5, 5, -58, 5, 14, 2, 1, 3, -14, -86, -4, 73, 6, -58, -50, 49, 2, -3, -4, 2, 33, -41, 42, -11, 81, 45, 53], "withholdReward": false, "trial_id": "mdp_trial_16", "block": "test", "trialIndex": 21, "score": 58.55, "costs": -6.449999999999999, "simulationMode": [null, null, null, null, null], "rewards": [2, 1, 3, -14, 73], "path": ["0", "0", "12", "13", "14", "15", "18"], "rt": [12312, 20, 82, 67, 24], "actions": ["right", "right", "right", "up", "left"], "actionTimes": [13710, 14245, 14823, 15390, 15930], "queries": {"click": {"state": {"target": ["17", "20", "18"], "time": [3083, 6335, 9637]}, "edge": {"target": [], "time": []}}, "mouseover": {"state": {"target": ["1", "18", "15", "17", "20", "14", "18", "13", "22"], "time": [2105, 2341, 2557, 2791, 3605, 7838, 8122, 10005, 10154]}, "edge": {"target": [], "time": []}}, "mouseout": {"state": {"target": ["20", "22", "0", "1", "18", "15", "17", "20", "14", "18", "13"], "time": [573, 623, 2057, 2257, 2460, 2625, 3490, 7723, 7923, 9972, 10055]}, "edge": {"target": [], "time": []}}}, "displayed_time": "16.42", "trialTime": 17393, "trial_type": "mouselab-mdp", "trial_index": 36, "time_elapsed": 930974, "internal_node_id": "0.0-6.0-1.0-15.0"}}, {"uniqueid": "w85032499:a22801272", "current_trial": 37, "dateTime": 1693661847735, "trialdata": {"revealed_states": [], "clicked_states": ["9", "10", "11", "5", "7", "6", "18", "22", "20"], "num_clicks_accrued": [0, 0, 0, 0, 0, 0, 0, 0, 0, 0, 0, 0, 0], "stateRewards": ["", -2, -1, -1, 5, -54, -87, 35, 2, -8, 20, -22, 1, 3, 6, 13, -75, -32, -55, -3, 56, 62, -22, -1, -4, -1, -7, -51, 84, 70, 7, -15, 5, 55], "withholdReward": false, "trial_id": "mdp_trial_17", "block": "test", "trialIndex": 22, "score": 43.650000000000006, "costs": -19.349999999999998, "simulationMode": [null, null, null, null, null], "rewards": [1, 3, 6, -3, 56], "path": ["0", "0", "12", "13", "14", "19", "20"], "rt": [33619, 64, 400, 138, 180], "actions": ["right", "right", "right", "down", "right"], "actionTimes": [35242, 35811, 36727, 37364, 38057], "queries": {"click": {"state": {"target": ["9", "10", "11", "5", "7", "6", "18", "22", "20"], "time": [3665, 6997, 10365, 14500, 17814, 21177, 24520, 27823, 31132]}, "edge": {"target": [], "time": []}}, "mouseover": {"state": {"target": ["1", "2", "3", "9", "8", "10", "2", "7", "2", "11", "5", "5", "4", "7", "6", "18", "13", "22", "19", "20", "17"], "time": [2210, 2276, 2577, 2996, 4387, 4611, 7359, 7526, 8826, 8992, 13978, 14214, 14843, 15026, 18259, 22659, 25010, 25365, 28209, 28376, 31608]}, "edge": {"target": [], "time": []}}, "mouseout": {"state": {"target": ["22", "0", "1", "2", "3", "9", "8", "10", "2", "7", "2", "11", "5", "5", "5", "4", "7", "6", "18", "13", "22", "19", "20"], "time": [644, 2165, 2243, 2393, 2795, 4368, 4476, 7326, 7426, 8810, 8860, 12061, 14030, 14670, 14827, 14909, 18060, 21527, 24959, 25128, 28043, 28260, 31375]}, "edge": {"target": [], "time": []}}}, "displayed_time": "38.58", "trialTime": 39633, "trial_type": "mouselab-mdp", "trial_index": 37, "time_elapsed": 970826, "internal_node_id": "0.0-6.0-1.0-16.0"}}, {"uniqueid": "w85032499:a22801272", "current_trial": 38, "dateTime": 1693661869545, "trialdata": {"revealed_states": [], "clicked_states": ["29", "28", "31", "33"], "num_clicks_accrued": [0, 0, 0, 0, 0, 0, 0, 0, 0, 0, 0, 0, 0], "stateRewards": ["", -1, -3, -6, 14, 41, 18, 63, -14, 80, 21, 17, -2, -4, -2, -5, 13, 70, 8, -4, -64, -10, -20, 2, -1, 4, -1, -17, -55, 42, -7, 47, 54, 15], "withholdReward": false, "trial_id": "mdp_trial_18", "block": "test", "trialIndex": 23, "score": 36.4, "costs": -8.6, "simulationMode": [null, null, null, null, null], "rewards": [2, -1, 4, -7, 47], "path": ["0", "0", "23", "24", "25", "30", "31"], "rt": [16271, 53, 40, 114, 78], "actions": ["left", "left", "left", "down", "right"], "actionTimes": [17698, 18257, 18809, 19450, 20046], "queries": {"click": {"state": {"target": ["29", "28", "31", "33"], "time": [3259, 7426, 10838, 14450]}, "edge": {"target": [], "time": []}}, "mouseover": {"state": {"target": ["12", "13", "12", "23", "24", "25", "26", "29", "26", "28", "24", "31", "30", "33", "30"], "time": [2205, 2253, 2402, 2434, 2468, 2587, 2803, 2886, 3552, 3785, 8103, 8219, 11100, 11201, 14868]}, "edge": {"target": [], "time": []}}, "mouseout": {"state": {"target": ["17", "15", "12", "13", "12", "23", "24", "25", "26", "29", "29", "26", "28", "24", "31", "30", "33", "30"], "time": [602, 636, 2235, 2385, 2417, 2451, 2501, 2687, 2818, 3347, 3502, 3652, 8051, 8153, 11067, 11151, 14834, 14884]}, "edge": {"target": [], "time": []}}}, "displayed_time": "20.55", "trialTime": 21604, "trial_type": "mouselab-mdp", "trial_index": 38, "time_elapsed": 992636, "internal_node_id": "0.0-6.0-1.0-17.0"}}, {"uniqueid": "w85032499:a22801272", "current_trial": 39, "dateTime": 1693661886477, "trialdata": {"revealed_states": [], "clicked_states": ["9"], "num_clicks_accrued": [0, 0, 0, 0, 0, 0, 0, 0, 0, 0, 0, 0, 0], "stateRewards": ["", 2, 1, -3, 7, 46, 11, -36, 16, 71, 5, 1, 2, -2, -8, -3, -4, 6, 55, 7, 68, -54, 2, 1, 1, 6, -6, 42, -4, -84, -11, -65, 63, 25], "withholdReward": false, "trial_id": "mdp_trial_19", "block": "test", "trialIndex": 24, "score": 84.85, "costs": -2.15, "simulationMode": [null, null, null, null, null], "rewards": [2, 1, -3, 16, 71], "path": ["0", "0", "1", "2", "3", "8", "9"], "rt": [6088, 39, 83, 83, 99], "actions": ["up", "up", "up", "left", "up"], "actionTimes": [7472, 8023, 8638, 9219, 9817], "queries": {"click": {"state": {"target": ["9"], "time": [3232]}, "edge": {"target": [], "time": []}}, "mouseover": {"state": {"target": ["1", "2", "3", "9", "3", "7"], "time": [1984, 2202, 2418, 2850, 3736, 4003]}, "edge": {"target": [], "time": []}}, "mouseout": {"state": {"target": ["23", "0", "1", "2", "3", "9", "3"], "time": [737, 1003, 2168, 2251, 2651, 3701, 3801]}, "edge": {"target": [], "time": []}}}, "displayed_time": "15.39", "trialTime": 16718, "trial_type": "mouselab-mdp", "trial_index": 39, "time_elapsed": 1009569, "internal_node_id": "0.0-6.0-1.0-18.0"}}, {"uniqueid": "w85032499:a22801272", "current_trial": 40, "dateTime": 1693661907387, "trialdata": {"revealed_states": [], "clicked_states": ["9", "7", "5", "10"], "num_clicks_accrued": [0, 0, 0, 0, 0, 0, 0, 0, 0, 0, 0, 0, 0], "stateRewards": ["", 1, 1, -3, 7, 49, 78, 26, -5, 26, 48, -43, -1, -3, 2, -5, 4, -1, -60, 10, -35, 51, 81, -2, 1, -7, -5, -39, -86, -54, 4, -3, 74, 77], "withholdReward": false, "trial_id": "mdp_trial_20", "block": "test", "trialIndex": 25, "score": 33.4, "costs": -8.6, "simulationMode": [null, null, null, null, null], "rewards": [1, 1, -3, -5, 48], "path": ["0", "0", "1", "2", "3", "8", "10"], "rt": [14773, 68, 161, 72, 102], "actions": ["up", "up", "up", "left", "down"], "actionTimes": [16483, 17061, 17715, 18276, 18892], "queries": {"click": {"state": {"target": ["9", "7", "5", "10"], "time": [2804, 6109, 9479, 12941]}, "edge": {"target": [], "time": []}}, "mouseover": {"state": {"target": ["1", "8", "9", "3", "7", "4", "5", "3", "10"], "time": [2151, 2288, 2504, 3202, 3369, 6385, 6502, 9835, 10053]}, "edge": {"target": [], "time": []}}, "mouseout": {"state": {"target": ["7", "0", "1", "8", "9", "3", "7", "4", "5", "3"], "time": [820, 2104, 2168, 2356, 3135, 3236, 6352, 6418, 9768, 9869]}, "edge": {"target": [], "time": []}}}, "displayed_time": "19.39", "trialTime": 20680, "trial_type": "mouselab-mdp", "trial_index": 40, "time_elapsed": 1030478, "internal_node_id": "0.0-6.0-1.0-19.0"}}, {"uniqueid": "w85032499:a22801272", "current_trial": 41, "dateTime": 1693661927062, "trialdata": {"revealed_states": [], "clicked_states": ["18", "31", "29"], "num_clicks_accrued": [0, 0, 0, 0, 0, 0, 0, 0, 0, 0, 0, 0, 0], "stateRewards": ["", -2, -1, -2, -15, 87, 57, 29, -10, 77, -80, -7, 1, -3, 6, 14, -11, 87, -59, 4, -71, 16, -11, 2, 2, -7, 2, -47, 61, 50, 14, -20, 17, 81], "withholdReward": false, "trial_id": "mdp_trial_21", "block": "test", "trialIndex": 26, "score": 42.55, "costs": -6.449999999999999, "simulationMode": [null, null, null, null, null], "rewards": [2, 2, -7, 2, 50], "path": ["0", "0", "23", "24", "25", "26", "29"], "rt": [13817, 108, 145, 121, 468], "actions": ["left", "left", "left", "up", "left"], "actionTimes": [15135, 15751, 16386, 17013, 17994], "queries": {"click": {"state": {"target": ["18", "31", "29"], "time": [3631, 6983, 11165]}, "edge": {"target": [], "time": []}}, "mouseover": {"state": {"target": ["5", "18", "14", "15", "18", "23", "31", "24", "28", "26", "29", "27", "11", "9"], "time": [2392, 2809, 2910, 3160, 3279, 4174, 4407, 7490, 7826, 10625, 10857, 11741, 11824, 12090]}, "edge": {"target": [], "time": []}}, "mouseout": {"state": {"target": ["10", "0", "5", "18", "14", "15", "18", "23", "31", "24", "28", "26", "29", "27", "11"], "time": [543, 2209, 2742, 2825, 3029, 3209, 4057, 4257, 7441, 7591, 10590, 10691, 11386, 11757, 11857]}, "edge": {"target": [], "time": []}}}, "displayed_time": "18.49", "trialTime": 19444, "trial_type": "mouselab-mdp", "trial_index": 41, "time_elapsed": 1050153, "internal_node_id": "0.0-6.0-1.0-20.0"}}, {"uniqueid": "w85032499:a22801272", "current_trial": 42, "dateTime": 1693661944591, "trialdata": {"revealed_states": [], "clicked_states": ["9", "17"], "num_clicks_accrued": [0, 0, 0, 0, 0, 0, 0, 0, 0, 0, 0, 0, 0], "stateRewards": ["", -1, 4, -5, 9, 29, -75, -42, -16, 24, -28, -41, 2, -3, 1, 10, 60, 47, 55, -1, -53, 22, -40, 2, -3, -6, 4, -26, 44, 54, 15, -76, 42, 14], "withholdReward": false, "trial_id": "mdp_trial_22", "block": "test", "trialIndex": 27, "score": 52.7, "costs": -4.3, "simulationMode": [null, null, null, null, null], "rewards": [2, -3, 1, 10, 47], "path": ["0", "0", "12", "13", "14", "15", "17"], "rt": [8314, 148, 120, 110, 111], "actions": ["right", "right", "right", "up", "right"], "actionTimes": [10436, 11085, 11704, 12327, 12928], "queries": {"click": {"state": {"target": ["9", "17"], "time": [2992, 6323]}, "edge": {"target": [], "time": []}}, "mouseover": {"state": {"target": ["1", "8", "9", "3", "7", "18", "15", "17", "20", "19", "31", "25", "29"], "time": [2315, 2400, 2584, 3834, 3865, 3965, 4198, 4382, 6815, 7686, 7849, 7983, 8165]}, "edge": {"target": [], "time": []}}, "mouseout": {"state": {"target": ["9", "2", "1", "1", "8", "9", "3", "7", "18", "15", "17", "20", "19", "31", "25"], "time": [1300, 1366, 1400, 2332, 2484, 3798, 3850, 3882, 4018, 4274, 6648, 7684, 7699, 7898, 8082]}, "edge": {"target": [], "time": []}}}, "displayed_time": "16.12", "trialTime": 17298, "trial_type": "mouselab-mdp", "trial_index": 42, "time_elapsed": 1067682, "internal_node_id": "0.0-6.0-1.0-21.0"}}, {"uniqueid": "w85032499:a22801272", "current_trial": 43, "dateTime": 1693661961160, "trialdata": {"revealed_states": [], "clicked_states": ["9"], "num_clicks_accrued": [0, 0, 0, 0, 0, 0, 0, 0, 0, 0, 0, 0, 0], "stateRewards": ["", -1, 2, -7, -12, -62, 12, -13, 5, 77, -71, 83, 1, -4, 7, 15, -42, -87, -4, 5, -25, 44, 88, -1, 4, -5, -8, 14, 51, 8, -5, 83, -24, -19], "withholdReward": false, "trial_id": "mdp_trial_23", "block": "test", "trialIndex": 28, "score": 73.85, "costs": -2.15, "simulationMode": [null, null, null, null, null], "rewards": [-1, 2, -7, 5, 77], "path": ["0", "0", "1", "2", "3", "8", "9"], "rt": [5049, 98, 113, 161, 99], "actions": ["up", "up", "up", "left", "up"], "actionTimes": [6549, 7158, 7791, 8452, 9058], "queries": {"click": {"state": {"target": ["9"], "time": [2448]}, "edge": {"target": [], "time": []}}, "mouseover": {"state": {"target": ["8", "9", "5", "4", "7"], "time": [1860, 2059, 3592, 3942, 4143]}, "edge": {"target": [], "time": []}}, "mouseout": {"state": {"target": ["29", "24", "23", "0", "8", "9", "5", "4"], "time": [645, 708, 791, 1125, 1944, 3408, 3908, 3991]}, "edge": {"target": [], "time": []}}}, "displayed_time": "15.50", "trialTime": 16277, "trial_type": "mouselab-mdp", "trial_index": 43, "time_elapsed": 1084251, "internal_node_id": "0.0-6.0-1.0-22.0"}}, {"uniqueid": "w85032499:a22801272", "current_trial": 44, "dateTime": 1693661978906, "trialdata": {"revealed_states": [], "clicked_states": ["9"], "num_clicks_accrued": [0, 0, 0, 0, 0, 0, 0, 0, 0, 0, 0, 0, 0], "stateRewards": ["", -2, 2, -1, -6, 22, 6, 6, -5, 70, -42, 65, 1, 3, 5, -6, -67, -9, 3, 14, 7, -62, -13, -2, 4, 1, 16, 42, -21, -52, -8, 32, 53, 81], "withholdReward": false, "trial_id": "mdp_trial_24", "block": "test", "trialIndex": 29, "score": 61.85, "costs": -2.15, "simulationMode": [null, null, null, null, null], "rewards": [-2, 2, -1, -5, 70], "path": ["0", "0", "1", "2", "3", "8", "9"], "rt": [5247, 64, 95, 52, 66], "actions": ["up", "up", "up", "left", "up"], "actionTimes": [6899, 7479, 8076, 8633, 9213], "queries": {"click": {"state": {"target": ["9"], "time": [2959]}, "edge": {"target": [], "time": []}}, "mouseover": {"state": {"target": ["1", "2", "8", "9", "27", "29"], "time": [2350, 2364, 2446, 2664, 3446, 3946]}, "edge": {"target": [], "time": []}}, "mouseout": {"state": {"target": ["7", "0", "1", "2", "8", "9", "27"], "time": [731, 1247, 2363, 2380, 2479, 3314, 3547]}, "edge": {"target": [], "time": []}}}, "displayed_time": "15.65", "trialTime": 17461, "trial_type": "mouselab-mdp", "trial_index": 44, "time_elapsed": 1101997, "internal_node_id": "0.0-6.0-1.0-23.0"}}, {"uniqueid": "w85032499:a22801272", "current_trial": 45, "dateTime": 1693661996400, "trialdata": {"revealed_states": [], "clicked_states": ["9", "17"], "num_clicks_accrued": [0, 0, 0, 0, 0, 0, 0, 0, 0, 0, 0, 0, 0], "stateRewards": ["", 1, -1, 8, 4, 76, -33, -17, -3, -1, -54, -74, -2, 2, -5, 13, -51, 63, 83, 1, 84, 29, -36, 2, -1, 7, -12, -10, -44, -43, -14, 8, -69, 19], "withholdReward": false, "trial_id": "mdp_trial_25", "block": "test", "trialIndex": 30, "score": 66.7, "costs": -4.3, "simulationMode": [null, null, null, null, null], "rewards": [-2, 2, -5, 13, 63], "path": ["0", "0", "12", "13", "14", "15", "17"], "rt": [8489, 78, 26, 60, 72], "actions": ["right", "right", "right", "up", "right"], "actionTimes": [10163, 10733, 11264, 11832, 12395], "queries": {"click": {"state": {"target": ["9", "17"], "time": [2749, 6097]}, "edge": {"target": [], "time": []}}, "mouseover": {"state": {"target": ["1", "2", "8", "9", "3", "7", "15", "17", "20"], "time": [2172, 2188, 2256, 2339, 3154, 3222, 3303, 3471, 6703]}, "edge": {"target": [], "time": []}}, "mouseout": {"state": {"target": ["29", "24", "23", "1", "2", "8", "9", "3", "7", "15", "17"], "time": [687, 770, 1038, 2187, 2221, 2270, 3140, 3187, 3244, 3370, 6588]}, "edge": {"target": [], "time": []}}}, "displayed_time": "15.68", "trialTime": 17164, "trial_type": "mouselab-mdp", "trial_index": 45, "time_elapsed": 1119492, "internal_node_id": "0.0-6.0-1.0-24.0"}}, {"uniqueid": "w85032499:a22801272", "current_trial": 46, "dateTime": 1693662022499, "trialdata": {"revealed_states": [], "clicked_states": ["32", "27", "17", "5", "10"], "num_clicks_accrued": [0, 0, 0, 0, 0, 0, 0, 0, 0, 0, 0, 0, 0], "stateRewards": ["", 1, 2, 2, -15, -84, 28, -26, 13, 31, 86, 30, -2, 1, -1, -8, 66, -40, -1, -10, -32, 57, -17, 1, 2, -2, 9, -23, 77, 85, 12, -32, -62, -35], "withholdReward": false, "trial_id": "mdp_trial_26", "block": "test", "trialIndex": 31, "score": 93.25, "costs": -10.75, "simulationMode": [null, null, null, null, null], "rewards": [1, 2, 2, 13, 86], "path": ["0", "0", "1", "2", "3", "8", "10"], "rt": [20498, 113, 32, 24, 118], "actions": ["up", "up", "up", "left", "down"], "actionTimes": [21904, 22517, 23069, 23626, 24254], "queries": {"click": {"state": {"target": ["32", "27", "17", "5", "10"], "time": [2301, 6815, 11166, 14512, 17816]}, "edge": {"target": [], "time": []}}, "mouseover": {"state": {"target": ["23", "30", "32", "27", "29", "15", "17", "15", "3", "5", "3", "10", "13", "20"], "time": [1637, 1888, 2017, 6536, 10284, 10519, 10867, 11435, 11552, 12000, 15134, 15216, 18534, 18834]}, "edge": {"target": [], "time": []}}, "mouseout": {"state": {"target": ["20", "19", "22", "0", "23", "30", "32", "27", "29", "15", "17", "15", "3", "5", "3", "10", "13"], "time": [571, 599, 633, 1001, 1669, 1935, 6086, 10201, 10402, 10551, 11434, 11451, 11584, 15084, 15150, 18400, 18583]}, "edge": {"target": [], "time": []}}}, "displayed_time": "24.75", "trialTime": 25829, "trial_type": "mouselab-mdp", "trial_index": 46, "time_elapsed": 1145591, "internal_node_id": "0.0-6.0-1.0-25.0"}}, {"uniqueid": "w85032499:a22801272", "current_trial": 47, "dateTime": 1693662065115, "trialdata": {"revealed_states": [], "clicked_states": ["9", "7", "10", "5", "6", "11"], "num_clicks_accrued": [0, 0, 0, 0, 0, 0, 0, 0, 0, 0, 0, 0, 0], "stateRewards": ["", 1, 1, 5, 6, -29, -7, 3, -16, 9, -46, 65, -1, 4, -1, -16, -63, -77, -87, 8, 80, -50, 43, -1, -1, -5, 5, -38, -71, -62, 9, 81, -50, -52], "withholdReward": false, "trial_id": "mdp_trial_27", "block": "test", "trialIndex": 32, "score": 43.1, "costs": -12.9, "simulationMode": [null, null, null, null, null], "rewards": [1, 1, 5, -16, 65], "path": ["0", "0", "1", "2", "3", "8", "11"], "rt": [22365, 392, 168, 127, 72], "actions": ["up", "up", "up", "left", "left"], "actionTimes": [38001, 38903, 39591, 40234, 40811], "queries": {"click": {"state": {"target": ["9", "7", "10", "5", "6", "11"], "time": [17138, 20420, 23716, 27031, 30362, 33696]}, "edge": {"target": [], "time": []}}, "mouseover": {"state": {"target": ["1", "2", "3", "9", "3", "7", "2", "10", "3", "5", "6", "16", "6", "4", "3", "8", "11", "2", "16"], "time": [16423, 16457, 16505, 16791, 17872, 18190, 20773, 20924, 23972, 24123, 27489, 28023, 29056, 30605, 30623, 30656, 30705, 34539, 34956]}, "edge": {"target": [], "time": []}}, "mouseout": {"state": {"target": ["20", "19", "13", "12", "0", "23", "30", "0", "1", "2", "3", "9", "3", "7", "2", "10", "3", "5", "6", "16", "6", "4", "3", "8", "11", "2"], "time": [758, 772, 824, 1290, 1371, 1558, 1690, 15138, 16456, 16489, 16689, 17840, 17906, 20756, 20839, 23940, 24023, 27372, 27923, 28957, 30589, 30622, 30638, 30671, 34489, 34555]}, "edge": {"target": [], "time": []}}}, "displayed_time": "41.31", "trialTime": 42316, "trial_type": "mouselab-mdp", "trial_index": 47, "time_elapsed": 1188207, "internal_node_id": "0.0-6.0-1.0-26.0"}}, {"uniqueid": "w85032499:a22801272", "current_trial": 48, "dateTime": 1693662087064, "trialdata": {"revealed_states": [], "clicked_states": ["17", "22", "18", "20"], "num_clicks_accrued": [0, 0, 0, 0, 0, 0, 0, 0, 0, 0, 0, 0, 0], "stateRewards": ["", 1, -3, -1, 9, -34, -40, 22, -7, 45, 53, -11, 2, 4, 5, 15, 21, 37, -49, -3, 80, -28, -34, 1, -3, 1, 1, -40, -6, -5, -16, -85, -86, 59], "withholdReward": false, "trial_id": "mdp_trial_28", "block": "test", "trialIndex": 33, "score": 79.4, "costs": -8.6, "simulationMode": [null, null, null, null, null], "rewards": [2, 4, 5, -3, 80], "path": ["0", "0", "12", "13", "14", "19", "20"], "rt": [15804, 148, 85, 90, 165], "actions": ["right", "right", "right", "down", "right"], "actionTimes": [17281, 17925, 18527, 19115, 19774], "queries": {"click": {"state": {"target": ["17", "22", "18", "20"], "time": [3045, 6580, 9952, 13232]}, "edge": {"target": [], "time": []}}, "mouseover": {"state": {"target": ["6", "5", "4", "18", "17", "15", "22", "13", "18", "14", "20", "21"], "time": [1810, 2110, 2307, 2376, 2694, 3340, 3557, 7074, 7274, 10292, 10507, 13723]}, "edge": {"target": [], "time": []}}, "mouseout": {"state": {"target": ["16", "18", "6", "5", "4", "18", "17", "15", "22", "13", "18", "14", "20"], "time": [708, 740, 1859, 2293, 2323, 2426, 3291, 3357, 7042, 7142, 10257, 10342, 13540]}, "edge": {"target": [], "time": []}}}, "displayed_time": "20.29", "trialTime": 21651, "trial_type": "mouselab-mdp", "trial_index": 48, "time_elapsed": 1210156, "internal_node_id": "0.0-6.0-1.0-27.0"}}, {"uniqueid": "w85032499:a22801272", "current_trial": 49, "dateTime": 1693662103475, "trialdata": {"revealed_states": [], "clicked_states": ["9", "21"], "num_clicks_accrued": [0, 0, 0, 0, 0, 0, 0, 0, 0, 0, 0, 0, 0], "stateRewards": ["", 2, -1, 4, -9, -43, 7, 54, -13, 38, -40, -83, -1, 2, -8, -10, 34, -33, 11, -14, -79, 65, 26, 1, 2, 4, 10, 21, 1, 86, 4, -53, 28, -29], "withholdReward": false, "trial_id": "mdp_trial_29", "block": "test", "trialIndex": 34, "score": 39.7, "costs": -4.3, "simulationMode": [null, null, null, null, null], "rewards": [-1, 2, -8, -14, 65], "path": ["0", "0", "12", "13", "14", "19", "21"], "rt": [8525, 367, 143, 159, 164], "actions": ["right", "right", "right", "down", "down"], "actionTimes": [10077, 10959, 11615, 12264, 12937], "queries": {"click": {"state": {"target": ["9", "21"], "time": [2724, 6102]}, "edge": {"target": [], "time": []}}, "mouseover": {"state": {"target": ["10", "8", "9", "2", "12", "22", "21", "32"], "time": [2071, 2103, 2390, 3221, 3288, 3354, 3704, 6871]}, "edge": {"target": [], "time": []}}, "mouseout": {"state": {"target": ["21", "0", "10", "8", "9", "9", "2", "12", "22", "21"], "time": [638, 1123, 2087, 2138, 2945, 3187, 3237, 3305, 3555, 6322]}, "edge": {"target": [], "time": []}}}, "displayed_time": "15.55", "trialTime": 16125, "trial_type": "mouselab-mdp", "trial_index": 49, "time_elapsed": 1226566, "internal_node_id": "0.0-6.0-1.0-28.0"}}, {"uniqueid": "w85032499:a22801272", "current_trial": 50, "dateTime": 1693662120496, "trialdata": {"revealed_states": [], "clicked_states": ["32", "21"], "num_clicks_accrued": [0, 0, 0, 0, 0, 0, 0, 0, 0, 0, 0, 0, 0], "stateRewards": ["", 2, -1, 5, 6, 10, 86, 55, 10, -45, 63, -71, 1, -2, 5, -8, -50, -72, 36, 15, 61, 12, 33, -1, -4, 6, 5, 79, -56, -21, -16, -87, 60, -81], "withholdReward": false, "trial_id": "mdp_trial_30", "block": "test", "trialIndex": 35, "score": 40.7, "costs": -4.3, "simulationMode": [null, null, null, null, null], "rewards": [-1, -4, 6, -16, 60], "path": ["0", "0", "23", "24", "25", "30", "32"], "rt": [7680, 382, 143, 137, 70], "actions": ["left", "left", "left", "down", "down"], "actionTimes": [9188, 10064, 10706, 11334, 11918], "queries": {"click": {"state": {"target": ["32", "21"], "time": [2424, 5938]}, "edge": {"target": [], "time": []}}, "mouseover": {"state": {"target": ["0", "31", "32", "21", "23", "28"], "time": [1748, 1846, 2181, 3230, 6380, 6446]}, "edge": {"target": [], "time": []}}, "mouseout": {"state": {"target": ["32", "0", "0", "31", "32", "21", "23", "28", "28", "1", "12"], "time": [666, 1128, 1763, 1880, 2634, 6153, 6412, 6480, 15747, 15866, 16201]}, "edge": {"target": [], "time": []}}}, "displayed_time": "15.51", "trialTime": 16739, "trial_type": "mouselab-mdp", "trial_index": 50, "time_elapsed": 1243588, "internal_node_id": "0.0-6.0-1.0-29.0"}}, {"uniqueid": "w85032499:a22801272", "current_trial": 51, "dateTime": 1693662158136, "trialdata": {"revealed_states": [], "clicked_states": ["9", "29", "20", "32", "5", "16", "7", "10", "11"], "num_clicks_accrued": [0, 0, 0, 0, 0, 0, 0, 0, 0, 0, 0, 0, 0], "stateRewards": ["", 2, -1, -3, 16, -3, -16, -62, -1, 13, -26, 43, -1, 4, 3, -9, -54, -37, -3, -12, -71, -68, -57, 1, -3, 2, -9, 2, -2, -9, -11, 84, -52, 55], "withholdReward": false, "trial_id": "mdp_trial_31", "block": "test", "trialIndex": 36, "score": 20.650000000000002, "costs": -19.349999999999998, "simulationMode": [null, null, null, null, null], "rewards": [2, -1, -3, -1, 43], "path": ["0", "0", "1", "2", "3", "8", "11"], "rt": [32137, 3, 376, 101, 99], "actions": ["up", "up", "up", "left", "left"], "actionTimes": [33319, 33841, 34748, 35339, 35937], "queries": {"click": {"state": {"target": ["9", "29", "20", "32", "5", "16", "7", "10", "11"], "time": [2183, 5509, 8812, 12196, 15536, 18876, 22199, 25834, 29135]}, "edge": {"target": [], "time": []}}, "mouseover": {"state": {"target": ["10", "11", "9", "11", "27", "29", "31", "20", "19", "32", "18", "6", "5", "16", "7", "2", "10", "11", "3", "4", "6"], "time": [1337, 1388, 1971, 2486, 2554, 2869, 6020, 6487, 9204, 9653, 12736, 12904, 13420, 16302, 19687, 22754, 22919, 26220, 29452, 29485, 29686]}, "edge": {"target": [], "time": []}}, "mouseout": {"state": {"target": ["0", "10", "11", "9", "11", "27", "29", "31", "20", "19", "32", "18", "6", "5", "16", "7", "2", "10", "11", "3", "4"], "time": [1280, 1354, 1439, 2453, 2521, 2653, 5902, 6038, 9203, 9236, 12587, 12768, 13302, 16002, 19386, 22720, 22806, 25943, 29300, 29470, 29535]}, "edge": {"target": [], "time": []}}}, "displayed_time": "36.44", "trialTime": 37369, "trial_type": "mouselab-mdp", "trial_index": 51, "time_elapsed": 1281228, "internal_node_id": "0.0-6.0-1.0-30.0"}}, {"uniqueid": "w85032499:a22801272", "current_trial": 52, "dateTime": 1693662175356, "trialdata": {"revealed_states": [], "clicked_states": ["9"], "num_clicks_accrued": [0, 0, 0, 0, 0, 0, 0, 0, 0, 0, 0, 0, 0], "stateRewards": ["", -1, 2, -2, 5, 80, -61, -27, 12, 44, -26, -75, -2, -4, 1, -16, 42, -49, -50, 4, -44, 2, 80, -2, -2, 5, -2, 59, 10, 24, 7, -48, -86, -44], "withholdReward": false, "trial_id": "mdp_trial_32", "block": "test", "trialIndex": 37, "score": 52.85, "costs": -2.15, "simulationMode": [null, null, null, null, null], "rewards": [-1, 2, -2, 12, 44], "path": ["0", "0", "1", "2", "3", "8", "9"], "rt": [5926, 79, 125, 81, 118], "actions": ["up", "up", "up", "left", "up"], "actionTimes": [7526, 8121, 8767, 9339, 9957], "queries": {"click": {"state": {"target": ["9"], "time": [3384]}, "edge": {"target": [], "time": []}}, "mouseover": {"state": {"target": ["1", "2", "3", "9", "3", "7", "18", "14", "20"], "time": [1891, 1939, 2141, 3124, 3705, 3823, 4105, 4322, 4505]}, "edge": {"target": [], "time": []}}, "mouseout": {"state": {"target": ["6", "7", "1", "0", "1", "2", "3", "9", "3", "7", "18", "14"], "time": [689, 756, 890, 1844, 1922, 2008, 2992, 3689, 3756, 4022, 4138, 4338]}, "edge": {"target": [], "time": []}}}, "displayed_time": "15.60", "trialTime": 16960, "trial_type": "mouselab-mdp", "trial_index": 52, "time_elapsed": 1298448, "internal_node_id": "0.0-6.0-1.0-31.0"}}, {"uniqueid": "w85032499:a22801272", "current_trial": 53, "dateTime": 1693662192683, "trialdata": {"revealed_states": [], "clicked_states": ["9"], "num_clicks_accrued": [0, 0, 0, 0, 0, 0, 0, 0, 0, 0, 0, 0, 0], "stateRewards": ["", -1, 2, 6, 11, 21, -21, -21, -6, 48, -71, 88, -1, -3, 3, 7, 64, 2, 9, -4, 37, -67, 72, 2, 2, -8, -8, -10, 71, -40, -3, 73, 80, 47], "withholdReward": false, "trial_id": "mdp_trial_33", "block": "test", "trialIndex": 38, "score": 46.85, "costs": -2.15, "simulationMode": [null, null, null, null, null], "rewards": [-1, 2, 6, -6, 48], "path": ["0", "0", "1", "2", "3", "8", "9"], "rt": [4824, 108, 156, 128, 100], "actions": ["up", "up", "up", "left", "up"], "actionTimes": [6171, 6796, 7446, 8066, 8672], "queries": {"click": {"state": {"target": ["9"], "time": [2245]}, "edge": {"target": [], "time": []}}, "mouseover": {"state": {"target": ["10", "8", "9", "3", "7", "16"], "time": [1605, 1652, 1922, 2537, 2620, 3786]}, "edge": {"target": [], "time": []}}, "mouseout": {"state": {"target": ["20", "19", "22", "0", "10", "8", "9", "3", "7", "16", "18", "0"], "time": [522, 554, 586, 1510, 1620, 1772, 2521, 2570, 3619, 15907, 15939, 16039]}, "edge": {"target": [], "time": []}}}, "displayed_time": "15.35", "trialTime": 16983, "trial_type": "mouselab-mdp", "trial_index": 53, "time_elapsed": 1315774, "internal_node_id": "0.0-6.0-1.0-32.0"}}, {"uniqueid": "w85032499:a22801272", "current_trial": 54, "dateTime": 1693662221843, "trialdata": {"revealed_states": [], "clicked_states": ["21", "29", "32", "5", "17", "11"], "num_clicks_accrued": [0, 0, 0, 0, 0, 0, 0, 0, 0, 0, 0, 0, 0], "stateRewards": ["", -1, -3, -5, -14, -13, -47, 79, 8, -60, -64, 41, -1, 2, 3, 13, -46, 61, -79, -11, -64, -65, 23, 1, -2, 6, -14, 46, 32, 21, 7, 75, -66, 15], "withholdReward": false, "trial_id": "mdp_trial_34", "block": "test", "trialIndex": 39, "score": 65.1, "costs": -12.9, "simulationMode": [null, null, null, null, null], "rewards": [-1, 2, 3, 13, 61], "path": ["0", "0", "12", "13", "14", "15", "17"], "rt": [22075, 5, 63, 14, 407], "actions": ["right", "right", "right", "up", "right"], "actionTimes": [23385, 23886, 24464, 24995, 25922], "queries": {"click": {"state": {"target": ["21", "29", "32", "5", "17", "11"], "time": [2182, 5542, 8888, 12259, 15557, 20107]}, "edge": {"target": [], "time": []}}, "mouseover": {"state": {"target": ["22", "21", "33", "29", "32", "6", "5", "16", "17", "7", "3", "9", "11"], "time": [1665, 1882, 2664, 3197, 6631, 9613, 9979, 12714, 12880, 15979, 16030, 16280, 16830]}, "edge": {"target": [], "time": []}}, "mouseout": {"state": {"target": ["0", "22", "21", "33", "29", "32", "6", "5", "16", "17", "7", "3", "9"], "time": [1600, 1697, 2547, 2947, 6481, 9452, 9649, 12663, 12746, 15930, 15998, 16046, 16597]}, "edge": {"target": [], "time": []}}}, "displayed_time": "26.42", "trialTime": 28789, "trial_type": "mouselab-mdp", "trial_index": 54, "time_elapsed": 1344934, "internal_node_id": "0.0-6.0-1.0-33.0"}}, {"uniqueid": "w85032499:a22801272", "current_trial": 55, "dateTime": 1693662239367, "trialdata": {"revealed_states": [], "clicked_states": ["9", "21"], "num_clicks_accrued": [0, 0, 0, 0, 0, 0, 0, 0, 0, 0, 0, 0, 0], "stateRewards": ["", 1, -1, -7, -7, -22, 15, -13, 13, 26, -32, 38, -1, 1, -7, -4, 16, -62, 86, 12, -54, 56, 64, -2, -1, 6, 14, -57, 37, 62, -6, -25, 50, -70], "withholdReward": false, "trial_id": "mdp_trial_35", "block": "test", "trialIndex": 40, "score": 56.7, "costs": -4.3, "simulationMode": [null, null, null, null, null], "rewards": [-1, 1, -7, 12, 56], "path": ["0", "0", "12", "13", "14", "19", "21"], "rt": [8982, 70, 30, 26, 97], "actions": ["right", "right", "right", "down", "down"], "actionTimes": [11132, 11710, 12251, 12798, 13385], "queries": {"click": {"state": {"target": ["9", "21"], "time": [3931, 7291]}, "edge": {"target": [], "time": []}}, "mouseover": {"state": {"target": ["1", "2", "3", "9", "22", "21", "32"], "time": [3055, 3171, 3272, 3505, 4371, 4771, 8520]}, "edge": {"target": [], "time": []}}, "mouseout": {"state": {"target": ["11", "10", "0", "1", "2", "3", "9", "22", "21"], "time": [1071, 1139, 2889, 3121, 3220, 3371, 4273, 4388, 7496]}, "edge": {"target": [], "time": []}}}, "displayed_time": "16.15", "trialTime": 17221, "trial_type": "mouselab-mdp", "trial_index": 55, "time_elapsed": 1362458, "internal_node_id": "0.0-6.0-1.0-34.0"}}, {"uniqueid": "w85032499:a22801272", "current_trial": 56, "dateTime": 1693662256202, "trialdata": {"revealed_states": [], "clicked_states": ["17", "11"], "num_clicks_accrued": [0, 0, 0, 0, 0, 0, 0, 0, 0, 0, 0, 0, 0], "stateRewards": ["", -1, 4, -3, 3, 57, -61, 5, -11, 23, -1, 34, -2, -4, -1, -13, 27, 38, -36, 4, -45, 21, 88, 1, -2, -1, 1, -69, -5, -78, -12, -9, 38, -54], "withholdReward": false, "trial_id": "mdp_trial_36", "block": "test", "trialIndex": 41, "score": 13.7, "costs": -4.3, "simulationMode": [null, null, null, null, null], "rewards": [-2, -4, -1, -13, 38], "path": ["0", "0", "12", "13", "14", "15", "17"], "rt": [8995, 44, 43, 27, 82], "actions": ["right", "right", "right", "up", "right"], "actionTimes": [10399, 10964, 11525, 12059, 12632], "queries": {"click": {"state": {"target": ["17", "11"], "time": [2656, 6297]}, "edge": {"target": [], "time": []}}, "mouseover": {"state": {"target": ["18", "16", "16", "17", "15", "18", "2", "10", "11", "1", "22", "19"], "time": [1618, 1698, 2049, 2200, 3248, 3266, 3314, 3348, 3566, 6732, 6782, 6804]}, "edge": {"target": [], "time": []}}, "mouseout": {"state": {"target": ["32", "0", "18", "16", "16", "17", "15", "18", "2", "10", "11", "1", "22", "19", "21"], "time": [669, 1082, 1631, 1731, 2101, 3231, 3264, 3281, 3331, 3377, 6699, 6748, 6800, 6820, 14218]}, "edge": {"target": [], "time": []}}}, "displayed_time": "15.41", "trialTime": 16534, "trial_type": "mouselab-mdp", "trial_index": 56, "time_elapsed": 1379294, "internal_node_id": "0.0-6.0-1.0-35.0"}}, {"uniqueid": "w85032499:a22801272", "current_trial": 57, "dateTime": 1693662272995, "trialdata": {"revealed_states": [], "clicked_states": ["33", "17"], "num_clicks_accrued": [0, 0, 0, 0, 0, 0, 0, 0, 0, 0, 0, 0, 0], "stateRewards": ["", -1, 3, 8, 9, -53, 20, -84, 2, -28, -62, -31, -1, -2, -7, 2, 51, 58, 45, -4, -17, -41, 36, 2, -2, -7, -15, 29, -54, -37, -16, -43, 65, -17], "withholdReward": false, "trial_id": "mdp_trial_37", "block": "test", "trialIndex": 42, "score": 45.7, "costs": -4.3, "simulationMode": [null, null, null, null, null], "rewards": [-1, -2, -7, 2, 58], "path": ["0", "0", "12", "13", "14", "15", "17"], "rt": [8628, 371, 249, 75, 93], "actions": ["right", "right", "right", "up", "right"], "actionTimes": [10007, 10873, 11631, 12225, 12811], "queries": {"click": {"state": {"target": ["33", "17"], "time": [2589, 5937]}, "edge": {"target": [], "time": []}}, "mouseover": {"state": {"target": ["23", "24", "30", "33", "13", "15", "17", "15", "7", "2", "8", "11"], "time": [1718, 1783, 1933, 2281, 3481, 3523, 3814, 6432, 6481, 6514, 6597, 6797]}, "edge": {"target": [], "time": []}}, "mouseout": {"state": {"target": ["0", "23", "24", "30", "33", "13", "15", "17", "15", "7", "2", "8", "11", "23"], "time": [1032, 1750, 1798, 2199, 3381, 3513, 3547, 6148, 6447, 6498, 6531, 6631, 14716, 15415]}, "edge": {"target": [], "time": []}}}, "displayed_time": "15.38", "trialTime": 16527, "trial_type": "mouselab-mdp", "trial_index": 57, "time_elapsed": 1396086, "internal_node_id": "0.0-6.0-1.0-36.0"}}, {"uniqueid": "w85032499:a22801272", "current_trial": 58, "dateTime": 1693662296898, "trialdata": {"revealed_states": [], "clicked_states": ["9", "32", "21", "16", "29"], "num_clicks_accrued": [0, 0, 0, 0, 0, 0, 0, 0, 0, 0, 0, 0, 0], "stateRewards": ["", 1, 4, -8, -13, -13, -87, -77, -10, -44, 54, 42, 2, -3, -4, 12, -9, -80, 52, 9, 84, -2, -65, 1, -4, -5, -6, 8, 80, 32, 13, -59, -5, -13], "withholdReward": false, "trial_id": "mdp_trial_38", "block": "test", "trialIndex": 43, "score": 7.25, "costs": -10.75, "simulationMode": [null, null, null, null, null], "rewards": [1, -4, -5, -6, 32], "path": ["0", "0", "23", "24", "25", "26", "29"], "rt": [18364, 57, 99, 85, 92], "actions": ["left", "left", "left", "up", "left"], "actionTimes": [19617, 20178, 20770, 21372, 21961], "queries": {"click": {"state": {"target": ["9", "32", "21", "16", "29"], "time": [2113, 5398, 8717, 12105, 15396]}, "edge": {"target": [], "time": []}}, "mouseover": {"state": {"target": ["10", "8", "9", "8", "10", "24", "30", "32", "21", "14", "15", "16", "16", "1", "25", "29", "33"], "time": [1503, 1552, 1804, 2502, 2555, 2652, 2885, 3240, 6153, 9085, 9122, 9185, 9735, 12501, 12552, 13236, 16085]}, "edge": {"target": [], "time": []}}, "mouseout": {"state": {"target": ["0", "10", "8", "9", "8", "10", "24", "30", "32", "21", "14", "15", "16", "16", "1", "25", "29"], "time": [955, 1536, 1568, 2486, 2536, 2578, 2685, 3120, 5614, 9054, 9120, 9168, 9386, 12469, 12518, 12568, 15920]}, "edge": {"target": [], "time": []}}}, "displayed_time": "22.45", "trialTime": 23635, "trial_type": "mouselab-mdp", "trial_index": 58, "time_elapsed": 1419989, "internal_node_id": "0.0-6.0-1.0-37.0"}}, {"uniqueid": "w85032499:a22801272", "current_trial": 59, "dateTime": 1693662316785, "trialdata": {"revealed_states": [], "clicked_states": ["9", "21", "10"], "num_clicks_accrued": [0, 0, 0, 0, 0, 0, 0, 0, 0, 0, 0, 0, 0], "stateRewards": ["", -1, 4, -6, -5, -22, -38, -38, -2, -56, 88, 14, -1, -1, -7, -6, 61, -60, 21, 11, 57, 31, -30, -2, -2, 6, -9, -44, -70, -44, -15, 34, 16, -78], "withholdReward": false, "trial_id": "mdp_trial_39", "block": "test", "trialIndex": 44, "score": 76.55, "costs": -6.449999999999999, "simulationMode": [null, null, null, null, null], "rewards": [-1, 4, -6, -2, 88], "path": ["0", "0", "1", "2", "3", "8", "10"], "rt": [12640, 87, 166, 133, 183], "actions": ["up", "up", "up", "left", "down"], "actionTimes": [14224, 14834, 15513, 16161, 16846], "queries": {"click": {"state": {"target": ["9", "21", "10"], "time": [2673, 6206, 9669]}, "edge": {"target": [], "time": []}}, "mouseover": {"state": {"target": ["1", "8", "9", "2", "12", "22", "21", "0", "10", "26", "29", "26", "28"], "time": [2094, 2143, 2194, 3011, 3044, 3077, 3343, 7345, 7678, 10143, 10327, 11045, 11295]}, "edge": {"target": [], "time": []}}, "mouseout": {"state": {"target": ["33", "30", "31", "1", "8", "9", "9", "2", "12", "22", "21", "0", "10", "26", "29", "26"], "time": [694, 726, 743, 2111, 2160, 2850, 2977, 3027, 3060, 3178, 7227, 7377, 10026, 10210, 11011, 11162]}, "edge": {"target": [], "time": []}}}, "displayed_time": "17.36", "trialTime": 19581, "trial_type": "mouselab-mdp", "trial_index": 59, "time_elapsed": 1439877, "internal_node_id": "0.0-6.0-1.0-38.0"}}, {"uniqueid": "w85032499:a22801272", "current_trial": 60, "dateTime": 1693662333702, "trialdata": {"revealed_states": [], "clicked_states": ["17"], "num_clicks_accrued": [0, 0, 0, 0, 0, 0, 0, 0, 0, 0, 0, 0, 0], "stateRewards": ["", -1, -4, -3, 1, -45, -67, -24, 14, 32, 22, 22, -1, 1, -5, -7, 72, 84, -79, -5, 19, -40, -2, -1, -2, 8, -3, 84, -25, -28, 11, 64, -66, 77], "withholdReward": false, "trial_id": "mdp_trial_40", "block": "test", "trialIndex": 45, "score": 69.85, "costs": -2.15, "simulationMode": [null, null, null, null, null], "rewards": [-1, 1, -5, -7, 84], "path": ["0", "0", "12", "13", "14", "15", "17"], "rt": [4131, 78, 83, 62, 82], "actions": ["right", "right", "right", "up", "right"], "actionTimes": [5614, 6187, 6776, 7356, 7941], "queries": {"click": {"state": {"target": ["17"], "time": [2404]}, "edge": {"target": [], "time": []}}, "mouseover": {"state": {"target": ["12", "15", "17"], "time": [1823, 1894, 2025]}, "edge": {"target": [], "time": []}}, "mouseout": {"state": {"target": ["28", "23", "0", "12", "15", "17"], "time": [693, 757, 1812, 1841, 1942, 3092]}, "edge": {"target": [], "time": []}}}, "displayed_time": "15.48", "trialTime": 16644, "trial_type": "mouselab-mdp", "trial_index": 60, "time_elapsed": 1456793, "internal_node_id": "0.0-6.0-1.0-39.0"}}, {"uniqueid": "w85032499:a22801272", "current_trial": 61, "dateTime": 1693662409983, "trialdata": {"rt": 76276, "response": {"Q0": "$-2 to $2", "Q1": "$-32 to $32", "Q2": "$-88 to $88", "Q3": "The cost for clicking on nodes varied between nodes.", "Q4": "Very motivated"}, "question_order": [0, 1, 2, 3, 4], "trial_id": "final_quiz_control", "trial_type": "survey-multi-choice", "trial_index": 61, "time_elapsed": 1533074, "internal_node_id": "0.0-6.0-2.0"}}, {"uniqueid": "w85032499:a22801272", "current_trial": 62, "dateTime": 1693662556161, "trialdata": {"rt": 146173, "response": {"Q0": "I started with trial and error and learned that inspecting the final node is the most important because it greatly determines the final payout.", "Q1": "I inspected more nodes furthest away from the centre compared to the closer ones as the game progresses.", "Q2": "It was not too difficult. The trend became apparent after a few rounds, noting that the highest payouts is the furthest node."}, "trial_id": "self_report_control", "trial_type": "survey-text", "trial_index": 62, "time_elapsed": 1679252, "internal_node_id": "0.0-6.0-3.0"}}, {"uniqueid": "w85032499:a22801272", "current_trial": 63, "dateTime": 1693662601803, "trialdata": {"rt": 45637, "response": {"Q0": "Strongly disagree", "Q1": "Strongly disagree", "Q2": "Strongly disagree", "Q3": "Strongly disagree", "Q4": "Neither disagree nor agree", "Q5": "Strongly agree", "Q6": "Strongly disagree"}, "question_order": [0, 1, 2, 3, 4, 5, 6], "trial_id": "self_report_2", "trial_type": "survey-multi-choice", "trial_index": 63, "time_elapsed": 1724895, "internal_node_id": "0.0-6.0-4.0"}}, {"uniqueid": "w85032499:a22801272", "current_trial": 64, "dateTime": 1693662619218, "trialdata": {"rt": 17408, "response": {"gender": "male", "age": "38", "colorblind": "0", "effort": "0"}, "trial_type": "survey-html-form", "trial_index": 64, "time_elapsed": 1742310, "internal_node_id": "0.0-6.0-5.0"}}, {"uniqueid": "w85032499:a22801272", "current_trial": 65, "dateTime": 1693662663672, "trialdata": {"rt": 44446, "response": {"Q0": "It was not confusing and easy to learn and get used to after a few rounds.", "Q1": "I have not played this game before.", "Q2": "Thanks. It was a fun game."}, "trial_type": "survey-text", "trial_index": 65, "time_elapsed": 1786764, "internal_node_id": "0.0-6.0-6.0"}}, {"uniqueid": "w85032499:a22801272", "current_trial": 66, "dateTime": 1693662700343, "trialdata": {"rt": 36666, "stimulus": "<h1>Completion Code Instructions (1/2)</h1>\n<br><br><br><br>\nYou have reached the end of the experiment! The completion code consists of two parts: (1) a code with 2 characters (2) a code with 6 characters. On this page, you will receive the second part of the code. The first part of the completion code will be on the next page.\n<br><br>\nThe second part of your completion code is: <b>EWEK22</b>\n<br><br>\nPlease note this down. Then, press 'Next' in order to find the first part of your completion code. Once the data has been saved, you will receive this code either in this window or in the original browser window where you started the experiment.\n <br><br>\n<h2 style='color: red;'>Note: this is <strong>NOT</strong> the full completion code. Copy this down and click 'Next' to get the full completion code on the next page.</h2>", "response": 0, "trial_type": "html-button-response", "trial_index": 66, "time_elapsed": 1823435, "internal_node_id": "0.0-6.0-7.0"}}, {"uniqueid": "w85032499:a22801272", "current_trial": 67, "dateTime": 1693662701360, "trialdata": {"success": true, "trial_type": "fullscreen", "trial_index": 67, "time_elapsed": 1824452, "internal_node_id": "0.0-7.0"}}], "questiondata": {"params": {"CODE": "C6DMOQA6", "MIN_TIME": 14, "inspectCost": 1, "startTime": "Sat Sep 02 2023 23:21:15 GMT+1000 (Australian Eastern Standard Time)", "bonusRate": 0.002, "variance": "1_2_4_8_44", "branching": "31123"}, "final_score": 1859.65}, "eventdata": [{"eventtype": "initialized", "value": null, "timestamp": 1693660874822, "interval": 0}, {"eventtype": "window_resize", "value": [1536, 872], "timestamp": 1693660874822, "interval": 0}, {"eventtype": "window_resize", "value": [1536, 872], "timestamp": 1693660875285, "interval": 463}, {"eventtype": "window_resize", "value": [1536, 960], "timestamp": 1693660880764, "interval": 5479}, {"eventtype": "window_resize", "value": [1536, 872], "timestamp": 1693660883372, "interval": 2608}, {"eventtype": "focus", "value": "off", "timestamp": 1693661161764, "interval": 278392}, {"eventtype": "focus", "value": "on", "timestamp": 1693661161764, "interval": 0}, {"eventtype": "window_resize", "value": [1536, 960], "timestamp": 1693661165009, "interval": 3245}, {"eventtype": "window_resize", "value": [1536, 872], "timestamp": 1693661168625, "interval": 3616}, {"eventtype": "focus", "value": "off", "timestamp": 1693661216694, "interval": 48069}, {"eventtype": "focus", "value": "on", "timestamp": 1693661218622, "interval": 1928}, {"eventtype": "focus", "value": "off", "timestamp": 1693661302162, "interval": 83540}, {"eventtype": "focus", "value": "on", "timestamp": 1693661302162, "interval": 0}, {"eventtype": "window_resize", "value": [1536, 960], "timestamp": 1693661303964, "interval": 1802}, {"eventtype": "window_resize", "value": [1536, 872], "timestamp": 1693661306232, "interval": 2268}, {"eventtype": "focus", "value": "off", "timestamp": 1693661415513, "interval": 109281}, {"eventtype": "focus", "value": "on", "timestamp": 1693661437603, "interval": 22090}, {"eventtype": "focus", "value": "off", "timestamp": 1693662026282, "interval": 588679}, {"eventtype": "focus", "value": "on", "timestamp": 1693662037058, "interval": 10776}, {"eventtype": "focus", "value": "off", "timestamp": 1693662682155, "interval": 645097}, {"eventtype": "focus", "value": "on", "timestamp": 1693662689098, "interval": 6943}], "useragent": "Mozilla/5.0 (Windows NT 10.0; Win64; x64) AppleWebKit/537.36 (KHTML, like Gecko) Chrome/116.0.0.0 Safari/537.36", "mode": "live", "id": "w85032499:a22801272", "status": "user data saved", "Beginhit": "2023-09-02 13:21:12.338302", "Beginexp": "2023-09-02 13:21:21.683801", "Endhit": "2023-09-02 13:51:42.361152", "psiturkStatus": 3, "browser": "<redacted>", "platform": "windows", "language": "en-AU"}