{"condition": 1, "counterbalance": 0, "assignmentId": "a66777654", "workerId": "w89440040", "hitId": "h57072460", "currenttrial": 62, "bonus": 0, "data": [{"uniqueid": "w89440040:a66777654", "current_trial": 0, "dateTime": 1691160235435, "trialdata": {"success": true, "trial_type": "fullscreen", "trial_index": 0, "time_elapsed": 19849, "internal_node_id": "0.0-0.0"}}, {"uniqueid": "w89440040:a66777654", "current_trial": 1, "dateTime": 1691160308733, "trialdata": {"view_history": [{"page_index": 0, "viewing_time": 73291}], "rt": 73292, "trial_id": "exp_instructions_misaligned", "trial_type": "instructions", "trial_index": 1, "time_elapsed": 93147, "internal_node_id": "0.0-1.0"}}, {"uniqueid": "w89440040:a66777654", "current_trial": 2, "dateTime": 1691160313520, "trialdata": {"success": true, "trial_type": "fullscreen", "trial_index": 2, "time_elapsed": 97934, "internal_node_id": "0.0-2.0-0.0"}}, {"uniqueid": "w89440040:a66777654", "current_trial": 3, "dateTime": 1691160640083, "trialdata": {"view_history": [{"page_index": 0, "viewing_time": 74487}, {"page_index": 1, "viewing_time": 93268}, {"page_index": 2, "viewing_time": 129122}, {"page_index": 3, "viewing_time": 29684}], "rt": 326561, "trial_id": "mouselab_instructions_1_misaligned", "trial_type": "instructions", "trial_index": 3, "time_elapsed": 424497, "internal_node_id": "0.0-2.0-1.0"}}, {"uniqueid": "w89440040:a66777654", "current_trial": 4, "dateTime": 1691160662816, "trialdata": {"revealed_states": [], "clicked_states": [], "num_clicks_accrued": [0, 0, 0, 0, 0, 0, 0, 0, 0, 0, 0, 0, 0], "stateRewards": ["", -10, 10, 10, 10, -10, -10, 10, 10, -10, -10, -10, 10, 10, 10, -10, 10, 10, 10, 10, -10, -10, -10, -10, -10, 10, 10, 10, 10, 10, 10, 10, 10, -10], "withholdReward": false, "trial_id": "practice_1", "block": "test", "trialIndex": 0, "score": 13.5, "costs": 0, "simulationMode": [null, null, null, null, null], "rewards": [-10, 10, 10, 10, -10], "path": ["0", "0", "1", "2", "3", "8", "9"], "rt": [4093, 2477, 1079, 2545, 768], "actions": ["up", "up", "up", "left", "up"], "actionTimes": [8319, 11320, 12935, 16001, 17289], "queries": {"click": {"state": {"target": [], "time": []}, "edge": {"target": [], "time": []}}, "mouseover": {"state": {"target": ["0"], "time": [5792]}, "edge": {"target": [], "time": []}}, "mouseout": {"state": {"target": ["23", "0", "0"], "time": [3131, 5560, 6042]}, "edge": {"target": [], "time": []}}}, "displayed_time": "17.83", "trialTime": 22007, "trial_type": "mouselab-mdp", "trial_index": 4, "time_elapsed": 447229, "internal_node_id": "0.0-2.0-2.0-0.0"}}, {"uniqueid": "w89440040:a66777654", "current_trial": 5, "dateTime": 1691160680545, "trialdata": {"revealed_states": [], "clicked_states": [], "num_clicks_accrued": [0, 0, 0, 0, 0, 0, 0, 0, 0, 0, 0, 0, 0], "stateRewards": ["", -10, -10, -10, 10, -10, 10, 10, -10, 10, 10, 10, -10, 10, -10, -10, -10, -10, -10, 10, 10, -10, 10, -10, -10, 10, -10, -10, -10, -10, -10, -10, 10, -10], "withholdReward": false, "trial_id": "practice_2", "block": "test", "trialIndex": 1, "score": -26.5, "costs": 0, "simulationMode": [null, null, null, null, null], "rewards": [-10, 10, -10, -10, -10], "path": ["0", "0", "12", "13", "14", "15", "16"], "rt": [4738, 1056, 1111, 1087, 1090], "actions": ["right", "right", "right", "up", "up"], "actionTimes": [8176, 9751, 11387, 12992, 14610], "queries": {"click": {"state": {"target": [], "time": []}, "edge": {"target": [], "time": []}}, "mouseover": {"state": {"target": [], "time": []}, "edge": {"target": [], "time": []}}, "mouseout": {"state": {"target": ["0"], "time": [3124]}, "edge": {"target": [], "time": []}}}, "displayed_time": "15.13", "trialTime": 17342, "trial_type": "mouselab-mdp", "trial_index": 5, "time_elapsed": 464958, "internal_node_id": "0.0-2.0-2.0-1.0"}}, {"uniqueid": "w89440040:a66777654", "current_trial": 6, "dateTime": 1691160765532, "trialdata": {"view_history": [{"page_index": 0, "viewing_time": 72861}, {"page_index": 1, "viewing_time": 12122}], "rt": 84984, "trial_id": "mouselab_instructions_2_misaligned", "trial_type": "instructions", "trial_index": 6, "time_elapsed": 549946, "internal_node_id": "0.0-2.0-3.0"}}, {"uniqueid": "w89440040:a66777654", "current_trial": 7, "dateTime": 1691160881536, "trialdata": {"rt": 115997, "response": {"Q0": "The cost for clicking on nodes may vary between nodes.", "Q1": "The better I perform the higher my bonus will be.", "Q2": "No, the amount of cash at each node of the web may be different each time.", "Q3": "To click on the least number of nodes.", "Q4": "Only before moving the spider.", "Q5": "3 seconds"}, "question_order": [0, 1, 2, 3, 4, 5], "correct": {"Q0": "The cost for clicking on nodes may vary between nodes.", "Q1": "The better I perform the higher my bonus will be.", "Q2": "No, the amount of cash at each node of the web may be different each time.", "Q3": "To get the highest total score.", "Q4": "Only before moving the spider.", "Q5": "3 seconds"}, "trial_id": "mouselab_quiz_misaligned", "trial_type": "survey-multi-choice", "trial_index": 7, "time_elapsed": 665950, "internal_node_id": "0.0-2.0-4.0"}}, {"uniqueid": "w89440040:a66777654", "current_trial": 8, "dateTime": 1691160888119, "trialdata": {"success": true, "trial_type": "fullscreen", "trial_index": 8, "time_elapsed": 672533, "internal_node_id": "0.0-2.1-0.1"}}, {"uniqueid": "w89440040:a66777654", "current_trial": 9, "dateTime": 1691160920042, "trialdata": {"view_history": [{"page_index": 0, "viewing_time": 6688}, {"page_index": 1, "viewing_time": 2604}, {"page_index": 2, "viewing_time": 15198}, {"page_index": 3, "viewing_time": 7430}], "rt": 31920, "trial_id": "mouselab_instructions_1_misaligned", "trial_type": "instructions", "trial_index": 9, "time_elapsed": 704456, "internal_node_id": "0.0-2.1-1.1"}}, {"uniqueid": "w89440040:a66777654", "current_trial": 10, "dateTime": 1691160946537, "trialdata": {"revealed_states": [], "clicked_states": ["1", "2", "3", "4", "5"], "num_clicks_accrued": [0, 0, 0, 0, 0, 0, 0, 0, 0, 0, 0, 0, 0], "stateRewards": ["", -10, 10, 10, 10, -10, -10, 10, 10, -10, -10, -10, 10, 10, 10, -10, 10, 10, 10, 10, -10, -10, -10, -10, -10, 10, 10, 10, 10, 10, 10, 10, 10, -10], "withholdReward": false, "trial_id": "practice_1", "block": "test", "trialIndex": 2, "score": 11, "costs": -2.5, "simulationMode": [null, null, null, null, null], "rewards": [-10, 10, 10, 10, -10], "path": ["0", "0", "1", "2", "3", "4", "5"], "rt": [13907, 650, 382, 537, 1274], "actions": ["up", "up", "up", "right", "up"], "actionTimes": [16795, 17960, 18871, 19927, 21729], "queries": {"click": {"state": {"target": ["1", "2", "3", "4", "5"], "time": [4074, 6933, 9643, 11578, 13988]}, "edge": {"target": [], "time": []}}, "mouseover": {"state": {"target": ["1", "2", "3", "4", "5"], "time": [3707, 5887, 8332, 10384, 13740]}, "edge": {"target": [], "time": []}}, "mouseout": {"state": {"target": ["0", "1", "2", "3", "4", "5"], "time": [3541, 4610, 7988, 10251, 13490, 14295]}, "edge": {"target": [], "time": []}}}, "displayed_time": "22.25", "trialTime": 26083, "trial_type": "mouselab-mdp", "trial_index": 10, "time_elapsed": 730950, "internal_node_id": "0.0-2.1-2.1-0.1"}}, {"uniqueid": "w89440040:a66777654", "current_trial": 11, "dateTime": 1691160964683, "trialdata": {"revealed_states": [], "clicked_states": ["1", "23"], "num_clicks_accrued": [0, 0, 0, 0, 0, 0, 0, 0, 0, 0, 0, 0, 0], "stateRewards": ["", -10, -10, -10, 10, -10, 10, 10, -10, 10, 10, 10, -10, 10, -10, -10, -10, -10, -10, 10, 10, -10, 10, -10, -10, 10, -10, -10, -10, -10, -10, -10, 10, -10], "withholdReward": false, "trial_id": "practice_2", "block": "test", "trialIndex": 3, "score": -27.5, "costs": -1, "simulationMode": [null, null, null, null, null], "rewards": [-10, -10, -10, 10, -10], "path": ["0", "0", "1", "2", "3", "4", "5"], "rt": [6390, 1685, 191, 865, 18], "actions": ["up", "up", "up", "right", "up"], "actionTimes": [9477, 11678, 12413, 13803, 14353], "queries": {"click": {"state": {"target": ["1", "23"], "time": [4805, 6740]}, "edge": {"target": [], "time": []}}, "mouseover": {"state": {"target": ["1", "23", "24"], "time": [4378, 6375, 7429]}, "edge": {"target": [], "time": []}}, "mouseout": {"state": {"target": ["1", "1", "0", "1", "1", "23", "23", "24", "23", "1", "2", "1", "0"], "time": [2231, 2414, 3862, 5032, 6092, 6849, 7364, 7921, 7988, 10470, 11349, 15259, 15359]}, "edge": {"target": [], "time": []}}}, "displayed_time": "14.87", "trialTime": 17731, "trial_type": "mouselab-mdp", "trial_index": 11, "time_elapsed": 749097, "internal_node_id": "0.0-2.1-2.1-1.1"}}, {"uniqueid": "w89440040:a66777654", "current_trial": 12, "dateTime": 1691160970496, "trialdata": {"view_history": [{"page_index": 0, "viewing_time": 4042}, {"page_index": 1, "viewing_time": 1766}], "rt": 5808, "trial_id": "mouselab_instructions_2_misaligned", "trial_type": "instructions", "trial_index": 12, "time_elapsed": 754910, "internal_node_id": "0.0-2.1-3.1"}}, {"uniqueid": "w89440040:a66777654", "current_trial": 13, "dateTime": 1691161052337, "trialdata": {"rt": 81837, "response": {"Q0": "The cost for clicking on nodes may vary between nodes.", "Q1": "The better I perform the higher my bonus will be.", "Q2": "No, the amount of cash at each node of the web may be different each time.", "Q3": "To get the highest total score.", "Q4": "Only before moving the spider.", "Q5": "3 seconds"}, "question_order": [0, 1, 2, 3, 4, 5], "correct": {"Q0": "The cost for clicking on nodes may vary between nodes.", "Q1": "The better I perform the higher my bonus will be.", "Q2": "No, the amount of cash at each node of the web may be different each time.", "Q3": "To get the highest total score.", "Q4": "Only before moving the spider.", "Q5": "3 seconds"}, "trial_id": "mouselab_quiz_misaligned", "trial_type": "survey-multi-choice", "trial_index": 13, "time_elapsed": 836751, "internal_node_id": "0.0-2.1-4.1"}}, {"uniqueid": "w89440040:a66777654", "current_trial": 14, "dateTime": 1691161067009, "trialdata": {"rt": 14663, "stimulus": "\n<h1> Get ready to start the game! </h1>\n\nThank you for reading the instructions. Get ready start with the 40 rounds of this game.\n<br><br>\nIf you need to take a break, feel free to take one after the end of a round, before continuing to the next one.\n<br><br>\nRemember, the more money the spider gets, the bigger your bonus will be!\n<br><br>\n<div style='text-align: center;'>Press <code>space</code> to begin.</div>\n\n<br><br>\n(If, at any point, the <code>space</code> key does not take you to the next page, click once on the text and try again.)", "response": " ", "trial_id": "mdp_ready", "trial_type": "html-keyboard-response", "trial_index": 14, "time_elapsed": 851423, "internal_node_id": "0.0-4.0-0.0"}}, {"uniqueid": "w89440040:a66777654", "current_trial": 15, "dateTime": 1691161085527, "trialdata": {"revealed_states": [], "clicked_states": [], "num_clicks_accrued": [0, 0, 0, 0, 0, 0, 0, 0, 0, 0, 0, 0, 0], "stateRewards": ["", 1, -1, 4, 5, -32, 18, 20, 6, -88, -74, 9, -2, 1, -2, -14, 34, -77, -38, -1, 80, -36, 73, 2, 3, -8, 10, -48, -73, -71, -11, -22, 20, 54], "withholdReward": false, "trial_id": "mdp_trial_1", "block": "test", "trialIndex": 4, "score": -78, "costs": 0, "simulationMode": [null, null, null, null, null], "rewards": [1, -1, 4, 6, -88], "path": ["0", "0", "1", "2", "3", "8", "9"], "rt": [2553, 692, 456, 432, 309], "actions": ["up", "up", "up", "left", "up"], "actionTimes": [4513, 5734, 6712, 7670, 8496], "queries": {"click": {"state": {"target": [], "time": []}, "edge": {"target": [], "time": []}}, "mouseover": {"state": {"target": [], "time": []}, "edge": {"target": [], "time": []}}, "mouseout": {"state": {"target": ["10", "1", "0", "0"], "time": [907, 1023, 1122, 2571]}, "edge": {"target": [], "time": []}}}, "displayed_time": "15.96", "trialTime": 18079, "trial_type": "mouselab-mdp", "trial_index": 15, "time_elapsed": 869941, "internal_node_id": "0.0-4.0-1.0-0.0"}}, {"uniqueid": "w89440040:a66777654", "current_trial": 16, "dateTime": 1691161107728, "trialdata": {"revealed_states": [], "clicked_states": ["1", "23", "12", "3"], "num_clicks_accrued": [0, 0, 0, 0, 0, 0, 0, 0, 0, 0, 0, 0, 0], "stateRewards": ["", 2, -1, -1, -9, -81, -30, 55, -6, 78, 25, 62, 2, 4, -1, 9, -85, 1, -19, 1, -60, 12, -34, 1, 4, -1, -13, -24, -16, -83, -8, 16, 43, 9], "withholdReward": false, "trial_id": "mdp_trial_2", "block": "test", "trialIndex": 5, "score": -90.2, "costs": -0.19999999999999996, "simulationMode": [null, null, null, null, null], "rewards": [2, -1, -1, -9, -81], "path": ["0", "0", "1", "2", "3", "4", "5"], "rt": [7765, 272, 341, 724, 801], "actions": ["up", "up", "up", "right", "up"], "actionTimes": [10902, 11711, 12587, 13841, 15164], "queries": {"click": {"state": {"target": ["1", "23", "12", "3"], "time": [4938, 6045, 7158, 8817]}, "edge": {"target": [], "time": []}}, "mouseover": {"state": {"target": ["0", "1", "23", "0", "12", "3", "2", "7"], "time": [3333, 4173, 5425, 6653, 6770, 8515, 9652, 9963]}, "edge": {"target": [], "time": []}}, "mouseout": {"state": {"target": ["0", "0", "0", "0", "0", "1", "23", "0", "12", "3", "2"], "time": [1927, 1993, 2258, 2691, 3519, 5176, 6616, 6731, 8005, 9391, 9734]}, "edge": {"target": [], "time": []}}}, "displayed_time": "17.14", "trialTime": 21716, "trial_type": "mouselab-mdp", "trial_index": 16, "time_elapsed": 892141, "internal_node_id": "0.0-4.0-1.0-1.0"}}, {"uniqueid": "w89440040:a66777654", "current_trial": 17, "dateTime": 1691161143257, "trialdata": {"revealed_states": [], "clicked_states": ["16", "9", "5", "27", "32"], "num_clicks_accrued": [0, 0, 0, 0, 0, 0, 0, 0, 0, 0, 0, 0, 0], "stateRewards": ["", 1, 4, -8, -13, -13, -87, -77, -10, -44, 54, 42, 2, -3, -4, 12, -9, -80, 52, 9, 84, -2, -65, 1, -4, -5, -6, 8, 80, 32, 13, -59, -5, -13], "withholdReward": false, "trial_id": "mdp_trial_3", "block": "test", "trialIndex": 6, "score": 7.25, "costs": -10.75, "simulationMode": [null, null, null, null, null, null], "rewards": [1, -4, -5, -6, 32], "path": ["0", "0", "23", "24", "25", "26", "29"], "rt": [19552, 3499, 601, 620, 603, 117], "actions": ["left", "left", "left", "left", "up", "left"], "actionTimes": [23961, 27469, 28590, 29745, 30872, 31517], "queries": {"click": {"state": {"target": ["16", "9", "5", "27", "32"], "time": [7019, 10850, 13958, 18996, 22064]}, "edge": {"target": [], "time": []}}, "mouseover": {"state": {"target": ["2", "16", "18", "7", "2", "8", "9", "9", "9", "5", "3", "8", "27", "33", "33", "32", "0"], "time": [6533, 6685, 7635, 8105, 8159, 8221, 8292, 8470, 10511, 11517, 14532, 14574, 14677, 20302, 20532, 20834, 25651]}, "edge": {"target": [], "time": []}}, "mouseout": {"state": {"target": ["7", "0", "0", "2", "16", "18", "7", "2", "8", "9", "9", "9", "5", "3", "8", "27", "33", "33", "32", "32", "32"], "time": [2058, 3074, 6152, 6569, 7487, 7892, 8141, 8180, 8241, 8383, 9079, 11249, 14461, 14567, 14589, 20150, 20435, 20711, 22562, 22670, 23110]}, "edge": {"target": [], "time": []}}}, "displayed_time": "32.03", "trialTime": 35032, "trial_type": "mouselab-mdp", "trial_index": 17, "time_elapsed": 927670, "internal_node_id": "0.0-4.0-1.0-2.0"}}, {"uniqueid": "w89440040:a66777654", "current_trial": 18, "dateTime": 1691161173905, "trialdata": {"revealed_states": [], "clicked_states": ["9", "29", "32", "17"], "num_clicks_accrued": [0, 0, 0, 0, 0, 0, 0, 0, 0, 0, 0, 0, 0], "stateRewards": ["", 2, 4, -3, 16, -58, 30, -35, 11, -60, 47, 27, -2, -1, -7, -16, 23, -70, 68, -10, -65, -43, -34, -2, 1, 7, 9, -63, 34, -31, -8, -12, -86, 59], "withholdReward": false, "trial_id": "mdp_trial_4", "block": "test", "trialIndex": 7, "score": -47.6, "costs": -8.6, "simulationMode": [null, null, null, null, null, null], "rewards": [2, 4, -3, 16, -58], "path": ["0", "0", "1", "2", "3", "4", "5"], "rt": [15214, 2900, 483, 312, 159, 425], "actions": ["up", "up", "up", "up", "right", "up"], "actionTimes": [19639, 22548, 23560, 24403, 25087, 26036], "queries": {"click": {"state": {"target": ["9", "29", "32", "17"], "time": [5964, 9525, 12446, 17129]}, "edge": {"target": [], "time": []}}, "mouseover": {"state": {"target": ["28", "11", "9", "11", "27", "29", "33", "32", "21", "22", "12", "13", "14", "14", "13", "12", "15", "17", "15", "14", "19", "0"], "time": [5139, 5255, 5621, 6392, 6483, 6758, 10347, 10621, 13163, 15588, 15869, 15970, 16037, 16236, 16262, 16469, 16636, 16853, 20628, 20729, 20829, 21161]}, "edge": {"target": [], "time": []}}, "mouseout": {"state": {"target": ["0", "0", "28", "11", "9", "11", "27", "29", "33", "32", "21", "22", "12", "13", "14", "14", "13", "12", "15", "17", "17", "15", "14", "19"], "time": [2543, 3274, 5190, 5274, 6310, 6428, 6506, 10103, 10421, 12963, 15404, 15620, 15920, 16003, 16120, 16257, 16274, 16504, 16753, 17707, 19172, 20662, 20746, 20846]}, "edge": {"target": [], "time": []}}}, "displayed_time": "26.56", "trialTime": 30146, "trial_type": "mouselab-mdp", "trial_index": 18, "time_elapsed": 958319, "internal_node_id": "0.0-4.0-1.0-3.0"}}, {"uniqueid": "w89440040:a66777654", "current_trial": 19, "dateTime": 1691161192997, "trialdata": {"revealed_states": [], "clicked_states": [], "num_clicks_accrued": [0, 0, 0, 0, 0, 0, 0, 0, 0, 0, 0, 0, 0], "stateRewards": ["", -1, 1, 6, -6, 70, 66, 67, -16, -75, -35, 37, -1, 4, 4, -6, 47, -9, 63, 15, 21, -63, 13, 1, 3, -6, 10, 79, -29, 18, -15, 9, -67, -19], "withholdReward": false, "trial_id": "mdp_trial_5", "block": "test", "trialIndex": 8, "score": 27, "costs": 0, "simulationMode": [null, null, null, null, null], "rewards": [-1, 1, 6, -16, 37], "path": ["0", "0", "1", "2", "3", "8", "11"], "rt": [2182, 314, 197, 152, 208], "actions": ["up", "up", "up", "left", "left"], "actionTimes": [4131, 4981, 5695, 6368, 7102], "queries": {"click": {"state": {"target": [], "time": []}, "edge": {"target": [], "time": []}}, "mouseover": {"state": {"target": [], "time": []}, "edge": {"target": [], "time": []}}, "mouseout": {"state": {"target": ["0", "0"], "time": [2641, 18318]}, "edge": {"target": [], "time": []}}}, "displayed_time": "15.95", "trialTime": 18627, "trial_type": "mouselab-mdp", "trial_index": 19, "time_elapsed": 977410, "internal_node_id": "0.0-4.0-1.0-4.0"}}, {"uniqueid": "w89440040:a66777654", "current_trial": 20, "dateTime": 1691161216428, "trialdata": {"revealed_states": [], "clicked_states": ["17", "5", "21", "31"], "num_clicks_accrued": [0, 0, 0, 0, 0, 0, 0, 0, 0, 0, 0, 0, 0], "stateRewards": ["", 2, 3, -1, 16, -78, -11, 46, 2, -20, 79, -67, 2, 3, 2, 11, -83, -42, -58, -11, -67, -22, 55, 2, -1, -1, -16, -83, -82, 23, -11, -29, 13, 13], "withholdReward": false, "trial_id": "mdp_trial_6", "block": "test", "trialIndex": 9, "score": -1.6000000000000014, "costs": -8.6, "simulationMode": [null, null, null, null, null], "rewards": [2, -1, -1, -16, 23], "path": ["0", "0", "23", "24", "25", "26", "29"], "rt": [15465, 210, 194, 225, 158], "actions": ["left", "left", "left", "up", "left"], "actionTimes": [17174, 17901, 18626, 19379, 20060], "queries": {"click": {"state": {"target": ["17", "5", "21", "31"], "time": [2858, 6487, 9272, 12618]}, "edge": {"target": [], "time": []}}, "mouseover": {"state": {"target": ["18", "17", "15", "4", "5", "3", "1", "12", "22", "21", "32", "32", "31", "24", "26", "28", "23", "0"], "time": [2278, 2510, 3465, 3699, 3831, 6975, 7309, 7399, 7560, 7761, 10249, 10518, 10653, 13531, 13869, 14053, 15553, 15606]}, "edge": {"target": [], "time": []}}, "mouseout": {"state": {"target": ["12", "18", "17", "15", "4", "5", "3", "1", "12", "22", "21", "32", "32", "31", "24", "26", "28", "23", "0"], "time": [828, 2310, 3200, 3546, 3753, 6891, 7027, 7334, 7473, 7633, 9897, 10343, 10561, 13398, 13597, 14031, 15231, 15587, 16353]}, "edge": {"target": [], "time": []}}}, "displayed_time": "20.60", "trialTime": 22923, "trial_type": "mouselab-mdp", "trial_index": 20, "time_elapsed": 1000841, "internal_node_id": "0.0-4.0-1.0-5.0"}}, {"uniqueid": "w89440040:a66777654", "current_trial": 21, "dateTime": 1691161237671, "trialdata": {"revealed_states": [], "clicked_states": [], "num_clicks_accrued": [0, 0, 0, 0, 0, 0, 0, 0, 0, 0, 0, 0, 0], "stateRewards": ["", 2, 3, -3, 4, 72, -28, 34, -12, 57, -64, -15, 2, 1, -4, -15, 2, 49, 31, -1, -42, -58, 31, -2, 1, -2, -13, -75, -19, -22, -6, 61, 10, -56], "withholdReward": false, "trial_id": "mdp_trial_7", "block": "test", "trialIndex": 10, "score": -25, "costs": 0, "simulationMode": [null, null, null, null, null], "rewards": [2, 3, -3, -12, -15], "path": ["0", "0", "1", "2", "3", "8", "11"], "rt": [943, 91, 115, 58, 145], "actions": ["up", "up", "up", "left", "left"], "actionTimes": [5578, 6197, 6837, 7412, 8098], "queries": {"click": {"state": {"target": [], "time": []}, "edge": {"target": [], "time": []}}, "mouseover": {"state": {"target": [], "time": []}, "edge": {"target": [], "time": []}}, "mouseout": {"state": {"target": ["0"], "time": [2204]}, "edge": {"target": [], "time": []}}}, "displayed_time": "18.64", "trialTime": 20735, "trial_type": "mouselab-mdp", "trial_index": 21, "time_elapsed": 1022084, "internal_node_id": "0.0-4.0-1.0-6.0"}}, {"uniqueid": "w89440040:a66777654", "current_trial": 22, "dateTime": 1691161259407, "trialdata": {"revealed_states": [], "clicked_states": [], "num_clicks_accrued": [0, 0, 0, 0, 0, 0, 0, 0, 0, 0, 0, 0, 0], "stateRewards": ["", -1, 3, 8, 10, -86, 61, -36, 10, 17, -60, 24, -1, -3, 3, 11, 50, 60, 33, -3, -20, 58, -6, 1, -4, -4, 13, -70, -71, 43, 14, 52, 82, -11], "withholdReward": false, "trial_id": "mdp_trial_8", "block": "test", "trialIndex": 11, "score": 54, "costs": 0, "simulationMode": [null, null, null, null, null], "rewards": [-1, -3, 3, -3, 58], "path": ["0", "0", "12", "13", "14", "19", "21"], "rt": [2665, 782, 299, 582, 465], "actions": ["right", "right", "right", "down", "down"], "actionTimes": [5636, 6949, 7779, 8886, 9873], "queries": {"click": {"state": {"target": [], "time": []}, "edge": {"target": [], "time": []}}, "mouseover": {"state": {"target": [], "time": []}, "edge": {"target": [], "time": []}}, "mouseout": {"state": {"target": ["0"], "time": [2599]}, "edge": {"target": [], "time": []}}}, "displayed_time": "16.97", "trialTime": 21200, "trial_type": "mouselab-mdp", "trial_index": 22, "time_elapsed": 1043820, "internal_node_id": "0.0-4.0-1.0-7.0"}}, {"uniqueid": "w89440040:a66777654", "current_trial": 23, "dateTime": 1691161280276, "trialdata": {"revealed_states": [], "clicked_states": ["29"], "num_clicks_accrued": [0, 0, 0, 0, 0, 0, 0, 0, 0, 0, 0, 0, 0], "stateRewards": ["", -2, -4, -8, 8, 63, -50, -19, -7, -17, -31, 31, 1, 3, -5, 12, -35, -63, -29, -4, -17, -75, -79, -2, -3, -2, 8, -3, -85, 10, -2, -82, -82, 56], "withholdReward": false, "trial_id": "mdp_trial_9", "block": "test", "trialIndex": 12, "score": 8.85, "costs": -2.15, "simulationMode": [null, null, null, null, null], "rewards": [-2, -3, -2, 8, 10], "path": ["0", "0", "23", "24", "25", "26", "29"], "rt": [7730, 159, 313, 331, 824], "actions": ["left", "left", "left", "up", "left"], "actionTimes": [11004, 11688, 12525, 13398, 14751], "queries": {"click": {"state": {"target": ["29"], "time": [4873]}, "edge": {"target": [], "time": []}}, "mouseover": {"state": {"target": ["27", "26", "29", "26", "18", "15", "17", "17", "14", "13", "12", "0", "0"], "time": [3900, 3984, 4532, 5503, 5729, 5768, 5811, 5969, 8293, 8360, 8425, 8808, 9490]}, "edge": {"target": [], "time": []}}, "mouseout": {"state": {"target": ["0", "28", "24", "0", "27", "26", "29", "26", "18", "15", "17", "17", "14", "13", "12", "0", "0"], "time": [653, 1086, 2168, 3600, 3933, 4332, 5301, 5523, 5749, 5788, 5845, 8144, 8325, 8392, 8525, 9058, 9638]}, "edge": {"target": [], "time": []}}}, "displayed_time": "17.28", "trialTime": 20331, "trial_type": "mouselab-mdp", "trial_index": 23, "time_elapsed": 1064690, "internal_node_id": "0.0-4.0-1.0-8.0"}}, {"uniqueid": "w89440040:a66777654", "current_trial": 24, "dateTime": 1691161300337, "trialdata": {"revealed_states": [], "clicked_states": [], "num_clicks_accrued": [0, 0, 0, 0, 0, 0, 0, 0, 0, 0, 0, 0, 0], "stateRewards": ["", -1, 2, 6, 11, 21, -21, -21, -6, 48, -71, 88, -1, -3, 3, 7, 64, 2, 9, -4, 37, -67, 72, 2, 2, -8, -8, -10, 71, -40, -3, 73, 80, 47], "withholdReward": false, "trial_id": "mdp_trial_10", "block": "test", "trialIndex": 13, "score": 49, "costs": 0, "simulationMode": [null, null, null, null, null], "rewards": [-1, 2, 6, -6, 48], "path": ["0", "0", "1", "2", "3", "8", "9"], "rt": [2847, 644, 386, 295, 100], "actions": ["up", "up", "up", "left", "up"], "actionTimes": [5277, 6444, 7357, 8173, 8792], "queries": {"click": {"state": {"target": [], "time": []}, "edge": {"target": [], "time": []}}, "mouseover": {"state": {"target": [], "time": []}, "edge": {"target": [], "time": []}}, "mouseout": {"state": {"target": ["0", "0"], "time": [1696, 19347]}, "edge": {"target": [], "time": []}}}, "displayed_time": "16.43", "trialTime": 19504, "trial_type": "mouselab-mdp", "trial_index": 24, "time_elapsed": 1084750, "internal_node_id": "0.0-4.0-1.0-9.0"}}, {"uniqueid": "w89440040:a66777654", "current_trial": 25, "dateTime": 1691161318465, "trialdata": {"revealed_states": [], "clicked_states": [], "num_clicks_accrued": [0, 0, 0, 0, 0, 0, 0, 0, 0, 0, 0, 0, 0], "stateRewards": ["", -1, -4, -1, -11, 43, 69, 39, 4, 17, -20, -82, -2, -1, 4, 8, -79, 24, -79, 11, 36, 64, 41, 2, 4, -1, 11, -79, -47, 75, -3, 63, -36, -19], "withholdReward": false, "trial_id": "mdp_trial_11", "block": "test", "trialIndex": 14, "score": 22, "costs": 0, "simulationMode": [null, null, null, null, null], "rewards": [-1, -4, -1, -11, 39], "path": ["0", "0", "1", "2", "3", "4", "7"], "rt": [2959, 202, 398, 88, 373], "actions": ["up", "up", "up", "right", "down"], "actionTimes": [4724, 5442, 6370, 6974, 7876], "queries": {"click": {"state": {"target": [], "time": []}, "edge": {"target": [], "time": []}}, "mouseover": {"state": {"target": [], "time": []}, "edge": {"target": [], "time": []}}, "mouseout": {"state": {"target": ["0", "0", "0"], "time": [40, 721, 1120]}, "edge": {"target": [], "time": []}}}, "displayed_time": "15.77", "trialTime": 17576, "trial_type": "mouselab-mdp", "trial_index": 25, "time_elapsed": 1102879, "internal_node_id": "0.0-4.0-1.0-10.0"}}, {"uniqueid": "w89440040:a66777654", "current_trial": 26, "dateTime": 1691161340273, "trialdata": {"revealed_states": [], "clicked_states": [], "num_clicks_accrued": [0, 0, 0, 0, 0, 0, 0, 0, 0, 0, 0, 0, 0], "stateRewards": ["", -2, -4, -2, 10, -8, -15, -47, 7, -84, 53, 5, -1, 2, -7, 3, 83, 31, 47, -1, 30, -8, 69, 2, -4, -1, 8, -7, 12, -8, -8, -13, 30, -84], "withholdReward": false, "trial_id": "mdp_trial_12", "block": "test", "trialIndex": 15, "score": 4, "costs": 0, "simulationMode": [null, null, null, null, null], "rewards": [-2, -4, -2, 7, 5], "path": ["0", "0", "1", "2", "3", "8", "11"], "rt": [3365, 87, 106, 711, 493], "actions": ["up", "up", "up", "left", "left"], "actionTimes": [8036, 8666, 9313, 10549, 11564], "queries": {"click": {"state": {"target": [], "time": []}, "edge": {"target": [], "time": []}}, "mouseover": {"state": {"target": [], "time": []}, "edge": {"target": [], "time": []}}, "mouseout": {"state": {"target": ["0", "0"], "time": [2447, 4706]}, "edge": {"target": [], "time": []}}}, "displayed_time": "18.67", "trialTime": 21239, "trial_type": "mouselab-mdp", "trial_index": 26, "time_elapsed": 1124686, "internal_node_id": "0.0-4.0-1.0-11.0"}}, {"uniqueid": "w89440040:a66777654", "current_trial": 27, "dateTime": 1691161360554, "trialdata": {"revealed_states": [], "clicked_states": [], "num_clicks_accrued": [0, 0, 0, 0, 0, 0, 0, 0, 0, 0, 0, 0, 0], "stateRewards": ["", -2, 4, -7, -3, -76, 39, -28, 10, 14, 12, 60, 2, -3, 6, -10, 88, -34, -41, -3, 72, -13, -56, 1, 3, 2, 8, -51, 23, -57, 1, 14, -46, -16], "withholdReward": false, "trial_id": "mdp_trial_13", "block": "test", "trialIndex": 16, "score": -84, "costs": 0, "simulationMode": [null, null, null, null, null], "rewards": [-2, 4, -7, -3, -76], "path": ["0", "0", "1", "2", "3", "4", "5"], "rt": [6950, 337, 572, 111, 140], "actions": ["up", "up", "up", "right", "up"], "actionTimes": [8878, 9745, 10843, 11481, 12142], "queries": {"click": {"state": {"target": [], "time": []}, "edge": {"target": [], "time": []}}, "mouseover": {"state": {"target": ["12", "13", "14", "14", "15", "16"], "time": [2859, 2896, 2950, 3259, 3892, 4923]}, "edge": {"target": [], "time": []}}, "mouseout": {"state": {"target": ["0", "12", "13", "14", "14", "15", "16", "16", "13"], "time": [1007, 2878, 2928, 2993, 3808, 4872, 8401, 17706, 17933]}, "edge": {"target": [], "time": []}}}, "displayed_time": "15.93", "trialTime": 19694, "trial_type": "mouselab-mdp", "trial_index": 27, "time_elapsed": 1144967, "internal_node_id": "0.0-4.0-1.0-12.0"}}, {"uniqueid": "w89440040:a66777654", "current_trial": 28, "dateTime": 1691161386316, "trialdata": {"revealed_states": [], "clicked_states": ["17", "16", "9", "29"], "num_clicks_accrued": [0, 0, 0, 0, 0, 0, 0, 0, 0, 0, 0, 0, 0], "stateRewards": ["", -1, 1, 8, -3, -24, 11, -65, -6, -77, 48, 44, -2, 1, -2, -7, -55, -35, 33, 8, -28, 19, -53, -1, -1, -5, -5, -70, 10, 44, 8, -58, -70, 51], "withholdReward": false, "trial_id": "mdp_trial_14", "block": "test", "trialIndex": 17, "score": 23.4, "costs": -8.6, "simulationMode": [null, null, null, null, null], "rewards": [-1, -1, -5, -5, 44], "path": ["0", "0", "23", "24", "25", "26", "29"], "rt": [14854, 20, 141, 320, 585], "actions": ["left", "left", "left", "up", "left"], "actionTimes": [16225, 16776, 17456, 18305, 19437], "queries": {"click": {"state": {"target": ["17", "16", "9", "29"], "time": [2286, 5961, 8883, 12210]}, "edge": {"target": [], "time": []}}, "mouseover": {"state": {"target": ["14", "17", "16", "7", "2", "10", "9", "11", "26", "29", "26", "23"], "time": [1435, 1939, 2802, 6988, 7017, 7095, 7391, 9515, 9716, 9877, 12948, 13041]}, "edge": {"target": [], "time": []}}, "mouseout": {"state": {"target": ["0", "14", "17", "16", "7", "2", "10", "9", "11", "26", "29", "26", "23"], "time": [1389, 1522, 2633, 6913, 7009, 7034, 7152, 9442, 9539, 9856, 12894, 12968, 13153]}, "edge": {"target": [], "time": []}}}, "displayed_time": "19.96", "trialTime": 25202, "trial_type": "mouselab-mdp", "trial_index": 28, "time_elapsed": 1170729, "internal_node_id": "0.0-4.0-1.0-13.0"}}, {"uniqueid": "w89440040:a66777654", "current_trial": 29, "dateTime": 1691161413479, "trialdata": {"revealed_states": [], "clicked_states": ["9", "5", "17", "18"], "num_clicks_accrued": [0, 0, 0, 0, 0, 0, 0, 0, 0, 0, 0, 0, 0], "stateRewards": ["", -1, -4, 8, 8, -68, 47, 24, -7, -61, 49, -69, -1, -1, 8, -7, 42, 1, -45, -11, 10, -63, -6, 1, 4, 6, -16, 79, -37, -58, -12, 81, 18, -53], "withholdReward": false, "trial_id": "mdp_trial_15", "block": "test", "trialIndex": 18, "score": -62.6, "costs": -8.6, "simulationMode": [null, null, null, null, null], "rewards": [1, 4, 6, -12, -53], "path": ["0", "0", "23", "24", "25", "30", "33"], "rt": [18440, 78, 219, 246, 193], "actions": ["left", "left", "left", "down", "left"], "actionTimes": [20286, 20895, 21632, 22425, 23137], "queries": {"click": {"state": {"target": ["9", "5", "17", "18"], "time": [3084, 7160, 10515, 14536]}, "edge": {"target": [], "time": []}}, "mouseover": {"state": {"target": ["1", "2", "3", "9", "5", "5", "4", "16", "17", "15", "18", "0", "0"], "time": [2288, 2388, 2411, 2688, 3536, 4010, 8004, 8651, 9068, 11655, 13901, 15213, 19740]}, "edge": {"target": [], "time": []}}, "mouseout": {"state": {"target": ["13", "13", "12", "0", "1", "2", "3", "9", "5", "5", "4", "16", "17", "15", "18", "0", "0"], "time": [640, 789, 807, 1891, 2337, 2406, 2487, 3407, 3641, 7730, 8310, 8725, 11559, 12511, 14852, 19108, 19806]}, "edge": {"target": [], "time": []}}}, "displayed_time": "23.66", "trialTime": 26577, "trial_type": "mouselab-mdp", "trial_index": 29, "time_elapsed": 1197892, "internal_node_id": "0.0-4.0-1.0-14.0"}}, {"uniqueid": "w89440040:a66777654", "current_trial": 30, "dateTime": 1691161432021, "trialdata": {"revealed_states": [], "clicked_states": [], "num_clicks_accrued": [0, 0, 0, 0, 0, 0, 0, 0, 0, 0, 0, 0, 0], "stateRewards": ["", -2, 1, 6, -2, -10, -78, -69, 14, -15, 7, -1, 1, -1, -2, 13, 77, 32, 87, 5, -74, 30, -26, 1, 3, 4, 12, 39, 54, -43, 2, 10, 23, 13], "withholdReward": false, "trial_id": "mdp_trial_16", "block": "test", "trialIndex": 19, "score": 4, "costs": 0, "simulationMode": [null, null, null, null, null], "rewards": [-2, 1, 6, 14, -15], "path": ["0", "0", "1", "2", "3", "8", "9"], "rt": [729, 597, 91, 88, 22], "actions": ["up", "up", "up", "left", "up"], "actionTimes": [3477, 4619, 5231, 5845, 6403], "queries": {"click": {"state": {"target": [], "time": []}, "edge": {"target": [], "time": []}}, "mouseover": {"state": {"target": [], "time": []}, "edge": {"target": [], "time": []}}, "mouseout": {"state": {"target": ["0", "0", "12"], "time": [1646, 1735, 1803]}, "edge": {"target": [], "time": []}}}, "displayed_time": "16.75", "trialTime": 17966, "trial_type": "mouselab-mdp", "trial_index": 30, "time_elapsed": 1216435, "internal_node_id": "0.0-4.0-1.0-15.0"}}, {"uniqueid": "w89440040:a66777654", "current_trial": 31, "dateTime": 1691161452040, "trialdata": {"revealed_states": [], "clicked_states": [], "num_clicks_accrued": [0, 0, 0, 0, 0, 0, 0, 0, 0, 0, 0, 0, 0], "stateRewards": ["", -1, 3, -4, -14, 78, 67, 2, 13, -32, 28, 39, -2, 1, -4, -4, -4, -42, -86, 11, 64, -29, -32, -1, -4, 2, -7, 5, 68, -61, 2, -21, 85, 50], "withholdReward": false, "trial_id": "mdp_trial_17", "block": "test", "trialIndex": 20, "score": -26, "costs": 0, "simulationMode": [null, null, null, null, null], "rewards": [-2, 1, -4, 11, -32], "path": ["0", "0", "12", "13", "14", "19", "22"], "rt": [1227, 351, 735, 229, 167], "actions": ["right", "right", "right", "down", "left"], "actionTimes": [3071, 3949, 5208, 5983, 6686], "queries": {"click": {"state": {"target": [], "time": []}, "edge": {"target": [], "time": []}}, "mouseover": {"state": {"target": [], "time": []}, "edge": {"target": [], "time": []}}, "mouseout": {"state": {"target": [], "time": []}, "edge": {"target": [], "time": []}}}, "displayed_time": "15.85", "trialTime": 19365, "trial_type": "mouselab-mdp", "trial_index": 31, "time_elapsed": 1236453, "internal_node_id": "0.0-4.0-1.0-16.0"}}, {"uniqueid": "w89440040:a66777654", "current_trial": 32, "dateTime": 1691161469842, "trialdata": {"revealed_states": [], "clicked_states": [], "num_clicks_accrued": [0, 0, 0, 0, 0, 0, 0, 0, 0, 0, 0, 0, 0], "stateRewards": ["", -1, -1, 4, -16, -75, 81, -51, -7, -84, 73, -30, -2, 1, -3, -16, -77, 33, 14, 1, 45, 87, -66, 2, 2, -5, -7, -19, -17, 79, -3, 8, 49, 47], "withholdReward": false, "trial_id": "mdp_trial_18", "block": "test", "trialIndex": 21, "score": -69, "costs": 0, "simulationMode": [null, null, null, null, null], "rewards": [-2, 1, -3, 1, -66], "path": ["0", "0", "12", "13", "14", "19", "22"], "rt": [1053, 534, 243, 184, 219], "actions": ["right", "right", "right", "down", "left"], "actionTimes": [1655, 2718, 3493, 4201, 4955], "queries": {"click": {"state": {"target": [], "time": []}, "edge": {"target": [], "time": []}}, "mouseover": {"state": {"target": [], "time": []}, "edge": {"target": [], "time": []}}, "mouseout": {"state": {"target": [], "time": []}, "edge": {"target": [], "time": []}}}, "displayed_time": "14.60", "trialTime": 17161, "trial_type": "mouselab-mdp", "trial_index": 32, "time_elapsed": 1254256, "internal_node_id": "0.0-4.0-1.0-17.0"}}, {"uniqueid": "w89440040:a66777654", "current_trial": 33, "dateTime": 1691161490795, "trialdata": {"revealed_states": [], "clicked_states": [], "num_clicks_accrued": [0, 0, 0, 0, 0, 0, 0, 0, 0, 0, 0, 0, 0], "stateRewards": ["", -1, -3, -3, 1, -38, 2, -53, -2, -1, -81, 70, -1, 1, -5, -9, 46, 15, 35, -1, -22, 38, 59, -2, 4, -8, 13, 1, -83, -43, 4, 76, 13, 48], "withholdReward": false, "trial_id": "mdp_trial_19", "block": "test", "trialIndex": 22, "score": 53, "costs": 0, "simulationMode": [null, null, null, null, null], "rewards": [-1, 1, -5, -1, 59], "path": ["0", "0", "12", "13", "14", "19", "22"], "rt": [1568, 2254, 26, 191, 245], "actions": ["right", "right", "right", "down", "left"], "actionTimes": [4657, 7433, 7982, 8700, 9467], "queries": {"click": {"state": {"target": [], "time": []}, "edge": {"target": [], "time": []}}, "mouseover": {"state": {"target": ["18", "18"], "time": [3905, 4071]}, "edge": {"target": [], "time": []}}, "mouseout": {"state": {"target": ["0", "0", "18"], "time": [472, 3103, 3954]}, "edge": {"target": [], "time": []}}}, "displayed_time": "17.09", "trialTime": 20294, "trial_type": "mouselab-mdp", "trial_index": 33, "time_elapsed": 1275209, "internal_node_id": "0.0-4.0-1.0-18.0"}}, {"uniqueid": "w89440040:a66777654", "current_trial": 34, "dateTime": 1691161512219, "trialdata": {"revealed_states": [], "clicked_states": [], "num_clicks_accrued": [0, 0, 0, 0, 0, 0, 0, 0, 0, 0, 0, 0, 0], "stateRewards": ["", 2, -4, 4, 9, 69, 9, -75, 12, -86, 66, 25, -1, 3, 2, -13, -88, -3, 1, 4, -69, 49, -84, 2, -1, 4, 2, -18, -81, -52, -15, -69, -54, 25], "withholdReward": false, "trial_id": "mdp_trial_20", "block": "test", "trialIndex": 23, "score": -76, "costs": 0, "simulationMode": [null, null, null, null, null], "rewards": [-1, 3, 2, 4, -84], "path": ["0", "0", "12", "13", "14", "19", "22"], "rt": [748, 178, 74, 179, 359], "actions": ["right", "right", "right", "down", "left"], "actionTimes": [4533, 5234, 5851, 6549, 7433], "queries": {"click": {"state": {"target": [], "time": []}, "edge": {"target": [], "time": []}}, "mouseover": {"state": {"target": [], "time": []}, "edge": {"target": [], "time": []}}, "mouseout": {"state": {"target": ["18", "12"], "time": [2086, 2136]}, "edge": {"target": [], "time": []}}}, "displayed_time": "17.79", "trialTime": 20784, "trial_type": "mouselab-mdp", "trial_index": 34, "time_elapsed": 1296632, "internal_node_id": "0.0-4.0-1.0-19.0"}}, {"uniqueid": "w89440040:a66777654", "current_trial": 35, "dateTime": 1691161533129, "trialdata": {"revealed_states": [], "clicked_states": [], "num_clicks_accrued": [0, 0, 0, 0, 0, 0, 0, 0, 0, 0, 0, 0, 0], "stateRewards": ["", -2, 2, -5, -6, 10, -66, -58, -10, -11, -63, -70, -1, -4, -5, 7, 66, -64, -43, -3, 45, -37, 4, -2, -2, -6, -4, -30, 33, 43, 15, -32, -65, -59], "withholdReward": false, "trial_id": "mdp_trial_21", "block": "test", "trialIndex": 24, "score": 63, "costs": 0, "simulationMode": [null, null, null, null, null], "rewards": [-1, -4, -5, 7, 66], "path": ["0", "0", "12", "13", "14", "15", "16"], "rt": [1762, 50, 269, 1167, 924], "actions": ["right", "right", "right", "up", "up"], "actionTimes": [5142, 5714, 6526, 8208, 9666], "queries": {"click": {"state": {"target": [], "time": []}, "edge": {"target": [], "time": []}}, "mouseover": {"state": {"target": [], "time": []}, "edge": {"target": [], "time": []}}, "mouseout": {"state": {"target": ["0"], "time": [14370]}, "edge": {"target": [], "time": []}}}, "displayed_time": "17.38", "trialTime": 20236, "trial_type": "mouselab-mdp", "trial_index": 35, "time_elapsed": 1317542, "internal_node_id": "0.0-4.0-1.0-20.0"}}, {"uniqueid": "w89440040:a66777654", "current_trial": 36, "dateTime": 1691161555344, "trialdata": {"revealed_states": [], "clicked_states": ["5"], "num_clicks_accrued": [0, 0, 0, 0, 0, 0, 0, 0, 0, 0, 0, 0, 0], "stateRewards": ["", 1, 4, 5, -5, 58, -80, 75, 6, 25, -39, 46, 2, -2, 4, 2, 59, 31, -22, -12, -61, 15, 72, 1, -2, -7, 8, 77, 76, -23, -7, 71, -15, -3], "withholdReward": false, "trial_id": "mdp_trial_22", "block": "test", "trialIndex": 25, "score": 60.85, "costs": -2.15, "simulationMode": [null, null, null, null, null], "rewards": [1, 4, 5, -5, 58], "path": ["0", "0", "1", "2", "3", "4", "5"], "rt": [9631, 353, 36, 224, 1917], "actions": ["up", "up", "up", "right", "up"], "actionTimes": [12855, 13729, 14296, 15070, 17508], "queries": {"click": {"state": {"target": ["5"], "time": [5392]}, "edge": {"target": [], "time": []}}, "mouseover": {"state": {"target": ["7", "4", "5", "5", "1", "0", "0"], "time": [3918, 3943, 4483, 4733, 11072, 11175, 11638]}, "edge": {"target": [], "time": []}}, "mouseout": {"state": {"target": ["0", "7", "4", "5", "5", "1", "0", "0"], "time": [3866, 3938, 3970, 4551, 8660, 11123, 11210, 11659]}, "edge": {"target": [], "time": []}}}, "displayed_time": "18.04", "trialTime": 21452, "trial_type": "mouselab-mdp", "trial_index": 36, "time_elapsed": 1339757, "internal_node_id": "0.0-4.0-1.0-21.0"}}, {"uniqueid": "w89440040:a66777654", "current_trial": 37, "dateTime": 1691161575336, "trialdata": {"revealed_states": [], "clicked_states": ["9"], "num_clicks_accrued": [0, 0, 0, 0, 0, 0, 0, 0, 0, 0, 0, 0, 0], "stateRewards": ["", -1, 1, -1, 2, 19, 85, -18, 2, -3, -26, 36, 2, 4, 7, -9, -18, 70, 72, -5, 35, -20, -28, 1, -2, -4, -3, -59, -11, -63, -2, -72, 59, -69], "withholdReward": false, "trial_id": "mdp_trial_23", "block": "test", "trialIndex": 26, "score": 17.85, "costs": -2.15, "simulationMode": [null, null, null, null, null], "rewards": [-1, 1, -1, 2, 19], "path": ["0", "0", "1", "2", "3", "4", "5"], "rt": [10684, 98, 70, 23, 662], "actions": ["up", "up", "up", "right", "up"], "actionTimes": [12560, 13200, 13788, 14346, 15528], "queries": {"click": {"state": {"target": ["9"], "time": [4136]}, "edge": {"target": [], "time": []}}, "mouseover": {"state": {"target": ["1", "2", "9", "5"], "time": [2634, 2732, 3467, 8104]}, "edge": {"target": [], "time": []}}, "mouseout": {"state": {"target": ["0", "0", "1", "2", "9", "5", "4", "2", "1"], "time": [853, 2563, 2683, 2781, 7888, 18351, 18418, 18569, 18650]}, "edge": {"target": [], "time": []}}}, "displayed_time": "16.05", "trialTime": 19309, "trial_type": "mouselab-mdp", "trial_index": 37, "time_elapsed": 1359749, "internal_node_id": "0.0-4.0-1.0-22.0"}}, {"uniqueid": "w89440040:a66777654", "current_trial": 38, "dateTime": 1691161594338, "trialdata": {"revealed_states": [], "clicked_states": ["27"], "num_clicks_accrued": [0, 0, 0, 0, 0, 0, 0, 0, 0, 0, 0, 0, 0], "stateRewards": ["", -1, -3, -7, -4, -85, -70, 79, 8, 84, -66, 42, 2, -2, -3, -16, -54, -66, 68, -3, 21, -14, 7, -2, -1, -3, -8, 75, 80, 86, -7, -84, 73, -16], "withholdReward": false, "trial_id": "mdp_trial_24", "block": "test", "trialIndex": 27, "score": 58.85, "costs": -2.15, "simulationMode": [null, null, null, null, null], "rewards": [-2, -1, -3, -8, 75], "path": ["0", "0", "23", "24", "25", "26", "27"], "rt": [6976, 27, 107, 118, 90], "actions": ["left", "left", "left", "up", "up"], "actionTimes": [9125, 9700, 10351, 10985, 11589], "queries": {"click": {"state": {"target": ["27"], "time": [3819]}, "edge": {"target": [], "time": []}}, "mouseover": {"state": {"target": ["23", "28", "27", "29", "29", "29"], "time": [2675, 2757, 3306, 6035, 6335, 6716]}, "edge": {"target": [], "time": []}}, "mouseout": {"state": {"target": ["0", "0", "23", "28", "27", "29", "29"], "time": [692, 2658, 2692, 2823, 5745, 6131, 6361]}, "edge": {"target": [], "time": []}}}, "displayed_time": "16.15", "trialTime": 18406, "trial_type": "mouselab-mdp", "trial_index": 38, "time_elapsed": 1378751, "internal_node_id": "0.0-4.0-1.0-23.0"}}, {"uniqueid": "w89440040:a66777654", "current_trial": 39, "dateTime": 1691161616358, "trialdata": {"revealed_states": [], "clicked_states": ["16"], "num_clicks_accrued": [0, 0, 0, 0, 0, 0, 0, 0, 0, 0, 0, 0, 0], "stateRewards": ["", 1, 1, 1, 15, -76, 52, -32, 14, -57, 37, 49, 1, -4, -3, 6, 83, -76, 25, 9, 36, -1, -17, -1, 4, 4, -2, -22, -21, 58, -15, -57, 49, -24], "withholdReward": false, "trial_id": "mdp_trial_25", "block": "test", "trialIndex": 28, "score": 80.85, "costs": -2.15, "simulationMode": [null, null, null, null, null], "rewards": [1, -4, -3, 6, 83], "path": ["0", "0", "12", "13", "14", "15", "16"], "rt": [6146, 567, 516, 1244, 44], "actions": ["right", "right", "right", "up", "up"], "actionTimes": [10473, 11563, 12609, 14381, 14963], "queries": {"click": {"state": {"target": ["16"], "time": [6372]}, "edge": {"target": [], "time": []}}, "mouseover": {"state": {"target": ["18", "16"], "time": [5142, 5890]}, "edge": {"target": [], "time": []}}, "mouseout": {"state": {"target": ["29", "24", "23", "0", "18"], "time": [1580, 2595, 2844, 5011, 5176]}, "edge": {"target": [], "time": []}}}, "displayed_time": "18.33", "trialTime": 21350, "trial_type": "mouselab-mdp", "trial_index": 39, "time_elapsed": 1400771, "internal_node_id": "0.0-4.0-1.0-24.0"}}, {"uniqueid": "w89440040:a66777654", "current_trial": 40, "dateTime": 1691161636261, "trialdata": {"revealed_states": [], "clicked_states": ["16"], "num_clicks_accrued": [0, 0, 0, 0, 0, 0, 0, 0, 0, 0, 0, 0, 0], "stateRewards": ["", -2, -3, -6, -7, 9, 16, 65, 5, -41, 20, -25, -1, -4, 1, -11, -49, -4, 71, 1, 39, -62, 52, -2, -3, 7, -9, -28, -70, 84, 8, 24, -58, 82], "withholdReward": false, "trial_id": "mdp_trial_26", "block": "test", "trialIndex": 29, "score": -37.15, "costs": -2.15, "simulationMode": [null, null, null, null, null], "rewards": [-2, -3, 7, -9, -28], "path": ["0", "0", "23", "24", "25", "26", "27"], "rt": [9294, 354, 52, 235, 33], "actions": ["left", "left", "left", "up", "up"], "actionTimes": [11812, 12693, 13267, 14047, 14596], "queries": {"click": {"state": {"target": ["16"], "time": [4110]}, "edge": {"target": [], "time": []}}, "mouseover": {"state": {"target": ["18", "16", "1", "27"], "time": [3340, 3473, 7981, 8830]}, "edge": {"target": [], "time": []}}, "mouseout": {"state": {"target": ["16", "15", "13", "12", "23", "0", "18", "16", "1", "27", "27", "26", "24"], "time": [792, 859, 991, 1025, 1324, 3207, 3390, 7848, 8015, 17838, 17931, 18528, 18611]}, "edge": {"target": [], "time": []}}}, "displayed_time": "16.52", "trialTime": 19235, "trial_type": "mouselab-mdp", "trial_index": 40, "time_elapsed": 1420674, "internal_node_id": "0.0-4.0-1.0-25.0"}}, {"uniqueid": "w89440040:a66777654", "current_trial": 41, "dateTime": 1691161660537, "trialdata": {"revealed_states": [], "clicked_states": ["27", "16", "5"], "num_clicks_accrued": [0, 0, 0, 0, 0, 0, 0, 0, 0, 0, 0, 0, 0], "stateRewards": ["", -2, -3, -3, 9, 79, 67, 22, -15, -56, 27, -85, -2, 4, -4, -15, -20, -32, 60, 15, 71, 57, 17, 1, 2, -8, 15, -37, -81, 82, 15, 21, -3, 2], "withholdReward": false, "trial_id": "mdp_trial_27", "block": "test", "trialIndex": 30, "score": 73.55, "costs": -6.449999999999999, "simulationMode": [null, null, null, null, null], "rewards": [-2, -3, -3, 9, 79], "path": ["0", "0", "1", "2", "3", "4", "5"], "rt": [13161, 8, 280, 1030, 12], "actions": ["up", "up", "up", "right", "up"], "actionTimes": [16077, 16620, 17435, 18994, 19539], "queries": {"click": {"state": {"target": ["27", "16", "5"], "time": [4489, 9245, 12763]}, "edge": {"target": [], "time": []}}, "mouseover": {"state": {"target": ["27", "1", "18", "16", "16", "6", "5"], "time": [3803, 8029, 8095, 8461, 8759, 11571, 12044]}, "edge": {"target": [], "time": []}}, "mouseout": {"state": {"target": ["12", "1", "1", "27", "1", "18", "16", "16", "6", "5", "4", "7"], "time": [1307, 1372, 1721, 7945, 8049, 8128, 8627, 11485, 11630, 23069, 23102, 23136]}, "edge": {"target": [], "time": []}}}, "displayed_time": "20.07", "trialTime": 23644, "trial_type": "mouselab-mdp", "trial_index": 41, "time_elapsed": 1444951, "internal_node_id": "0.0-4.0-1.0-26.0"}}, {"uniqueid": "w89440040:a66777654", "current_trial": 42, "dateTime": 1691161685553, "trialdata": {"revealed_states": [], "clicked_states": ["9", "5", "6"], "num_clicks_accrued": [0, 0, 0, 0, 0, 0, 0, 0, 0, 0, 0, 0, 0], "stateRewards": ["", -1, -3, -5, -14, -13, -47, 79, 8, -60, -64, 41, -1, 2, 3, 13, -46, 61, -79, -11, -64, -65, 23, 1, -2, 6, -14, 46, 32, 21, 7, 75, -66, 15], "withholdReward": false, "trial_id": "mdp_trial_28", "block": "test", "trialIndex": 31, "score": 33.55, "costs": -6.449999999999999, "simulationMode": [null, null, null, null, null], "rewards": [-1, -3, -5, 8, 41], "path": ["0", "0", "1", "2", "3", "8", "11"], "rt": [14246, 366, 676, 63, 117], "actions": ["up", "up", "up", "left", "left"], "actionTimes": [16492, 17398, 18607, 19187, 19846], "queries": {"click": {"state": {"target": ["9", "5", "6"], "time": [3881, 8030, 12297]}, "edge": {"target": [], "time": []}}, "mouseover": {"state": {"target": ["10", "8", "9", "5", "6"], "time": [2877, 2931, 3343, 7452, 11812]}, "edge": {"target": [], "time": []}}, "mouseout": {"state": {"target": ["12", "0", "0", "10", "8", "9", "5"], "time": [713, 830, 2779, 2911, 2963, 7353, 11363]}, "edge": {"target": [], "time": []}}}, "displayed_time": "20.39", "trialTime": 24394, "trial_type": "mouselab-mdp", "trial_index": 42, "time_elapsed": 1469967, "internal_node_id": "0.0-4.0-1.0-27.0"}}, {"uniqueid": "w89440040:a66777654", "current_trial": 43, "dateTime": 1691161706821, "trialdata": {"revealed_states": [], "clicked_states": ["27", "29"], "num_clicks_accrued": [0, 0, 0, 0, 0, 0, 0, 0, 0, 0, 0, 0, 0], "stateRewards": ["", -1, -3, -6, 14, 41, 18, 63, -14, 80, 21, 17, -2, -4, -2, -5, 13, 70, 8, -4, -64, -10, -20, 2, -1, 4, -1, -17, -55, 42, -7, 47, 54, 15], "withholdReward": false, "trial_id": "mdp_trial_29", "block": "test", "trialIndex": 32, "score": 41.7, "costs": -4.3, "simulationMode": [null, null, null, null, null], "rewards": [2, -1, 4, -1, 42], "path": ["0", "0", "23", "24", "25", "26", "29"], "rt": [11022, 363, 351, 128, 703], "actions": ["left", "left", "left", "up", "left"], "actionTimes": [14024, 14915, 15803, 16451, 17682], "queries": {"click": {"state": {"target": ["27", "29"], "time": [5268, 9635]}, "edge": {"target": [], "time": []}}, "mouseover": {"state": {"target": ["27", "27", "29", "29", "26", "28"], "time": [4397, 4780, 8806, 9189, 10746, 11090]}, "edge": {"target": [], "time": []}}, "mouseout": {"state": {"target": ["6", "12", "27", "27", "27", "29", "29", "26"], "time": [1369, 1784, 4448, 5486, 8740, 8873, 10723, 10791]}, "edge": {"target": [], "time": []}}}, "displayed_time": "18.20", "trialTime": 20645, "trial_type": "mouselab-mdp", "trial_index": 43, "time_elapsed": 1491235, "internal_node_id": "0.0-4.0-1.0-28.0"}}, {"uniqueid": "w89440040:a66777654", "current_trial": 44, "dateTime": 1691161730077, "trialdata": {"revealed_states": [], "clicked_states": ["9", "5", "16"], "num_clicks_accrued": [0, 0, 0, 0, 0, 0, 0, 0, 0, 0, 0, 0, 0], "stateRewards": ["", -2, 1, -8, 12, -65, -79, 16, 7, -80, -17, -45, -2, 2, -5, -2, -85, 23, -4, -7, 48, 27, -76, 2, 3, 5, 2, 43, 71, -13, 7, -49, 59, -31], "withholdReward": false, "trial_id": "mdp_trial_30", "block": "test", "trialIndex": 33, "score": -7.449999999999999, "costs": -6.449999999999999, "simulationMode": [null, null, null, null, null], "rewards": [2, 3, 5, 2, -13], "path": ["0", "0", "23", "24", "25", "26", "29"], "rt": [12415, 266, 326, 41, 30], "actions": ["left", "left", "left", "up", "left"], "actionTimes": [15318, 16128, 16977, 17541, 18114], "queries": {"click": {"state": {"target": ["9", "5", "16"], "time": [4542, 7889, 11386]}, "edge": {"target": [], "time": []}}, "mouseover": {"state": {"target": ["2", "3", "9", "5", "6", "16"], "time": [3616, 3641, 3999, 5566, 9413, 10045]}, "edge": {"target": [], "time": []}}, "mouseout": {"state": {"target": ["28", "23", "0", "2", "3", "9", "5", "6", "16"], "time": [1086, 1186, 3549, 3636, 3656, 5278, 9254, 9612, 11602]}, "edge": {"target": [], "time": []}}}, "displayed_time": "18.64", "trialTime": 22539, "trial_type": "mouselab-mdp", "trial_index": 44, "time_elapsed": 1514490, "internal_node_id": "0.0-4.0-1.0-29.0"}}, {"uniqueid": "w89440040:a66777654", "current_trial": 45, "dateTime": 1691161753850, "trialdata": {"revealed_states": [], "clicked_states": ["9", "5", "20"], "num_clicks_accrued": [0, 0, 0, 0, 0, 0, 0, 0, 0, 0, 0, 0, 0], "stateRewards": ["", 2, -4, 1, -12, -59, -53, -74, 16, -88, -66, 66, 1, -2, 8, -9, -14, 22, 25, -1, -39, 47, -14, -1, -1, -2, 1, -4, 52, -26, 15, -7, 46, 43], "withholdReward": false, "trial_id": "mdp_trial_31", "block": "test", "trialIndex": 34, "score": -22.45, "costs": -6.449999999999999, "simulationMode": [null, null, null, null, null], "rewards": [1, -2, 8, -9, -14], "path": ["0", "0", "12", "13", "14", "15", "16"], "rt": [12360, 387, 605, 29, 507], "actions": ["right", "right", "right", "up", "up"], "actionTimes": [15285, 16212, 17344, 17900, 18947], "queries": {"click": {"state": {"target": ["9", "5", "20"], "time": [4686, 8036, 11577]}, "edge": {"target": [], "time": []}}, "mouseover": {"state": {"target": ["1", "9", "9", "5", "6", "15", "20"], "time": [3647, 3710, 4091, 5695, 9118, 9244, 10388]}, "edge": {"target": [], "time": []}}, "mouseout": {"state": {"target": ["16", "0", "0", "1", "9", "9", "5", "6", "15", "20", "21"], "time": [961, 1294, 3623, 3662, 3759, 5590, 9075, 9139, 9268, 11795, 22509]}, "edge": {"target": [], "time": []}}}, "displayed_time": "19.50", "trialTime": 23129, "trial_type": "mouselab-mdp", "trial_index": 45, "time_elapsed": 1538264, "internal_node_id": "0.0-4.0-1.0-30.0"}}, {"uniqueid": "w89440040:a66777654", "current_trial": 46, "dateTime": 1691161773227, "trialdata": {"revealed_states": [], "clicked_states": [], "num_clicks_accrued": [0, 0, 0, 0, 0, 0, 0, 0, 0, 0, 0, 0, 0], "stateRewards": ["", -2, 1, -3, -16, -39, -52, 30, -7, -41, -59, 11, 2, 1, 8, 2, -11, -26, -42, -13, 87, -59, -48, -1, -1, -1, 16, -79, 31, 50, -1, -84, 34, -82], "withholdReward": false, "trial_id": "mdp_trial_32", "block": "test", "trialIndex": 35, "score": -86, "costs": 0, "simulationMode": [null, null, null, null, null], "rewards": [-1, -1, -1, -1, -82], "path": ["0", "0", "23", "24", "25", "30", "33"], "rt": [5286, 178, 5, 584, 428], "actions": ["left", "left", "left", "down", "left"], "actionTimes": [7874, 8584, 9161, 10284, 11268], "queries": {"click": {"state": {"target": [], "time": []}, "edge": {"target": [], "time": []}}, "mouseover": {"state": {"target": ["23", "24", "25", "29"], "time": [3379, 3495, 4010, 5490]}, "edge": {"target": [], "time": []}}, "mouseout": {"state": {"target": ["0", "23", "24", "25", "29", "26", "28", "23"], "time": [3345, 3428, 3561, 4692, 17602, 17702, 17736, 18218]}, "edge": {"target": [], "time": []}}}, "displayed_time": "16.59", "trialTime": 18683, "trial_type": "mouselab-mdp", "trial_index": 46, "time_elapsed": 1557641, "internal_node_id": "0.0-4.0-1.0-31.0"}}, {"uniqueid": "w89440040:a66777654", "current_trial": 47, "dateTime": 1691161792212, "trialdata": {"revealed_states": [], "clicked_states": ["29", "27"], "num_clicks_accrued": [0, 0, 0, 0, 0, 0, 0, 0, 0, 0, 0, 0, 0], "stateRewards": ["", 1, 1, -3, 2, 22, -25, -11, -5, 50, 49, 3, 1, -1, 8, 14, -85, -30, 57, -6, -39, -16, 59, -2, -1, 5, 5, 59, -16, 8, 4, 67, 56, -9], "withholdReward": false, "trial_id": "mdp_trial_33", "block": "test", "trialIndex": 36, "score": 61.7, "costs": -4.3, "simulationMode": [null, null, null, null, null], "rewards": [-2, -1, 5, 5, 59], "path": ["0", "0", "23", "24", "25", "26", "27"], "rt": [9055, 153, 139, 535, 296], "actions": ["left", "left", "left", "up", "up"], "actionTimes": [11024, 11712, 12375, 13436, 14256], "queries": {"click": {"state": {"target": ["29", "27"], "time": [3512, 7567]}, "edge": {"target": [], "time": []}}, "mouseover": {"state": {"target": ["23", "25", "29", "27"], "time": [2457, 2554, 2954, 4907]}, "edge": {"target": [], "time": []}}, "mouseout": {"state": {"target": ["0", "23", "25", "29", "27"], "time": [2439, 2489, 2638, 4370, 17262]}, "edge": {"target": [], "time": []}}}, "displayed_time": "15.97", "trialTime": 18344, "trial_type": "mouselab-mdp", "trial_index": 47, "time_elapsed": 1576625, "internal_node_id": "0.0-4.0-1.0-32.0"}}, {"uniqueid": "w89440040:a66777654", "current_trial": 48, "dateTime": 1691161812439, "trialdata": {"revealed_states": [], "clicked_states": ["16"], "num_clicks_accrued": [0, 0, 0, 0, 0, 0, 0, 0, 0, 0, 0, 0, 0], "stateRewards": ["", -1, -3, 3, 5, 56, 39, 50, -1, -80, 33, -46, 1, -2, -6, -8, 87, 48, 54, -11, -20, -64, -54, -2, 3, -7, -3, 12, 88, 35, -16, -46, -70, -3], "withholdReward": false, "trial_id": "mdp_trial_34", "block": "test", "trialIndex": 37, "score": 69.85, "costs": -2.15, "simulationMode": [null, null, null, null, null], "rewards": [1, -2, -6, -8, 87], "path": ["0", "0", "12", "13", "14", "15", "16"], "rt": [6170, 76, 165, 9, 126], "actions": ["right", "right", "right", "up", "up"], "actionTimes": [9270, 9868, 10557, 11110, 11781], "queries": {"click": {"state": {"target": ["16"], "time": [5196]}, "edge": {"target": [], "time": []}}, "mouseover": {"state": {"target": ["18", "15", "16", "17"], "time": [4086, 4472, 4669, 6223]}, "edge": {"target": [], "time": []}}, "mouseout": {"state": {"target": ["0", "0", "18", "15", "16"], "time": [1440, 3970, 4452, 4487, 6019]}, "edge": {"target": [], "time": []}}}, "displayed_time": "17.10", "trialTime": 19556, "trial_type": "mouselab-mdp", "trial_index": 48, "time_elapsed": 1596853, "internal_node_id": "0.0-4.0-1.0-33.0"}}, {"uniqueid": "w89440040:a66777654", "current_trial": 49, "dateTime": 1691161840331, "trialdata": {"revealed_states": [], "clicked_states": ["16", "17", "29", "9"], "num_clicks_accrued": [0, 0, 0, 0, 0, 0, 0, 0, 0, 0, 0, 0, 0], "stateRewards": ["", -2, -2, -3, -6, -15, -11, 41, -12, -63, -76, 2, -2, -3, 8, 9, -36, -2, -18, -16, -32, -85, -17, -2, 1, 5, -16, 82, 35, -88, -1, 80, -82, -20], "withholdReward": false, "trial_id": "mdp_trial_35", "block": "test", "trialIndex": 38, "score": -36.6, "costs": -8.6, "simulationMode": [null, null, null, null, null], "rewards": [-2, -2, -3, -6, -15], "path": ["0", "0", "1", "2", "3", "4", "5"], "rt": [15755, 102, 134, 93, 1387], "actions": ["up", "up", "up", "right", "up"], "actionTimes": [18255, 18887, 19553, 20177, 22097], "queries": {"click": {"state": {"target": ["16", "17", "29", "9"], "time": [4141, 7576, 11303, 14937]}, "edge": {"target": [], "time": []}}, "mouseover": {"state": {"target": ["16", "17", "17", "7", "2", "10", "26", "29", "9"], "time": [3544, 5134, 5524, 8362, 8408, 8460, 8963, 9463, 14148]}, "edge": {"target": [], "time": []}}, "mouseout": {"state": {"target": ["17", "15", "18", "0", "16", "17", "17", "7", "2", "10", "26", "29"], "time": [583, 748, 797, 3112, 5051, 5246, 8297, 8386, 8432, 8484, 9300, 11528]}, "edge": {"target": [], "time": []}}}, "displayed_time": "22.62", "trialTime": 27209, "trial_type": "mouselab-mdp", "trial_index": 49, "time_elapsed": 1624745, "internal_node_id": "0.0-4.0-1.0-34.0"}}, {"uniqueid": "w89440040:a66777654", "current_trial": 50, "dateTime": 1691161868382, "trialdata": {"revealed_states": [], "clicked_states": ["16", "27", "9", "5"], "num_clicks_accrued": [0, 0, 0, 0, 0, 0, 0, 0, 0, 0, 0, 0, 0], "stateRewards": ["", -1, 3, -5, -2, -13, -9, -34, -7, -81, 32, 35, -2, -2, 1, -14, -32, 81, 7, 4, 82, 56, -8, -1, 3, -8, 6, -24, -24, -53, 2, 38, 61, 54], "withholdReward": false, "trial_id": "mdp_trial_36", "block": "test", "trialIndex": 39, "score": -22.6, "costs": -8.6, "simulationMode": [null, null, null, null, null], "rewards": [-1, 3, -5, -2, -9], "path": ["0", "0", "1", "2", "3", "4", "6"], "rt": [17846, 205, 352, 452, 332], "actions": ["up", "up", "up", "right", "right"], "actionTimes": [20466, 21212, 22092, 23073, 23931], "queries": {"click": {"state": {"target": ["16", "27", "9", "5"], "time": [4037, 8912, 12341, 15944]}, "edge": {"target": [], "time": []}}, "mouseover": {"state": {"target": ["18", "16", "15", "27", "11", "9", "5"], "time": [3220, 3318, 4465, 8343, 10019, 10225, 14069]}, "edge": {"target": [], "time": []}}, "mouseout": {"state": {"target": ["9", "8", "1", "0", "18", "16", "15", "27", "11", "9"], "time": [689, 722, 839, 1120, 3252, 4403, 7428, 9969, 10044, 13661]}, "edge": {"target": [], "time": []}}}, "displayed_time": "24.46", "trialTime": 27365, "trial_type": "mouselab-mdp", "trial_index": 50, "time_elapsed": 1652795, "internal_node_id": "0.0-4.0-1.0-35.0"}}, {"uniqueid": "w89440040:a66777654", "current_trial": 51, "dateTime": 1691161888087, "trialdata": {"revealed_states": [], "clicked_states": [], "num_clicks_accrued": [0, 0, 0, 0, 0, 0, 0, 0, 0, 0, 0, 0, 0], "stateRewards": ["", 2, -1, -4, -13, 74, 77, 3, 2, -43, -2, -11, 2, 3, 7, 11, -26, -29, -33, -3, -3, -13, -3, 1, 3, -7, 14, -59, 33, 9, -5, 34, 79, 68], "withholdReward": false, "trial_id": "mdp_trial_37", "block": "test", "trialIndex": 40, "score": 6, "costs": 0, "simulationMode": [null, null, null, null, null], "rewards": [2, 3, 7, -3, -3], "path": ["0", "0", "12", "13", "14", "19", "22"], "rt": [809, 175, 171, 169, 678], "actions": ["right", "right", "right", "down", "left"], "actionTimes": [3734, 4443, 5142, 5842, 7052], "queries": {"click": {"state": {"target": [], "time": []}, "edge": {"target": [], "time": []}}, "mouseover": {"state": {"target": [], "time": []}, "edge": {"target": [], "time": []}}, "mouseout": {"state": {"target": ["5", "4", "7", "12"], "time": [1324, 1390, 1441, 1740]}, "edge": {"target": [], "time": []}}}, "displayed_time": "16.93", "trialTime": 19072, "trial_type": "mouselab-mdp", "trial_index": 51, "time_elapsed": 1672500, "internal_node_id": "0.0-4.0-1.0-36.0"}}, {"uniqueid": "w89440040:a66777654", "current_trial": 52, "dateTime": 1691161907819, "trialdata": {"revealed_states": [], "clicked_states": ["32"], "num_clicks_accrued": [0, 0, 0, 0, 0, 0, 0, 0, 0, 0, 0, 0, 0], "stateRewards": ["", 1, 1, -6, -2, 7, 77, 3, 16, -16, 66, 31, -1, 3, -8, -6, 33, -50, -48, 7, -60, -66, 36, 2, -3, 3, -7, -12, -61, -79, -4, 8, 74, -70], "withholdReward": false, "trial_id": "mdp_trial_38", "block": "test", "trialIndex": 41, "score": 69.85, "costs": -2.15, "simulationMode": [null, null, null, null, null], "rewards": [2, -3, 3, -4, 74], "path": ["0", "0", "23", "24", "25", "30", "32"], "rt": [6259, 201, 9, 329, 338], "actions": ["left", "left", "left", "down", "down"], "actionTimes": [9629, 10358, 10890, 11769, 12637], "queries": {"click": {"state": {"target": ["32"], "time": [5047]}, "edge": {"target": [], "time": []}}, "mouseover": {"state": {"target": ["0", "32"], "time": [3859, 4408]}, "edge": {"target": [], "time": []}}, "mouseout": {"state": {"target": ["0", "0", "32"], "time": [1578, 3892, 8402]}, "edge": {"target": [], "time": []}}}, "displayed_time": "17.37", "trialTime": 18994, "trial_type": "mouselab-mdp", "trial_index": 52, "time_elapsed": 1692232, "internal_node_id": "0.0-4.0-1.0-37.0"}}, {"uniqueid": "w89440040:a66777654", "current_trial": 53, "dateTime": 1691161928742, "trialdata": {"revealed_states": [], "clicked_states": ["20"], "num_clicks_accrued": [0, 0, 0, 0, 0, 0, 0, 0, 0, 0, 0, 0, 0], "stateRewards": ["", 2, -3, 5, 11, -79, 54, 11, -9, -78, 33, 22, -2, -1, 2, 14, 43, 34, 1, 10, 49, -65, 39, -1, 1, -1, 3, -16, -2, 11, 2, 12, 48, -65], "withholdReward": false, "trial_id": "mdp_trial_39", "block": "test", "trialIndex": 42, "score": 55.85, "costs": -2.15, "simulationMode": [null, null, null, null, null], "rewards": [-2, -1, 2, 10, 49], "path": ["0", "0", "12", "13", "14", "19", "20"], "rt": [6357, 178, 303, 275, 195], "actions": ["right", "right", "right", "down", "right"], "actionTimes": [9972, 10705, 11544, 12350, 13077], "queries": {"click": {"state": {"target": ["20"], "time": [5616]}, "edge": {"target": [], "time": []}}, "mouseover": {"state": {"target": ["12", "20", "20", "21"], "time": [4317, 4732, 5081, 6524]}, "edge": {"target": [], "time": []}}, "mouseout": {"state": {"target": ["12", "0", "12", "20", "20"], "time": [2451, 4299, 4334, 4752, 6463]}, "edge": {"target": [], "time": []}}}, "displayed_time": "17.62", "trialTime": 20043, "trial_type": "mouselab-mdp", "trial_index": 53, "time_elapsed": 1713156, "internal_node_id": "0.0-4.0-1.0-38.0"}}, {"uniqueid": "w89440040:a66777654", "current_trial": 54, "dateTime": 1691161951606, "trialdata": {"revealed_states": [], "clicked_states": ["33", "32", "21"], "num_clicks_accrued": [0, 0, 0, 0, 0, 0, 0, 0, 0, 0, 0, 0, 0], "stateRewards": ["", -1, 3, 2, 9, 41, 4, -46, -12, -54, -87, -25, 2, 3, -1, 11, -77, 12, -33, -9, -32, 35, 72, 1, 3, -7, 4, 37, 65, -73, 6, 77, -43, 8], "withholdReward": false, "trial_id": "mdp_trial_40", "block": "test", "trialIndex": 43, "score": 23.55, "costs": -6.449999999999999, "simulationMode": [null, null, null, null, null], "rewards": [2, 3, -1, -9, 35], "path": ["0", "0", "12", "13", "14", "19", "21"], "rt": [14338, 9, 48, 143, 60], "actions": ["right", "right", "right", "down", "down"], "actionTimes": [17361, 17910, 18515, 19201, 19791], "queries": {"click": {"state": {"target": ["33", "32", "21"], "time": [5581, 9568, 12948]}, "edge": {"target": [], "time": []}}, "mouseover": {"state": {"target": ["0", "31", "30", "33", "33", "32", "21", "20"], "time": [3837, 4369, 4421, 4460, 5151, 7074, 10950, 15183]}, "edge": {"target": [], "time": []}}, "mouseout": {"state": {"target": ["21", "22", "0", "0", "31", "30", "33", "33", "32", "21"], "time": [1590, 1706, 2024, 3887, 4404, 4441, 4486, 6759, 10368, 13180]}, "edge": {"target": [], "time": []}}}, "displayed_time": "20.35", "trialTime": 22149, "trial_type": "mouselab-mdp", "trial_index": 54, "time_elapsed": 1736020, "internal_node_id": "0.0-4.0-1.0-39.0"}}, {"uniqueid": "w89440040:a66777654", "current_trial": 55, "dateTime": 1691162010383, "trialdata": {"rt": 58759, "response": {"Q0": "$-16 to 16", "Q1": "$-4 to $4", "Q2": "$-88 to $88", "Q3": "The cost for clicking on nodes varied between nodes.", "Q4": "Very motivated"}, "question_order": [0, 1, 2, 3, 4], "trial_id": "final_quiz_control", "trial_type": "survey-multi-choice", "trial_index": 55, "time_elapsed": 1794796, "internal_node_id": "0.0-4.0-2.0"}}, {"uniqueid": "w89440040:a66777654", "current_trial": 56, "dateTime": 1691162125389, "trialdata": {"rt": 114977, "response": {"Q0": "I focused the node revel on the uter most nodes to ensure I finished high, I also tried some blind and repeated runs", "Q1": "yes, I got more usd to interagating the nodes bevore I started", "Q2": "not difficult but I ran out of time to inspect nodes a couple of times"}, "trial_id": "self_report_control", "trial_type": "survey-text", "trial_index": 56, "time_elapsed": 1909803, "internal_node_id": "0.0-4.0-3.0"}}, {"uniqueid": "w89440040:a66777654", "current_trial": 57, "dateTime": 1691162185222, "trialdata": {"rt": 59824, "response": {"Q0": "Disagree", "Q1": "Disagree", "Q2": "Agree", "Q3": "Agree", "Q4": "Agree", "Q5": "Neither disagree nor agree", "Q6": "Agree"}, "question_order": [0, 1, 2, 3, 4, 5, 6], "trial_id": "self_report_2", "trial_type": "survey-multi-choice", "trial_index": 57, "time_elapsed": 1969636, "internal_node_id": "0.0-4.0-4.0"}}, {"uniqueid": "w89440040:a66777654", "current_trial": 58, "dateTime": 1691162225018, "trialdata": {"rt": 39779, "response": {"gender": "male", "age": "48", "colorblind": "0", "effort": "0"}, "trial_type": "survey-html-form", "trial_index": 58, "time_elapsed": 2009432, "internal_node_id": "0.0-4.0-5.0"}}, {"uniqueid": "w89440040:a66777654", "current_trial": 59, "dateTime": 1691162288064, "trialdata": {"rt": 63036, "response": {"Q0": "no, it was straight forward  - I always need to try things a couple of times before I get the hang of it - 40 rounds was plenty!", "Q1": "no, not something I've done before", "Q2": "n/a"}, "trial_type": "survey-text", "trial_index": 59, "time_elapsed": 2072478, "internal_node_id": "0.0-4.0-6.0"}}, {"uniqueid": "w89440040:a66777654", "current_trial": 60, "dateTime": 1691162291354, "trialdata": {"rt": 3277, "stimulus": "Press 'Finish HIT' in order to reach the completion code. Once the data has been saved, you will receive the code either in this window or in the original browser window where you started the experiment.\n", "response": 0, "trial_type": "html-button-response", "trial_index": 60, "time_elapsed": 2075768, "internal_node_id": "0.0-5.0"}}, {"uniqueid": "w89440040:a66777654", "current_trial": 61, "dateTime": 1691162292362, "trialdata": {"success": true, "trial_type": "fullscreen", "trial_index": 61, "time_elapsed": 2076776, "internal_node_id": "0.0-6.0"}}], "questiondata": {"params": {"CODE": "C6DMOQA6", "MIN_TIME": 14, "inspectCost": 1, "startTime": "Fri Aug 04 2023 15:43:34 GMT+0100 (Irish Standard Time)", "bonusRate": 0.002, "variance": "1_2_4_8_44", "branching": "31123"}, "final_score": 197.25}, "eventdata": [{"eventtype": "initialized", "value": null, "timestamp": 1691160214156, "interval": 0}, {"eventtype": "window_resize", "value": [1028, 752], "timestamp": 1691160214156, "interval": 0}, {"eventtype": "window_resize", "value": [1028, 752], "timestamp": 1691160214597, "interval": 441}, {"eventtype": "focus", "value": "off", "timestamp": 1691160222276, "interval": 7679}, {"eventtype": "focus", "value": "on", "timestamp": 1691160233069, "interval": 10793}, {"eventtype": "window_resize", "value": [1536, 864], "timestamp": 1691160234666, "interval": 1597}, {"eventtype": "focus", "value": "off", "timestamp": 1691160885155, "interval": 650489}, {"eventtype": "focus", "value": "on", "timestamp": 1691160885156, "interval": 1}, {"eventtype": "window_resize", "value": [1028, 752], "timestamp": 1691160885376, "interval": 220}, {"eventtype": "window_resize", "value": [1536, 864], "timestamp": 1691160887348, "interval": 1972}, {"eventtype": "window_resize", "value": [1028, 752], "timestamp": 1691162291626, "interval": 1404278}], "useragent": "Mozilla/5.0 (Windows NT 10.0; Win64; x64) AppleWebKit/537.36 (KHTML, like Gecko) Chrome/115.0.0.0 Safari/537.36", "mode": "live", "id": "w89440040:a66777654", "status": "user data saved", "Beginhit": "2023-08-04 14:43:31.989551", "Beginexp": "2023-08-04 14:43:54.912391", "Endhit": "2023-08-04 15:18:12.182556", "psiturkStatus": 3, "browser": "<redacted>", "platform": "windows", "language": "en-US"}