{"condition": 1, "counterbalance": 0, "assignmentId": "a79011625", "workerId": "w16572819", "hitId": "h18411320", "currenttrial": 62, "bonus": 0, "data": [{"uniqueid": "w16572819:a79011625", "current_trial": 0, "dateTime": 1691142001086, "trialdata": {"success": true, "trial_type": "fullscreen", "trial_index": 0, "time_elapsed": 10588, "internal_node_id": "0.0-0.0"}}, {"uniqueid": "w16572819:a79011625", "current_trial": 1, "dateTime": 1691142034521, "trialdata": {"view_history": [{"page_index": 0, "viewing_time": 33421}], "rt": 33422, "trial_id": "exp_instructions_misaligned", "trial_type": "instructions", "trial_index": 1, "time_elapsed": 44024, "internal_node_id": "0.0-1.0"}}, {"uniqueid": "w16572819:a79011625", "current_trial": 2, "dateTime": 1691142039686, "trialdata": {"success": true, "trial_type": "fullscreen", "trial_index": 2, "time_elapsed": 49189, "internal_node_id": "0.0-2.0-0.0"}}, {"uniqueid": "w16572819:a79011625", "current_trial": 3, "dateTime": 1691142341200, "trialdata": {"view_history": [{"page_index": 0, "viewing_time": 92273}, {"page_index": 1, "viewing_time": 115948}, {"page_index": 2, "viewing_time": 42349}, {"page_index": 3, "viewing_time": 50938}], "rt": 301508, "trial_id": "mouselab_instructions_1_misaligned", "trial_type": "instructions", "trial_index": 3, "time_elapsed": 350703, "internal_node_id": "0.0-2.0-1.0"}}, {"uniqueid": "w16572819:a79011625", "current_trial": 4, "dateTime": 1691142379111, "trialdata": {"revealed_states": [], "clicked_states": [], "num_clicks_accrued": [0, 0, 0, 0, 0, 0, 0, 0, 0, 0, 0, 0, 0], "stateRewards": ["", 10, -10, 10, 10, -10, 10, -10, 10, 10, -10, 10, 10, 10, -10, 10, 10, -10, -10, -10, 10, -10, 10, -10, 10, -10, -10, 10, 10, -10, -10, -10, -10, -10], "withholdReward": false, "trial_id": "practice_1", "block": "test", "trialIndex": 0, "score": 33.5, "costs": 0, "simulationMode": [null, null, null, null, null], "rewards": [10, 10, -10, 10, 10], "path": ["0", "0", "12", "13", "14", "15", "16"], "rt": [4735, 2696, 141, 745, 5197], "actions": ["right", "right", "right", "up", "up"], "actionTimes": [17300, 20484, 21135, 22404, 28102], "queries": {"click": {"state": {"target": [], "time": []}, "edge": {"target": [], "time": []}}, "mouseover": {"state": {"target": [], "time": []}, "edge": {"target": [], "time": []}}, "mouseout": {"state": {"target": [], "time": []}, "edge": {"target": [], "time": []}}}, "displayed_time": "28.60", "trialTime": 36521, "trial_type": "mouselab-mdp", "trial_index": 4, "time_elapsed": 388613, "internal_node_id": "0.0-2.0-2.0-0.0"}}, {"uniqueid": "w16572819:a79011625", "current_trial": 5, "dateTime": 1691142398418, "trialdata": {"revealed_states": [], "clicked_states": [], "num_clicks_accrued": [0, 0, 0, 0, 0, 0, 0, 0, 0, 0, 0, 0, 0], "stateRewards": ["", -10, -10, -10, 10, -10, -10, 10, -10, -10, -10, 10, 10, 10, 10, 10, 10, -10, 10, 10, -10, 10, 10, -10, -10, -10, -10, 10, -10, 10, -10, -10, -10, 10], "withholdReward": false, "trial_id": "practice_2", "block": "test", "trialIndex": 1, "score": -6.5, "costs": 0, "simulationMode": [null, null, null, null, null], "rewards": [-10, -10, -10, 10, 10], "path": ["0", "0", "1", "2", "3", "4", "7"], "rt": [2605, 211, 597, 1633, 1306], "actions": ["up", "up", "up", "right", "down"], "actionTimes": [9249, 9960, 11079, 13221, 15024], "queries": {"click": {"state": {"target": [], "time": []}, "edge": {"target": [], "time": []}}, "mouseover": {"state": {"target": [], "time": []}, "edge": {"target": [], "time": []}}, "mouseout": {"state": {"target": [], "time": []}, "edge": {"target": [], "time": []}}}, "displayed_time": "15.52", "trialTime": 19004, "trial_type": "mouselab-mdp", "trial_index": 5, "time_elapsed": 407920, "internal_node_id": "0.0-2.0-2.0-1.0"}}, {"uniqueid": "w16572819:a79011625", "current_trial": 6, "dateTime": 1691142483073, "trialdata": {"view_history": [{"page_index": 0, "viewing_time": 66455}, {"page_index": 1, "viewing_time": 18190}], "rt": 84645, "trial_id": "mouselab_instructions_2_misaligned", "trial_type": "instructions", "trial_index": 6, "time_elapsed": 492576, "internal_node_id": "0.0-2.0-3.0"}}, {"uniqueid": "w16572819:a79011625", "current_trial": 7, "dateTime": 1691142556317, "trialdata": {"rt": 73185, "response": {"Q0": "The cost for clicking on nodes may vary between nodes.", "Q1": "The better I perform the higher my bonus will be.", "Q2": "No, the structure of the web will be different each time.", "Q3": "To get the highest total score.", "Q4": "Only before moving the spider.", "Q5": "3 seconds"}, "question_order": [0, 1, 2, 3, 4, 5], "correct": {"Q0": "The cost for clicking on nodes may vary between nodes.", "Q1": "The better I perform the higher my bonus will be.", "Q2": "No, the amount of cash at each node of the web may be different each time.", "Q3": "To get the highest total score.", "Q4": "Only before moving the spider.", "Q5": "3 seconds"}, "trial_id": "mouselab_quiz_misaligned", "trial_type": "survey-multi-choice", "trial_index": 7, "time_elapsed": 565820, "internal_node_id": "0.0-2.0-4.0"}}, {"uniqueid": "w16572819:a79011625", "current_trial": 8, "dateTime": 1691142574810, "trialdata": {"success": true, "trial_type": "fullscreen", "trial_index": 8, "time_elapsed": 584313, "internal_node_id": "0.0-2.1-0.1"}}, {"uniqueid": "w16572819:a79011625", "current_trial": 9, "dateTime": 1691142921392, "trialdata": {"view_history": [{"page_index": 0, "viewing_time": 111979}, {"page_index": 1, "viewing_time": 112480}, {"page_index": 2, "viewing_time": 23426}, {"page_index": 3, "viewing_time": 98692}], "rt": 346576, "trial_id": "mouselab_instructions_1_misaligned", "trial_type": "instructions", "trial_index": 9, "time_elapsed": 930894, "internal_node_id": "0.0-2.1-1.1"}}, {"uniqueid": "w16572819:a79011625", "current_trial": 10, "dateTime": 1691142948790, "trialdata": {"revealed_states": [], "clicked_states": [], "num_clicks_accrued": [0, 0, 0, 0, 0, 0, 0, 0, 0, 0, 0, 0, 0], "stateRewards": ["", 10, -10, 10, 10, -10, 10, -10, 10, 10, -10, 10, 10, 10, -10, 10, 10, -10, -10, -10, 10, -10, 10, -10, 10, -10, -10, 10, 10, -10, -10, -10, -10, -10], "withholdReward": false, "trial_id": "practice_1", "block": "test", "trialIndex": 2, "score": -26.5, "costs": 0, "simulationMode": [null, null, null, null, null], "rewards": [-10, 10, -10, -10, -10], "path": ["0", "0", "23", "24", "25", "30", "32"], "rt": [5361, 1091, 329, 307, 276], "actions": ["left", "left", "left", "down", "down"], "actionTimes": [15781, 17371, 18192, 19005, 19772], "queries": {"click": {"state": {"target": [], "time": []}, "edge": {"target": [], "time": []}}, "mouseover": {"state": {"target": [], "time": []}, "edge": {"target": [], "time": []}}, "mouseout": {"state": {"target": [], "time": []}, "edge": {"target": [], "time": []}}}, "displayed_time": "20.29", "trialTime": 27133, "trial_type": "mouselab-mdp", "trial_index": 10, "time_elapsed": 958292, "internal_node_id": "0.0-2.1-2.1-0.1"}}, {"uniqueid": "w16572819:a79011625", "current_trial": 11, "dateTime": 1691142960697, "trialdata": {"revealed_states": [], "clicked_states": [], "num_clicks_accrued": [0, 0, 0, 0, 0, 0, 0, 0, 0, 0, 0, 0, 0], "stateRewards": ["", -10, -10, -10, 10, -10, -10, 10, -10, -10, -10, 10, 10, 10, 10, 10, 10, -10, 10, 10, -10, 10, 10, -10, -10, -10, -10, 10, -10, 10, -10, -10, -10, 10], "withholdReward": false, "trial_id": "practice_2", "block": "test", "trialIndex": 3, "score": -26.5, "costs": 0, "simulationMode": [null, null, null, null, null], "rewards": [-10, -10, -10, -10, 10], "path": ["0", "0", "1", "2", "3", "8", "11"], "rt": [820, 151, 488, 167, 1082], "actions": ["up", "up", "up", "left", "left"], "actionTimes": [2304, 2948, 3935, 4615, 6213], "queries": {"click": {"state": {"target": [], "time": []}, "edge": {"target": [], "time": []}}, "mouseover": {"state": {"target": [], "time": []}, "edge": {"target": [], "time": []}}, "mouseout": {"state": {"target": [], "time": []}, "edge": {"target": [], "time": []}}}, "displayed_time": "6.71", "trialTime": 11642, "trial_type": "mouselab-mdp", "trial_index": 11, "time_elapsed": 970199, "internal_node_id": "0.0-2.1-2.1-1.1"}}, {"uniqueid": "w16572819:a79011625", "current_trial": 12, "dateTime": 1691143066480, "trialdata": {"view_history": [{"page_index": 0, "viewing_time": 102074}, {"page_index": 1, "viewing_time": 3700}], "rt": 105774, "trial_id": "mouselab_instructions_2_misaligned", "trial_type": "instructions", "trial_index": 12, "time_elapsed": 1075983, "internal_node_id": "0.0-2.1-3.1"}}, {"uniqueid": "w16572819:a79011625", "current_trial": 13, "dateTime": 1691143224687, "trialdata": {"rt": 158203, "response": {"Q0": "The cost for clicking on nodes may vary between nodes.", "Q1": "The better I perform the higher my bonus will be.", "Q2": "No, the amount of cash at each node of the web may be different each time.", "Q3": "To get the highest total score.", "Q4": "Only before moving the spider.", "Q5": "3 seconds"}, "question_order": [0, 1, 2, 3, 4, 5], "correct": {"Q0": "The cost for clicking on nodes may vary between nodes.", "Q1": "The better I perform the higher my bonus will be.", "Q2": "No, the amount of cash at each node of the web may be different each time.", "Q3": "To get the highest total score.", "Q4": "Only before moving the spider.", "Q5": "3 seconds"}, "trial_id": "mouselab_quiz_misaligned", "trial_type": "survey-multi-choice", "trial_index": 13, "time_elapsed": 1234190, "internal_node_id": "0.0-2.1-4.1"}}, {"uniqueid": "w16572819:a79011625", "current_trial": 14, "dateTime": 1691143294778, "trialdata": {"rt": 70078, "stimulus": "\n<h1> Get ready to start the game! </h1>\n\nThank you for reading the instructions. Get ready start with the 40 rounds of this game.\n<br><br>\nIf you need to take a break, feel free to take one after the end of a round, before continuing to the next one.\n<br><br>\nRemember, the more money the spider gets, the bigger your bonus will be!\n<br><br>\n<div style='text-align: center;'>Press <code>space</code> to begin.</div>\n\n<br><br>\n(If, at any point, the <code>space</code> key does not take you to the next page, click once on the text and try again.)", "response": " ", "trial_id": "mdp_ready", "trial_type": "html-keyboard-response", "trial_index": 14, "time_elapsed": 1304281, "internal_node_id": "0.0-4.0-0.0"}}, {"uniqueid": "w16572819:a79011625", "current_trial": 15, "dateTime": 1691143333322, "trialdata": {"revealed_states": [], "clicked_states": ["1", "2", "4", "13", "23", "24", "25", "26", "30", "19"], "num_clicks_accrued": [0, 0, 0, 0, 0, 0, 0, 0, 0, 0, 0, 0, 0], "stateRewards": ["", 2, -4, 1, -12, -59, -53, -74, 16, -88, -66, 66, 1, -2, 8, -9, -14, 22, 25, -1, -39, 47, -14, -1, -1, -2, 1, -4, 52, -26, 15, -7, 46, 43], "withholdReward": false, "trial_id": "mdp_trial_1", "block": "test", "trialIndex": 4, "score": 45.3, "costs": -7.699999999999999, "simulationMode": [null, null, null, null, null], "rewards": [1, -2, 8, -1, 47], "path": ["0", "0", "12", "13", "14", "19", "21"], "rt": [22981, 1102, 325, 354, 385], "actions": ["right", "right", "right", "down", "down"], "actionTimes": [29583, 31179, 32001, 32851, 33745], "queries": {"click": {"state": {"target": ["1", "2", "4", "13", "23", "24", "25", "26", "30", "19"], "time": [8963, 11809, 13470, 15486, 17409, 19223, 20644, 22354, 23467, 26245]}, "edge": {"target": [], "time": []}}, "mouseover": {"state": {"target": ["1", "2", "8", "3", "2", "3", "4", "7", "1", "13", "12", "0", "23", "23", "24", "25", "26", "30", "19", "20", "14"], "time": [8044, 9410, 9743, 10429, 10744, 12245, 12928, 14059, 14176, 14892, 16259, 16343, 16376, 16848, 18175, 19676, 21492, 22843, 25492, 27865, 27961]}, "edge": {"target": [], "time": []}}, "mouseout": {"state": {"target": ["0", "0", "1", "2", "8", "3", "2", "3", "4", "7", "1", "13", "13", "12", "0", "23", "23", "24", "25", "26", "26", "25", "30", "19", "20", "14"], "time": [1949, 7951, 9327, 9526, 10218, 10679, 12185, 12760, 14010, 14127, 14210, 15599, 16226, 16310, 16358, 16443, 17876, 19626, 20765, 22464, 22743, 22792, 23584, 26859, 27900, 28233]}, "edge": {"target": [], "time": []}}}, "displayed_time": "34.26", "trialTime": 38282, "trial_type": "mouselab-mdp", "trial_index": 15, "time_elapsed": 1342824, "internal_node_id": "0.0-4.0-1.0-0.0"}}, {"uniqueid": "w16572819:a79011625", "current_trial": 16, "dateTime": 1691143359036, "trialdata": {"revealed_states": [], "clicked_states": ["23", "24", "30", "26", "1", "2", "13"], "num_clicks_accrued": [0, 0, 0, 0, 0, 0, 0, 0, 0, 0, 0, 0, 0], "stateRewards": ["", -1, -2, -1, -10, -57, 73, -72, -16, 75, -14, -46, -2, -3, -7, -1, -61, -60, 76, -4, 50, 4, 14, 2, 2, -7, 12, -65, -32, 15, -8, -76, -25, -61], "withholdReward": false, "trial_id": "mdp_trial_2", "block": "test", "trialIndex": 5, "score": -77.65, "costs": -3.6500000000000004, "simulationMode": [null, null, null, null, null], "rewards": [-2, -3, -7, -1, -61], "path": ["0", "0", "12", "13", "14", "15", "16"], "rt": [13991, 505, 279, 247, 221], "actions": ["right", "right", "right", "up", "up"], "actionTimes": [17251, 18259, 19031, 19799, 20523], "queries": {"click": {"state": {"target": ["23", "24", "30", "26", "1", "2", "13"], "time": [4952, 6271, 7913, 9249, 11277, 13062, 15420]}, "edge": {"target": [], "time": []}}, "mouseover": {"state": {"target": ["23", "24", "25", "30", "25", "26", "28", "10", "1", "2", "3", "2", "13", "22"], "time": [4258, 5369, 6735, 7267, 8384, 8485, 9684, 9867, 10523, 11768, 11950, 12469, 14419, 15834]}, "edge": {"target": [], "time": []}}, "mouseout": {"state": {"target": ["12", "0", "23", "24", "25", "30", "25", "26", "28", "10", "1", "2", "3", "2", "13", "22"], "time": [1506, 4176, 5285, 6618, 6757, 8026, 8418, 9634, 9701, 10001, 11734, 11818, 12118, 14260, 15801, 15884]}, "edge": {"target": [], "time": []}}}, "displayed_time": "21.04", "trialTime": 25405, "trial_type": "mouselab-mdp", "trial_index": 16, "time_elapsed": 1368538, "internal_node_id": "0.0-4.0-1.0-1.0"}}, {"uniqueid": "w16572819:a79011625", "current_trial": 17, "dateTime": 1691143380258, "trialdata": {"revealed_states": [], "clicked_states": [], "num_clicks_accrued": [0, 0, 0, 0, 0, 0, 0, 0, 0, 0, 0, 0, 0], "stateRewards": ["", 1, -1, 1, -14, -10, 67, -28, -11, 72, 40, -65, -1, 1, 1, -2, 8, -55, 34, -10, 61, 33, -15, 2, -4, 7, 4, -75, 63, -21, -16, 61, 19, 21], "withholdReward": false, "trial_id": "mdp_trial_3", "block": "test", "trialIndex": 6, "score": -23, "costs": 0, "simulationMode": [null, null, null, null, null], "rewards": [1, -1, 1, -14, -10], "path": ["0", "0", "1", "2", "3", "4", "5"], "rt": [1511, 235, 1173, 311, 1347], "actions": ["up", "up", "up", "right", "up"], "actionTimes": [6478, 7209, 8882, 9688, 11537], "queries": {"click": {"state": {"target": [], "time": []}, "edge": {"target": [], "time": []}}, "mouseover": {"state": {"target": [], "time": []}, "edge": {"target": [], "time": []}}, "mouseout": {"state": {"target": [], "time": []}, "edge": {"target": [], "time": []}}}, "displayed_time": "18.97", "trialTime": 20916, "trial_type": "mouselab-mdp", "trial_index": 17, "time_elapsed": 1389760, "internal_node_id": "0.0-4.0-1.0-2.0"}}, {"uniqueid": "w16572819:a79011625", "current_trial": 18, "dateTime": 1691143405422, "trialdata": {"revealed_states": [], "clicked_states": [], "num_clicks_accrued": [0, 0, 0, 0, 0, 0, 0, 0, 0, 0, 0, 0, 0], "stateRewards": ["", 2, 3, -6, -5, -3, 55, 40, 11, 61, 11, 51, 2, -4, -6, 9, -25, 29, -15, -6, 7, -77, -2, -2, -4, 1, 14, -43, -1, 56, -12, -54, 41, -74], "withholdReward": false, "trial_id": "mdp_trial_4", "block": "test", "trialIndex": 7, "score": 61, "costs": 0, "simulationMode": [null, null, null, null, null], "rewards": [2, 3, -6, 11, 51], "path": ["0", "0", "1", "2", "3", "8", "11"], "rt": [7023, 349, 633, 652, 467], "actions": ["up", "up", "up", "left", "left"], "actionTimes": [9263, 10132, 11267, 12454, 13438], "queries": {"click": {"state": {"target": [], "time": []}, "edge": {"target": [], "time": []}}, "mouseover": {"state": {"target": ["23", "23", "24"], "time": [4699, 5038, 6553]}, "edge": {"target": [], "time": []}}, "mouseout": {"state": {"target": ["0", "23", "23", "24"], "time": [4674, 4791, 6320, 7772]}, "edge": {"target": [], "time": []}}}, "displayed_time": "16.24", "trialTime": 24774, "trial_type": "mouselab-mdp", "trial_index": 18, "time_elapsed": 1414924, "internal_node_id": "0.0-4.0-1.0-3.0"}}, {"uniqueid": "w16572819:a79011625", "current_trial": 19, "dateTime": 1691143424424, "trialdata": {"revealed_states": [], "clicked_states": [], "num_clicks_accrued": [0, 0, 0, 0, 0, 0, 0, 0, 0, 0, 0, 0, 0], "stateRewards": ["", -2, -1, -5, 10, -36, -70, 68, -9, 86, 71, -10, 2, -4, 7, -7, 66, 44, -66, -13, -69, 43, 15, -2, 2, 6, -13, 62, 57, 50, -10, -69, 42, -72], "withholdReward": false, "trial_id": "mdp_trial_5", "block": "test", "trialIndex": 8, "score": 70, "costs": 0, "simulationMode": [null, null, null, null, null], "rewards": [-2, -1, -5, 10, 68], "path": ["0", "0", "1", "2", "3", "4", "7"], "rt": [914, 614, 244, 294, 2895], "actions": ["up", "up", "up", "right", "down"], "actionTimes": [3423, 4569, 5331, 6130, 9514], "queries": {"click": {"state": {"target": [], "time": []}, "edge": {"target": [], "time": []}}, "mouseover": {"state": {"target": [], "time": []}, "edge": {"target": [], "time": []}}, "mouseout": {"state": {"target": ["23"], "time": [1529]}, "edge": {"target": [], "time": []}}}, "displayed_time": "16.51", "trialTime": 18680, "trial_type": "mouselab-mdp", "trial_index": 19, "time_elapsed": 1433926, "internal_node_id": "0.0-4.0-1.0-4.0"}}, {"uniqueid": "w16572819:a79011625", "current_trial": 20, "dateTime": 1691143443715, "trialdata": {"revealed_states": [], "clicked_states": ["23", "24", "26", "30", "22"], "num_clicks_accrued": [0, 0, 0, 0, 0, 0, 0, 0, 0, 0, 0, 0, 0], "stateRewards": ["", -2, 3, 8, -9, 59, 41, -50, -1, 82, 66, 33, 2, -2, 7, 8, 1, -38, 12, -16, 24, -37, 67, 1, 4, -2, 5, 35, -83, 28, 8, -27, 69, -64], "withholdReward": false, "trial_id": "mdp_trial_6", "block": "test", "trialIndex": 9, "score": -58.35, "costs": -5.35, "simulationMode": [null, null, null, null, null, null], "rewards": [1, 4, -2, 8, -64], "path": ["0", "0", "23", "24", "25", "30", "33"], "rt": [9027, 1206, 343, 510, 203, 864], "actions": ["up", "left", "left", "left", "down", "left"], "actionTimes": [10894, 12104, 12962, 13978, 14703, 16065], "queries": {"click": {"state": {"target": ["23", "24", "26", "30", "22"], "time": [3129, 4431, 5783, 7573, 10222]}, "edge": {"target": [], "time": []}}, "mouseover": {"state": {"target": ["23", "24", "25", "26", "25", "30", "30", "32", "22"], "time": [2251, 3449, 4849, 5083, 6483, 6533, 6948, 8533, 9701]}, "edge": {"target": [], "time": []}}, "mouseout": {"state": {"target": ["0", "23", "24", "25", "26", "25", "30", "30", "32"], "time": [2057, 3416, 4716, 5015, 6467, 6516, 6572, 8499, 8615]}, "edge": {"target": [], "time": []}}}, "displayed_time": "16.59", "trialTime": 18971, "trial_type": "mouselab-mdp", "trial_index": 20, "time_elapsed": 1453217, "internal_node_id": "0.0-4.0-1.0-5.0"}}, {"uniqueid": "w16572819:a79011625", "current_trial": 21, "dateTime": 1691143463269, "trialdata": {"revealed_states": [], "clicked_states": [], "num_clicks_accrued": [0, 0, 0, 0, 0, 0, 0, 0, 0, 0, 0, 0, 0], "stateRewards": ["", -1, -2, -8, 8, -27, -82, 19, -14, -62, 4, 1, -2, 2, 6, 10, 73, -51, -2, 2, 73, -48, 54, -1, 2, -4, 11, -25, 47, 86, 15, 33, 43, -42], "withholdReward": false, "trial_id": "mdp_trial_7", "block": "test", "trialIndex": 10, "score": 94, "costs": 0, "simulationMode": [null, null, null, null, null], "rewards": [-1, 2, -4, 11, 86], "path": ["0", "0", "23", "24", "25", "26", "29"], "rt": [6030, 479, 283, 220, 1173], "actions": ["left", "left", "left", "up", "left"], "actionTimes": [9018, 10035, 10840, 11560, 13246], "queries": {"click": {"state": {"target": [], "time": []}, "edge": {"target": [], "time": []}}, "mouseover": {"state": {"target": ["1", "2", "2", "1"], "time": [4423, 4473, 4712, 5339]}, "edge": {"target": [], "time": []}}, "mouseout": {"state": {"target": ["22", "12", "0", "1", "2", "2", "1"], "time": [1005, 1088, 4361, 4441, 4524, 4757, 7179]}, "edge": {"target": [], "time": []}}}, "displayed_time": "16.99", "trialTime": 19230, "trial_type": "mouselab-mdp", "trial_index": 21, "time_elapsed": 1472771, "internal_node_id": "0.0-4.0-1.0-6.0"}}, {"uniqueid": "w16572819:a79011625", "current_trial": 22, "dateTime": 1691143492175, "trialdata": {"revealed_states": [], "clicked_states": [], "num_clicks_accrued": [0, 0, 0, 0, 0, 0, 0, 0, 0, 0, 0, 0, 0], "stateRewards": ["", -1, -4, -1, -5, -28, -23, -15, -15, -38, 59, -87, 2, 2, -5, 9, -55, -39, -71, -6, 85, -85, -11, -1, -2, 5, -10, 1, 25, 41, -4, 69, -35, 86], "withholdReward": false, "trial_id": "mdp_trial_8", "block": "test", "trialIndex": 11, "score": 38, "costs": 0, "simulationMode": [null, null, null, null, null], "rewards": [-1, -4, -1, -15, 59], "path": ["0", "0", "1", "2", "3", "8", "10"], "rt": [962, 510, 384, 410, 557], "actions": ["up", "up", "up", "left", "down"], "actionTimes": [13799, 14806, 15696, 16623, 17686], "queries": {"click": {"state": {"target": [], "time": []}, "edge": {"target": [], "time": []}}, "mouseover": {"state": {"target": [], "time": []}, "edge": {"target": [], "time": []}}, "mouseout": {"state": {"target": [], "time": []}, "edge": {"target": [], "time": []}}}, "displayed_time": "26.84", "trialTime": 28577, "trial_type": "mouselab-mdp", "trial_index": 22, "time_elapsed": 1501677, "internal_node_id": "0.0-4.0-1.0-7.0"}}, {"uniqueid": "w16572819:a79011625", "current_trial": 23, "dateTime": 1691143513084, "trialdata": {"revealed_states": [], "clicked_states": ["1", "2", "12", "13", "14"], "num_clicks_accrued": [0, 0, 0, 0, 0, 0, 0, 0, 0, 0, 0, 0, 0], "stateRewards": ["", -1, -4, -3, 1, -45, -67, -24, 14, 32, 22, 22, -1, 1, -5, -7, 72, 84, -79, -5, 19, -40, -2, -1, -2, 8, -3, 84, -25, -28, 11, 64, -66, 77], "withholdReward": false, "trial_id": "mdp_trial_9", "block": "test", "trialIndex": 12, "score": 78.85, "costs": -1.15, "simulationMode": [null, null, null, null, null], "rewards": [-1, -2, 8, 11, 64], "path": ["0", "0", "23", "24", "25", "30", "31"], "rt": [11369, 501, 375, 336, 961], "actions": ["left", "left", "left", "down", "right"], "actionTimes": [13100, 14093, 14983, 15830, 17305], "queries": {"click": {"state": {"target": ["1", "2", "12", "13", "14"], "time": [3645, 6072, 7443, 9188, 10662]}, "edge": {"target": [], "time": []}}, "mouseover": {"state": {"target": ["1", "12", "2", "12", "13", "13", "14"], "time": [2993, 4573, 5007, 6790, 8223, 8663, 10040]}, "edge": {"target": [], "time": []}}, "mouseout": {"state": {"target": ["0", "1", "12", "2", "2", "12", "13", "13"], "time": [2731, 4211, 4656, 6181, 6673, 8074, 8340, 9590]}, "edge": {"target": [], "time": []}}}, "displayed_time": "17.81", "trialTime": 20583, "trial_type": "mouselab-mdp", "trial_index": 23, "time_elapsed": 1522586, "internal_node_id": "0.0-4.0-1.0-8.0"}}, {"uniqueid": "w16572819:a79011625", "current_trial": 24, "dateTime": 1691143537742, "trialdata": {"revealed_states": [], "clicked_states": ["23", "24", "25"], "num_clicks_accrued": [0, 0, 0, 0, 0, 0, 0, 0, 0, 0, 0, 0, 0], "stateRewards": ["", 1, 1, -5, 10, -31, 73, 14, -8, -23, 63, -70, -1, 2, 8, 7, 25, -59, 27, -10, -40, -71, -15, -2, 3, -8, -5, -19, 77, -34, 7, 67, 63, 19], "withholdReward": false, "trial_id": "mdp_trial_10", "block": "test", "trialIndex": 13, "score": 39.95, "costs": -1.0499999999999998, "simulationMode": [null, null, null, null, null], "rewards": [-1, 2, 8, 7, 25], "path": ["0", "0", "12", "13", "14", "15", "16"], "rt": [7054, 429, 335, 1720, 619], "actions": ["right", "right", "right", "up", "up"], "actionTimes": [15975, 16914, 17770, 20005, 21136], "queries": {"click": {"state": {"target": ["23", "24", "25"], "time": [10878, 12047, 14154]}, "edge": {"target": [], "time": []}}, "mouseover": {"state": {"target": ["23", "24", "25"], "time": [10185, 11433, 13184]}, "edge": {"target": [], "time": []}}, "mouseout": {"state": {"target": ["14", "13", "12", "0", "0", "23", "24"], "time": [1516, 1598, 1933, 2199, 2776, 11299, 13101]}, "edge": {"target": [], "time": []}}}, "displayed_time": "22.92", "trialTime": 24335, "trial_type": "mouselab-mdp", "trial_index": 24, "time_elapsed": 1547244, "internal_node_id": "0.0-4.0-1.0-9.0"}}, {"uniqueid": "w16572819:a79011625", "current_trial": 25, "dateTime": 1691143556004, "trialdata": {"revealed_states": [], "clicked_states": ["1"], "num_clicks_accrued": [0, 0, 0, 0, 0, 0, 0, 0, 0, 0, 0, 0, 0], "stateRewards": ["", -2, -4, 6, 14, -34, 49, 36, -8, -3, 32, -4, 1, -2, 1, -8, -20, -71, -57, -7, -86, -62, -16, -2, -3, -5, 11, 23, -21, 53, 5, -5, 85, 73], "withholdReward": false, "trial_id": "mdp_trial_11", "block": "test", "trialIndex": 14, "score": -19.75, "costs": 0.25, "simulationMode": [null, null, null, null, null], "rewards": [-2, -3, -5, 11, -21], "path": ["0", "0", "23", "24", "25", "26", "28"], "rt": [7291, 585, 289, 720, 117], "actions": ["left", "left", "left", "up", "right"], "actionTimes": [10147, 11237, 12040, 13258, 13887], "queries": {"click": {"state": {"target": ["1"], "time": [4419]}, "edge": {"target": [], "time": []}}, "mouseover": {"state": {"target": ["1", "1", "2", "3"], "time": [3442, 3816, 5417, 6752]}, "edge": {"target": [], "time": []}}, "mouseout": {"state": {"target": ["25", "24", "1", "1", "2"], "time": [1351, 1384, 3585, 4850, 6707]}, "edge": {"target": [], "time": []}}}, "displayed_time": "16.86", "trialTime": 17932, "trial_type": "mouselab-mdp", "trial_index": 25, "time_elapsed": 1565506, "internal_node_id": "0.0-4.0-1.0-10.0"}}, {"uniqueid": "w16572819:a79011625", "current_trial": 26, "dateTime": 1691143575830, "trialdata": {"revealed_states": [], "clicked_states": ["1", "2", "23"], "num_clicks_accrued": [0, 0, 0, 0, 0, 0, 0, 0, 0, 0, 0, 0, 0], "stateRewards": ["", 1, 2, -6, -13, -51, 22, -4, -12, -44, -12, 6, -2, -2, -2, -14, -46, -4, -77, -2, 36, -79, 41, 2, -4, 2, -6, -55, 59, 70, -5, 39, -19, 24], "withholdReward": false, "trial_id": "mdp_trial_12", "block": "test", "trialIndex": 15, "score": 34.15, "costs": 0.15000000000000002, "simulationMode": [null, null, null, null, null], "rewards": [2, -4, 2, -5, 39], "path": ["0", "0", "23", "24", "25", "30", "31"], "rt": [8083, 1108, 464, 261, 598], "actions": ["left", "left", "left", "down", "right"], "actionTimes": [11646, 13266, 14220, 15001, 16104], "queries": {"click": {"state": {"target": ["1", "2", "23"], "time": [5095, 6520, 8258]}, "edge": {"target": [], "time": []}}, "mouseover": {"state": {"target": ["1", "2", "23", "24"], "time": [4528, 5755, 7287, 9587]}, "edge": {"target": [], "time": []}}, "mouseout": {"state": {"target": ["3", "2", "1", "0", "1", "2", "1", "23"], "time": [1594, 1694, 1911, 4329, 5489, 7022, 7105, 9037]}, "edge": {"target": [], "time": []}}}, "displayed_time": "17.56", "trialTime": 19463, "trial_type": "mouselab-mdp", "trial_index": 26, "time_elapsed": 1585332, "internal_node_id": "0.0-4.0-1.0-11.0"}}, {"uniqueid": "w16572819:a79011625", "current_trial": 27, "dateTime": 1691143595178, "trialdata": {"revealed_states": [], "clicked_states": ["13", "24", "2"], "num_clicks_accrued": [0, 0, 0, 0, 0, 0, 0, 0, 0, 0, 0, 0, 0], "stateRewards": ["", 1, 4, 5, -5, 58, -80, 75, 6, 25, -39, 46, 2, -2, 4, 2, 59, 31, -22, -12, -61, 15, 72, 1, -2, -7, 8, 77, 76, -23, -7, 71, -15, -3], "withholdReward": false, "trial_id": "mdp_trial_13", "block": "test", "trialIndex": 16, "score": 78.95, "costs": -1.0499999999999998, "simulationMode": [null, null, null, null, null], "rewards": [1, 4, 5, -5, 75], "path": ["0", "0", "1", "2", "3", "4", "7"], "rt": [6821, 385, 477, 606, 1509], "actions": ["up", "up", "up", "right", "down"], "actionTimes": [9730, 10647, 11623, 12739, 14786], "queries": {"click": {"state": {"target": ["13", "24", "2"], "time": [4900, 6685, 8467]}, "edge": {"target": [], "time": []}}, "mouseover": {"state": {"target": ["13", "12", "0", "23", "24", "23", "2"], "time": [4268, 5644, 5701, 5762, 5878, 7428, 7594]}, "edge": {"target": [], "time": []}}, "mouseout": {"state": {"target": ["24", "23", "0", "0", "13", "12", "0", "23", "24", "23"], "time": [1380, 1459, 1576, 1809, 5611, 5665, 5727, 5827, 7294, 7444]}, "edge": {"target": [], "time": []}}}, "displayed_time": "16.91", "trialTime": 19035, "trial_type": "mouselab-mdp", "trial_index": 27, "time_elapsed": 1604679, "internal_node_id": "0.0-4.0-1.0-12.0"}}, {"uniqueid": "w16572819:a79011625", "current_trial": 28, "dateTime": 1691143614996, "trialdata": {"revealed_states": [], "clicked_states": ["1", "8", "4", "2"], "num_clicks_accrued": [0, 0, 0, 0, 0, 0, 0, 0, 0, 0, 0, 0, 0], "stateRewards": ["", 1, 4, -8, -13, -13, -87, -77, -10, -44, 54, 42, 2, -3, -4, 12, -9, -80, 52, 9, 84, -2, -65, 1, -4, -5, -6, 8, 80, 32, 13, -59, -5, -13], "withholdReward": false, "trial_id": "mdp_trial_14", "block": "test", "trialIndex": 17, "score": 84.8, "costs": -3.2, "simulationMode": [null, null, null, null, null], "rewards": [2, -3, -4, 9, 84], "path": ["0", "0", "12", "13", "14", "19", "20"], "rt": [8360, 663, 469, 759, 596], "actions": ["right", "right", "right", "down", "right"], "actionTimes": [12448, 13634, 14622, 15883, 16999], "queries": {"click": {"state": {"target": ["1", "8", "4", "2"], "time": [6328, 7996, 9445, 11277]}, "edge": {"target": [], "time": []}}, "mouseover": {"state": {"target": ["1", "2", "8", "3", "4", "2"], "time": [5485, 6968, 7247, 8518, 8568, 10368]}, "edge": {"target": [], "time": []}}, "mouseout": {"state": {"target": ["2", "12", "0", "1", "2", "8", "3", "4", "4"], "time": [2101, 2218, 5405, 6819, 7002, 8485, 8534, 9558, 10185]}, "edge": {"target": [], "time": []}}}, "displayed_time": "18.09", "trialTime": 19477, "trial_type": "mouselab-mdp", "trial_index": 28, "time_elapsed": 1624497, "internal_node_id": "0.0-4.0-1.0-13.0"}}, {"uniqueid": "w16572819:a79011625", "current_trial": 29, "dateTime": 1691143640700, "trialdata": {"revealed_states": [], "clicked_states": ["23", "25", "13", "19"], "num_clicks_accrued": [0, 0, 0, 0, 0, 0, 0, 0, 0, 0, 0, 0, 0], "stateRewards": ["", -2, 4, -5, -12, 85, -24, -18, -15, -78, -22, 26, -1, -1, 2, 14, -45, 52, -23, 7, -33, 24, -6, -2, -4, 5, -7, -16, 36, -39, 5, 71, -87, -23], "withholdReward": false, "trial_id": "mdp_trial_15", "block": "test", "trialIndex": 18, "score": -85.6, "costs": -2.5999999999999996, "simulationMode": [null, null, null, null, null], "rewards": [-2, -4, 5, 5, -87], "path": ["0", "0", "23", "24", "25", "30", "32"], "rt": [9641, 533, 369, 676, 849], "actions": ["left", "left", "left", "down", "down"], "actionTimes": [17492, 18520, 19388, 20562, 21901], "queries": {"click": {"state": {"target": ["23", "25", "13", "19"], "time": [10270, 11628, 14229, 15906]}, "edge": {"target": [], "time": []}}, "mouseover": {"state": {"target": ["23", "24", "25", "24", "1", "12", "13", "19"], "time": [9688, 10822, 10918, 12035, 12101, 12803, 13187, 15301]}, "edge": {"target": [], "time": []}}, "mouseout": {"state": {"target": ["2", "0", "0", "23", "24", "25", "24", "1", "12", "13"], "time": [5674, 6290, 9644, 10768, 10885, 11743, 12051, 12119, 13037, 14720]}, "edge": {"target": [], "time": []}}}, "displayed_time": "22.42", "trialTime": 25350, "trial_type": "mouselab-mdp", "trial_index": 29, "time_elapsed": 1650202, "internal_node_id": "0.0-4.0-1.0-14.0"}}, {"uniqueid": "w16572819:a79011625", "current_trial": 30, "dateTime": 1691143663195, "trialdata": {"revealed_states": [], "clicked_states": ["1", "23", "25", "26", "32"], "num_clicks_accrued": [0, 0, 0, 0, 0, 0, 0, 0, 0, 0, 0, 0, 0], "stateRewards": ["", -1, -3, 4, -10, -5, 79, -87, -2, 53, 29, -20, -2, -1, -5, 10, 27, 86, 46, -16, -29, 40, 3, 2, 4, -1, -6, 37, 79, -29, 7, 86, -62, 29], "withholdReward": false, "trial_id": "mdp_trial_16", "block": "test", "trialIndex": 19, "score": 93.85, "costs": -4.15, "simulationMode": [null, null, null, null, null, null], "rewards": [2, 4, -1, 7, 86], "path": ["0", "0", "23", "24", "25", "30", "31"], "rt": [11045, 779, 1117, 589, 196, 280], "actions": ["left", "left", "left", "left", "down", "right"], "actionTimes": [13685, 14468, 16119, 17221, 17917, 18697], "queries": {"click": {"state": {"target": ["1", "23", "25", "26", "32"], "time": [5585, 7467, 9473, 11205, 13302]}, "edge": {"target": [], "time": []}}, "mouseover": {"state": {"target": ["1", "1", "23", "24", "25", "26", "30", "32"], "time": [4449, 4781, 6217, 8216, 8466, 10016, 12198, 12739]}, "edge": {"target": [], "time": []}}, "mouseout": {"state": {"target": ["19", "22", "0", "1", "1", "1", "23", "24", "25", "26", "25", "30", "32"], "time": [1172, 1217, 4273, 4515, 5704, 6028, 7587, 8399, 9882, 12049, 12133, 12299, 13416]}, "edge": {"target": [], "time": []}}}, "displayed_time": "19.20", "trialTime": 22177, "trial_type": "mouselab-mdp", "trial_index": 30, "time_elapsed": 1672696, "internal_node_id": "0.0-4.0-1.0-15.0"}}, {"uniqueid": "w16572819:a79011625", "current_trial": 31, "dateTime": 1691143682598, "trialdata": {"revealed_states": [], "clicked_states": ["1", "10", "9"], "num_clicks_accrued": [0, 0, 0, 0, 0, 0, 0, 0, 0, 0, 0, 0, 0], "stateRewards": ["", -1, 2, -2, 13, -56, -28, 10, 14, 53, -80, -29, 1, -3, -3, -14, 14, 9, -40, -9, 18, 18, 48, 1, 1, 1, -9, 64, -39, -9, 7, -52, -78, 7], "withholdReward": false, "trial_id": "mdp_trial_17", "block": "test", "trialIndex": 20, "score": -14.05, "costs": -4.05, "simulationMode": [null, null, null, null, null, null], "rewards": [1, -3, -3, -14, 9], "path": ["0", "0", "12", "13", "14", "15", "17"], "rt": [8152, 1131, 778, 508, 457, 574], "actions": ["right", "right", "right", "right", "up", "right"], "actionTimes": [11126, 12260, 13549, 14579, 15527, 16594], "queries": {"click": {"state": {"target": ["1", "10", "9"], "time": [4736, 6306, 9538]}, "edge": {"target": [], "time": []}}, "mouseover": {"state": {"target": ["1", "10", "8", "9"], "time": [3937, 5369, 6936, 7502]}, "edge": {"target": [], "time": []}}, "mouseout": {"state": {"target": ["32", "0", "0", "1", "10", "8"], "time": [1442, 1874, 3709, 5187, 6852, 7020]}, "edge": {"target": [], "time": []}}}, "displayed_time": "17.09", "trialTime": 19051, "trial_type": "mouselab-mdp", "trial_index": 31, "time_elapsed": 1692100, "internal_node_id": "0.0-4.0-1.0-16.0"}}, {"uniqueid": "w16572819:a79011625", "current_trial": 32, "dateTime": 1691143701555, "trialdata": {"revealed_states": [], "clicked_states": [], "num_clicks_accrued": [0, 0, 0, 0, 0, 0, 0, 0, 0, 0, 0, 0, 0], "stateRewards": ["", 1, 1, -3, 7, 49, 78, 26, -5, 26, 48, -43, -1, -3, 2, -5, 4, -1, -60, 10, -35, 51, 81, -2, 1, -7, -5, -39, -86, -54, 4, -3, 74, 77], "withholdReward": false, "trial_id": "mdp_trial_18", "block": "test", "trialIndex": 21, "score": -67, "costs": 0, "simulationMode": [null, null, null, null, null], "rewards": [-2, 1, -7, -5, -54], "path": ["0", "0", "23", "24", "25", "26", "29"], "rt": [8144, 371, 378, 1048, 489], "actions": ["left", "left", "left", "up", "left"], "actionTimes": [10936, 11810, 12711, 14261, 15252], "queries": {"click": {"state": {"target": [], "time": []}, "edge": {"target": [], "time": []}}, "mouseover": {"state": {"target": ["1", "2"], "time": [4764, 5508]}, "edge": {"target": [], "time": []}}, "mouseout": {"state": {"target": ["9", "3", "2", "1", "1", "2"], "time": [1319, 1393, 1461, 1727, 5286, 6652]}, "edge": {"target": [], "time": []}}}, "displayed_time": "16.79", "trialTime": 18534, "trial_type": "mouselab-mdp", "trial_index": 32, "time_elapsed": 1711057, "internal_node_id": "0.0-4.0-1.0-17.0"}}, {"uniqueid": "w16572819:a79011625", "current_trial": 33, "dateTime": 1691143721412, "trialdata": {"revealed_states": [], "clicked_states": ["13", "24", "2"], "num_clicks_accrued": [0, 0, 0, 0, 0, 0, 0, 0, 0, 0, 0, 0, 0], "stateRewards": ["", 1, 1, -7, -9, -44, 24, -83, -15, 44, -24, 72, -2, -3, 4, -5, 57, 55, 29, -11, 22, 12, -25, -1, 2, 7, 12, 33, -8, 47, -4, 8, 50, -4], "withholdReward": false, "trial_id": "mdp_trial_19", "block": "test", "trialIndex": 22, "score": 10.95, "costs": -1.0499999999999998, "simulationMode": [null, null, null, null, null], "rewards": [-1, 2, 7, -4, 8], "path": ["0", "0", "23", "24", "25", "30", "31"], "rt": [7413, 370, 560, 195, 1113], "actions": ["left", "left", "left", "down", "right"], "actionTimes": [11154, 12029, 13100, 13817, 15455], "queries": {"click": {"state": {"target": ["13", "24", "2"], "time": [5512, 7186, 9771]}, "edge": {"target": [], "time": []}}, "mouseover": {"state": {"target": ["12", "13", "12", "0", "23", "24", "23", "1", "2"], "time": [4670, 4937, 5987, 6054, 6088, 6569, 8806, 8854, 8953]}, "edge": {"target": [], "time": []}}, "mouseout": {"state": {"target": ["0", "21", "22", "12", "0", "12", "13", "12", "0", "23", "24", "23", "1", "2"], "time": [1410, 1821, 1969, 2086, 4539, 4837, 5971, 6021, 6071, 6120, 8777, 8823, 8922, 9887]}, "edge": {"target": [], "time": []}}}, "displayed_time": "17.74", "trialTime": 19435, "trial_type": "mouselab-mdp", "trial_index": 33, "time_elapsed": 1730914, "internal_node_id": "0.0-4.0-1.0-18.0"}}, {"uniqueid": "w16572819:a79011625", "current_trial": 34, "dateTime": 1691143741563, "trialdata": {"revealed_states": [], "clicked_states": [], "num_clicks_accrued": [0, 0, 0, 0, 0, 0, 0, 0, 0, 0, 0, 0, 0], "stateRewards": ["", -1, 1, -2, 5, 73, 15, 61, 8, 7, 38, 76, 2, 2, -4, -6, -6, -26, 43, -5, -45, -85, -35, -2, 1, -4, 15, -10, 69, 72, -11, 84, -49, -38], "withholdReward": false, "trial_id": "mdp_trial_20", "block": "test", "trialIndex": 23, "score": -40, "costs": 0, "simulationMode": [null, null, null, null, null], "rewards": [2, 2, -4, -5, -35], "path": ["0", "0", "12", "13", "14", "19", "22"], "rt": [2776, 477, 497, 368, 985], "actions": ["right", "right", "right", "down", "left"], "actionTimes": [6605, 7580, 8567, 9438, 10922], "queries": {"click": {"state": {"target": [], "time": []}, "edge": {"target": [], "time": []}}, "mouseover": {"state": {"target": [], "time": []}, "edge": {"target": [], "time": []}}, "mouseout": {"state": {"target": ["2", "22", "0"], "time": [1166, 1251, 1784]}, "edge": {"target": [], "time": []}}}, "displayed_time": "17.83", "trialTime": 19784, "trial_type": "mouselab-mdp", "trial_index": 34, "time_elapsed": 1751065, "internal_node_id": "0.0-4.0-1.0-19.0"}}, {"uniqueid": "w16572819:a79011625", "current_trial": 35, "dateTime": 1691143758734, "trialdata": {"revealed_states": [], "clicked_states": ["2", "24", "13"], "num_clicks_accrued": [0, 0, 0, 0, 0, 0, 0, 0, 0, 0, 0, 0, 0], "stateRewards": ["", 2, -2, 7, -11, -76, -65, -23, 16, -58, 30, 81, 1, 2, 7, 14, 9, 55, -2, 6, 11, -15, 31, -1, -1, -3, 2, 15, 2, 46, 15, 18, 45, -34], "withholdReward": false, "trial_id": "mdp_trial_21", "block": "test", "trialIndex": 24, "score": 20.95, "costs": -1.0499999999999998, "simulationMode": [null, null, null, null, null], "rewards": [1, 2, 7, 14, -2], "path": ["0", "0", "12", "13", "14", "15", "18"], "rt": [6867, 458, 302, 266, 723], "actions": ["right", "right", "right", "up", "left"], "actionTimes": [8332, 9298, 10093, 10873, 12113], "queries": {"click": {"state": {"target": ["2", "24", "13"], "time": [3877, 5590, 7243]}, "edge": {"target": [], "time": []}}, "mouseover": {"state": {"target": ["1", "1", "2", "2", "1", "24", "23", "12", "13"], "time": [1721, 1972, 2660, 3162, 4671, 4904, 6088, 6154, 6670]}, "edge": {"target": [], "time": []}}, "mouseout": {"state": {"target": ["0", "1", "1", "2", "2", "1", "24", "24", "23", "12"], "time": [1604, 1737, 1989, 2888, 4613, 4704, 5704, 6072, 6121, 6171]}, "edge": {"target": [], "time": []}}}, "displayed_time": "15.47", "trialTime": 16793, "trial_type": "mouselab-mdp", "trial_index": 35, "time_elapsed": 1768235, "internal_node_id": "0.0-4.0-1.0-20.0"}}, {"uniqueid": "w16572819:a79011625", "current_trial": 36, "dateTime": 1691143777867, "trialdata": {"revealed_states": [], "clicked_states": ["23", "12", "1"], "num_clicks_accrued": [0, 0, 0, 0, 0, 0, 0, 0, 0, 0, 0, 0, 0], "stateRewards": ["", -2, 1, -7, -8, -37, -76, -87, 11, 30, -63, 80, -1, 4, 2, -1, 42, 17, 52, -3, -75, -80, -68, 2, -3, -5, -15, -48, 82, 24, -7, 5, -22, -71], "withholdReward": false, "trial_id": "mdp_trial_22", "block": "test", "trialIndex": 25, "score": 83.75, "costs": 0.75, "simulationMode": [null, null, null, null, null], "rewards": [-2, 1, -7, 11, 80], "path": ["0", "0", "1", "2", "3", "8", "11"], "rt": [6022, 426, 533, 560, 535], "actions": ["up", "up", "up", "left", "left"], "actionTimes": [9390, 10338, 11391, 12468, 13509], "queries": {"click": {"state": {"target": ["23", "12", "1"], "time": [5308, 6675, 8280]}, "edge": {"target": [], "time": []}}, "mouseover": {"state": {"target": ["24", "23", "12", "1"], "time": [4182, 4424, 6023, 7175]}, "edge": {"target": [], "time": []}}, "mouseout": {"state": {"target": ["13", "12", "24", "23", "12"], "time": [1795, 1842, 4381, 5706, 6790]}, "edge": {"target": [], "time": []}}}, "displayed_time": "17.37", "trialTime": 18762, "trial_type": "mouselab-mdp", "trial_index": 36, "time_elapsed": 1787369, "internal_node_id": "0.0-4.0-1.0-21.0"}}, {"uniqueid": "w16572819:a79011625", "current_trial": 37, "dateTime": 1691143796063, "trialdata": {"revealed_states": [], "clicked_states": ["23", "1", "12"], "num_clicks_accrued": [0, 0, 0, 0, 0, 0, 0, 0, 0, 0, 0, 0, 0], "stateRewards": ["", -2, -3, -7, 7, -54, -69, -4, -14, -77, 22, 40, -2, -1, 5, 6, -35, 50, -60, 10, -28, 75, 57, 1, -4, -2, 2, 68, 34, -18, 12, 3, -21, -43], "withholdReward": false, "trial_id": "mdp_trial_23", "block": "test", "trialIndex": 26, "score": 65.75, "costs": 0.75, "simulationMode": [null, null, null, null, null], "rewards": [1, -4, -2, 2, 68], "path": ["0", "0", "23", "24", "25", "26", "27"], "rt": [6988, 346, 451, 433, 313], "actions": ["left", "left", "left", "up", "up"], "actionTimes": [9293, 10142, 11113, 12062, 12876], "queries": {"click": {"state": {"target": ["23", "1", "12"], "time": [4062, 5269, 6942]}, "edge": {"target": [], "time": []}}, "mouseover": {"state": {"target": ["23", "1", "12", "0"], "time": [3304, 4562, 6211, 8730]}, "edge": {"target": [], "time": []}}, "mouseout": {"state": {"target": ["1", "23", "1", "12", "0"], "time": [1231, 4177, 5794, 8703, 8750]}, "edge": {"target": [], "time": []}}}, "displayed_time": "16.31", "trialTime": 17830, "trial_type": "mouselab-mdp", "trial_index": 37, "time_elapsed": 1805564, "internal_node_id": "0.0-4.0-1.0-22.0"}}, {"uniqueid": "w16572819:a79011625", "current_trial": 38, "dateTime": 1691143814005, "trialdata": {"revealed_states": [], "clicked_states": ["23", "12", "1"], "num_clicks_accrued": [0, 0, 0, 0, 0, 0, 0, 0, 0, 0, 0, 0, 0], "stateRewards": ["", 1, -2, 7, -14, 88, -56, -44, -14, 64, -51, -57, -2, 3, -4, -9, -11, 19, -77, -1, 68, 75, -67, -1, 1, -2, 5, -37, 70, -34, -10, -72, 63, -41], "withholdReward": false, "trial_id": "mdp_trial_24", "block": "test", "trialIndex": 27, "score": -51.25, "costs": 0.75, "simulationMode": [null, null, null, null, null], "rewards": [1, -2, 7, -14, -44], "path": ["0", "0", "1", "2", "3", "4", "7"], "rt": [8137, 719, 374, 196, 1154], "actions": ["up", "up", "up", "right", "down"], "actionTimes": [10209, 11427, 12299, 12987, 14668], "queries": {"click": {"state": {"target": ["23", "12", "1"], "time": [3658, 6270, 8006]}, "edge": {"target": [], "time": []}}, "mouseover": {"state": {"target": ["23", "1", "12", "12", "1", "23"], "time": [2931, 4677, 5040, 5524, 6957, 9407]}, "edge": {"target": [], "time": []}}, "mouseout": {"state": {"target": ["23", "23", "1", "12", "12", "1", "23"], "time": [1078, 4073, 4913, 5108, 6723, 9123, 9456]}, "edge": {"target": [], "time": []}}}, "displayed_time": "16.07", "trialTime": 17552, "trial_type": "mouselab-mdp", "trial_index": 38, "time_elapsed": 1823506, "internal_node_id": "0.0-4.0-1.0-23.0"}}, {"uniqueid": "w16572819:a79011625", "current_trial": 39, "dateTime": 1691143832559, "trialdata": {"revealed_states": [], "clicked_states": ["23", "25", "13", "1"], "num_clicks_accrued": [0, 0, 0, 0, 0, 0, 0, 0, 0, 0, 0, 0, 0], "stateRewards": ["", 2, 3, 6, -12, -29, 12, 87, 4, 35, -30, 67, 2, 3, -5, -9, 44, 69, -8, 1, 45, -8, 28, -2, -1, -8, 11, -12, -5, 81, 9, 87, 82, 88], "withholdReward": false, "trial_id": "mdp_trial_25", "block": "test", "trialIndex": 28, "score": 81.2, "costs": -0.7999999999999998, "simulationMode": [null, null, null, null, null], "rewards": [2, 3, 6, 4, 67], "path": ["0", "0", "1", "2", "3", "8", "11"], "rt": [7604, 455, 309, 754, 1431], "actions": ["up", "up", "up", "left", "left"], "actionTimes": [10315, 11262, 12085, 13360, 15286], "queries": {"click": {"state": {"target": ["23", "25", "13", "1"], "time": [3905, 6113, 8011, 9222]}, "edge": {"target": [], "time": []}}, "mouseover": {"state": {"target": ["23", "24", "25", "24", "1", "12", "13", "12", "1"], "time": [3274, 4872, 5524, 6571, 6655, 7038, 7514, 8328, 8488]}, "edge": {"target": [], "time": []}}, "mouseout": {"state": {"target": ["23", "0", "23", "24", "25", "24", "1", "12", "13", "12"], "time": [1727, 3181, 4338, 4988, 6555, 6588, 6671, 7054, 8273, 8389]}, "edge": {"target": [], "time": []}}}, "displayed_time": "16.71", "trialTime": 18206, "trial_type": "mouselab-mdp", "trial_index": 39, "time_elapsed": 1842061, "internal_node_id": "0.0-4.0-1.0-24.0"}}, {"uniqueid": "w16572819:a79011625", "current_trial": 40, "dateTime": 1691143852296, "trialdata": {"revealed_states": [], "clicked_states": ["28", "24"], "num_clicks_accrued": [0, 0, 0, 0, 0, 0, 0, 0, 0, 0, 0, 0, 0], "stateRewards": ["", -2, 1, 6, -2, -10, -78, -69, 14, -15, 7, -1, 1, -1, -2, 13, 77, 32, 87, 5, -74, 30, -26, 1, 3, 4, 12, 39, 54, -43, 2, 10, 23, 13], "withholdReward": false, "trial_id": "mdp_trial_26", "block": "test", "trialIndex": 29, "score": -73.5, "costs": -2.5, "simulationMode": [null, null, null, null, null], "rewards": [1, -1, -2, 5, -74], "path": ["0", "0", "12", "13", "14", "19", "20"], "rt": [7872, 373, 684, 894, 249], "actions": ["right", "right", "right", "down", "right"], "actionTimes": [10686, 11596, 12791, 14183, 14971], "queries": {"click": {"state": {"target": ["28", "24"], "time": [5508, 8648]}, "edge": {"target": [], "time": []}}, "mouseover": {"state": {"target": ["23", "28", "24"], "time": [4109, 4813, 6355]}, "edge": {"target": [], "time": []}}, "mouseout": {"state": {"target": ["1", "0", "23", "28", "24", "30", "33", "33"], "time": [1560, 4094, 4403, 6038, 18376, 18456, 18522, 18795]}, "edge": {"target": [], "time": []}}}, "displayed_time": "16.81", "trialTime": 19376, "trial_type": "mouselab-mdp", "trial_index": 40, "time_elapsed": 1861798, "internal_node_id": "0.0-4.0-1.0-25.0"}}, {"uniqueid": "w16572819:a79011625", "current_trial": 41, "dateTime": 1691143870729, "trialdata": {"revealed_states": [], "clicked_states": ["12", "15", "19"], "num_clicks_accrued": [0, 0, 0, 0, 0, 0, 0, 0, 0, 0, 0, 0, 0], "stateRewards": ["", -1, -2, 4, 9, 10, -75, 39, 16, -43, 88, -19, -1, 1, 2, 4, -31, 10, 73, 12, 41, -64, -81, -2, 2, -6, 1, -81, -1, -26, 3, -59, -3, -20], "withholdReward": false, "trial_id": "mdp_trial_27", "block": "test", "trialIndex": 30, "score": 102.15, "costs": -2.85, "simulationMode": [null, null, null, null, null], "rewards": [-1, -2, 4, 16, 88], "path": ["0", "0", "1", "2", "3", "8", "10"], "rt": [7394, 323, 486, 1474, 1071], "actions": ["up", "up", "up", "left", "down"], "actionTimes": [9465, 10296, 11276, 13263, 14827], "queries": {"click": {"state": {"target": ["12", "15", "19"], "time": [3828, 5466, 7262]}, "edge": {"target": [], "time": []}}, "mouseover": {"state": {"target": ["12", "13", "15", "19", "22"], "time": [3206, 4343, 4746, 6157, 8127]}, "edge": {"target": [], "time": []}}, "mouseout": {"state": {"target": ["0", "12", "13", "15", "19", "22"], "time": [3024, 4240, 4474, 6151, 8090, 8141]}, "edge": {"target": [], "time": []}}}, "displayed_time": "16.07", "trialTime": 18060, "trial_type": "mouselab-mdp", "trial_index": 41, "time_elapsed": 1880231, "internal_node_id": "0.0-4.0-1.0-26.0"}}, {"uniqueid": "w16572819:a79011625", "current_trial": 42, "dateTime": 1691143890202, "trialdata": {"revealed_states": [], "clicked_states": ["23", "25", "13", "1"], "num_clicks_accrued": [0, 0, 0, 0, 0, 0, 0, 0, 0, 0, 0, 0, 0], "stateRewards": ["", -2, -1, -6, -14, -55, 78, -13, 11, 14, -71, 59, 2, 2, 6, -6, 9, 38, 14, 7, 85, 11, 68, 1, -4, -1, -3, -63, -85, 9, -2, 63, -86, -10], "withholdReward": false, "trial_id": "mdp_trial_28", "block": "test", "trialIndex": 31, "score": -78.8, "costs": -0.7999999999999998, "simulationMode": [null, null, null, null, null], "rewards": [-2, -1, -6, -14, -55], "path": ["0", "0", "1", "2", "3", "4", "5"], "rt": [9647, 400, 340, 434, 674], "actions": ["up", "up", "up", "right", "up"], "actionTimes": [12782, 13685, 14527, 15469, 16660], "queries": {"click": {"state": {"target": ["23", "25", "13", "1"], "time": [4929, 7269, 8697, 10540]}, "edge": {"target": [], "time": []}}, "mouseover": {"state": {"target": ["23", "24", "25", "24", "13", "1"], "time": [4343, 5834, 6508, 7683, 8135, 9834]}, "edge": {"target": [], "time": []}}, "mouseout": {"state": {"target": ["0", "23", "24", "25", "24", "13"], "time": [4309, 5717, 6000, 7668, 7741, 9283]}, "edge": {"target": [], "time": []}}}, "displayed_time": "17.17", "trialTime": 19130, "trial_type": "mouselab-mdp", "trial_index": 42, "time_elapsed": 1899704, "internal_node_id": "0.0-4.0-1.0-27.0"}}, {"uniqueid": "w16572819:a79011625", "current_trial": 43, "dateTime": 1691143909683, "trialdata": {"revealed_states": [], "clicked_states": ["23", "12", "14", "2"], "num_clicks_accrued": [0, 0, 0, 0, 0, 0, 0, 0, 0, 0, 0, 0, 0], "stateRewards": ["", -1, -3, 1, -4, -48, -63, -49, -2, -84, -19, 65, 2, -2, -2, -12, -4, 59, 9, 6, 75, 69, -13, -1, -3, -3, -2, -37, -68, -36, 13, 32, 18, -14], "withholdReward": false, "trial_id": "mdp_trial_29", "block": "test", "trialIndex": 32, "score": -8.8, "costs": -0.7999999999999999, "simulationMode": [null, null, null, null, null], "rewards": [-1, -3, -3, 13, -14], "path": ["0", "0", "23", "24", "25", "30", "33"], "rt": [9170, 383, 341, 676, 1398], "actions": ["left", "left", "left", "down", "left"], "actionTimes": [11410, 12310, 13171, 14368, 16258], "queries": {"click": {"state": {"target": ["23", "12", "14", "2"], "time": [4333, 5704, 7825, 9943]}, "edge": {"target": [], "time": []}}, "mouseover": {"state": {"target": ["23", "12", "13", "14", "13", "2"], "time": [3767, 5092, 6525, 6840, 8944, 9344]}, "edge": {"target": [], "time": []}}, "mouseout": {"state": {"target": ["1", "23", "12", "13", "14", "13"], "time": [1064, 4658, 6425, 6790, 8874, 8977]}, "edge": {"target": [], "time": []}}}, "displayed_time": "16.78", "trialTime": 19087, "trial_type": "mouselab-mdp", "trial_index": 43, "time_elapsed": 1919185, "internal_node_id": "0.0-4.0-1.0-28.0"}}, {"uniqueid": "w16572819:a79011625", "current_trial": 44, "dateTime": 1691143928858, "trialdata": {"revealed_states": [], "clicked_states": ["25", "13", "1"], "num_clicks_accrued": [0, 0, 0, 0, 0, 0, 0, 0, 0, 0, 0, 0, 0], "stateRewards": ["", -2, -4, -6, 12, -58, -70, -80, 2, 16, -88, -62, 1, 2, -5, 11, 77, -35, -44, -5, 18, -83, 87, 1, -3, -5, 13, -44, -21, -86, 10, -52, 8, 29], "withholdReward": false, "trial_id": "mdp_trial_30", "block": "test", "trialIndex": 33, "score": -71.05, "costs": -1.0499999999999998, "simulationMode": [null, null, null, null, null], "rewards": [-2, -4, -6, 12, -70], "path": ["0", "0", "1", "2", "3", "4", "6"], "rt": [6981, 401, 682, 746, 488], "actions": ["up", "up", "up", "right", "right"], "actionTimes": [10665, 11597, 12798, 14041, 15034], "queries": {"click": {"state": {"target": ["25", "13", "1"], "time": [6550, 8249, 9695]}, "edge": {"target": [], "time": []}}, "mouseover": {"state": {"target": ["23", "28", "28", "25", "24", "1", "18", "13", "1"], "time": [4568, 4792, 5216, 5830, 6927, 6960, 7027, 7627, 8797]}, "edge": {"target": [], "time": []}}, "mouseout": {"state": {"target": ["2", "1", "23", "28", "28", "25", "24", "1", "18", "13", "1"], "time": [2512, 2675, 4661, 4859, 5430, 6666, 6943, 6977, 7077, 8367, 9804]}, "edge": {"target": [], "time": []}}}, "displayed_time": "17.69", "trialTime": 18831, "trial_type": "mouselab-mdp", "trial_index": 44, "time_elapsed": 1938359, "internal_node_id": "0.0-4.0-1.0-29.0"}}, {"uniqueid": "w16572819:a79011625", "current_trial": 45, "dateTime": 1691143951105, "trialdata": {"revealed_states": [], "clicked_states": ["2", "25", "13", "15"], "num_clicks_accrued": [0, 0, 0, 0, 0, 0, 0, 0, 0, 0, 0, 0, 0], "stateRewards": ["", 2, 4, -5, 7, 81, 35, 6, 11, 14, -72, 42, -1, 2, 3, -7, -77, -44, -40, -15, -85, 51, -32, -2, -1, -5, 7, -74, 47, 52, 16, -49, 48, -46], "withholdReward": false, "trial_id": "mdp_trial_31", "block": "test", "trialIndex": 34, "score": -44.2, "costs": -3.2, "simulationMode": [null, null, null, null, null], "rewards": [-2, -1, -5, 16, -49], "path": ["0", "0", "23", "24", "25", "30", "31"], "rt": [10791, 182, 583, 20, 1157], "actions": ["left", "left", "left", "down", "right"], "actionTimes": [14794, 15480, 16569, 17084, 18754], "queries": {"click": {"state": {"target": ["2", "25", "13", "15"], "time": [5987, 8046, 9947, 11451]}, "edge": {"target": [], "time": []}}, "mouseover": {"state": {"target": ["1", "2", "10", "28", "24", "25", "24", "23", "12", "13", "15", "18", "12"], "time": [4898, 5332, 6563, 6997, 7062, 7487, 8662, 8696, 8913, 9229, 10546, 12429, 12463]}, "edge": {"target": [], "time": []}}, "mouseout": {"state": {"target": ["1", "0", "0", "1", "2", "10", "28", "24", "25", "24", "23", "12", "13", "15", "18", "12"], "time": [2419, 2683, 4729, 4918, 6397, 6915, 7013, 7079, 8630, 8679, 8730, 9061, 10446, 12398, 12445, 12480]}, "edge": {"target": [], "time": []}}}, "displayed_time": "19.27", "trialTime": 21865, "trial_type": "mouselab-mdp", "trial_index": 45, "time_elapsed": 1960606, "internal_node_id": "0.0-4.0-1.0-30.0"}}, {"uniqueid": "w16572819:a79011625", "current_trial": 46, "dateTime": 1691143971056, "trialdata": {"revealed_states": [], "clicked_states": [], "num_clicks_accrued": [0, 0, 0, 0, 0, 0, 0, 0, 0, 0, 0, 0, 0], "stateRewards": ["", -2, 2, 8, -6, -25, 3, 87, 2, -62, -2, 74, -2, -1, 2, -1, 79, 49, -37, -14, 5, 67, -9, -1, 2, -2, 5, 15, 38, 32, -14, -38, -38, 30], "withholdReward": false, "trial_id": "mdp_trial_32", "block": "test", "trialIndex": 35, "score": 36, "costs": 0, "simulationMode": [null, null, null, null, null], "rewards": [-1, 2, -2, 5, 32], "path": ["0", "0", "23", "24", "25", "26", "29"], "rt": [3904, 432, 229, 813, 193], "actions": ["left", "left", "left", "up", "left"], "actionTimes": [6665, 7596, 8319, 9654, 10368], "queries": {"click": {"state": {"target": [], "time": []}, "edge": {"target": [], "time": []}}, "mouseover": {"state": {"target": ["23"], "time": [4841]}, "edge": {"target": [], "time": []}}, "mouseout": {"state": {"target": ["0"], "time": [1490]}, "edge": {"target": [], "time": []}}}, "displayed_time": "16.76", "trialTime": 19509, "trial_type": "mouselab-mdp", "trial_index": 46, "time_elapsed": 1980557, "internal_node_id": "0.0-4.0-1.0-31.0"}}, {"uniqueid": "w16572819:a79011625", "current_trial": 47, "dateTime": 1691143990266, "trialdata": {"revealed_states": [], "clicked_states": ["1", "2"], "num_clicks_accrued": [0, 0, 0, 0, 0, 0, 0, 0, 0, 0, 0, 0, 0], "stateRewards": ["", 2, 4, 4, 9, -88, -10, 44, 16, -54, 64, 78, 1, 2, 5, 16, 80, 36, 7, -4, 9, -47, -70, -1, -3, 6, -16, 11, 80, 28, 8, -1, 34, -17], "withholdReward": false, "trial_id": "mdp_trial_33", "block": "test", "trialIndex": 36, "score": -7.1, "costs": -0.09999999999999998, "simulationMode": [null, null, null, null, null], "rewards": [-1, -3, 6, 8, -17], "path": ["0", "0", "23", "24", "25", "30", "33"], "rt": [9439, 292, 101, 409, 507], "actions": ["left", "left", "left", "down", "left"], "actionTimes": [12953, 13744, 14357, 15261, 16275], "queries": {"click": {"state": {"target": ["1", "2"], "time": [4942, 6186]}, "edge": {"target": [], "time": []}}, "mouseover": {"state": {"target": ["1", "2", "24", "23", "24", "25"], "time": [4517, 5703, 7606, 8405, 8724, 8756]}, "edge": {"target": [], "time": []}}, "mouseout": {"state": {"target": ["23", "0", "0", "1", "2", "24", "23", "24"], "time": [1236, 2134, 4507, 5701, 6901, 7791, 8703, 8752]}, "edge": {"target": [], "time": []}}}, "displayed_time": "17.51", "trialTime": 18815, "trial_type": "mouselab-mdp", "trial_index": 47, "time_elapsed": 1999767, "internal_node_id": "0.0-4.0-1.0-32.0"}}, {"uniqueid": "w16572819:a79011625", "current_trial": 48, "dateTime": 1691144011195, "trialdata": {"revealed_states": [], "clicked_states": ["2", "13"], "num_clicks_accrued": [0, 0, 0, 0, 0, 0, 0, 0, 0, 0, 0, 0, 0], "stateRewards": ["", -1, 3, 8, 10, -86, 61, -36, 10, 17, -60, 24, -1, -3, 3, 11, 50, 60, 33, -3, -20, 58, -6, 1, -4, -4, 13, -70, -71, 43, 14, 52, 82, -11], "withholdReward": false, "trial_id": "mdp_trial_34", "block": "test", "trialIndex": 37, "score": -65.7, "costs": -0.7, "simulationMode": [null, null, null, null, null], "rewards": [1, -4, -4, 13, -71], "path": ["0", "0", "23", "24", "25", "26", "28"], "rt": [5569, 637, 580, 227, 1029], "actions": ["left", "left", "left", "up", "right"], "actionTimes": [10796, 11930, 13007, 13761, 15289], "queries": {"click": {"state": {"target": ["2", "13"], "time": [7976, 9562]}, "edge": {"target": [], "time": []}}, "mouseover": {"state": {"target": ["1", "1", "1", "2", "13"], "time": [5947, 6429, 6814, 7145, 8709]}, "edge": {"target": [], "time": []}}, "mouseout": {"state": {"target": ["25", "24", "23", "1", "1", "1", "2", "13"], "time": [3793, 4091, 4275, 6009, 6559, 7063, 8396, 10415]}, "edge": {"target": [], "time": []}}}, "displayed_time": "19.23", "trialTime": 20353, "trial_type": "mouselab-mdp", "trial_index": 48, "time_elapsed": 2020696, "internal_node_id": "0.0-4.0-1.0-33.0"}}, {"uniqueid": "w16572819:a79011625", "current_trial": 49, "dateTime": 1691144031637, "trialdata": {"revealed_states": [], "clicked_states": ["12", "23", "25", "19"], "num_clicks_accrued": [0, 0, 0, 0, 0, 0, 0, 0, 0, 0, 0, 0, 0], "stateRewards": ["", -1, 3, 8, 9, -53, 20, -84, 2, -28, -62, -31, -1, -2, -7, 2, 51, 58, 45, -4, -17, -41, 36, 2, -2, -7, -15, 29, -54, -37, -16, -43, 65, -17], "withholdReward": false, "trial_id": "mdp_trial_35", "block": "test", "trialIndex": 38, "score": 35, "costs": -2, "simulationMode": [null, null, null, null, null], "rewards": [-1, -2, -7, 2, 45], "path": ["0", "0", "12", "13", "14", "15", "18"], "rt": [9370, 347, 286, 1141, 965], "actions": ["right", "right", "right", "up", "left"], "actionTimes": [12925, 13765, 14564, 16391, 17850], "queries": {"click": {"state": {"target": ["12", "23", "25", "19"], "time": [5175, 7248, 9417, 11819]}, "edge": {"target": [], "time": []}}, "mouseover": {"state": {"target": ["12", "0", "23", "13", "0", "24", "25", "25", "22", "19"], "time": [4970, 5922, 6033, 8132, 8165, 8231, 8282, 9391, 10471, 10886]}, "edge": {"target": [], "time": []}}, "mouseout": {"state": {"target": ["12", "0", "12", "0", "23", "23", "13", "0", "23", "24", "25", "25", "22", "19"], "time": [2450, 4325, 5293, 5942, 7369, 7798, 8149, 8185, 8215, 8266, 8314, 9999, 10858, 13372]}, "edge": {"target": [], "time": []}}}, "displayed_time": "18.35", "trialTime": 19887, "trial_type": "mouselab-mdp", "trial_index": 49, "time_elapsed": 2041138, "internal_node_id": "0.0-4.0-1.0-34.0"}}, {"uniqueid": "w16572819:a79011625", "current_trial": 50, "dateTime": 1691144051178, "trialdata": {"revealed_states": [], "clicked_states": ["2", "23", "30", "26"], "num_clicks_accrued": [0, 0, 0, 0, 0, 0, 0, 0, 0, 0, 0, 0, 0], "stateRewards": ["", -1, 1, 8, -8, -49, 62, -78, 16, 28, -81, 78, -2, -3, -1, -4, 67, 49, -2, -13, -16, -39, 83, 1, -4, 4, -5, -20, 7, 84, 7, -32, -59, 19], "withholdReward": false, "trial_id": "mdp_trial_36", "block": "test", "trialIndex": 39, "score": -61.2, "costs": -3.2, "simulationMode": [null, null, null, null, null], "rewards": [-2, -3, -1, -13, -39], "path": ["0", "0", "12", "13", "14", "19", "21"], "rt": [9436, 662, 343, 545, 791], "actions": ["right", "right", "right", "down", "down"], "actionTimes": [13001, 14169, 15052, 16103, 17416], "queries": {"click": {"state": {"target": ["2", "23", "30", "26"], "time": [6447, 8491, 10255, 11997]}, "edge": {"target": [], "time": []}}, "mouseover": {"state": {"target": ["1", "2", "23", "24", "30", "25", "26", "26"], "time": [5409, 5824, 7589, 9114, 9341, 10806, 10907, 11373]}, "edge": {"target": [], "time": []}}, "mouseout": {"state": {"target": ["19", "22", "0", "1", "2", "23", "23", "24", "30", "25", "26"], "time": [1430, 1759, 2425, 5558, 7091, 8622, 9077, 9131, 10774, 10840, 11007]}, "edge": {"target": [], "time": []}}}, "displayed_time": "17.91", "trialTime": 19137, "trial_type": "mouselab-mdp", "trial_index": 50, "time_elapsed": 2060680, "internal_node_id": "0.0-4.0-1.0-35.0"}}, {"uniqueid": "w16572819:a79011625", "current_trial": 51, "dateTime": 1691144071754, "trialdata": {"revealed_states": [], "clicked_states": ["1", "10", "3"], "num_clicks_accrued": [0, 0, 0, 0, 0, 0, 0, 0, 0, 0, 0, 0, 0], "stateRewards": ["", 2, -3, 5, -14, -63, -9, -24, -11, -54, -43, 68, 2, -2, -4, 7, -64, 30, 47, 12, -74, 11, 86, 1, -3, 3, 10, -71, -42, -52, -1, -29, -16, 69], "withholdReward": false, "trial_id": "mdp_trial_37", "block": "test", "trialIndex": 40, "score": 91.15, "costs": -2.8499999999999996, "simulationMode": [null, null, null, null, null], "rewards": [2, -2, -4, 12, 86], "path": ["0", "0", "12", "13", "14", "19", "22"], "rt": [9012, 653, 331, 863, 958], "actions": ["right", "right", "right", "down", "left"], "actionTimes": [11443, 12624, 13453, 14834, 16317], "queries": {"click": {"state": {"target": ["1", "10", "3"], "time": [4509, 6041, 9105]}, "edge": {"target": [], "time": []}}, "mouseover": {"state": {"target": ["1", "10", "3", "4", "7"], "time": [3913, 5823, 6783, 9753, 9837]}, "edge": {"target": [], "time": []}}, "mouseout": {"state": {"target": ["26", "1", "10", "3", "4", "7"], "time": [1326, 5814, 6769, 9371, 9786, 9853]}, "edge": {"target": [], "time": []}}}, "displayed_time": "16.82", "trialTime": 20160, "trial_type": "mouselab-mdp", "trial_index": 51, "time_elapsed": 2081255, "internal_node_id": "0.0-4.0-1.0-36.0"}}, {"uniqueid": "w16572819:a79011625", "current_trial": 52, "dateTime": 1691144090801, "trialdata": {"revealed_states": [], "clicked_states": ["1", "24", "32"], "num_clicks_accrued": [0, 0, 0, 0, 0, 0, 0, 0, 0, 0, 0, 0, 0], "stateRewards": ["", -1, -3, 3, 5, 56, 39, 50, -1, -80, 33, -46, 1, -2, -6, -8, 87, 48, 54, -11, -20, -64, -54, -2, 3, -7, -3, 12, 88, 35, -16, -46, -70, -3], "withholdReward": false, "trial_id": "mdp_trial_38", "block": "test", "trialIndex": 41, "score": 69.75, "costs": -2.25, "simulationMode": [null, null, null, null, null, null], "rewards": [1, -2, -6, -8, 87], "path": ["0", "0", "12", "13", "14", "15", "16"], "rt": [6729, 974, 481, 433, 505, 1112], "actions": ["right", "right", "right", "right", "up", "up"], "actionTimes": [10051, 11029, 12024, 12961, 13962, 15573], "queries": {"click": {"state": {"target": ["1", "24", "32"], "time": [5230, 7060, 8982]}, "edge": {"target": [], "time": []}}, "mouseover": {"state": {"target": ["1", "24", "31", "32"], "time": [4176, 6255, 7769, 8379]}, "edge": {"target": [], "time": []}}, "mouseout": {"state": {"target": ["23", "0", "1", "1", "24", "31", "32"], "time": [1494, 1912, 5345, 5722, 7622, 7839, 9099]}, "edge": {"target": [], "time": []}}}, "displayed_time": "17.32", "trialTime": 18644, "trial_type": "mouselab-mdp", "trial_index": 52, "time_elapsed": 2100303, "internal_node_id": "0.0-4.0-1.0-37.0"}}, {"uniqueid": "w16572819:a79011625", "current_trial": 53, "dateTime": 1691144108881, "trialdata": {"revealed_states": [], "clicked_states": ["10", "23", "13"], "num_clicks_accrued": [0, 0, 0, 0, 0, 0, 0, 0, 0, 0, 0, 0, 0], "stateRewards": ["", 2, -3, -5, 5, 11, -9, -33, 6, 67, 6, -30, -1, -2, -6, 13, 55, 13, 72, -14, 75, 21, -66, -2, -4, 6, 15, -1, -35, 60, 2, 51, -73, 12], "withholdReward": false, "trial_id": "mdp_trial_39", "block": "test", "trialIndex": 42, "score": 72.75, "costs": -2.25, "simulationMode": [null, null, null, null, null], "rewards": [-2, -4, 6, 15, 60], "path": ["0", "0", "23", "24", "25", "26", "29"], "rt": [8027, 296, 230, 641, 281], "actions": ["left", "left", "left", "up", "left"], "actionTimes": [10446, 11256, 11996, 13153, 13927], "queries": {"click": {"state": {"target": ["10", "23", "13"], "time": [4153, 7182, 9185]}, "edge": {"target": [], "time": []}}, "mouseover": {"state": {"target": ["10", "23", "0", "12", "13", "12"], "time": [3650, 4859, 7823, 7927, 8664, 9992]}, "edge": {"target": [], "time": []}}, "mouseout": {"state": {"target": ["32", "0", "10", "23", "0", "12", "13", "12"], "time": [1014, 3217, 4610, 7804, 7846, 8545, 9975, 10009]}, "edge": {"target": [], "time": []}}}, "displayed_time": "16.42", "trialTime": 17661, "trial_type": "mouselab-mdp", "trial_index": 53, "time_elapsed": 2118383, "internal_node_id": "0.0-4.0-1.0-38.0"}}, {"uniqueid": "w16572819:a79011625", "current_trial": 54, "dateTime": 1691144137223, "trialdata": {"revealed_states": [], "clicked_states": ["24", "14", "32", "3"], "num_clicks_accrued": [0, 0, 0, 0, 0, 0, 0, 0, 0, 0, 0, 0, 0], "stateRewards": ["", -2, 2, -2, -7, -50, -62, -45, 7, 36, -24, -72, -1, -1, 8, -1, -67, 20, -52, 2, 35, -50, 80, -1, 1, 6, -6, -70, 6, 88, 8, -47, 74, -19], "withholdReward": false, "trial_id": "mdp_trial_40", "block": "test", "trialIndex": 43, "score": -75.4, "costs": -4.3999999999999995, "simulationMode": [null, null, null, null, null], "rewards": [-2, 2, -2, -7, -62], "path": ["0", "0", "1", "2", "3", "4", "6"], "rt": [12982, 265, 302, 225, 1130], "actions": ["up", "up", "up", "right", "right"], "actionTimes": [15989, 16753, 17576, 18295, 19935], "queries": {"click": {"state": {"target": ["24", "14", "32", "3"], "time": [5037, 6923, 9354, 12155]}, "edge": {"target": [], "time": []}}, "mouseover": {"state": {"target": ["23", "24", "24", "23", "0", "12", "13", "14", "22", "32", "2", "3"], "time": [3595, 3987, 4411, 5402, 5469, 5570, 5669, 6002, 7436, 8537, 9819, 10286]}, "edge": {"target": [], "time": []}}, "mouseout": {"state": {"target": ["0", "23", "24", "24", "23", "0", "12", "13", "14", "22", "32", "2"], "time": [2025, 3960, 4003, 5386, 5436, 5502, 5636, 5702, 7370, 7470, 9467, 9838]}, "edge": {"target": [], "time": []}}}, "displayed_time": "20.44", "trialTime": 27931, "trial_type": "mouselab-mdp", "trial_index": 54, "time_elapsed": 2146724, "internal_node_id": "0.0-4.0-1.0-39.0"}}, {"uniqueid": "w16572819:a79011625", "current_trial": 55, "dateTime": 1691144240717, "trialdata": {"rt": 103443, "response": {"Q0": "$-2 to $2", "Q1": "$-16 to $16", "Q2": "$-32 to $32", "Q3": "The cost for clicking on nodes varied between nodes.", "Q4": "Very motivated"}, "question_order": [0, 1, 2, 3, 4], "trial_id": "final_quiz_control", "trial_type": "survey-multi-choice", "trial_index": 55, "time_elapsed": 2250219, "internal_node_id": "0.0-4.0-2.0"}}, {"uniqueid": "w16572819:a79011625", "current_trial": 56, "dateTime": 1691144677330, "trialdata": {"rt": 436126, "response": {"Q0": "The strategy I used included me first checking which path had the best valued nodes by using the node inspector. If I saw fewer amounts of red coloured node in a path, I used that path to move the spider.", "Q1": " I believe I did improve because I could predict with time which path was of better value when  I used the node inspector.", "Q2": "It was not easy because the value of nodes changed with each round so, I could not cram the value of each node to use a path of the highest value in nodes. The time constraint also made it very challenging because I had to think and move simultaneously ."}, "trial_id": "self_report_control", "trial_type": "survey-text", "trial_index": 56, "time_elapsed": 2686833, "internal_node_id": "0.0-4.0-3.0"}}, {"uniqueid": "w16572819:a79011625", "current_trial": 57, "dateTime": 1691144798181, "trialdata": {"rt": 120807, "response": {"Q0": "Neither disagree nor agree", "Q1": "Strongly disagree", "Q2": "Strongly agree", "Q3": "Agree", "Q4": "Disagree", "Q5": "Agree", "Q6": "Disagree"}, "question_order": [0, 1, 2, 3, 4, 5, 6], "trial_id": "self_report_2", "trial_type": "survey-multi-choice", "trial_index": 57, "time_elapsed": 2807684, "internal_node_id": "0.0-4.0-4.0"}}, {"uniqueid": "w16572819:a79011625", "current_trial": 58, "dateTime": 1691144850022, "trialdata": {"rt": 51799, "response": {"gender": "female", "age": "21", "colorblind": "0", "effort": "0"}, "trial_type": "survey-html-form", "trial_index": 58, "time_elapsed": 2859525, "internal_node_id": "0.0-4.0-5.0"}}, {"uniqueid": "w16572819:a79011625", "current_trial": 59, "dateTime": 1691144962369, "trialdata": {"rt": 112339, "response": {"Q0": "No I understood the game and instructions very well.", "Q1": "No, this was the first time I participated in this study.", "Q2": ""}, "trial_type": "survey-text", "trial_index": 59, "time_elapsed": 2971872, "internal_node_id": "0.0-4.0-6.0"}}, {"uniqueid": "w16572819:a79011625", "current_trial": 60, "dateTime": 1691144972094, "trialdata": {"rt": 9692, "stimulus": "Press 'Finish HIT' in order to reach the completion code. Once the data has been saved, you will receive the code either in this window or in the original browser window where you started the experiment.\n", "response": 0, "trial_type": "html-button-response", "trial_index": 60, "time_elapsed": 2981597, "internal_node_id": "0.0-5.0"}}, {"uniqueid": "w16572819:a79011625", "current_trial": 61, "dateTime": 1691144973147, "trialdata": {"success": true, "trial_type": "fullscreen", "trial_index": 61, "time_elapsed": 2982649, "internal_node_id": "0.0-6.0"}}], "questiondata": {"params": {"CODE": "C6DMOQA6", "MIN_TIME": 14, "inspectCost": 1, "startTime": "Fri Aug 04 2023 11:39:46 GMT+0200 (South Africa Standard Time)", "bonusRate": 0.002, "variance": "1_2_4_8_44", "branching": "31123"}, "final_score": 465.85}, "eventdata": [{"eventtype": "initialized", "value": null, "timestamp": 1691141986117, "interval": 0}, {"eventtype": "window_resize", "value": [1024, 650], "timestamp": 1691141986117, "interval": 0}, {"eventtype": "window_resize", "value": [1024, 650], "timestamp": 1691141986572, "interval": 455}, {"eventtype": "window_resize", "value": [1366, 768], "timestamp": 1691142000332, "interval": 13760}, {"eventtype": "focus", "value": "off", "timestamp": 1691142567924, "interval": 567592}, {"eventtype": "focus", "value": "on", "timestamp": 1691142567924, "interval": 0}, {"eventtype": "window_resize", "value": [1024, 650], "timestamp": 1691142568208, "interval": 284}, {"eventtype": "window_resize", "value": [1366, 666], "timestamp": 1691142572013, "interval": 3805}, {"eventtype": "window_resize", "value": [1366, 768], "timestamp": 1691142574158, "interval": 2145}, {"eventtype": "focus", "value": "off", "timestamp": 1691144494784, "interval": 1920626}, {"eventtype": "window_resize", "value": [1366, 767], "timestamp": 1691144495088, "interval": 304}, {"eventtype": "window_resize", "value": [1366, 768], "timestamp": 1691144496335, "interval": 1247}, {"eventtype": "focus", "value": "on", "timestamp": 1691144498443, "interval": 2108}, {"eventtype": "focus", "value": "off", "timestamp": 1691144508323, "interval": 9880}, {"eventtype": "window_resize", "value": [1366, 767], "timestamp": 1691144508538, "interval": 215}, {"eventtype": "focus", "value": "on", "timestamp": 1691144508590, "interval": 52}, {"eventtype": "window_resize", "value": [1366, 768], "timestamp": 1691144508844, "interval": 254}, {"eventtype": "focus", "value": "off", "timestamp": 1691144631269, "interval": 122425}, {"eventtype": "window_resize", "value": [1366, 767], "timestamp": 1691144631489, "interval": 220}, {"eventtype": "focus", "value": "on", "timestamp": 1691144631535, "interval": 46}, {"eventtype": "window_resize", "value": [1366, 768], "timestamp": 1691144631750, "interval": 215}, {"eventtype": "focus", "value": "off", "timestamp": 1691144635396, "interval": 3646}, {"eventtype": "window_resize", "value": [1366, 767], "timestamp": 1691144635638, "interval": 242}, {"eventtype": "focus", "value": "on", "timestamp": 1691144635657, "interval": 19}, {"eventtype": "window_resize", "value": [1366, 768], "timestamp": 1691144635898, "interval": 241}, {"eventtype": "focus", "value": "off", "timestamp": 1691144641111, "interval": 5213}, {"eventtype": "window_resize", "value": [1366, 767], "timestamp": 1691144641342, "interval": 231}, {"eventtype": "focus", "value": "on", "timestamp": 1691144641348, "interval": 6}, {"eventtype": "window_resize", "value": [1366, 768], "timestamp": 1691144641579, "interval": 231}, {"eventtype": "window_resize", "value": [1366, 666], "timestamp": 1691144972937, "interval": 331358}], "useragent": "Mozilla/5.0 (Windows NT 10.0; Win64; x64) AppleWebKit/537.36 (KHTML, like Gecko) Chrome/114.0.0.0 Safari/537.36 Edg/114.0.1823.82", "mode": "live", "id": "w16572819:a79011625", "status": "user data saved", "Beginhit": "2023-08-04 09:39:42.909929", "Beginexp": "2023-08-04 09:40:01.444856", "Endhit": "2023-08-04 10:29:34.621631", "psiturkStatus": 3, "browser": "<redacted>", "platform": "windows", "language": "en-GB"}