{"condition": 0, "counterbalance": 0, "assignmentId": "a11772194", "workerId": "w63227481", "hitId": "h38944728", "currenttrial": 56, "bonus": 0, "data": [{"uniqueid": "w63227481:a11772194", "current_trial": 0, "dateTime": 1693834735806, "trialdata": {"success": true, "trial_type": "fullscreen", "trial_index": 0, "time_elapsed": 7087, "internal_node_id": "0.0-0.0"}}, {"uniqueid": "w63227481:a11772194", "current_trial": 1, "dateTime": 1693834759435, "trialdata": {"view_history": [{"page_index": 0, "viewing_time": 23617}], "rt": 23618, "trial_id": "exp_instructions_misaligned", "trial_type": "instructions", "trial_index": 1, "time_elapsed": 30717, "internal_node_id": "0.0-1.0"}}, {"uniqueid": "w63227481:a11772194", "current_trial": 2, "dateTime": 1693835056187, "trialdata": {"view_history": [{"page_index": 0, "viewing_time": 94567}, {"page_index": 1, "viewing_time": 101798}, {"page_index": 2, "viewing_time": 45504}, {"page_index": 3, "viewing_time": 54881}], "rt": 296751, "trial_id": "mouselab_instructions_1_misaligned", "trial_type": "instructions", "trial_index": 2, "time_elapsed": 327469, "internal_node_id": "0.0-2.0-1.0"}}, {"uniqueid": "w63227481:a11772194", "current_trial": 3, "dateTime": 1693835122957, "trialdata": {"revealed_states": [], "clicked_states": ["23", "1", "12", "13", "2", "8", "4", "7", "28", "30", "26", "29", "24", "22", "19", "14", "21"], "num_clicks_accrued": [0, 0, 0, 0, 0, 0, 0, 0, 0, 0, 0, 0, 0], "stateRewards": ["", 10, 10, 10, -10, 10, 10, 10, -10, -10, 10, -10, -10, -10, 10, 10, 10, 10, 10, -10, -10, -10, 10, -10, -10, 10, -10, -10, -10, -10, -10, -10, 10, -10], "withholdReward": false, "trial_id": "practice_1", "block": "test", "trialIndex": 0, "score": -15, "costs": -8.5, "simulationMode": [null, null, null, null, null], "rewards": [-10, -10, 10, -10, 10], "path": ["0", "0", "12", "13", "14", "19", "22"], "rt": [43792, 520, 1021, 794, 531], "actions": ["right", "right", "right", "down", "left"], "actionTimes": [51080, 52118, 53636, 54945, 55995], "queries": {"click": {"state": {"target": ["23", "1", "12", "13", "2", "8", "4", "7", "28", "30", "26", "29", "24", "22", "19", "14", "21"], "time": [10473, 12708, 13740, 14817, 16599, 18303, 20007, 22141, 24718, 32512, 34437, 36661, 37968, 40878, 41921, 44207, 46904]}, "edge": {"target": [], "time": []}}, "mouseover": {"state": {"target": ["23", "24", "28", "1", "12", "13", "18", "2", "10", "8", "3", "4", "6", "6", "6", "7", "6", "3", "8", "28", "24", "23", "24", "23", "12", "1", "1", "12", "13", "0", "23", "31", "32", "30", "30", "25", "26", "27", "29", "24", "24", "31", "22", "19", "20", "14", "13", "19", "21", "22", "12", "12"], "time": [9984, 11233, 11965, 12269, 13233, 14416, 15332, 16099, 17001, 17898, 18733, 19648, 20433, 21301, 21470, 21755, 22632, 23800, 23847, 24219, 25150, 26251, 27047, 27300, 27381, 27501, 27806, 27989, 29733, 31376, 31391, 31415, 31464, 31683, 32206, 33102, 34048, 34964, 35864, 37331, 37614, 38514, 40246, 41414, 42582, 43613, 44965, 46162, 46381, 47764, 48063, 48314]}, "edge": {"target": [], "time": []}}, "mouseout": {"state": {"target": ["0", "0", "0", "23", "24", "28", "1", "12", "13", "18", "2", "10", "8", "3", "4", "6", "6", "6", "7", "6", "4", "3", "8", "28", "24", "23", "24", "23", "12", "1", "1", "12", "13", "0", "23", "31", "32", "30", "30", "25", "26", "27", "29", "24", "24", "31", "22", "19", "20", "14", "13", "19", "21", "22", "12", "12"], "time": [4145, 5140, 9734, 11203, 11898, 12134, 13183, 13889, 15265, 16033, 16968, 17798, 18452, 19565, 20382, 21236, 21367, 21585, 22270, 23705, 23781, 23831, 23864, 25116, 26005, 26976, 27289, 27314, 27414, 27551, 27832, 29689, 30239, 31387, 31400, 31447, 31623, 31766, 32636, 33951, 34898, 35807, 37282, 37365, 38450, 39867, 41364, 42480, 43574, 44864, 46121, 46212, 47025, 47799, 48082, 64213]}, "edge": {"target": [], "time": []}}}, "displayed_time": "56.50", "trialTime": 65579, "trial_type": "mouselab-mdp", "trial_index": 3, "time_elapsed": 394238, "internal_node_id": "0.0-2.0-2.0-0.0"}}, {"uniqueid": "w63227481:a11772194", "current_trial": 4, "dateTime": 1693835157458, "trialdata": {"revealed_states": [], "clicked_states": ["23", "1", "7", "2", "3", "4", "6"], "num_clicks_accrued": [0, 0, 0, 0, 0, 0, 0, 0, 0, 0, 0, 0, 0], "stateRewards": ["", -10, 10, -10, 10, -10, -10, 10, -10, -10, -10, 10, -10, -10, 10, -10, 10, 10, -10, -10, -10, -10, -10, -10, -10, -10, 10, 10, 10, -10, 10, -10, 10, -10], "withholdReward": false, "trial_id": "practice_2", "block": "test", "trialIndex": 1, "score": 10, "costs": -3.5, "simulationMode": [null, null, null, null, null], "rewards": [-10, 10, -10, 10, 10], "path": ["0", "0", "1", "2", "3", "4", "7"], "rt": [14983, 334, 296, 1421, 175], "actions": ["up", "up", "up", "right", "down"], "actionTimes": [24599, 25454, 26268, 28208, 28879], "queries": {"click": {"state": {"target": ["23", "1", "7", "2", "3", "4", "6"], "time": [11961, 13611, 15237, 16558, 18162, 19533, 21203]}, "edge": {"target": [], "time": []}}, "mouseover": {"state": {"target": ["23", "1", "2", "7", "2", "3", "4", "6", "7", "2"], "time": [11326, 12787, 14620, 14803, 16170, 17486, 19153, 20385, 22705, 22976]}, "edge": {"target": [], "time": []}}, "mouseout": {"state": {"target": ["0", "23", "1", "2", "7", "2", "3", "4", "6", "7", "2", "1", "0"], "time": [3978, 12670, 14319, 14787, 16086, 17286, 19036, 20219, 22572, 22820, 23108, 32268, 32318]}, "edge": {"target": [], "time": []}}}, "displayed_time": "29.37", "trialTime": 34153, "trial_type": "mouselab-mdp", "trial_index": 4, "time_elapsed": 428740, "internal_node_id": "0.0-2.0-2.0-1.0"}}, {"uniqueid": "w63227481:a11772194", "current_trial": 5, "dateTime": 1693835219332, "trialdata": {"view_history": [{"page_index": 0, "viewing_time": 47955}, {"page_index": 1, "viewing_time": 13916}], "rt": 61871, "trial_id": "mouselab_instructions_2_misaligned", "trial_type": "instructions", "trial_index": 5, "time_elapsed": 490614, "internal_node_id": "0.0-2.0-3.0"}}, {"uniqueid": "w63227481:a11772194", "current_trial": 6, "dateTime": 1693835287513, "trialdata": {"rt": 68175, "response": {"Q0": "The cost for clicking on nodes may vary between nodes.", "Q1": "The better I perform the higher my bonus will be.", "Q2": "No, the amount of cash at each node of the web may be different each time.", "Q3": "To get the highest total score.", "Q4": "Only before moving the spider.", "Q5": "3 seconds"}, "question_order": [0, 1, 2, 3, 4, 5], "correct": {"Q0": "The cost for clicking on nodes may vary between nodes.", "Q1": "The better I perform the higher my bonus will be.", "Q2": "No, the amount of cash at each node of the web may be different each time.", "Q3": "To get the highest total score.", "Q4": "Only before moving the spider.", "Q5": "3 seconds"}, "trial_id": "mouselab_quiz_misaligned", "trial_type": "survey-multi-choice", "trial_index": 6, "time_elapsed": 558795, "internal_node_id": "0.0-2.0-4.0"}}, {"uniqueid": "w63227481:a11772194", "current_trial": 7, "dateTime": 1693835301282, "trialdata": {"rt": 13761, "response": {"Q0": "No"}, "question_order": [0], "trial_id": "repeat_check", "trial_type": "survey-multi-choice", "trial_index": 7, "time_elapsed": 572564, "internal_node_id": "0.0-4.0-0.0"}}, {"uniqueid": "w63227481:a11772194", "current_trial": 8, "dateTime": 1693835324759, "trialdata": {"rt": 23467, "stimulus": "\n<h1> Get ready to start the game! </h1>\n\nThank you for reading the instructions. Get ready start with the 40 rounds of this game.\n<br><br>\nIf you need to take a break, feel free to take one after the end of a round, before continuing to the next one.\n<br><br>\nRemember, the more money the spider gets, the bigger your bonus will be!\n<br><br>\n<div style='text-align: center;'>Press <code>space</code> to begin.</div>\n\n<br><br>\n(If, at any point, the <code>space</code> key does not take you to the next page, click once on the text and try again.)", "response": " ", "trial_id": "mdp_ready", "trial_type": "html-keyboard-response", "trial_index": 8, "time_elapsed": 596040, "internal_node_id": "0.0-6.0-0.0"}}, {"uniqueid": "w63227481:a11772194", "current_trial": 9, "dateTime": 1693835379680, "trialdata": {"revealed_states": [], "clicked_states": ["23", "24", "25", "28", "26", "1", "2", "4", "6", "3", "12", "13", "14", "19", "20", "21"], "num_clicks_accrued": [0, 0, 0, 0, 0, 0, 0, 0, 0, 0, 0, 0, 0], "stateRewards": ["", -1, 4, -6, -5, -22, -38, -38, -2, -56, 88, 14, -1, -1, -7, -6, 61, -60, 21, 11, 57, 31, -30, -2, -2, 6, -9, -44, -70, -44, -15, 34, 16, -78], "withholdReward": false, "trial_id": "mdp_trial_1", "block": "test", "trialIndex": 2, "score": 42.6, "costs": -16.4, "simulationMode": [null, null, null, null, null, null], "rewards": [-1, -1, -7, 11, 57], "path": ["0", "0", "12", "13", "14", "19", "20"], "rt": [28035, 1997, 219, 122, 627, 288], "actions": ["right", "right", "right", "right", "down", "right"], "actionTimes": [40798, 42800, 43542, 44162, 45284, 46092], "queries": {"click": {"state": {"target": ["23", "24", "25", "28", "26", "1", "2", "4", "6", "3", "12", "13", "14", "19", "20", "21"], "time": [15125, 16482, 17433, 18632, 22450, 23607, 24758, 25892, 26910, 30079, 31779, 32640, 33804, 34781, 35631, 38630]}, "edge": {"target": [], "time": []}}, "mouseover": {"state": {"target": ["23", "24", "25", "28", "26", "27", "26", "1", "2", "4", "6", "3", "3", "12", "13", "14", "14", "19", "20", "21", "22", "12", "13", "12"], "time": [14539, 16038, 16978, 18207, 19122, 20973, 22020, 23305, 24272, 25388, 26610, 27404, 28937, 31441, 32288, 33104, 33488, 34406, 35271, 36325, 39304, 39371, 39571, 39721]}, "edge": {"target": [], "time": []}}, "mouseout": {"state": {"target": ["5", "4", "0", "23", "24", "25", "28", "26", "27", "26", "26", "28", "1", "2", "4", "6", "3", "3", "12", "13", "14", "14", "19", "20", "21", "22", "12", "13", "12", "0"], "time": [5421, 5460, 6012, 15263, 16964, 17905, 19072, 20922, 21978, 22577, 22874, 22972, 24157, 25305, 26539, 27354, 27455, 30722, 32238, 33089, 33154, 34338, 35187, 36254, 39222, 39321, 39470, 39654, 41841, 49411]}, "edge": {"target": [], "time": []}}}, "displayed_time": "46.60", "trialTime": 54542, "trial_type": "mouselab-mdp", "trial_index": 9, "time_elapsed": 650961, "internal_node_id": "0.0-6.0-1.0-0.0"}}, {"uniqueid": "w63227481:a11772194", "current_trial": 10, "dateTime": 1693835404751, "trialdata": {"revealed_states": [], "clicked_states": ["1", "2", "3", "4", "7", "5"], "num_clicks_accrued": [0, 0, 0, 0, 0, 0, 0, 0, 0, 0, 0, 0, 0], "stateRewards": ["", 1, -4, 6, -3, 40, 76, -51, 5, -24, -63, 44, -2, -2, 8, 1, 76, -85, -58, 10, 59, 20, 11, -2, 3, -3, 3, -82, -10, 54, -7, -57, -6, -32], "withholdReward": false, "trial_id": "mdp_trial_2", "block": "test", "trialIndex": 3, "score": 33.1, "costs": -6.9, "simulationMode": [null, null, null, null, null], "rewards": [1, -4, 6, -3, 40], "path": ["0", "0", "1", "2", "3", "4", "5"], "rt": [15263, 7, 17, 613, 97], "actions": ["up", "up", "up", "right", "up"], "actionTimes": [17374, 17879, 18420, 19565, 20166], "queries": {"click": {"state": {"target": ["1", "2", "3", "4", "7", "5"], "time": [4941, 6229, 7078, 8012, 8860, 12275]}, "edge": {"target": [], "time": []}}, "mouseover": {"state": {"target": ["23", "23", "2", "1", "1", "2", "2", "3", "4", "7", "6", "5", "9", "8", "9", "3"], "time": [3242, 3610, 3667, 4118, 4574, 5418, 5901, 6654, 7585, 8469, 9335, 11035, 12984, 13151, 13752, 16284]}, "edge": {"target": [], "time": []}}, "mouseout": {"state": {"target": ["12", "23", "23", "2", "1", "1", "2", "2", "3", "4", "7", "6", "5", "9", "8", "9", "3", "7", "15"], "time": [1090, 3268, 3635, 4084, 4234, 5368, 5568, 6619, 7505, 8435, 9285, 11021, 12901, 13102, 13172, 16158, 16350, 21954, 22019]}, "edge": {"target": [], "time": []}}}, "displayed_time": "20.69", "trialTime": 24695, "trial_type": "mouselab-mdp", "trial_index": 10, "time_elapsed": 676031, "internal_node_id": "0.0-6.0-1.0-1.0"}}, {"uniqueid": "w63227481:a11772194", "current_trial": 11, "dateTime": 1693835445625, "trialdata": {"revealed_states": [], "clicked_states": ["32", "30", "25", "24", "26", "27", "9", "11", "8", "10"], "num_clicks_accrued": [0, 0, 0, 0, 0, 0, 0, 0, 0, 0, 0, 0, 0], "stateRewards": ["", 1, 2, -3, -6, 50, -7, 7, -7, -80, 21, -1, 2, 2, 4, -1, 33, 84, 1, 14, -53, 81, 6, -2, -2, -3, -9, -87, -38, -59, -5, -74, -3, -71], "withholdReward": false, "trial_id": "mdp_trial_3", "block": "test", "trialIndex": 4, "score": -2.6999999999999993, "costs": -16.7, "simulationMode": [null, null, null, null, null], "rewards": [1, 2, -3, -7, 21], "path": ["0", "0", "1", "2", "3", "8", "10"], "rt": [27532, 568, 1926, 467, 45], "actions": ["up", "up", "up", "left", "down"], "actionTimes": [31405, 32482, 34905, 35865, 36425], "queries": {"click": {"state": {"target": ["32", "30", "25", "24", "26", "27", "9", "11", "8", "10"], "time": [5136, 8385, 9434, 10240, 12701, 14273, 17629, 20937, 24272, 26952]}, "edge": {"target": [], "time": []}}, "mouseover": {"state": {"target": ["23", "32", "30", "25", "24", "26", "26", "26", "27", "27", "28", "2", "3", "9", "11", "10", "10", "8", "3", "6", "6", "4", "10", "2", "7", "6"], "time": [4321, 4698, 5680, 9113, 9912, 11062, 11412, 12081, 13249, 13991, 14897, 15729, 15814, 16129, 18246, 21579, 22063, 22366, 24797, 24895, 25046, 25945, 26283, 27779, 27862, 28145]}, "edge": {"target": [], "time": []}}, "mouseout": {"state": {"target": ["20", "0", "23", "32", "30", "25", "24", "26", "26", "26", "27", "27", "27", "28", "2", "3", "9", "11", "10", "10", "8", "3", "6", "6", "4", "10", "2", "7", "6", "17", "15"], "time": [2685, 3356, 4333, 5272, 8863, 9863, 10996, 11112, 11512, 13196, 13296, 14403, 14883, 14979, 15796, 15864, 18163, 21530, 21629, 22313, 24779, 24813, 24946, 25930, 25978, 27745, 27830, 27912, 38096, 40175, 40244]}, "edge": {"target": [], "time": []}}}, "displayed_time": "36.96", "trialTime": 40516, "trial_type": "mouselab-mdp", "trial_index": 11, "time_elapsed": 716905, "internal_node_id": "0.0-6.0-1.0-2.0"}}, {"uniqueid": "w63227481:a11772194", "current_trial": 12, "dateTime": 1693835470265, "trialdata": {"revealed_states": [], "clicked_states": ["13", "14", "20", "22"], "num_clicks_accrued": [0, 0, 0, 0, 0, 0, 0, 0, 0, 0, 0, 0, 0], "stateRewards": ["", 1, -4, -4, 8, 1, -79, 68, -10, -79, 8, -74, -1, -3, -6, 14, 43, 23, 9, 5, -51, 63, 61, -2, 4, 6, -10, 69, -32, 57, 15, -80, -80, -77], "withholdReward": false, "trial_id": "mdp_trial_4", "block": "test", "trialIndex": 5, "score": 50.4, "costs": -5.6, "simulationMode": [null, null, null, null, null], "rewards": [-1, -3, -6, 5, 61], "path": ["0", "0", "12", "13", "14", "19", "22"], "rt": [13868, 481, 322, 200, 966], "actions": ["right", "right", "right", "down", "left"], "actionTimes": [15790, 16780, 17620, 18332, 19800], "queries": {"click": {"state": {"target": ["13", "14", "20", "22"], "time": [4579, 6123, 7608, 11787]}, "edge": {"target": [], "time": []}}, "mouseover": {"state": {"target": ["12", "13", "12", "13", "14", "19", "20", "19", "22"], "time": [3068, 3480, 3863, 4264, 5147, 6847, 7197, 8164, 11430]}, "edge": {"target": [], "time": []}}, "mouseout": {"state": {"target": ["12", "13", "12", "13", "14", "19", "20", "19", "22"], "time": [3453, 3787, 4084, 5097, 6781, 7047, 8130, 11248, 21702]}, "edge": {"target": [], "time": []}}}, "displayed_time": "20.31", "trialTime": 24276, "trial_type": "mouselab-mdp", "trial_index": 12, "time_elapsed": 741545, "internal_node_id": "0.0-6.0-1.0-3.0"}}, {"uniqueid": "w63227481:a11772194", "current_trial": 13, "dateTime": 1693835493796, "trialdata": {"revealed_states": [], "clicked_states": ["6"], "num_clicks_accrued": [0, 0, 0, 0, 0, 0, 0, 0, 0, 0, 0, 0, 0], "stateRewards": ["", -2, 1, -7, 9, 8, 25, 61, -7, -17, 69, -81, 1, 4, -4, -11, 16, 67, 44, 3, 6, -45, -54, -2, 3, 6, -11, -15, 32, -47, 3, -39, -6, -88], "withholdReward": false, "trial_id": "mdp_trial_5", "block": "test", "trialIndex": 6, "score": 23.85, "costs": -2.15, "simulationMode": [null, null, null, null, null], "rewards": [-2, 1, -7, 9, 25], "path": ["0", "0", "1", "2", "3", "4", "6"], "rt": [14744, 358, 144, 114, 450], "actions": ["up", "up", "up", "right", "right"], "actionTimes": [16098, 16963, 17616, 18235, 19187], "queries": {"click": {"state": {"target": ["6"], "time": [4073]}, "edge": {"target": [], "time": []}}, "mouseover": {"state": {"target": ["1", "2", "7", "6", "18", "14", "17", "17", "16", "6"], "time": [2322, 2419, 2785, 3639, 8392, 8484, 8785, 9290, 9619, 14052]}, "edge": {"target": [], "time": []}}, "mouseout": {"state": {"target": ["0", "1", "2", "7", "6", "18", "14", "17", "17", "16", "6", "6", "16", "18"], "time": [707, 2370, 2738, 3005, 6837, 8417, 8719, 8952, 9524, 13905, 20736, 20835, 20968, 21242]}, "edge": {"target": [], "time": []}}}, "displayed_time": "19.69", "trialTime": 23165, "trial_type": "mouselab-mdp", "trial_index": 13, "time_elapsed": 765076, "internal_node_id": "0.0-6.0-1.0-4.0"}}, {"uniqueid": "w63227481:a11772194", "current_trial": 14, "dateTime": 1693835522931, "trialdata": {"revealed_states": [], "clicked_states": ["14", "20", "22", "17", "16"], "num_clicks_accrued": [0, 0, 0, 0, 0, 0, 0, 0, 0, 0, 0, 0, 0], "stateRewards": ["", 1, -1, 8, -3, 38, 85, -20, -4, 8, 23, 73, 2, -4, 6, -13, 44, 7, -28, -11, -77, 45, -69, 1, -1, -7, -11, 75, -51, -87, 7, 36, -53, -26], "withholdReward": false, "trial_id": "mdp_trial_6", "block": "test", "trialIndex": 7, "score": 25.45, "costs": -9.55, "simulationMode": [null, null, null, null, null], "rewards": [2, -4, 6, -13, 44], "path": ["0", "0", "12", "13", "14", "15", "16"], "rt": [20403, 282, 200, 861, 104], "actions": ["right", "right", "right", "up", "up"], "actionTimes": [22199, 22979, 23678, 25040, 25648], "queries": {"click": {"state": {"target": ["14", "20", "22", "17", "16"], "time": [3884, 5703, 9649, 14304, 18217]}, "edge": {"target": [], "time": []}}, "mouseover": {"state": {"target": ["12", "14", "19", "20", "19", "21", "22", "13", "15", "17", "16"], "time": [2911, 3494, 4678, 5393, 6616, 7645, 9260, 13062, 13360, 13937, 15694]}, "edge": {"target": [], "time": []}}, "mouseout": {"state": {"target": ["12", "0", "12", "14", "19", "20", "19", "21", "22", "13", "15", "17", "16", "18"], "time": [952, 2678, 2945, 4578, 5330, 6578, 6695, 9183, 11795, 13332, 13376, 15476, 20727, 28375]}, "edge": {"target": [], "time": []}}}, "displayed_time": "26.16", "trialTime": 28778, "trial_type": "mouselab-mdp", "trial_index": 14, "time_elapsed": 794211, "internal_node_id": "0.0-6.0-1.0-5.0"}}, {"uniqueid": "w63227481:a11772194", "current_trial": 15, "dateTime": 1693835545391, "trialdata": {"revealed_states": [], "clicked_states": ["32", "33"], "num_clicks_accrued": [0, 0, 0, 0, 0, 0, 0, 0, 0, 0, 0, 0, 0], "stateRewards": ["", 1, -1, 4, -2, -75, -75, 84, -9, -60, -79, 59, 2, -4, 8, 9, -17, -82, 80, 14, -4, 49, 49, -1, 3, 6, -11, -33, 34, 55, 9, -57, 5, 59], "withholdReward": false, "trial_id": "mdp_trial_7", "block": "test", "trialIndex": 8, "score": 71.7, "costs": -4.3, "simulationMode": [null, null, null, null, null], "rewards": [-1, 3, 6, 9, 59], "path": ["0", "0", "23", "24", "25", "30", "33"], "rt": [9298, 36, 69, 11, 435], "actions": ["left", "left", "left", "down", "left"], "actionTimes": [10855, 11391, 11974, 12484, 13457], "queries": {"click": {"state": {"target": ["32", "33"], "time": [3126, 6588]}, "edge": {"target": [], "time": []}}, "mouseover": {"state": {"target": ["23", "24", "25", "30", "32", "33", "25", "28", "24", "31"], "time": [2196, 2220, 2255, 2436, 2537, 4540, 7337, 7737, 9104, 9386]}, "edge": {"target": [], "time": []}}, "mouseout": {"state": {"target": ["18", "23", "24", "25", "30", "32", "33", "25", "28", "24", "31", "0", "0", "23", "24", "25", "30", "33", "33", "30", "31"], "time": [545, 2206, 2238, 2375, 2487, 4220, 7204, 7353, 9071, 9220, 16206, 17588, 18091, 18403, 18704, 19004, 19504, 19602, 19720, 19737, 19785]}, "edge": {"target": [], "time": []}}}, "displayed_time": "15.56", "trialTime": 22080, "trial_type": "mouselab-mdp", "trial_index": 15, "time_elapsed": 816671, "internal_node_id": "0.0-6.0-1.0-6.0"}}, {"uniqueid": "w63227481:a11772194", "current_trial": 16, "dateTime": 1693835565652, "trialdata": {"revealed_states": [], "clicked_states": [], "num_clicks_accrued": [0, 0, 0, 0, 0, 0, 0, 0, 0, 0, 0, 0, 0], "stateRewards": ["", 1, 4, 5, -5, 58, -80, 75, 6, 25, -39, 46, 2, -2, 4, 2, 59, 31, -22, -12, -61, 15, 72, 1, -2, -7, 8, 77, 76, -23, -7, 71, -15, -3], "withholdReward": false, "trial_id": "mdp_trial_8", "block": "test", "trialIndex": 9, "score": 76, "costs": 0, "simulationMode": [null, null, null, null, null], "rewards": [1, -2, -7, 8, 76], "path": ["0", "0", "23", "24", "25", "26", "28"], "rt": [11228, 375, 500, 114, 769], "actions": ["left", "left", "left", "up", "right"], "actionTimes": [13151, 14046, 15038, 15668, 16957], "queries": {"click": {"state": {"target": [], "time": []}, "edge": {"target": [], "time": []}}, "mouseover": {"state": {"target": ["26", "29", "26", "23", "28", "26", "29", "29"], "time": [3037, 3353, 5153, 5218, 6438, 6454, 6485, 6823]}, "edge": {"target": [], "time": []}}, "mouseout": {"state": {"target": ["0", "26", "29", "26", "23", "28", "26", "29", "29", "33", "32"], "time": [1036, 3238, 5142, 5169, 5235, 6452, 6468, 6502, 8320, 19019, 19135]}, "edge": {"target": [], "time": []}}}, "displayed_time": "17.47", "trialTime": 19863, "trial_type": "mouselab-mdp", "trial_index": 16, "time_elapsed": 836934, "internal_node_id": "0.0-6.0-1.0-7.0"}}, {"uniqueid": "w63227481:a11772194", "current_trial": 17, "dateTime": 1693835588358, "trialdata": {"revealed_states": [], "clicked_states": [], "num_clicks_accrued": [0, 0, 0, 0, 0, 0, 0, 0, 0, 0, 0, 0, 0], "stateRewards": ["", 1, -4, -6, -1, -21, 17, -72, 10, 77, 67, -46, -1, 4, -2, 14, -66, -49, -45, -15, -52, 23, -67, 2, -2, -2, 15, -3, 45, -64, 5, -44, 83, 61], "withholdReward": false, "trial_id": "mdp_trial_9", "block": "test", "trialIndex": 10, "score": 58, "costs": 0, "simulationMode": [null, null, null, null, null], "rewards": [2, -2, -2, 15, 45], "path": ["0", "0", "23", "24", "25", "26", "28"], "rt": [1796, 912, 3763, 1350, 1245], "actions": ["left", "left", "left", "up", "right"], "actionTimes": [5837, 7258, 11526, 13398, 15141], "queries": {"click": {"state": {"target": [], "time": []}, "edge": {"target": [], "time": []}}, "mouseover": {"state": {"target": ["23"], "time": [5077]}, "edge": {"target": [], "time": []}}, "mouseout": {"state": {"target": ["0", "23"], "time": [5012, 5093]}, "edge": {"target": [], "time": []}}}, "displayed_time": "18.04", "trialTime": 22325, "trial_type": "mouselab-mdp", "trial_index": 17, "time_elapsed": 859640, "internal_node_id": "0.0-6.0-1.0-8.0"}}, {"uniqueid": "w63227481:a11772194", "current_trial": 18, "dateTime": 1693835610619, "trialdata": {"revealed_states": [], "clicked_states": [], "num_clicks_accrued": [0, 0, 0, 0, 0, 0, 0, 0, 0, 0, 0, 0, 0], "stateRewards": ["", 1, 2, -3, 6, -88, 74, -45, 7, -46, 40, -77, 1, -4, 4, 3, 22, -25, -59, 8, -83, 19, -60, -1, -1, -1, -8, 26, -29, 64, -7, -88, -51, -55], "withholdReward": false, "trial_id": "mdp_trial_10", "block": "test", "trialIndex": 11, "score": -51, "costs": 0, "simulationMode": [null, null, null, null, null], "rewards": [1, -4, 4, 8, -60], "path": ["0", "0", "12", "13", "14", "19", "22"], "rt": [7447, 181, 147, 132, 390], "actions": ["right", "right", "right", "down", "left"], "actionTimes": [13813, 14499, 15146, 15800, 16692], "queries": {"click": {"state": {"target": [], "time": []}, "edge": {"target": [], "time": []}}, "mouseover": {"state": {"target": ["28", "25"], "time": [7485, 8338]}, "edge": {"target": [], "time": []}}, "mouseout": {"state": {"target": ["0", "28", "25", "33", "30", "31"], "time": [5635, 7515, 18147, 19631, 19697, 19763]}, "edge": {"target": [], "time": []}}}, "displayed_time": "20.36", "trialTime": 21874, "trial_type": "mouselab-mdp", "trial_index": 18, "time_elapsed": 881900, "internal_node_id": "0.0-6.0-1.0-9.0"}}, {"uniqueid": "w63227481:a11772194", "current_trial": 19, "dateTime": 1693835630672, "trialdata": {"revealed_states": [], "clicked_states": [], "num_clicks_accrued": [0, 0, 0, 0, 0, 0, 0, 0, 0, 0, 0, 0, 0], "stateRewards": ["", 1, -3, -1, 9, -34, -40, 22, -7, 45, 53, -11, 2, 4, 5, 15, 21, 37, -49, -3, 80, -28, -34, 1, -3, 1, 1, -40, -6, -5, -16, -85, -86, 59], "withholdReward": false, "trial_id": "mdp_trial_11", "block": "test", "trialIndex": 12, "score": -102, "costs": 0, "simulationMode": [null, null, null, null, null], "rewards": [1, -3, 1, -16, -85], "path": ["0", "0", "23", "24", "25", "30", "31"], "rt": [1613, 1452, 309, 507, 368], "actions": ["left", "left", "left", "down", "right"], "actionTimes": [3787, 5755, 6565, 7595, 8456], "queries": {"click": {"state": {"target": [], "time": []}, "edge": {"target": [], "time": []}}, "mouseover": {"state": {"target": [], "time": []}, "edge": {"target": [], "time": []}}, "mouseout": {"state": {"target": ["0", "0"], "time": [1089, 9387]}, "edge": {"target": [], "time": []}}}, "displayed_time": "16.18", "trialTime": 19616, "trial_type": "mouselab-mdp", "trial_index": 19, "time_elapsed": 901952, "internal_node_id": "0.0-6.0-1.0-10.0"}}, {"uniqueid": "w63227481:a11772194", "current_trial": 20, "dateTime": 1693835673790, "trialdata": {"revealed_states": [], "clicked_states": ["11", "9", "6", "5", "16", "17", "20", "21", "22"], "num_clicks_accrued": [0, 0, 0, 0, 0, 0, 0, 0, 0, 0, 0, 0, 0], "stateRewards": ["", -1, 3, 2, 9, 41, 4, -46, -12, -54, -87, -25, 2, 3, -1, 11, -77, 12, -33, -9, -32, 35, 72, 1, 3, -7, 4, 37, 65, -73, 6, 77, -43, 8], "withholdReward": false, "trial_id": "mdp_trial_12", "block": "test", "trialIndex": 13, "score": 47.650000000000006, "costs": -19.349999999999998, "simulationMode": [null, null, null, null, null], "rewards": [2, 3, -1, -9, 72], "path": ["0", "0", "12", "13", "14", "19", "22"], "rt": [34218, 232, 330, 60, 1079], "actions": ["right", "right", "right", "down", "left"], "actionTimes": [36058, 36786, 37618, 38198, 39799], "queries": {"click": {"state": {"target": ["11", "9", "6", "5", "16", "17", "20", "21", "22"], "time": [3641, 7003, 10441, 13852, 17624, 21494, 24946, 28306, 31940]}, "edge": {"target": [], "time": []}}, "mouseover": {"state": {"target": ["28", "10", "11", "2", "4", "5", "9", "6", "6", "5", "16", "17", "20", "21", "22"], "time": [2471, 2905, 3275, 4640, 4740, 5070, 5204, 7537, 7837, 12387, 14721, 21053, 23903, 27369, 29168]}, "edge": {"target": [], "time": []}}, "mouseout": {"state": {"target": ["0", "28", "10", "11", "2", "4", "5", "9", "6", "6", "5", "6", "16", "17", "20", "20", "21", "22"], "time": [2358, 2688, 2971, 4554, 4688, 4773, 5087, 7438, 7571, 11953, 14338, 14470, 20818, 23669, 25080, 27302, 29051, 41752]}, "edge": {"target": [], "time": []}}}, "displayed_time": "40.30", "trialTime": 42723, "trial_type": "mouselab-mdp", "trial_index": 20, "time_elapsed": 945071, "internal_node_id": "0.0-6.0-1.0-11.0"}}, {"uniqueid": "w63227481:a11772194", "current_trial": 21, "dateTime": 1693835692791, "trialdata": {"revealed_states": [], "clicked_states": ["28", "10"], "num_clicks_accrued": [0, 0, 0, 0, 0, 0, 0, 0, 0, 0, 0, 0, 0], "stateRewards": ["", -2, -3, 7, -13, 60, 9, 37, -6, 37, 20, 1, 2, -2, -8, 6, -80, -31, -10, -7, 70, -65, -44, -1, 1, 7, 6, -11, 73, -85, 16, -21, 47, 34], "withholdReward": false, "trial_id": "mdp_trial_13", "block": "test", "trialIndex": 14, "score": 81.7, "costs": -4.3, "simulationMode": [null, null, null, null, null], "rewards": [-1, 1, 7, 6, 73], "path": ["0", "0", "23", "24", "25", "26", "28"], "rt": [8541, 217, 254, 889, 410], "actions": ["left", "left", "left", "up", "right"], "actionTimes": [10555, 11293, 12064, 13466, 14386], "queries": {"click": {"state": {"target": ["28", "10"], "time": [3268, 7109]}, "edge": {"target": [], "time": []}}, "mouseover": {"state": {"target": ["28", "10"], "time": [2773, 5789]}, "edge": {"target": [], "time": []}}, "mouseout": {"state": {"target": ["0", "28", "10", "1", "0"], "time": [1038, 5372, 8022, 17587, 17655]}, "edge": {"target": [], "time": []}}}, "displayed_time": "16.01", "trialTime": 18530, "trial_type": "mouselab-mdp", "trial_index": 21, "time_elapsed": 964072, "internal_node_id": "0.0-6.0-1.0-12.0"}}, {"uniqueid": "w63227481:a11772194", "current_trial": 22, "dateTime": 1693835716696, "trialdata": {"revealed_states": [], "clicked_states": ["29", "31", "32", "33"], "num_clicks_accrued": [0, 0, 0, 0, 0, 0, 0, 0, 0, 0, 0, 0, 0], "stateRewards": ["", 1, -1, 1, -14, -10, 67, -28, -11, 72, 40, -65, -1, 1, 1, -2, 8, -55, 34, -10, 61, 33, -15, 2, -4, 7, 4, -75, 63, -21, -16, 61, 19, 21], "withholdReward": false, "trial_id": "mdp_trial_14", "block": "test", "trialIndex": 15, "score": 41.4, "costs": -8.6, "simulationMode": [null, null, null, null, null], "rewards": [2, -4, 7, -16, 61], "path": ["0", "0", "23", "24", "25", "30", "31"], "rt": [14558, 691, 337, 232, 556], "actions": ["left", "left", "left", "down", "right"], "actionTimes": [16192, 17396, 18241, 18970, 20043], "queries": {"click": {"state": {"target": ["29", "31", "32", "33"], "time": [2767, 6208, 9510, 12904]}, "edge": {"target": [], "time": []}}, "mouseover": {"state": {"target": ["26", "29", "25", "31", "31", "30", "32", "33"], "time": [2069, 2419, 3421, 3470, 3837, 7020, 7386, 10103]}, "edge": {"target": [], "time": []}}, "mouseout": {"state": {"target": ["0", "26", "29", "25", "31", "31", "30", "32", "33", "33"], "time": [1981, 2195, 3387, 3453, 3504, 6953, 7039, 9970, 14987, 22654]}, "edge": {"target": [], "time": []}}}, "displayed_time": "20.54", "trialTime": 23499, "trial_type": "mouselab-mdp", "trial_index": 22, "time_elapsed": 987977, "internal_node_id": "0.0-6.0-1.0-13.0"}}, {"uniqueid": "w63227481:a11772194", "current_trial": 23, "dateTime": 1693835746648, "trialdata": {"revealed_states": [], "clicked_states": ["10", "11", "9", "5", "6", "7"], "num_clicks_accrued": [0, 0, 0, 0, 0, 0, 0, 0, 0, 0, 0, 0, 0], "stateRewards": ["", 2, -4, -8, -15, 71, -43, -41, 7, -17, 20, 67, -1, -1, -4, 6, 37, -24, -47, 9, 34, 57, 45, 1, 2, -4, -5, -23, 88, -5, 13, -40, 43, 44], "withholdReward": false, "trial_id": "mdp_trial_15", "block": "test", "trialIndex": 16, "score": 33.1, "costs": -12.9, "simulationMode": [null, null, null, null, null], "rewards": [2, -4, -8, -15, 71], "path": ["0", "0", "1", "2", "3", "4", "5"], "rt": [21196, 490, 339, 860, 150], "actions": ["up", "up", "up", "right", "up"], "actionTimes": [22799, 23796, 24645, 26019, 26688], "queries": {"click": {"state": {"target": ["10", "11", "9", "5", "6", "7"], "time": [2927, 6277, 9675, 13140, 16131, 19406]}, "edge": {"target": [], "time": []}}, "mouseover": {"state": {"target": ["10", "11", "9", "5", "6", "7"], "time": [2204, 3742, 6788, 10354, 13621, 17620]}, "edge": {"target": [], "time": []}}, "mouseout": {"state": {"target": ["0", "10", "11", "9", "5", "6", "7", "0"], "time": [2127, 3641, 6706, 9971, 13571, 16825, 21571, 28256]}, "edge": {"target": [], "time": []}}}, "displayed_time": "27.19", "trialTime": 29573, "trial_type": "mouselab-mdp", "trial_index": 23, "time_elapsed": 1017929, "internal_node_id": "0.0-6.0-1.0-14.0"}}, {"uniqueid": "w63227481:a11772194", "current_trial": 24, "dateTime": 1693835766641, "trialdata": {"revealed_states": [], "clicked_states": ["17", "16", "18"], "num_clicks_accrued": [0, 0, 0, 0, 0, 0, 0, 0, 0, 0, 0, 0, 0], "stateRewards": ["", -2, 1, -7, -8, -37, -76, -87, 11, 30, -63, 80, -1, 4, 2, -1, 42, 17, 52, -3, -75, -80, -68, 2, -3, -5, -15, -48, 82, 24, -7, 5, -22, -71], "withholdReward": false, "trial_id": "mdp_trial_16", "block": "test", "trialIndex": 17, "score": 49.55, "costs": -6.449999999999999, "simulationMode": [null, null, null, null, null], "rewards": [-1, 4, 2, -1, 52], "path": ["0", "0", "12", "13", "14", "15", "18"], "rt": [11848, 444, 219, 524, 80], "actions": ["right", "right", "right", "up", "left"], "actionTimes": [13522, 14462, 15202, 16223, 16813], "queries": {"click": {"state": {"target": ["17", "16", "18"], "time": [2799, 6804, 10165]}, "edge": {"target": [], "time": []}}, "mouseover": {"state": {"target": ["12", "13", "15", "17", "15", "18", "18", "16", "18", "13"], "time": [2023, 2081, 2287, 2381, 4015, 4065, 6113, 6414, 7348, 11897]}, "edge": {"target": [], "time": []}}, "mouseout": {"state": {"target": ["0", "12", "13", "15", "17", "15", "18", "18", "16", "18", "13"], "time": [1104, 2054, 2114, 2349, 3982, 4049, 4134, 6146, 7305, 11848, 11947]}, "edge": {"target": [], "time": []}}}, "displayed_time": "17.32", "trialTime": 19592, "trial_type": "mouselab-mdp", "trial_index": 24, "time_elapsed": 1037922, "internal_node_id": "0.0-6.0-1.0-15.0"}}, {"uniqueid": "w63227481:a11772194", "current_trial": 25, "dateTime": 1693835801093, "trialdata": {"revealed_states": [], "clicked_states": ["21", "20", "22", "5", "6", "7", "10"], "num_clicks_accrued": [0, 0, 0, 0, 0, 0, 0, 0, 0, 0, 0, 0, 0], "stateRewards": ["", 1, 2, 2, -15, -84, 28, -26, 13, 31, 86, 30, -2, 1, -1, -8, 66, -40, -1, -10, -32, 57, -17, 1, 2, -2, 9, -23, 77, 85, 12, -32, -62, -35], "withholdReward": false, "trial_id": "mdp_trial_17", "block": "test", "trialIndex": 18, "score": 88.95, "costs": -15.05, "simulationMode": [null, null, null, null, null], "rewards": [1, 2, 2, 13, 86], "path": ["0", "0", "1", "2", "3", "8", "10"], "rt": [25804, 277, 121, 647, 210], "actions": ["up", "up", "up", "left", "down"], "actionTimes": [27413, 28209, 28850, 30011, 30724], "queries": {"click": {"state": {"target": ["21", "20", "22", "5", "6", "7", "10"], "time": [2817, 6229, 9567, 12924, 16303, 19748, 23098]}, "edge": {"target": [], "time": []}}, "mouseover": {"state": {"target": ["22", "21", "20", "19", "22", "22", "7", "4", "5", "6", "7", "2", "10", "11", "11"], "time": [2096, 2240, 3931, 6683, 6715, 7098, 10097, 10148, 10497, 15346, 16897, 20329, 20462, 23579, 23880]}, "edge": {"target": [], "time": []}}, "mouseout": {"state": {"target": ["0", "22", "21", "20", "19", "22", "22", "7", "4", "5", "6", "7", "2", "10", "11", "11", "10", "23"], "time": [2073, 2113, 3564, 6681, 6698, 6748, 10014, 10114, 10430, 15246, 16797, 20195, 20429, 23546, 23612, 32012, 32144, 32261]}, "edge": {"target": [], "time": []}}}, "displayed_time": "31.23", "trialTime": 34062, "trial_type": "mouselab-mdp", "trial_index": 25, "time_elapsed": 1072374, "internal_node_id": "0.0-6.0-1.0-16.0"}}, {"uniqueid": "w63227481:a11772194", "current_trial": 26, "dateTime": 1693835841895, "trialdata": {"revealed_states": [], "clicked_states": ["28", "10", "11", "27", "29", "33", "32"], "num_clicks_accrued": [0, 0, 0, 0, 0, 0, 0, 0, 0, 0, 0, 0, 0], "stateRewards": ["", -2, -3, -3, 9, 79, 67, 22, -15, -56, 27, -85, -2, 4, -4, -15, -20, -32, 60, 15, 71, 57, 17, 1, 2, -8, 15, -37, -81, 82, 15, 21, -3, 2], "withholdReward": false, "trial_id": "mdp_trial_18", "block": "test", "trialIndex": 19, "score": 76.95, "costs": -15.05, "simulationMode": [null, null, null, null, null], "rewards": [1, 2, -8, 15, 82], "path": ["0", "0", "23", "24", "25", "26", "29"], "rt": [26076, 405, 229, 721, 466], "actions": ["left", "left", "left", "up", "left"], "actionTimes": [31566, 32492, 33233, 34459, 35418], "queries": {"click": {"state": {"target": ["28", "10", "11", "27", "29", "33", "32"], "time": [6876, 10231, 13637, 16986, 20367, 23914, 27339]}, "edge": {"target": [], "time": []}}, "mouseover": {"state": {"target": ["23", "24", "28", "10", "11", "11", "27", "29", "33", "32", "25", "24", "25"], "time": [5983, 6054, 6521, 8036, 10752, 11253, 14172, 17602, 22185, 25235, 30618, 30700, 30849]}, "edge": {"target": [], "time": []}}, "mouseout": {"state": {"target": ["0", "23", "24", "28", "10", "11", "11", "27", "29", "33", "33", "32", "25", "24", "25", "31"], "time": [5961, 6018, 6357, 7670, 10652, 10802, 14052, 17552, 22035, 24043, 25007, 27475, 30650, 30807, 30883, 36683]}, "edge": {"target": [], "time": []}}}, "displayed_time": "35.94", "trialTime": 40422, "trial_type": "mouselab-mdp", "trial_index": 26, "time_elapsed": 1113176, "internal_node_id": "0.0-6.0-1.0-17.0"}}, {"uniqueid": "w63227481:a11772194", "current_trial": 27, "dateTime": 1693835874105, "trialdata": {"revealed_states": [], "clicked_states": ["7", "18", "17", "16", "6", "5"], "num_clicks_accrued": [0, 0, 0, 0, 0, 0, 0, 0, 0, 0, 0, 0, 0], "stateRewards": ["", -1, 1, -2, 5, 73, 15, 61, 8, 7, 38, 76, 2, 2, -4, -6, -6, -26, 43, -5, -45, -85, -35, -2, 1, -4, 15, -10, 69, 72, -11, 84, -49, -38], "withholdReward": false, "trial_id": "mdp_trial_19", "block": "test", "trialIndex": 20, "score": 63.1, "costs": -12.9, "simulationMode": [null, null, null, null, null], "rewards": [-1, 1, -2, 5, 73], "path": ["0", "0", "1", "2", "3", "4", "5"], "rt": [22152, 372, 272, 773, 227], "actions": ["up", "up", "up", "right", "up"], "actionTimes": [23801, 24712, 25481, 26765, 27503], "queries": {"click": {"state": {"target": ["7", "18", "17", "16", "6", "5"], "time": [3599, 7092, 10489, 13813, 17176, 20565]}, "edge": {"target": [], "time": []}}, "mouseover": {"state": {"target": ["1", "7", "18", "15", "17", "16", "6", "5"], "time": [2661, 3273, 4639, 7707, 8041, 11274, 14257, 19240]}, "edge": {"target": [], "time": []}}, "mouseout": {"state": {"target": ["0", "1", "7", "18", "15", "17", "16", "6", "5"], "time": [826, 2824, 4595, 7658, 7791, 10973, 14173, 19040, 21440]}, "edge": {"target": [], "time": []}}}, "displayed_time": "28.02", "trialTime": 31822, "trial_type": "mouselab-mdp", "trial_index": 27, "time_elapsed": 1145385, "internal_node_id": "0.0-6.0-1.0-18.0"}}, {"uniqueid": "w63227481:a11772194", "current_trial": 28, "dateTime": 1693835908846, "trialdata": {"revealed_states": [], "clicked_states": ["21", "20", "22", "9", "10", "11"], "num_clicks_accrued": [0, 0, 0, 0, 0, 0, 0, 0, 0, 0, 0, 0, 0], "stateRewards": ["", -1, -3, -7, -4, -85, -70, 79, 8, 84, -66, 42, 2, -2, -3, -16, -54, -66, 68, -3, 21, -14, 7, -2, -1, -3, -8, 75, 80, 86, -7, -84, 73, -16], "withholdReward": false, "trial_id": "mdp_trial_20", "block": "test", "trialIndex": 21, "score": 68.1, "costs": -12.9, "simulationMode": [null, null, null, null, null], "rewards": [-1, -3, -7, 8, 84], "path": ["0", "0", "1", "2", "3", "8", "9"], "rt": [20959, 182, 157, 865, 1200], "actions": ["up", "up", "up", "left", "up"], "actionTimes": [26882, 27570, 28243, 29617, 31319], "queries": {"click": {"state": {"target": ["21", "20", "22", "9", "10", "11"], "time": [7008, 10308, 13603, 16912, 20308, 23583]}, "edge": {"target": [], "time": []}}, "mouseover": {"state": {"target": ["22", "21", "20", "14", "2", "10", "10", "1", "22", "2", "8", "9", "8", "10", "11"], "time": [6302, 6453, 7768, 10820, 10902, 10989, 11151, 11186, 11572, 14051, 14084, 14501, 17334, 17384, 21154]}, "edge": {"target": [], "time": []}}, "mouseout": {"state": {"target": ["5", "4", "2", "0", "22", "21", "20", "14", "2", "10", "10", "1", "22", "2", "8", "9", "8", "10", "11", "23"], "time": [530, 617, 689, 6176, 6319, 7651, 10751, 10838, 10952, 11018, 11168, 11201, 13967, 14067, 14351, 17317, 17350, 20699, 25399, 33566]}, "edge": {"target": [], "time": []}}}, "displayed_time": "31.83", "trialTime": 34341, "trial_type": "mouselab-mdp", "trial_index": 28, "time_elapsed": 1180126, "internal_node_id": "0.0-6.0-1.0-19.0"}}, {"uniqueid": "w63227481:a11772194", "current_trial": 29, "dateTime": 1693835930417, "trialdata": {"revealed_states": [], "clicked_states": ["31", "25"], "num_clicks_accrued": [0, 0, 0, 0, 0, 0, 0, 0, 0, 0, 0, 0, 0], "stateRewards": ["", -2, -4, -2, -13, -15, 87, -19, -6, -80, 30, 12, 1, 1, -8, 2, 55, 56, 15, 11, -68, -7, 55, -2, 3, -3, -3, 48, 62, 4, 1, -3, 69, -33], "withholdReward": false, "trial_id": "mdp_trial_21", "block": "test", "trialIndex": 22, "score": 53.9, "costs": -3.0999999999999996, "simulationMode": [null, null, null, null, null], "rewards": [-2, 3, -3, -3, 62], "path": ["0", "0", "23", "24", "25", "26", "28"], "rt": [10454, 302, 215, 1253, 134], "actions": ["left", "left", "left", "up", "right"], "actionTimes": [13377, 14195, 14907, 16662, 17310], "queries": {"click": {"state": {"target": ["31", "25"], "time": [3974, 7274]}, "edge": {"target": [], "time": []}}, "mouseover": {"state": {"target": ["23", "31", "25", "33"], "time": [3332, 3541, 4943, 7857]}, "edge": {"target": [], "time": []}}, "mouseout": {"state": {"target": ["23", "23", "31", "25", "33", "32"], "time": [596, 3424, 4758, 7691, 19590, 19909]}, "edge": {"target": [], "time": []}}}, "displayed_time": "17.83", "trialTime": 21123, "trial_type": "mouselab-mdp", "trial_index": 29, "time_elapsed": 1201697, "internal_node_id": "0.0-6.0-1.0-20.0"}}, {"uniqueid": "w63227481:a11772194", "current_trial": 30, "dateTime": 1693835950861, "trialdata": {"revealed_states": [], "clicked_states": ["10"], "num_clicks_accrued": [0, 0, 0, 0, 0, 0, 0, 0, 0, 0, 0, 0, 0], "stateRewards": ["", 1, 2, 3, 16, 63, -25, 16, -4, -14, 82, -66, -1, -3, -3, -11, -14, 19, 46, 3, -34, -82, 66, -2, -3, 4, -5, -63, 77, -37, -1, -45, -41, 84], "withholdReward": false, "trial_id": "mdp_trial_22", "block": "test", "trialIndex": 23, "score": 81.85, "costs": -2.15, "simulationMode": [null, null, null, null, null], "rewards": [1, 2, 3, -4, 82], "path": ["0", "0", "1", "2", "3", "8", "10"], "rt": [6641, 157, 144, 1112, 173], "actions": ["up", "up", "up", "left", "down"], "actionTimes": [8041, 8691, 9329, 10961, 11655], "queries": {"click": {"state": {"target": ["10"], "time": [3141]}, "edge": {"target": [], "time": []}}, "mouseover": {"state": {"target": ["1", "10", "2", "7", "6"], "time": [2281, 2529, 3849, 3997, 4297]}, "edge": {"target": [], "time": []}}, "mouseout": {"state": {"target": ["0", "1", "10", "10", "2", "7", "6", "15", "17", "17", "15", "13"], "time": [715, 2450, 3291, 3814, 3881, 4217, 13396, 15413, 15497, 17046, 17063, 19036]}, "edge": {"target": [], "time": []}}}, "displayed_time": "15.40", "trialTime": 20006, "trial_type": "mouselab-mdp", "trial_index": 30, "time_elapsed": 1222141, "internal_node_id": "0.0-6.0-1.0-21.0"}}, {"uniqueid": "w63227481:a11772194", "current_trial": 31, "dateTime": 1693835998397, "trialdata": {"revealed_states": [], "clicked_states": ["16", "17", "20", "21", "6", "9", "11", "29", "27", "32", "31"], "num_clicks_accrued": [0, 0, 0, 0, 0, 0, 0, 0, 0, 0, 0, 0, 0], "stateRewards": ["", 2, -4, 1, -12, -59, -53, -74, 16, -88, -66, 66, 1, -2, 8, -9, -14, 22, 25, -1, -39, 47, -14, -1, -1, -2, 1, -4, 52, -26, 15, -7, 46, 43], "withholdReward": false, "trial_id": "mdp_trial_23", "block": "test", "trialIndex": 24, "score": 33.35000000000001, "costs": -23.649999999999995, "simulationMode": [null, null, null, null, null], "rewards": [-1, -1, -2, 15, 46], "path": ["0", "0", "23", "24", "25", "30", "32"], "rt": [38633, 400, 162, 142, 200], "actions": ["left", "left", "left", "down", "down"], "actionTimes": [40172, 41071, 41751, 42412, 43125], "queries": {"click": {"state": {"target": ["16", "17", "20", "21", "6", "9", "11", "29", "27", "32", "31"], "time": [2705, 6020, 9224, 12439, 15641, 19002, 22294, 25783, 29131, 32429, 35797]}, "edge": {"target": [], "time": []}}, "mouseover": {"state": {"target": ["12", "15", "16", "17", "20", "19", "22", "21", "22", "12", "7", "6", "6", "5", "9", "11", "27", "29", "27", "27", "30", "32", "33", "30", "31", "31"], "time": [1906, 1988, 2304, 4259, 6555, 9703, 10387, 11120, 12838, 13522, 13920, 13970, 14122, 16188, 17021, 19520, 22770, 22873, 26653, 26960, 29536, 29619, 32902, 33335, 33389, 33820]}, "edge": {"target": [], "time": []}}, "mouseout": {"state": {"target": ["0", "12", "15", "16", "16", "17", "20", "19", "22", "21", "22", "12", "7", "6", "6", "5", "9", "11", "27", "29", "27", "27", "30", "32", "33", "30", "31", "31", "0"], "time": [953, 1924, 2170, 2827, 3704, 6454, 9686, 9737, 10786, 12771, 13321, 13538, 13955, 14020, 16087, 16703, 19437, 22739, 22823, 26571, 26747, 29419, 29569, 32802, 33307, 33368, 33419, 45767, 46205]}, "edge": {"target": [], "time": []}}}, "displayed_time": "43.62", "trialTime": 47070, "trial_type": "mouselab-mdp", "trial_index": 31, "time_elapsed": 1269677, "internal_node_id": "0.0-6.0-1.0-22.0"}}, {"uniqueid": "w63227481:a11772194", "current_trial": 32, "dateTime": 1693836023473, "trialdata": {"revealed_states": [], "clicked_states": ["7", "10", "9", "5"], "num_clicks_accrued": [0, 0, 0, 0, 0, 0, 0, 0, 0, 0, 0, 0, 0], "stateRewards": ["", -1, 3, -4, -14, 78, 67, 2, 13, -32, 28, 39, -2, 1, -4, -4, -4, -42, -86, 11, 64, -29, -32, -1, -4, 2, -7, 5, 68, -61, 2, -21, 85, 50], "withholdReward": false, "trial_id": "mdp_trial_24", "block": "test", "trialIndex": 25, "score": 53.4, "costs": -8.6, "simulationMode": [null, null, null, null, null], "rewards": [-1, 3, -4, -14, 78], "path": ["0", "0", "1", "2", "3", "4", "5"], "rt": [16125, 149, 121, 525, 152], "actions": ["up", "up", "up", "right", "up"], "actionTimes": [17561, 18204, 18842, 19862, 20505], "queries": {"click": {"state": {"target": ["7", "10", "9", "5"], "time": [3287, 6561, 9851, 13139]}, "edge": {"target": [], "time": []}}, "mouseover": {"state": {"target": ["1", "7", "2", "10", "8", "9", "5", "5", "6", "7"], "time": [1890, 2568, 3957, 4052, 7052, 7119, 10485, 10902, 13535, 16900]}, "edge": {"target": [], "time": []}}, "mouseout": {"state": {"target": ["1", "7", "2", "10", "8", "9", "5", "5", "6", "7", "1", "23", "31"], "time": [2501, 3412, 4020, 7018, 7085, 10352, 10585, 13484, 16838, 16916, 22352, 22416, 22483]}, "edge": {"target": [], "time": []}}}, "displayed_time": "21.00", "trialTime": 24649, "trial_type": "mouselab-mdp", "trial_index": 32, "time_elapsed": 1294754, "internal_node_id": "0.0-6.0-1.0-23.0"}}, {"uniqueid": "w63227481:a11772194", "current_trial": 33, "dateTime": 1693836066494, "trialdata": {"revealed_states": [], "clicked_states": ["18", "16", "17", "20", "21", "22"], "num_clicks_accrued": [0, 0, 0, 0, 0, 0, 0, 0, 0, 0, 0, 0, 0], "stateRewards": ["", -1, -4, -1, -11, 43, 69, 39, 4, 17, -20, -82, -2, -1, 4, 8, -79, 24, -79, 11, 36, 64, 41, 2, 4, -1, 11, -79, -47, 75, -3, 63, -36, -19], "withholdReward": false, "trial_id": "mdp_trial_25", "block": "test", "trialIndex": 26, "score": 63.1, "costs": -12.9, "simulationMode": [null, null, null, null, null], "rewards": [-2, -1, 4, 11, 64], "path": ["0", "0", "12", "13", "14", "19", "21"], "rt": [21542, 338, 286, 120, 117], "actions": ["right", "right", "right", "down", "down"], "actionTimes": [23340, 24191, 24971, 25605, 26235], "queries": {"click": {"state": {"target": ["18", "16", "17", "20", "21", "22"], "time": [3154, 6425, 9601, 12827, 16501, 19325]}, "edge": {"target": [], "time": []}}, "mouseover": {"state": {"target": ["12", "18", "18", "16", "17", "20", "20", "21", "22"], "time": [2291, 2466, 2783, 4051, 6801, 10037, 10600, 13317, 17067]}, "edge": {"target": [], "time": []}}, "mouseout": {"state": {"target": ["0", "12", "18", "18", "16", "17", "20", "20", "21", "22"], "time": [904, 2423, 2550, 3817, 6768, 9953, 10117, 13266, 16999, 21954]}, "edge": {"target": [], "time": []}}}, "displayed_time": "26.75", "trialTime": 42601, "trial_type": "mouselab-mdp", "trial_index": 33, "time_elapsed": 1337774, "internal_node_id": "0.0-6.0-1.0-24.0"}}, {"uniqueid": "w63227481:a11772194", "current_trial": 34, "dateTime": 1693836106990, "trialdata": {"revealed_states": [], "clicked_states": ["32", "31", "33", "27", "11", "9", "7", "10"], "num_clicks_accrued": [0, 0, 0, 0, 0, 0, 0, 0, 0, 0, 0, 0, 0], "stateRewards": ["", -2, -3, -5, 8, 27, 11, 43, -6, -24, -87, 69, -2, 1, 1, 9, 19, 48, -37, 9, -14, 45, 62, 1, 2, 1, 16, -81, -41, 22, 4, -6, -63, 47], "withholdReward": false, "trial_id": "mdp_trial_26", "block": "test", "trialIndex": 27, "score": 35.8, "costs": -17.2, "simulationMode": [null, null, null, null, null], "rewards": [-2, -3, -5, -6, 69], "path": ["0", "0", "1", "2", "3", "8", "11"], "rt": [31186, 213, 115, 699, 174], "actions": ["up", "up", "up", "left", "left"], "actionTimes": [32678, 33406, 34040, 35260, 35951], "queries": {"click": {"state": {"target": ["32", "31", "33", "27", "11", "9", "7", "10"], "time": [3896, 7212, 10402, 13652, 16947, 20350, 23744, 28122]}, "edge": {"target": [], "time": []}}, "mouseover": {"state": {"target": ["23", "31", "32", "31", "30", "33", "27", "11", "11", "9", "7", "2", "10"], "time": [2332, 2443, 3059, 5178, 7660, 7776, 11932, 14046, 14244, 17425, 22010, 27258, 27678]}, "edge": {"target": [], "time": []}}, "mouseout": {"state": {"target": ["0", "23", "31", "32", "31", "30", "33", "27", "11", "11", "9", "7", "2", "10", "1"], "time": [877, 2359, 2543, 4712, 7609, 7710, 10826, 14026, 14115, 17309, 21344, 27190, 27457, 38357, 38825]}, "edge": {"target": [], "time": []}}}, "displayed_time": "36.44", "trialTime": 40026, "trial_type": "mouselab-mdp", "trial_index": 34, "time_elapsed": 1378271, "internal_node_id": "0.0-6.0-1.0-25.0"}}, {"uniqueid": "w63227481:a11772194", "current_trial": 35, "dateTime": 1693836142085, "trialdata": {"revealed_states": [], "clicked_states": ["6", "16", "18", "17", "20", "21", "22"], "num_clicks_accrued": [0, 0, 0, 0, 0, 0, 0, 0, 0, 0, 0, 0, 0], "stateRewards": ["", -2, 4, -3, -13, 63, -36, 62, 11, 78, 34, -51, 2, -2, 8, -6, -40, -18, 31, 9, 64, 39, 79, 1, 4, -4, 15, -12, 76, 73, -10, -77, 86, -4], "withholdReward": false, "trial_id": "mdp_trial_27", "block": "test", "trialIndex": 28, "score": 80.95, "costs": -15.05, "simulationMode": [null, null, null, null, null], "rewards": [2, -2, 8, 9, 79], "path": ["0", "0", "12", "13", "14", "19", "22"], "rt": [24917, 313, 242, 898, 694], "actions": ["right", "right", "right", "down", "left"], "actionTimes": [26554, 27376, 28137, 29545, 30759], "queries": {"click": {"state": {"target": ["6", "16", "18", "17", "20", "21", "22"], "time": [2850, 6332, 9555, 12814, 16048, 19351, 22568]}, "edge": {"target": [], "time": []}}, "mouseover": {"state": {"target": ["6", "16", "16", "18", "15", "17", "20", "21", "21", "22"], "time": [2318, 3373, 3746, 6863, 9946, 10112, 13245, 16510, 16894, 19777]}, "edge": {"target": [], "time": []}}, "mouseout": {"state": {"target": ["1", "1", "6", "16", "16", "18", "15", "17", "20", "21", "21", "22"], "time": [516, 783, 3280, 3513, 6779, 9912, 10013, 13145, 16460, 16577, 19694, 32875]}, "edge": {"target": [], "time": []}}}, "displayed_time": "31.26", "trialTime": 34663, "trial_type": "mouselab-mdp", "trial_index": 35, "time_elapsed": 1413367, "internal_node_id": "0.0-6.0-1.0-26.0"}}, {"uniqueid": "w63227481:a11772194", "current_trial": 36, "dateTime": 1693836162688, "trialdata": {"revealed_states": [], "clicked_states": ["31"], "num_clicks_accrued": [0, 0, 0, 0, 0, 0, 0, 0, 0, 0, 0, 0, 0], "stateRewards": ["", 1, -2, -2, 10, -31, -77, 35, 9, -47, 8, 48, -2, 1, -4, -3, -26, -50, 43, -11, 76, -38, 17, 1, -1, 6, 10, 15, -9, 12, -8, 85, 11, -55], "withholdReward": false, "trial_id": "mdp_trial_28", "block": "test", "trialIndex": 29, "score": 80.85, "costs": -2.15, "simulationMode": [null, null, null, null, null], "rewards": [1, -1, 6, -8, 85], "path": ["0", "0", "23", "24", "25", "30", "31"], "rt": [5918, 296, 253, 96, 460], "actions": ["left", "left", "left", "down", "right"], "actionTimes": [7629, 8442, 9192, 9784, 10764], "queries": {"click": {"state": {"target": ["31"], "time": [3059]}, "edge": {"target": [], "time": []}}, "mouseover": {"state": {"target": ["23", "31", "31", "22"], "time": [2213, 2269, 2656, 5306]}, "edge": {"target": [], "time": []}}, "mouseout": {"state": {"target": ["0", "23", "31", "31", "22"], "time": [2193, 2223, 2319, 5189, 13187]}, "edge": {"target": [], "time": []}}}, "displayed_time": "15.71", "trialTime": 20157, "trial_type": "mouselab-mdp", "trial_index": 36, "time_elapsed": 1433968, "internal_node_id": "0.0-6.0-1.0-27.0"}}, {"uniqueid": "w63227481:a11772194", "current_trial": 37, "dateTime": 1693836201426, "trialdata": {"revealed_states": [], "clicked_states": ["32", "21", "22", "31", "33", "18", "7", "10"], "num_clicks_accrued": [0, 0, 0, 0, 0, 0, 0, 0, 0, 0, 0, 0, 0], "stateRewards": ["", 2, 3, 3, 10, 19, -21, 6, 9, 54, 68, 16, 2, 2, -6, -8, 40, -2, -75, -2, -42, 55, 59, -1, 2, 4, -14, 11, -34, -30, -6, 61, -53, 13], "withholdReward": false, "trial_id": "mdp_trial_29", "block": "test", "trialIndex": 30, "score": 67.8, "costs": -17.2, "simulationMode": [null, null, null, null, null], "rewards": [2, 3, 3, 9, 68], "path": ["0", "0", "1", "2", "3", "8", "10"], "rt": [29997, 92, 60, 560, 87], "actions": ["up", "up", "up", "left", "down"], "actionTimes": [31975, 32584, 33154, 34218, 34815], "queries": {"click": {"state": {"target": ["32", "21", "22", "31", "33", "18", "7", "10"], "time": [3165, 6474, 9747, 13080, 16557, 20131, 23822, 27480]}, "edge": {"target": [], "time": []}}, "mouseover": {"state": {"target": ["23", "31", "32", "32", "21", "22", "31", "30", "33", "30", "12", "13", "14", "14", "18", "18", "7", "2", "10", "11"], "time": [2375, 2457, 2557, 2714, 4658, 7408, 10675, 13507, 13574, 17057, 17157, 17190, 17441, 18124, 18157, 18541, 23358, 26523, 27008, 28390]}, "edge": {"target": [], "time": []}}, "mouseout": {"state": {"target": ["13", "12", "31", "31", "0", "23", "31", "32", "32", "21", "22", "31", "30", "33", "30", "12", "13", "14", "14", "18", "18", "7", "2", "10", "11", "0"], "time": [611, 634, 726, 925, 2330, 2391, 2490, 2590, 4058, 6975, 10141, 13491, 13557, 17040, 17074, 17174, 17307, 17557, 18141, 18174, 22979, 26473, 26606, 28139, 36255, 36873]}, "edge": {"target": [], "time": []}}}, "displayed_time": "35.31", "trialTime": 38268, "trial_type": "mouselab-mdp", "trial_index": 37, "time_elapsed": 1472706, "internal_node_id": "0.0-6.0-1.0-28.0"}}, {"uniqueid": "w63227481:a11772194", "current_trial": 38, "dateTime": 1693836239981, "trialdata": {"revealed_states": [], "clicked_states": ["5", "6", "16", "27", "33", "31", "22"], "num_clicks_accrued": [0, 0, 0, 0, 0, 0, 0, 0, 0, 0, 0, 0, 0], "stateRewards": ["", -1, 1, 8, -8, -49, 62, -78, 16, 28, -81, 78, -2, -3, -1, -4, 67, 49, -2, -13, -16, -39, 83, 1, -4, 4, -5, -20, 7, 84, 7, -32, -59, 19], "withholdReward": false, "trial_id": "mdp_trial_30", "block": "test", "trialIndex": 31, "score": 48.95, "costs": -15.05, "simulationMode": [null, null, null, null, null], "rewards": [-2, -3, -1, -13, 83], "path": ["0", "0", "12", "13", "14", "19", "22"], "rt": [28394, 214, 93, 576, 250], "actions": ["right", "right", "right", "down", "left"], "actionTimes": [31773, 32494, 33105, 34188, 34938], "queries": {"click": {"state": {"target": ["5", "6", "16", "27", "33", "31", "22"], "time": [5101, 8419, 11644, 15417, 18864, 22729, 26106]}, "edge": {"target": [], "time": []}}, "mouseover": {"state": {"target": ["1", "2", "4", "5", "5", "6", "16", "10", "29", "27", "29", "33", "30", "31", "24", "23", "0", "12", "22", "22", "21", "20", "20"], "time": [3995, 4044, 4295, 4362, 4729, 6134, 9281, 12181, 12229, 12795, 17628, 18028, 21861, 22396, 23827, 23862, 23911, 23944, 24345, 24695, 27411, 27745, 28044]}, "edge": {"target": [], "time": []}}, "mouseout": {"state": {"target": ["0", "1", "2", "4", "5", "5", "5", "6", "16", "10", "29", "27", "29", "33", "30", "31", "24", "23", "0", "12", "22", "22", "21", "20", "20"], "time": [2383, 4028, 4146, 4312, 4412, 5236, 6082, 9096, 12117, 12196, 12246, 17528, 17678, 21361, 21960, 23761, 23844, 23894, 23928, 24278, 24461, 27294, 27427, 27860, 36861]}, "edge": {"target": [], "time": []}}}, "displayed_time": "35.43", "trialTime": 38098, "trial_type": "mouselab-mdp", "trial_index": 38, "time_elapsed": 1511261, "internal_node_id": "0.0-6.0-1.0-29.0"}}, {"uniqueid": "w63227481:a11772194", "current_trial": 39, "dateTime": 1693836281014, "trialdata": {"revealed_states": [], "clicked_states": ["5", "9", "7", "22", "16", "33", "28", "31"], "num_clicks_accrued": [0, 0, 0, 0, 0, 0, 0, 0, 0, 0, 0, 0, 0], "stateRewards": ["", 2, -1, -3, 16, -3, -16, -62, -1, 13, -26, 43, -1, 4, 3, -9, -54, -37, -3, -12, -71, -68, -57, 1, -3, 2, -9, 2, -2, -9, -11, 84, -52, 55], "withholdReward": false, "trial_id": "mdp_trial_31", "block": "test", "trialIndex": 32, "score": 55.8, "costs": -17.2, "simulationMode": [null, null, null, null, null], "rewards": [1, -3, 2, -11, 84], "path": ["0", "0", "23", "24", "25", "30", "31"], "rt": [30791, 234, 250, 174, 446], "actions": ["left", "left", "left", "down", "right"], "actionTimes": [34569, 35299, 36048, 36741, 37712], "queries": {"click": {"state": {"target": ["5", "9", "7", "22", "16", "33", "28", "31"], "time": [5860, 9175, 12484, 15811, 19139, 22467, 25843, 29464]}, "edge": {"target": [], "time": []}}, "mouseover": {"state": {"target": ["1", "2", "3", "5", "9", "9", "2", "2", "7", "7", "18", "14", "20", "19", "22", "19", "20", "17", "16", "1", "31", "32", "33", "25", "28", "28", "24", "31", "25", "29", "29"], "time": [4513, 4562, 4645, 5516, 7347, 7913, 9731, 10080, 10147, 10498, 13380, 13530, 13657, 13879, 13913, 16266, 16352, 16580, 17363, 19746, 19830, 20146, 20363, 22913, 22997, 23296, 28694, 29062, 30246, 30312, 30596]}, "edge": {"target": [], "time": []}}, "mouseout": {"state": {"target": ["0", "1", "2", "3", "5", "9", "9", "2", "2", "7", "7", "18", "14", "20", "19", "22", "19", "20", "17", "16", "1", "31", "32", "33", "25", "28", "28", "24", "31", "25", "29", "29", "25", "24"], "time": [3229, 4546, 4629, 4999, 7130, 7385, 9656, 9964, 10115, 10180, 13280, 13413, 13597, 13851, 13897, 16221, 16315, 16479, 17146, 19662, 19763, 19846, 20246, 22596, 22946, 23079, 28644, 28829, 29587, 30262, 30346, 39243, 39744, 39760]}, "edge": {"target": [], "time": []}}}, "displayed_time": "38.21", "trialTime": 40569, "trial_type": "mouselab-mdp", "trial_index": 39, "time_elapsed": 1552295, "internal_node_id": "0.0-6.0-1.0-30.0"}}, {"uniqueid": "w63227481:a11772194", "current_trial": 40, "dateTime": 1693836300894, "trialdata": {"revealed_states": [], "clicked_states": ["7", "21"], "num_clicks_accrued": [0, 0, 0, 0, 0, 0, 0, 0, 0, 0, 0, 0, 0], "stateRewards": ["", 1, 2, 8, -2, 23, -69, -18, -16, 54, -21, 71, -1, -4, 7, 11, 43, -6, 88, 6, -55, 72, 43, 1, -3, -2, -1, 68, -31, -54, 4, -8, 25, -2], "withholdReward": false, "trial_id": "mdp_trial_32", "block": "test", "trialIndex": 33, "score": 75.7, "costs": -4.3, "simulationMode": [null, null, null, null, null], "rewards": [-1, -4, 7, 6, 72], "path": ["0", "0", "12", "13", "14", "19", "21"], "rt": [10563, 165, 147, 130, 97], "actions": ["right", "right", "right", "down", "down"], "actionTimes": [13835, 14496, 15144, 15777, 16397], "queries": {"click": {"state": {"target": ["7", "21"], "time": [5891, 9201]}, "edge": {"target": [], "time": []}}, "mouseover": {"state": {"target": ["1", "2", "2", "1", "7", "18", "14", "19", "21", "22", "33"], "time": [4144, 4245, 4895, 4994, 5344, 6517, 6601, 6628, 7067, 9896, 10111]}, "edge": {"target": [], "time": []}}, "mouseout": {"state": {"target": ["0", "1", "2", "2", "1", "7", "18", "14", "19", "21", "22"], "time": [4101, 4177, 4432, 4962, 5261, 6472, 6545, 6616, 6651, 9845, 9912]}, "edge": {"target": [], "time": []}}}, "displayed_time": "17.27", "trialTime": 19416, "trial_type": "mouselab-mdp", "trial_index": 40, "time_elapsed": 1572175, "internal_node_id": "0.0-6.0-1.0-31.0"}}, {"uniqueid": "w63227481:a11772194", "current_trial": 41, "dateTime": 1693836374396, "trialdata": {"revealed_states": [], "clicked_states": ["27", "6", "10", "7", "21", "20", "17", "16", "22", "32", "33", "28", "29", "9", "11", "31", "18", "5"], "num_clicks_accrued": [0, 0, 0, 0, 0, 0, 0, 0, 0, 0, 0, 0, 0], "stateRewards": ["", -2, -4, -8, 8, 63, -50, -19, -7, -17, -31, 31, 1, 3, -5, 12, -35, -63, -29, -4, -17, -75, -79, -2, -3, -2, 8, -3, -85, 10, -2, -82, -82, 56], "withholdReward": false, "trial_id": "mdp_trial_33", "block": "test", "trialIndex": 34, "score": 18.30000000000001, "costs": -38.69999999999999, "simulationMode": [null, null, null, null, null], "rewards": [-2, -4, -8, 8, 63], "path": ["0", "0", "1", "2", "3", "4", "5"], "rt": [63060, 136, 110, 602, 131], "actions": ["up", "up", "up", "right", "up"], "actionTimes": [66696, 67344, 67970, 69078, 69728], "queries": {"click": {"state": {"target": ["27", "6", "10", "7", "21", "20", "17", "16", "22", "32", "33", "28", "29", "9", "11", "31", "18", "5"], "time": [5343, 8754, 12038, 15280, 18604, 21851, 25149, 28434, 31686, 34997, 38331, 41763, 45193, 48622, 52008, 55528, 58867, 62197]}, "edge": {"target": [], "time": []}}, "mouseover": {"state": {"target": ["28", "26", "27", "8", "3", "6", "4", "3", "2", "10", "2", "7", "7", "18", "14", "19", "21", "19", "20", "17", "16", "18", "13", "22", "22", "32", "33", "25", "28", "26", "29", "25", "31", "24", "9", "11", "23", "31", "18", "4", "5", "4", "7"], "time": [4634, 4661, 4960, 6494, 6514, 7049, 9427, 9512, 9781, 9927, 12444, 12511, 12813, 15628, 15712, 15758, 16243, 19010, 19429, 22294, 25560, 28826, 28860, 28909, 29261, 32443, 35475, 38858, 39175, 43966, 44530, 45725, 46142, 46308, 46395, 50175, 52791, 53874, 57675, 59807, 60275, 65356, 65456]}, "edge": {"target": [], "time": []}}, "mouseout": {"state": {"target": ["33", "30", "23", "0", "28", "26", "27", "8", "3", "6", "4", "3", "2", "10", "2", "7", "7", "18", "14", "19", "21", "19", "20", "17", "16", "18", "13", "22", "22", "32", "33", "25", "28", "26", "29", "25", "31", "24", "9", "11", "23", "31", "18", "4", "5", "4", "7", "0"], "time": [2166, 2193, 2578, 4573, 4648, 4928, 5486, 6511, 6528, 8890, 9477, 9545, 9804, 12428, 12485, 12567, 15611, 15663, 15731, 16010, 18732, 19026, 22002, 25496, 28776, 28842, 28893, 28960, 32009, 35409, 38791, 38892, 43929, 44095, 45675, 45808, 46291, 46325, 50075, 52443, 53359, 57224, 59657, 60024, 65290, 65422, 65473, 71029]}, "edge": {"target": [], "time": []}}}, "displayed_time": "70.22", "trialTime": 73052, "trial_type": "mouselab-mdp", "trial_index": 41, "time_elapsed": 1645677, "internal_node_id": "0.0-6.0-1.0-32.0"}}, {"uniqueid": "w63227481:a11772194", "current_trial": 42, "dateTime": 1693836416590, "trialdata": {"revealed_states": [], "clicked_states": ["22", "17", "6", "10", "9", "33", "28", "32", "20"], "num_clicks_accrued": [0, 0, 0, 0, 0, 0, 0, 0, 0, 0, 0, 0, 0], "stateRewards": ["", 1, 4, 7, -16, -84, -6, -46, -12, -7, -49, -26, -1, 2, -4, 2, 22, 37, -64, 1, 88, -13, -10, 1, -4, -2, 5, 2, -10, -34, 9, 66, 55, 38], "withholdReward": false, "trial_id": "mdp_trial_34", "block": "test", "trialIndex": 35, "score": 66.65, "costs": -19.349999999999998, "simulationMode": [null, null, null, null, null], "rewards": [-1, 2, -4, 1, 88], "path": ["0", "0", "12", "13", "14", "19", "20"], "rt": [33364, 308, 162, 130, 137], "actions": ["right", "right", "right", "down", "right"], "actionTimes": [34803, 35633, 36306, 36938, 37595], "queries": {"click": {"state": {"target": ["22", "17", "6", "10", "9", "33", "28", "32", "20"], "time": [2646, 5993, 9337, 12618, 16753, 20058, 23458, 27062, 30783]}, "edge": {"target": [], "time": []}}, "mouseover": {"state": {"target": ["12", "22", "19", "17", "16", "6", "4", "3", "8", "11", "11", "10", "8", "9", "11", "9", "29", "33", "29", "27", "28", "26", "25", "30", "32", "32", "21", "21", "20", "19"], "time": [1909, 2341, 3374, 3491, 6491, 6841, 9774, 9824, 10124, 10174, 10275, 10707, 13090, 13590, 16306, 16406, 17373, 17823, 20509, 20623, 20839, 26088, 26141, 26223, 26338, 26578, 28458, 28806, 30436, 31773]}, "edge": {"target": [], "time": []}}, "mouseout": {"state": {"target": ["0", "12", "22", "22", "19", "17", "16", "6", "4", "3", "8", "11", "11", "10", "8", "9", "11", "9", "9", "29", "33", "29", "27", "28", "26", "25", "30", "32", "32", "21", "21", "20", "19", "21"], "time": [1890, 1942, 2766, 3341, 3392, 6443, 6524, 9708, 9791, 9840, 10157, 10223, 10674, 13023, 13407, 16252, 16364, 16879, 17307, 17390, 20458, 20540, 20759, 26039, 26126, 26189, 26272, 26355, 28306, 28476, 30022, 31755, 31790, 41207]}, "edge": {"target": [], "time": []}}}, "displayed_time": "38.11", "trialTime": 41763, "trial_type": "mouselab-mdp", "trial_index": 42, "time_elapsed": 1687871, "internal_node_id": "0.0-6.0-1.0-33.0"}}, {"uniqueid": "w63227481:a11772194", "current_trial": 43, "dateTime": 1693836441432, "trialdata": {"revealed_states": [], "clicked_states": ["18", "7", "16", "22"], "num_clicks_accrued": [0, 0, 0, 0, 0, 0, 0, 0, 0, 0, 0, 0, 0], "stateRewards": ["", 2, 3, 8, 14, 69, -27, 17, 2, -71, -65, -10, 2, -3, 7, 8, 65, -10, 65, -12, 73, -12, 13, -2, -2, 6, 10, -79, -69, -18, 10, -85, 67, 74], "withholdReward": false, "trial_id": "mdp_trial_35", "block": "test", "trialIndex": 36, "score": 70.4, "costs": -8.6, "simulationMode": [null, null, null, null, null], "rewards": [2, -3, 7, 8, 65], "path": ["0", "0", "12", "13", "14", "15", "16"], "rt": [15243, 193, 119, 463, 135], "actions": ["right", "right", "right", "up", "up"], "actionTimes": [17631, 18333, 18974, 19936, 20594], "queries": {"click": {"state": {"target": ["18", "7", "16", "22"], "time": [3829, 7377, 10736, 14338]}, "edge": {"target": [], "time": []}}, "mouseover": {"state": {"target": ["12", "15", "18", "10", "10", "2", "7", "16", "15", "22"], "time": [2962, 3052, 3386, 4962, 5193, 6705, 6738, 8151, 11470, 11620]}, "edge": {"target": [], "time": []}}, "mouseout": {"state": {"target": ["19", "22", "12", "15", "18", "10", "10", "2", "7", "16", "15", "22"], "time": [1185, 1286, 2986, 3354, 4542, 4993, 6688, 6736, 8021, 11437, 11506, 22905]}, "edge": {"target": [], "time": []}}}, "displayed_time": "21.09", "trialTime": 24372, "trial_type": "mouselab-mdp", "trial_index": 43, "time_elapsed": 1712713, "internal_node_id": "0.0-6.0-1.0-34.0"}}, {"uniqueid": "w63227481:a11772194", "current_trial": 44, "dateTime": 1693836460923, "trialdata": {"revealed_states": [], "clicked_states": ["32", "31"], "num_clicks_accrued": [0, 0, 0, 0, 0, 0, 0, 0, 0, 0, 0, 0, 0], "stateRewards": ["", 1, 3, -2, 15, 51, 15, -19, 11, 67, -45, -73, 2, 4, -2, -13, 36, 9, -28, 10, -30, 31, 16, 1, 2, -1, -16, 14, -22, 36, -1, 88, -5, 45], "withholdReward": false, "trial_id": "mdp_trial_36", "block": "test", "trialIndex": 37, "score": 84.7, "costs": -4.3, "simulationMode": [null, null, null, null, null], "rewards": [1, 2, -1, -1, 88], "path": ["0", "0", "23", "24", "25", "30", "31"], "rt": [10425, 102, 166, 147, 599], "actions": ["left", "left", "left", "down", "right"], "actionTimes": [13074, 13694, 14363, 15005, 16109], "queries": {"click": {"state": {"target": ["32", "31"], "time": [4800, 8765]}, "edge": {"target": [], "time": []}}, "mouseover": {"state": {"target": ["23", "25", "30", "32", "31", "20"], "time": [3456, 3605, 3992, 4447, 8275, 10923]}, "edge": {"target": [], "time": []}}, "mouseout": {"state": {"target": ["0", "23", "25", "30", "32", "31", "20"], "time": [3416, 3490, 3772, 4139, 4923, 10539, 17841]}, "edge": {"target": [], "time": []}}}, "displayed_time": "16.65", "trialTime": 19037, "trial_type": "mouselab-mdp", "trial_index": 44, "time_elapsed": 1732205, "internal_node_id": "0.0-6.0-1.0-35.0"}}, {"uniqueid": "w63227481:a11772194", "current_trial": 45, "dateTime": 1693836493672, "trialdata": {"revealed_states": [], "clicked_states": ["7", "10", "11", "18", "22", "20"], "num_clicks_accrued": [0, 0, 0, 0, 0, 0, 0, 0, 0, 0, 0, 0, 0], "stateRewards": ["", -1, 3, -5, -2, -13, -9, -34, -7, -81, 32, 35, -2, -2, 1, -14, -32, 81, 7, 4, 82, 56, -8, -1, 3, -8, 6, -24, -24, -53, 2, 38, 61, 54], "withholdReward": false, "trial_id": "mdp_trial_37", "block": "test", "trialIndex": 38, "score": 70.1, "costs": -12.9, "simulationMode": [null, null, null, null, null], "rewards": [-2, -2, 1, 4, 82], "path": ["0", "0", "12", "13", "14", "19", "20"], "rt": [22463, 288, 278, 507, 270], "actions": ["right", "right", "right", "down", "right"], "actionTimes": [24856, 25636, 26409, 27420, 28200], "queries": {"click": {"state": {"target": ["7", "10", "11", "18", "22", "20"], "time": [3505, 6791, 10168, 13726, 17082, 20419]}, "edge": {"target": [], "time": []}}, "mouseover": {"state": {"target": ["1", "7", "2", "10", "10", "11", "28", "16", "15", "18", "13", "22", "19", "20", "17", "16"], "time": [2937, 3045, 4647, 4730, 5014, 7280, 10848, 11362, 11430, 11547, 14313, 14400, 17579, 17813, 20862, 21329]}, "edge": {"target": [], "time": []}}, "mouseout": {"state": {"target": ["14", "13", "12", "1", "7", "2", "10", "10", "11", "28", "16", "15", "18", "13", "22", "22", "19", "20", "17", "16", "2", "1", "0"], "time": [1068, 1130, 1430, 2951, 4598, 4697, 4780, 7180, 10541, 10864, 11380, 11463, 14279, 14365, 17222, 17529, 17613, 20558, 21198, 30262, 30460, 31661, 31778]}, "edge": {"target": [], "time": []}}}, "displayed_time": "28.72", "trialTime": 32308, "trial_type": "mouselab-mdp", "trial_index": 45, "time_elapsed": 1764952, "internal_node_id": "0.0-6.0-1.0-36.0"}}, {"uniqueid": "w63227481:a11772194", "current_trial": 46, "dateTime": 1693836514322, "trialdata": {"revealed_states": [], "clicked_states": ["29", "32", "17"], "num_clicks_accrued": [0, 0, 0, 0, 0, 0, 0, 0, 0, 0, 0, 0, 0], "stateRewards": ["", -1, 2, 6, 11, 21, -21, -21, -6, 48, -71, 88, -1, -3, 3, 7, 64, 2, 9, -4, 37, -67, 72, 2, 2, -8, -8, -10, 71, -40, -3, 73, 80, 47], "withholdReward": false, "trial_id": "mdp_trial_38", "block": "test", "trialIndex": 39, "score": 66.55, "costs": -6.449999999999999, "simulationMode": [null, null, null, null, null], "rewards": [2, 2, -8, -3, 80], "path": ["0", "0", "23", "24", "25", "30", "32"], "rt": [11905, 195, 139, 113, 152], "actions": ["left", "left", "left", "down", "down"], "actionTimes": [15002, 15695, 16365, 16995, 17668], "queries": {"click": {"state": {"target": ["29", "32", "17"], "time": [5138, 8407, 11675]}, "edge": {"target": [], "time": []}}, "mouseover": {"state": {"target": ["23", "24", "30", "25", "29", "33", "32", "22", "13", "17", "14", "31"], "time": [3783, 3847, 3946, 4246, 4659, 5998, 6302, 9181, 9297, 9681, 12464, 12581]}, "edge": {"target": [], "time": []}}, "mouseout": {"state": {"target": ["0", "23", "24", "30", "25", "29", "33", "32", "22", "13", "17", "14", "31"], "time": [2002, 3830, 3880, 4182, 4482, 5898, 6064, 8880, 9264, 9347, 12414, 12484, 12632]}, "edge": {"target": [], "time": []}}}, "displayed_time": "18.18", "trialTime": 20198, "trial_type": "mouselab-mdp", "trial_index": 46, "time_elapsed": 1785603, "internal_node_id": "0.0-6.0-1.0-37.0"}}, {"uniqueid": "w63227481:a11772194", "current_trial": 47, "dateTime": 1693836535000, "trialdata": {"revealed_states": [], "clicked_states": ["10", "11", "9"], "num_clicks_accrued": [0, 0, 0, 0, 0, 0, 0, 0, 0, 0, 0, 0, 0], "stateRewards": ["", 1, 3, 1, -13, 52, -28, 67, -14, 3, 63, -70, -1, -4, 7, -11, -10, 47, -18, 6, 69, -9, -61, 2, 3, -6, 10, 63, -34, 40, -6, -79, -35, -32], "withholdReward": false, "trial_id": "mdp_trial_39", "block": "test", "trialIndex": 40, "score": 47.55, "costs": -6.449999999999999, "simulationMode": [null, null, null, null, null], "rewards": [1, 3, 1, -14, 63], "path": ["0", "0", "1", "2", "3", "8", "10"], "rt": [11754, 244, 152, 1004, 79], "actions": ["up", "up", "up", "left", "down"], "actionTimes": [13874, 14624, 15315, 16836, 17427], "queries": {"click": {"state": {"target": ["10", "11", "9"], "time": [3212, 6730, 10134]}, "edge": {"target": [], "time": []}}, "mouseover": {"state": {"target": ["1", "10", "11", "9", "3"], "time": [2497, 2629, 3763, 7214, 11163]}, "edge": {"target": [], "time": []}}, "mouseout": {"state": {"target": ["0", "1", "1", "10", "11", "9", "3", "3", "7"], "time": [949, 1394, 2514, 3662, 7129, 11062, 12279, 18845, 18961]}, "edge": {"target": [], "time": []}}}, "displayed_time": "17.93", "trialTime": 20206, "trial_type": "mouselab-mdp", "trial_index": 47, "time_elapsed": 1806281, "internal_node_id": "0.0-6.0-1.0-38.0"}}, {"uniqueid": "w63227481:a11772194", "current_trial": 48, "dateTime": 1693836579278, "trialdata": {"revealed_states": [], "clicked_states": ["20", "21", "22", "17", "16", "18", "7", "28", "31", "32"], "num_clicks_accrued": [0, 0, 0, 0, 0, 0, 0, 0, 0, 0, 0, 0, 0], "stateRewards": ["", -2, 3, 3, -14, 62, 36, 49, 16, 11, 17, -84, 2, -1, 6, 2, -82, -73, 49, -6, -87, 48, 50, -1, -2, -1, -16, -11, 37, -44, 4, 55, 73, -10], "withholdReward": false, "trial_id": "mdp_trial_40", "block": "test", "trialIndex": 41, "score": 51.5, "costs": -21.499999999999996, "simulationMode": [null, null, null, null, null], "rewards": [-1, -2, -1, 4, 73], "path": ["0", "0", "23", "24", "25", "30", "32"], "rt": [36152, 215, 138, 285, 253], "actions": ["left", "left", "left", "down", "down"], "actionTimes": [37682, 38414, 39066, 39845, 40613], "queries": {"click": {"state": {"target": ["20", "21", "22", "17", "16", "18", "7", "28", "31", "32"], "time": [2777, 6099, 9408, 12827, 16107, 19431, 22842, 26261, 29663, 33636]}, "edge": {"target": [], "time": []}}, "mouseover": {"state": {"target": ["12", "19", "20", "21", "22", "14", "17", "16", "18", "18", "1", "7", "2", "24", "24", "28", "24", "31", "33", "32", "30", "29", "33"], "time": [1978, 2042, 2393, 3711, 6546, 9811, 9895, 13543, 16526, 16878, 20039, 20243, 23327, 23692, 23925, 24192, 27024, 27141, 31725, 33140, 34359, 34792, 35858]}, "edge": {"target": [], "time": []}}, "mouseout": {"state": {"target": ["23", "0", "12", "19", "20", "21", "22", "14", "17", "16", "18", "18", "1", "7", "2", "24", "24", "28", "24", "31", "33", "32", "30", "29", "33"], "time": [692, 1962, 1996, 2276, 3565, 6460, 9777, 9844, 13226, 16476, 16643, 19843, 20142, 23275, 23426, 23744, 23976, 26992, 27091, 29791, 33045, 34308, 34424, 35724, 42728]}, "edge": {"target": [], "time": []}}}, "displayed_time": "41.13", "trialTime": 43801, "trial_type": "mouselab-mdp", "trial_index": 48, "time_elapsed": 1850559, "internal_node_id": "0.0-6.0-1.0-39.0"}}, {"uniqueid": "w63227481:a11772194", "current_trial": 49, "dateTime": 1693836627991, "trialdata": {"rt": 48700, "response": {"Q0": "$-16 to 16", "Q1": "$-32 to $32", "Q2": "$-88 to $88", "Q3": "The cost for clicking on nodes varied between nodes.", "Q4": "Very motivated"}, "question_order": [0, 1, 2, 3, 4], "trial_id": "final_quiz_control", "trial_type": "survey-multi-choice", "trial_index": 49, "time_elapsed": 1899273, "internal_node_id": "0.0-6.0-2.0"}}, {"uniqueid": "w63227481:a11772194", "current_trial": 50, "dateTime": 1693836696664, "trialdata": {"rt": 68661, "response": {"Q0": "i was guessing", "Q1": "no", "Q2": "no difficulty"}, "trial_id": "self_report_control", "trial_type": "survey-text", "trial_index": 50, "time_elapsed": 1967945, "internal_node_id": "0.0-6.0-3.0"}}, {"uniqueid": "w63227481:a11772194", "current_trial": 51, "dateTime": 1693836736648, "trialdata": {"rt": 39977, "response": {"Q0": "Disagree", "Q1": "Neither disagree nor agree", "Q2": "Disagree", "Q3": "Agree", "Q4": "Disagree", "Q5": "Agree", "Q6": "Strongly disagree"}, "question_order": [0, 1, 2, 3, 4, 5, 6], "trial_id": "self_report_2", "trial_type": "survey-multi-choice", "trial_index": 51, "time_elapsed": 2007930, "internal_node_id": "0.0-6.0-4.0"}}, {"uniqueid": "w63227481:a11772194", "current_trial": 52, "dateTime": 1693836766218, "trialdata": {"rt": 29563, "response": {"gender": "female", "age": "24", "colorblind": "0", "effort": "0"}, "trial_type": "survey-html-form", "trial_index": 52, "time_elapsed": 2037500, "internal_node_id": "0.0-6.0-5.0"}}, {"uniqueid": "w63227481:a11772194", "current_trial": 53, "dateTime": 1693836782854, "trialdata": {"rt": 16624, "response": {"Q0": "no", "Q1": "no", "Q2": ""}, "trial_type": "survey-text", "trial_index": 53, "time_elapsed": 2054135, "internal_node_id": "0.0-6.0-6.0"}}, {"uniqueid": "w63227481:a11772194", "current_trial": 54, "dateTime": 1693836832875, "trialdata": {"rt": 50015, "stimulus": "<h1>Completion Code Instructions (1/2)</h1>\n<br><br><br><br>\nYou have reached the end of the experiment! The completion code consists of two parts: (1) a code with 2 characters (2) a code with 6 characters. On this page, you will receive the second part of the code. The first part of the completion code will be on the next page.\n<br><br>\nThe second part of your completion code is: <b>EWEK22</b>\n<br><br>\nPlease note this down. Then, press 'Next' in order to find the first part of your completion code. Once the data has been saved, you will receive this code either in this window or in the original browser window where you started the experiment.\n <br><br>\n<h2 style='color: red;'>Note: this is <strong>NOT</strong> the full completion code. Copy this down and click 'Next' to get the full completion code on the next page.</h2>", "response": 0, "trial_type": "html-button-response", "trial_index": 54, "time_elapsed": 2104157, "internal_node_id": "0.0-6.0-7.0"}}, {"uniqueid": "w63227481:a11772194", "current_trial": 55, "dateTime": 1693836833879, "trialdata": {"success": true, "trial_type": "fullscreen", "trial_index": 55, "time_elapsed": 2105161, "internal_node_id": "0.0-7.0"}}], "questiondata": {"params": {"CODE": "C6DMOQA6", "MIN_TIME": 14, "inspectCost": 1, "startTime": "Mon Sep 04 2023 15:38:46 GMT+0200 (South Africa Standard Time)", "bonusRate": 0.002, "variance": "1_2_4_8_44", "branching": "31123"}, "final_score": 1983.1}, "eventdata": [{"eventtype": "initialized", "value": null, "timestamp": 1693834725990, "interval": 0}, {"eventtype": "window_resize", "value": [1024, 654], "timestamp": 1693834725990, "interval": 0}, {"eventtype": "window_resize", "value": [1024, 654], "timestamp": 1693834726477, "interval": 487}, {"eventtype": "window_resize", "value": [1366, 768], "timestamp": 1693834735050, "interval": 8573}, {"eventtype": "focus", "value": "off", "timestamp": 1693835327704, "interval": 592654}, {"eventtype": "window_resize", "value": [1366, 767], "timestamp": 1693835327910, "interval": 206}, {"eventtype": "focus", "value": "on", "timestamp": 1693835330083, "interval": 2173}, {"eventtype": "window_resize", "value": [1366, 768], "timestamp": 1693835330313, "interval": 230}, {"eventtype": "window_resize", "value": [1024, 654], "timestamp": 1693836833137, "interval": 1502824}], "useragent": "Mozilla/5.0 (Windows NT 10.0; Win64; x64) AppleWebKit/537.36 (KHTML, like Gecko) Chrome/116.0.0.0 Safari/537.36", "mode": "live", "id": "w63227481:a11772194", "status": "user data saved", "Beginhit": "2023-09-04 13:38:43.143707", "Beginexp": "2023-09-04 13:38:56.007222", "Endhit": "2023-09-04 14:13:54.995431", "psiturkStatus": 3, "browser": "<redacted>", "platform": "windows", "language": "en-GB"}