{"condition": 1, "counterbalance": 0, "assignmentId": "a71441188", "workerId": "w10597662", "hitId": "h79691535", "currenttrial": 62, "bonus": 0, "data": [{"uniqueid": "w10597662:a71441188", "current_trial": 0, "dateTime": 1693481162613, "trialdata": {"success": true, "trial_type": "fullscreen", "trial_index": 0, "time_elapsed": 5681, "internal_node_id": "0.0-0.0"}}, {"uniqueid": "w10597662:a71441188", "current_trial": 1, "dateTime": 1693481183510, "trialdata": {"view_history": [{"page_index": 0, "viewing_time": 20866}], "rt": 20868, "trial_id": "exp_instructions_misaligned", "trial_type": "instructions", "trial_index": 1, "time_elapsed": 26580, "internal_node_id": "0.0-1.0"}}, {"uniqueid": "w10597662:a71441188", "current_trial": 2, "dateTime": 1693481535942, "trialdata": {"view_history": [{"page_index": 0, "viewing_time": 154618}, {"page_index": 1, "viewing_time": 135097}, {"page_index": 2, "viewing_time": 28774}, {"page_index": 3, "viewing_time": 33925}], "rt": 352416, "trial_id": "mouselab_instructions_1_misaligned", "trial_type": "instructions", "trial_index": 2, "time_elapsed": 379012, "internal_node_id": "0.0-2.0-1.0"}}, {"uniqueid": "w10597662:a71441188", "current_trial": 3, "dateTime": 1693481578791, "trialdata": {"revealed_states": [], "clicked_states": [], "num_clicks_accrued": [0, 0, 0, 0, 0, 0, 0, 0, 0, 0, 0, 0, 0], "stateRewards": ["", -10, -10, -10, -10, -10, 10, -10, -10, -10, -10, 10, -10, 10, -10, -10, -10, 10, 10, 10, 10, -10, 10, -10, 10, -10, -10, -10, 10, -10, 10, -10, -10, 10], "withholdReward": false, "trial_id": "practice_1", "block": "test", "trialIndex": 0, "score": 13.5, "costs": 0, "simulationMode": [null, null, null, null, null], "rewards": [-10, 10, -10, 10, 10], "path": ["0", "0", "12", "13", "14", "19", "22"], "rt": [18862, 3233, 576, 923, 1128], "actions": ["right", "right", "right", "down", "left"], "actionTimes": [27828, 31596, 32717, 34173, 35833], "queries": {"click": {"state": {"target": [], "time": []}, "edge": {"target": [], "time": []}}, "mouseover": {"state": {"target": ["0", "12", "12", "19"], "time": [9816, 17443, 18525, 21156]}, "edge": {"target": [], "time": []}}, "mouseout": {"state": {"target": ["0", "1", "1", "0", "22", "19", "1", "0", "0", "12", "12", "19"], "time": [1255, 1319, 2088, 2617, 3217, 3290, 6857, 9045, 10039, 17634, 20930, 21240]}, "edge": {"target": [], "time": []}}}, "displayed_time": "36.36", "trialTime": 40906, "trial_type": "mouselab-mdp", "trial_index": 3, "time_elapsed": 421854, "internal_node_id": "0.0-2.0-2.0-0.0"}}, {"uniqueid": "w10597662:a71441188", "current_trial": 4, "dateTime": 1693481603466, "trialdata": {"revealed_states": [], "clicked_states": [], "num_clicks_accrued": [0, 0, 0, 0, 0, 0, 0, 0, 0, 0, 0, 0, 0], "stateRewards": ["", 10, -10, -10, 10, 10, 10, -10, 10, -10, 10, 10, 10, 10, 10, -10, -10, 10, 10, 10, 10, 10, 10, 10, 10, 10, -10, 10, -10, 10, 10, 10, -10, 10], "withholdReward": false, "trial_id": "practice_2", "block": "test", "trialIndex": 1, "score": -6.5, "costs": 0, "simulationMode": [null, null, null, null, null], "rewards": [10, -10, -10, 10, -10], "path": ["0", "0", "1", "2", "3", "4", "7"], "rt": [6294, 275, 308, 1103, 306], "actions": ["up", "up", "up", "right", "down"], "actionTimes": [10704, 11539, 12391, 14026, 14855], "queries": {"click": {"state": {"target": [], "time": []}, "edge": {"target": [], "time": []}}, "mouseover": {"state": {"target": [], "time": []}, "edge": {"target": [], "time": []}}, "mouseout": {"state": {"target": ["31", "0"], "time": [2382, 19739]}, "edge": {"target": [], "time": []}}}, "displayed_time": "15.39", "trialTime": 23293, "trial_type": "mouselab-mdp", "trial_index": 4, "time_elapsed": 446535, "internal_node_id": "0.0-2.0-2.0-1.0"}}, {"uniqueid": "w10597662:a71441188", "current_trial": 5, "dateTime": 1693481624870, "trialdata": {"view_history": [{"page_index": 0, "viewing_time": 6580}, {"page_index": 1, "viewing_time": 14809}], "rt": 21390, "trial_id": "mouselab_instructions_2_misaligned", "trial_type": "instructions", "trial_index": 5, "time_elapsed": 467940, "internal_node_id": "0.0-2.0-3.0"}}, {"uniqueid": "w10597662:a71441188", "current_trial": 6, "dateTime": 1693481669203, "trialdata": {"rt": 44302, "response": {"Q0": "The cost for clicking on nodes may vary between nodes.", "Q1": "The better I perform the higher my bonus will be.", "Q2": "No, the amount of cash at each node of the web may be different each time.", "Q3": "To click on the least number of nodes.", "Q4": "Only before moving the spider.", "Q5": "3 seconds"}, "question_order": [0, 1, 2, 3, 4, 5], "correct": {"Q0": "The cost for clicking on nodes may vary between nodes.", "Q1": "The better I perform the higher my bonus will be.", "Q2": "No, the amount of cash at each node of the web may be different each time.", "Q3": "To get the highest total score.", "Q4": "Only before moving the spider.", "Q5": "3 seconds"}, "trial_id": "mouselab_quiz_misaligned", "trial_type": "survey-multi-choice", "trial_index": 6, "time_elapsed": 512273, "internal_node_id": "0.0-2.0-4.0"}}, {"uniqueid": "w10597662:a71441188", "current_trial": 7, "dateTime": 1693481680629, "trialdata": {"success": true, "trial_type": "fullscreen", "trial_index": 7, "time_elapsed": 523698, "internal_node_id": "0.0-2.1-0.1-0.1"}}, {"uniqueid": "w10597662:a71441188", "current_trial": 8, "dateTime": 1693481735991, "trialdata": {"view_history": [{"page_index": 0, "viewing_time": 43173}, {"page_index": 1, "viewing_time": 5679}, {"page_index": 2, "viewing_time": 4068}, {"page_index": 3, "viewing_time": 2407}], "rt": 55328, "trial_id": "mouselab_instructions_1_misaligned", "trial_type": "instructions", "trial_index": 8, "time_elapsed": 579060, "internal_node_id": "0.0-2.1-1.1"}}, {"uniqueid": "w10597662:a71441188", "current_trial": 9, "dateTime": 1693481768115, "trialdata": {"revealed_states": [], "clicked_states": ["12", "23"], "num_clicks_accrued": [0, 0, 0, 0, 0, 0, 0, 0, 0, 0, 0, 0, 0], "stateRewards": ["", -10, -10, -10, -10, -10, 10, -10, -10, -10, -10, 10, -10, 10, -10, -10, -10, 10, 10, 10, 10, -10, 10, -10, 10, -10, -10, -10, 10, -10, 10, -10, -10, 10], "withholdReward": false, "trial_id": "practice_1", "block": "test", "trialIndex": 2, "score": -47.5, "costs": -1, "simulationMode": [null, null, null, null, null], "rewards": [-10, -10, -10, -10, -10], "path": ["0", "0", "1", "2", "3", "4", "7"], "rt": [19605, 4, 578, 935, 987], "actions": ["up", "up", "up", "right", "down"], "actionTimes": [22360, 22906, 24024, 25492, 27055], "queries": {"click": {"state": {"target": ["12", "23"], "time": [4210, 8601]}, "edge": {"target": [], "time": []}}, "mouseover": {"state": {"target": ["12", "0", "23", "22", "0", "1"], "time": [3510, 7041, 7638, 10560, 20104, 20436]}, "edge": {"target": [], "time": []}}, "mouseout": {"state": {"target": ["0", "12", "12", "0", "23", "22", "0", "1"], "time": [947, 4712, 6831, 7603, 10525, 10593, 20145, 25965]}, "edge": {"target": [], "time": []}}}, "displayed_time": "27.58", "trialTime": 30687, "trial_type": "mouselab-mdp", "trial_index": 9, "time_elapsed": 611178, "internal_node_id": "0.0-2.1-2.1-0.1"}}, {"uniqueid": "w10597662:a71441188", "current_trial": 10, "dateTime": 1693481784315, "trialdata": {"revealed_states": [], "clicked_states": [], "num_clicks_accrued": [0, 0, 0, 0, 0, 0, 0, 0, 0, 0, 0, 0, 0], "stateRewards": ["", 10, -10, -10, 10, 10, 10, -10, 10, -10, 10, 10, 10, 10, 10, -10, -10, 10, 10, 10, 10, 10, 10, 10, 10, 10, -10, 10, -10, 10, 10, 10, -10, 10], "withholdReward": false, "trial_id": "practice_2", "block": "test", "trialIndex": 3, "score": 53.5, "costs": 0, "simulationMode": [null, null, null, null, null], "rewards": [10, 10, 10, 10, 10], "path": ["0", "0", "12", "13", "14", "19", "22"], "rt": [1223, 646, 282, 1081, 358], "actions": ["right", "right", "right", "down", "left"], "actionTimes": [5340, 6548, 7361, 8964, 9853], "queries": {"click": {"state": {"target": [], "time": []}, "edge": {"target": [], "time": []}}, "mouseover": {"state": {"target": ["12"], "time": [4711]}, "edge": {"target": [], "time": []}}, "mouseout": {"state": {"target": ["1", "12"], "time": [2400, 4755]}, "edge": {"target": [], "time": []}}}, "displayed_time": "10.34", "trialTime": 14733, "trial_type": "mouselab-mdp", "trial_index": 10, "time_elapsed": 627383, "internal_node_id": "0.0-2.1-2.1-1.1"}}, {"uniqueid": "w10597662:a71441188", "current_trial": 11, "dateTime": 1693481793371, "trialdata": {"view_history": [{"page_index": 0, "viewing_time": 6855}, {"page_index": 1, "viewing_time": 2187}], "rt": 9044, "trial_id": "mouselab_instructions_2_misaligned", "trial_type": "instructions", "trial_index": 11, "time_elapsed": 636441, "internal_node_id": "0.0-2.1-3.1"}}, {"uniqueid": "w10597662:a71441188", "current_trial": 12, "dateTime": 1693481843361, "trialdata": {"rt": 49970, "response": {"Q0": "The cost for clicking on nodes may vary between nodes.", "Q1": "The better I perform the higher my bonus will be.", "Q2": "No, the amount of cash at each node of the web may be different each time.", "Q3": "To get the highest total score.", "Q4": "Only before moving the spider.", "Q5": "3 seconds"}, "question_order": [0, 1, 2, 3, 4, 5], "correct": {"Q0": "The cost for clicking on nodes may vary between nodes.", "Q1": "The better I perform the higher my bonus will be.", "Q2": "No, the amount of cash at each node of the web may be different each time.", "Q3": "To get the highest total score.", "Q4": "Only before moving the spider.", "Q5": "3 seconds"}, "trial_id": "mouselab_quiz_misaligned", "trial_type": "survey-multi-choice", "trial_index": 12, "time_elapsed": 686431, "internal_node_id": "0.0-2.1-4.1"}}, {"uniqueid": "w10597662:a71441188", "current_trial": 13, "dateTime": 1693481853089, "trialdata": {"rt": 9691, "response": {"Q0": "No"}, "question_order": [0], "trial_id": "repeat_check", "trial_type": "survey-multi-choice", "trial_index": 13, "time_elapsed": 696157, "internal_node_id": "0.0-4.0-0.0"}}, {"uniqueid": "w10597662:a71441188", "current_trial": 14, "dateTime": 1693481866004, "trialdata": {"rt": 12884, "stimulus": "\n<h1> Get ready to start the game! </h1>\n\nThank you for reading the instructions. Get ready start with the 40 rounds of this game.\n<br><br>\nIf you need to take a break, feel free to take one after the end of a round, before continuing to the next one.\n<br><br>\nRemember, the more money the spider gets, the bigger your bonus will be!\n<br><br>\n<div style='text-align: center;'>Press <code>space</code> to begin.</div>\n\n<br><br>\n(If, at any point, the <code>space</code> key does not take you to the next page, click once on the text and try again.)", "response": " ", "trial_id": "mdp_ready", "trial_type": "html-keyboard-response", "trial_index": 14, "time_elapsed": 709073, "internal_node_id": "0.0-6.0-0.0"}}, {"uniqueid": "w10597662:a71441188", "current_trial": 15, "dateTime": 1693481887497, "trialdata": {"revealed_states": [], "clicked_states": [], "num_clicks_accrued": [0, 0, 0, 0, 0, 0, 0, 0, 0, 0, 0, 0, 0], "stateRewards": ["", 2, 3, 3, 10, 19, -21, 6, 9, 54, 68, 16, 2, 2, -6, -8, 40, -2, -75, -2, -42, 55, 59, -1, 2, 4, -14, 11, -34, -30, -6, 61, -53, 13], "withholdReward": false, "trial_id": "mdp_trial_1", "block": "test", "trialIndex": 4, "score": 55, "costs": 0, "simulationMode": [null, null, null, null, null], "rewards": [2, 2, -6, -2, 59], "path": ["0", "0", "12", "13", "14", "19", "22"], "rt": [3118, 366, 393, 1982, 833], "actions": ["right", "right", "right", "down", "left"], "actionTimes": [6060, 7001, 7938, 10450, 11813], "queries": {"click": {"state": {"target": [], "time": []}, "edge": {"target": [], "time": []}}, "mouseover": {"state": {"target": ["12"], "time": [4823]}, "edge": {"target": [], "time": []}}, "mouseout": {"state": {"target": ["0", "12"], "time": [4729, 14654]}, "edge": {"target": [], "time": []}}}, "displayed_time": "16.95", "trialTime": 19974, "trial_type": "mouselab-mdp", "trial_index": 15, "time_elapsed": 730562, "internal_node_id": "0.0-6.0-1.0-0.0"}}, {"uniqueid": "w10597662:a71441188", "current_trial": 16, "dateTime": 1693481912158, "trialdata": {"revealed_states": [], "clicked_states": [], "num_clicks_accrued": [0, 0, 0, 0, 0, 0, 0, 0, 0, 0, 0, 0, 0], "stateRewards": ["", -2, 2, -4, -4, -59, 88, 62, -3, 69, -15, -34, 1, -2, -5, 7, -54, -20, 78, -16, -74, -53, -21, 2, -4, 2, 13, -8, -44, 26, 9, 72, 4, 17], "withholdReward": false, "trial_id": "mdp_trial_2", "block": "test", "trialIndex": 5, "score": -43, "costs": 0, "simulationMode": [null, null, null, null, null], "rewards": [1, -2, -5, -16, -21], "path": ["0", "0", "12", "13", "14", "19", "22"], "rt": [1438, 101, 276, 913, 890], "actions": ["right", "right", "right", "down", "left"], "actionTimes": [7840, 8487, 9296, 10736, 12202], "queries": {"click": {"state": {"target": [], "time": []}, "edge": {"target": [], "time": []}}, "mouseover": {"state": {"target": [], "time": []}, "edge": {"target": [], "time": []}}, "mouseout": {"state": {"target": ["20", "14", "13", "0", "0", "22"], "time": [3945, 3987, 4113, 4562, 14196, 14289]}, "edge": {"target": [], "time": []}}}, "displayed_time": "20.41", "trialTime": 23073, "trial_type": "mouselab-mdp", "trial_index": 16, "time_elapsed": 755223, "internal_node_id": "0.0-6.0-1.0-1.0"}}, {"uniqueid": "w10597662:a71441188", "current_trial": 17, "dateTime": 1693481935293, "trialdata": {"revealed_states": [], "clicked_states": [], "num_clicks_accrued": [0, 0, 0, 0, 0, 0, 0, 0, 0, 0, 0, 0, 0], "stateRewards": ["", 2, -3, -4, -1, 25, -16, 16, 10, -71, -20, -55, 1, 3, -4, -9, 1, 32, 11, -6, 32, -50, -41, -1, 4, 4, -8, 7, -81, 70, 2, -52, 45, -10], "withholdReward": false, "trial_id": "mdp_trial_3", "block": "test", "trialIndex": 6, "score": 26, "costs": 0, "simulationMode": [null, null, null, null, null], "rewards": [1, 3, -4, -6, 32], "path": ["0", "0", "12", "13", "14", "19", "20"], "rt": [2035, 262, 412, 782, 484], "actions": ["right", "right", "right", "down", "right"], "actionTimes": [6041, 6839, 7798, 9129, 10141], "queries": {"click": {"state": {"target": [], "time": []}, "edge": {"target": [], "time": []}}, "mouseover": {"state": {"target": [], "time": []}, "edge": {"target": [], "time": []}}, "mouseout": {"state": {"target": ["12", "1", "0", "19"], "time": [2084, 2248, 12527, 12590]}, "edge": {"target": [], "time": []}}}, "displayed_time": "18.01", "trialTime": 21227, "trial_type": "mouselab-mdp", "trial_index": 17, "time_elapsed": 778357, "internal_node_id": "0.0-6.0-1.0-2.0"}}, {"uniqueid": "w10597662:a71441188", "current_trial": 18, "dateTime": 1693481959175, "trialdata": {"revealed_states": [], "clicked_states": [], "num_clicks_accrued": [0, 0, 0, 0, 0, 0, 0, 0, 0, 0, 0, 0, 0], "stateRewards": ["", -1, -4, -3, 1, -45, -67, -24, 14, 32, 22, 22, -1, 1, -5, -7, 72, 84, -79, -5, 19, -40, -2, -1, -2, 8, -3, 84, -25, -28, 11, 64, -66, 77], "withholdReward": false, "trial_id": "mdp_trial_4", "block": "test", "trialIndex": 7, "score": -50, "costs": 0, "simulationMode": [null, null, null, null, null], "rewards": [-1, 1, -5, -5, -40], "path": ["0", "0", "12", "13", "14", "19", "21"], "rt": [1734, 447, 620, 6587, 454], "actions": ["right", "right", "right", "down", "down"], "actionTimes": [6083, 7069, 8226, 15375, 16375], "queries": {"click": {"state": {"target": [], "time": []}, "edge": {"target": [], "time": []}}, "mouseover": {"state": {"target": ["0"], "time": [4899]}, "edge": {"target": [], "time": []}}, "mouseout": {"state": {"target": ["28", "0", "22", "20"], "time": [2353, 5008, 18112, 18151]}, "edge": {"target": [], "time": []}}}, "displayed_time": "18.35", "trialTime": 21813, "trial_type": "mouselab-mdp", "trial_index": 18, "time_elapsed": 802240, "internal_node_id": "0.0-6.0-1.0-3.0"}}, {"uniqueid": "w10597662:a71441188", "current_trial": 19, "dateTime": 1693481981833, "trialdata": {"revealed_states": [], "clicked_states": [], "num_clicks_accrued": [0, 0, 0, 0, 0, 0, 0, 0, 0, 0, 0, 0, 0], "stateRewards": ["", 1, -1, -7, -7, -22, 15, -13, 13, 26, -32, 38, -1, 1, -7, -4, 16, -62, 86, 12, -54, 56, 64, -2, -1, 6, 14, -57, 37, 62, -6, -25, 50, -70], "withholdReward": false, "trial_id": "mdp_trial_5", "block": "test", "trialIndex": 8, "score": 69, "costs": 0, "simulationMode": [null, null, null, null, null], "rewards": [-1, 1, -7, 12, 64], "path": ["0", "0", "12", "13", "14", "19", "22"], "rt": [1187, 250, 241, 617, 1136], "actions": ["right", "right", "right", "down", "left"], "actionTimes": [5604, 6416, 7193, 8397, 10087], "queries": {"click": {"state": {"target": [], "time": []}, "edge": {"target": [], "time": []}}, "mouseover": {"state": {"target": [], "time": []}, "edge": {"target": [], "time": []}}, "mouseout": {"state": {"target": ["13", "0", "12"], "time": [2121, 12016, 12064]}, "edge": {"target": [], "time": []}}}, "displayed_time": "18.43", "trialTime": 20590, "trial_type": "mouselab-mdp", "trial_index": 19, "time_elapsed": 824899, "internal_node_id": "0.0-6.0-1.0-4.0"}}, {"uniqueid": "w10597662:a71441188", "current_trial": 20, "dateTime": 1693482006358, "trialdata": {"revealed_states": [], "clicked_states": [], "num_clicks_accrued": [0, 0, 0, 0, 0, 0, 0, 0, 0, 0, 0, 0, 0], "stateRewards": ["", -1, -2, 4, 9, 10, -75, 39, 16, -43, 88, -19, -1, 1, 2, 4, -31, 10, 73, 12, 41, -64, -81, -2, 2, -6, 1, -81, -1, -26, 3, -59, -3, -20], "withholdReward": false, "trial_id": "mdp_trial_6", "block": "test", "trialIndex": 9, "score": -67, "costs": 0, "simulationMode": [null, null, null, null, null], "rewards": [-1, 1, 2, 12, -81], "path": ["0", "0", "12", "13", "14", "19", "22"], "rt": [1277, 196, 260, 548, 317], "actions": ["right", "right", "right", "down", "left"], "actionTimes": [4651, 5398, 6190, 7304, 8152], "queries": {"click": {"state": {"target": [], "time": []}, "edge": {"target": [], "time": []}}, "mouseover": {"state": {"target": [], "time": []}, "edge": {"target": [], "time": []}}, "mouseout": {"state": {"target": ["0", "12", "14", "17", "15"], "time": [10760, 10813, 10875, 11208, 11372]}, "edge": {"target": [], "time": []}}}, "displayed_time": "17.40", "trialTime": 22287, "trial_type": "mouselab-mdp", "trial_index": 20, "time_elapsed": 849426, "internal_node_id": "0.0-6.0-1.0-5.0"}}, {"uniqueid": "w10597662:a71441188", "current_trial": 21, "dateTime": 1693482031679, "trialdata": {"revealed_states": [], "clicked_states": [], "num_clicks_accrued": [0, 0, 0, 0, 0, 0, 0, 0, 0, 0, 0, 0, 0], "stateRewards": ["", -1, -3, 3, 5, 56, 39, 50, -1, -80, 33, -46, 1, -2, -6, -8, 87, 48, 54, -11, -20, -64, -54, -2, 3, -7, -3, 12, 88, 35, -16, -46, -70, -3], "withholdReward": false, "trial_id": "mdp_trial_7", "block": "test", "trialIndex": 10, "score": 31, "costs": 0, "simulationMode": [null, null, null, null, null], "rewards": [-1, -3, 3, -1, 33], "path": ["0", "0", "1", "2", "3", "8", "10"], "rt": [3496, 672, 489, 1118, 2138], "actions": ["up", "up", "up", "left", "down"], "actionTimes": [7243, 8489, 9516, 11198, 13854], "queries": {"click": {"state": {"target": [], "time": []}, "edge": {"target": [], "time": []}}, "mouseover": {"state": {"target": ["23"], "time": [4454]}, "edge": {"target": [], "time": []}}, "mouseout": {"state": {"target": ["21", "19", "22", "0", "23", "1", "14"], "time": [1064, 1120, 1492, 1914, 4686, 17236, 17304]}, "edge": {"target": [], "time": []}}}, "displayed_time": "17.76", "trialTime": 22224, "trial_type": "mouselab-mdp", "trial_index": 21, "time_elapsed": 874743, "internal_node_id": "0.0-6.0-1.0-6.0"}}, {"uniqueid": "w10597662:a71441188", "current_trial": 22, "dateTime": 1693482054792, "trialdata": {"revealed_states": [], "clicked_states": [], "num_clicks_accrued": [0, 0, 0, 0, 0, 0, 0, 0, 0, 0, 0, 0, 0], "stateRewards": ["", -1, 4, 3, 12, -27, 34, -33, 3, -63, 1, 6, 2, 2, -6, -11, -77, -85, 68, -6, 51, 81, -60, -2, -2, 1, 15, 20, 15, 68, -10, -14, 6, -4], "withholdReward": false, "trial_id": "mdp_trial_8", "block": "test", "trialIndex": 11, "score": 52, "costs": 0, "simulationMode": [null, null, null, null, null], "rewards": [-1, 4, 3, 12, 34], "path": ["0", "0", "1", "2", "3", "4", "6"], "rt": [1432, 59, 248, 2521, 145], "actions": ["up", "up", "up", "right", "right"], "actionTimes": [5993, 6593, 7388, 10439, 11114], "queries": {"click": {"state": {"target": [], "time": []}, "edge": {"target": [], "time": []}}, "mouseover": {"state": {"target": ["0"], "time": [4662]}, "edge": {"target": [], "time": []}}, "mouseout": {"state": {"target": ["21", "19", "0", "0", "21"], "time": [1471, 1688, 2389, 12837, 12947]}, "edge": {"target": [], "time": []}}}, "displayed_time": "18.59", "trialTime": 21011, "trial_type": "mouselab-mdp", "trial_index": 22, "time_elapsed": 897855, "internal_node_id": "0.0-6.0-1.0-7.0"}}, {"uniqueid": "w10597662:a71441188", "current_trial": 23, "dateTime": 1693482077778, "trialdata": {"revealed_states": [], "clicked_states": [], "num_clicks_accrued": [0, 0, 0, 0, 0, 0, 0, 0, 0, 0, 0, 0, 0], "stateRewards": ["", -2, -4, -8, 8, 63, -50, -19, -7, -17, -31, 31, 1, 3, -5, 12, -35, -63, -29, -4, -17, -75, -79, -2, -3, -2, 8, -3, -85, 10, -2, -82, -82, 56], "withholdReward": false, "trial_id": "mdp_trial_9", "block": "test", "trialIndex": 12, "score": -52, "costs": 0, "simulationMode": [null, null, null, null, null], "rewards": [-2, -4, -8, -7, -31], "path": ["0", "0", "1", "2", "3", "8", "10"], "rt": [1871, 187, 266, 724, 466], "actions": ["up", "up", "up", "left", "down"], "actionTimes": [7064, 7820, 8641, 9925, 10920], "queries": {"click": {"state": {"target": [], "time": []}, "edge": {"target": [], "time": []}}, "mouseover": {"state": {"target": ["1"], "time": [6139]}, "edge": {"target": [], "time": []}}, "mouseout": {"state": {"target": ["20", "19", "0"], "time": [1897, 1931, 6093]}, "edge": {"target": [], "time": []}}}, "displayed_time": "19.22", "trialTime": 20820, "trial_type": "mouselab-mdp", "trial_index": 23, "time_elapsed": 920846, "internal_node_id": "0.0-6.0-1.0-8.0"}}, {"uniqueid": "w10597662:a71441188", "current_trial": 24, "dateTime": 1693482102476, "trialdata": {"revealed_states": [], "clicked_states": [], "num_clicks_accrued": [0, 0, 0, 0, 0, 0, 0, 0, 0, 0, 0, 0, 0], "stateRewards": ["", -2, -4, 2, 10, -17, 18, 73, 11, -32, 23, -13, -2, -4, 7, 12, -25, 66, -23, 15, 40, -76, -9, 1, 2, -7, -5, -20, 24, 3, -5, 16, -73, 70], "withholdReward": false, "trial_id": "mdp_trial_10", "block": "test", "trialIndex": 13, "score": -25, "costs": 0, "simulationMode": [null, null, null, null, null], "rewards": [-2, -4, 2, 11, -32], "path": ["0", "0", "1", "2", "3", "8", "9"], "rt": [2404, 905, 566, 585, 721], "actions": ["up", "up", "up", "left", "up"], "actionTimes": [5952, 7401, 8526, 9690, 10995], "queries": {"click": {"state": {"target": [], "time": []}, "edge": {"target": [], "time": []}}, "mouseover": {"state": {"target": [], "time": []}, "edge": {"target": [], "time": []}}, "mouseout": {"state": {"target": ["1", "0"], "time": [915, 1170]}, "edge": {"target": [], "time": []}}}, "displayed_time": "17.58", "trialTime": 22572, "trial_type": "mouselab-mdp", "trial_index": 24, "time_elapsed": 945544, "internal_node_id": "0.0-6.0-1.0-9.0"}}, {"uniqueid": "w10597662:a71441188", "current_trial": 25, "dateTime": 1693482124821, "trialdata": {"revealed_states": [], "clicked_states": [], "num_clicks_accrued": [0, 0, 0, 0, 0, 0, 0, 0, 0, 0, 0, 0, 0], "stateRewards": ["", -1, 3, 1, -7, 56, 76, 57, 3, 11, -9, 14, 1, -2, 2, 8, -77, -3, 79, -5, 88, 24, -66, -2, -1, 7, -7, -30, 14, -76, 11, -36, 28, -6], "withholdReward": false, "trial_id": "mdp_trial_11", "block": "test", "trialIndex": 14, "score": -21, "costs": 0, "simulationMode": [null, null, null, null, null], "rewards": [-2, -1, 7, 11, -36], "path": ["0", "0", "23", "24", "25", "30", "31"], "rt": [2087, 235, 1910, 861, 326], "actions": ["left", "left", "left", "down", "right"], "actionTimes": [5785, 6543, 8997, 10407, 11264], "queries": {"click": {"state": {"target": [], "time": []}, "edge": {"target": [], "time": []}}, "mouseover": {"state": {"target": ["0"], "time": [5549]}, "edge": {"target": [], "time": []}}, "mouseout": {"state": {"target": ["0"], "time": [5355]}, "edge": {"target": [], "time": []}}}, "displayed_time": "17.72", "trialTime": 20005, "trial_type": "mouselab-mdp", "trial_index": 25, "time_elapsed": 967890, "internal_node_id": "0.0-6.0-1.0-10.0"}}, {"uniqueid": "w10597662:a71441188", "current_trial": 26, "dateTime": 1693482146250, "trialdata": {"revealed_states": [], "clicked_states": [], "num_clicks_accrued": [0, 0, 0, 0, 0, 0, 0, 0, 0, 0, 0, 0, 0], "stateRewards": ["", 2, 4, 7, -6, -76, -81, 2, 5, -66, -3, 36, -2, -4, 6, -2, -69, 4, -49, -6, 67, 38, -67, 2, 1, 1, 6, -68, -21, 52, -16, -16, 6, -70], "withholdReward": false, "trial_id": "mdp_trial_12", "block": "test", "trialIndex": 15, "score": -73, "costs": 0, "simulationMode": [null, null, null, null, null], "rewards": [-2, -4, 6, -6, -67], "path": ["0", "0", "12", "13", "14", "19", "22"], "rt": [1124, 115, 156, 626, 879], "actions": ["right", "right", "right", "down", "left"], "actionTimes": [4104, 4788, 5477, 6646, 8073], "queries": {"click": {"state": {"target": [], "time": []}, "edge": {"target": [], "time": []}}, "mouseover": {"state": {"target": ["0"], "time": [3228]}, "edge": {"target": [], "time": []}}, "mouseout": {"state": {"target": ["0", "0"], "time": [1218, 10673]}, "edge": {"target": [], "time": []}}}, "displayed_time": "17.00", "trialTime": 19011, "trial_type": "mouselab-mdp", "trial_index": 26, "time_elapsed": 989318, "internal_node_id": "0.0-6.0-1.0-11.0"}}, {"uniqueid": "w10597662:a71441188", "current_trial": 27, "dateTime": 1693482178083, "trialdata": {"revealed_states": [], "clicked_states": [], "num_clicks_accrued": [0, 0, 0, 0, 0, 0, 0, 0, 0, 0, 0, 0, 0], "stateRewards": ["", 1, -4, 6, -3, 40, 76, -51, 5, -24, -63, 44, -2, -2, 8, 1, 76, -85, -58, 10, 59, 20, 11, -2, 3, -3, 3, -82, -10, 54, -7, -57, -6, -32], "withholdReward": false, "trial_id": "mdp_trial_13", "block": "test", "trialIndex": 16, "score": 34, "costs": 0, "simulationMode": [null, null, null, null, null], "rewards": [-2, -2, 8, 10, 20], "path": ["0", "0", "12", "13", "14", "19", "21"], "rt": [1257, 85, 43, 540, 41], "actions": ["right", "right", "right", "down", "down"], "actionTimes": [4295, 4929, 5506, 6610, 7185], "queries": {"click": {"state": {"target": [], "time": []}, "edge": {"target": [], "time": []}}, "mouseover": {"state": {"target": [], "time": []}, "edge": {"target": [], "time": []}}, "mouseout": {"state": {"target": [], "time": []}, "edge": {"target": [], "time": []}}}, "displayed_time": "17.07", "trialTime": 29184, "trial_type": "mouselab-mdp", "trial_index": 27, "time_elapsed": 1021149, "internal_node_id": "0.0-6.0-1.0-12.0"}}, {"uniqueid": "w10597662:a71441188", "current_trial": 28, "dateTime": 1693482201356, "trialdata": {"revealed_states": [], "clicked_states": [], "num_clicks_accrued": [0, 0, 0, 0, 0, 0, 0, 0, 0, 0, 0, 0, 0], "stateRewards": ["", -2, 1, -7, -8, -37, -76, -87, 11, 30, -63, 80, -1, 4, 2, -1, 42, 17, 52, -3, -75, -80, -68, 2, -3, -5, -15, -48, 82, 24, -7, 5, -22, -71], "withholdReward": false, "trial_id": "mdp_trial_14", "block": "test", "trialIndex": 17, "score": 83, "costs": 0, "simulationMode": [null, null, null, null, null], "rewards": [-2, 1, -7, 11, 80], "path": ["0", "0", "1", "2", "3", "8", "11"], "rt": [3959, 285, 376, 760, 191], "actions": ["up", "up", "up", "left", "left"], "actionTimes": [7059, 7890, 8807, 10108, 10840], "queries": {"click": {"state": {"target": [], "time": []}, "edge": {"target": [], "time": []}}, "mouseover": {"state": {"target": [], "time": []}, "edge": {"target": [], "time": []}}, "mouseout": {"state": {"target": [], "time": []}, "edge": {"target": [], "time": []}}}, "displayed_time": "17.11", "trialTime": 20689, "trial_type": "mouselab-mdp", "trial_index": 28, "time_elapsed": 1044424, "internal_node_id": "0.0-6.0-1.0-13.0"}}, {"uniqueid": "w10597662:a71441188", "current_trial": 29, "dateTime": 1693482231887, "trialdata": {"revealed_states": [], "clicked_states": [], "num_clicks_accrued": [0, 0, 0, 0, 0, 0, 0, 0, 0, 0, 0, 0, 0], "stateRewards": ["", -2, -3, 4, 1, 33, -53, 15, 9, -12, 61, -6, -2, 4, 6, -11, 47, -43, -7, -11, 46, 23, -28, -1, -1, 3, -10, 11, 76, -76, 10, 18, -38, 87], "withholdReward": false, "trial_id": "mdp_trial_15", "block": "test", "trialIndex": 18, "score": 20, "costs": 0, "simulationMode": [null, null, null, null, null], "rewards": [-2, 4, 6, -11, 23], "path": ["0", "0", "12", "13", "14", "19", "21"], "rt": [1583, 194, 212, 564, 489], "actions": ["right", "right", "right", "down", "down"], "actionTimes": [11616, 12335, 13079, 14185, 15205], "queries": {"click": {"state": {"target": [], "time": []}, "edge": {"target": [], "time": []}}, "mouseover": {"state": {"target": ["0"], "time": [10589]}, "edge": {"target": [], "time": []}}, "mouseout": {"state": {"target": ["0"], "time": [10335]}, "edge": {"target": [], "time": []}}}, "displayed_time": "24.05", "trialTime": 28020, "trial_type": "mouselab-mdp", "trial_index": 29, "time_elapsed": 1074953, "internal_node_id": "0.0-6.0-1.0-14.0"}}, {"uniqueid": "w10597662:a71441188", "current_trial": 30, "dateTime": 1693482258344, "trialdata": {"revealed_states": [], "clicked_states": [], "num_clicks_accrued": [0, 0, 0, 0, 0, 0, 0, 0, 0, 0, 0, 0, 0], "stateRewards": ["", -2, -3, 7, -13, 60, 9, 37, -6, 37, 20, 1, 2, -2, -8, 6, -80, -31, -10, -7, 70, -65, -44, -1, 1, 7, 6, -11, 73, -85, 16, -21, 47, 34], "withholdReward": false, "trial_id": "mdp_trial_16", "block": "test", "trialIndex": 19, "score": 2, "costs": 0, "simulationMode": [null, null, null, null, null], "rewards": [-1, 1, 7, 6, -11], "path": ["0", "0", "23", "24", "25", "26", "27"], "rt": [1432, 471, 253, 2627, 170], "actions": ["left", "left", "left", "up", "up"], "actionTimes": [4011, 5008, 5810, 8979, 9680], "queries": {"click": {"state": {"target": [], "time": []}, "edge": {"target": [], "time": []}}, "mouseover": {"state": {"target": ["0"], "time": [2805]}, "edge": {"target": [], "time": []}}, "mouseout": {"state": {"target": ["0", "0", "32"], "time": [2715, 10584, 23675]}, "edge": {"target": [], "time": []}}}, "displayed_time": "16.98", "trialTime": 24013, "trial_type": "mouselab-mdp", "trial_index": 30, "time_elapsed": 1101412, "internal_node_id": "0.0-6.0-1.0-15.0"}}, {"uniqueid": "w10597662:a71441188", "current_trial": 31, "dateTime": 1693482282869, "trialdata": {"revealed_states": [], "clicked_states": [], "num_clicks_accrued": [0, 0, 0, 0, 0, 0, 0, 0, 0, 0, 0, 0, 0], "stateRewards": ["", 1, -1, 1, 13, 31, -56, 72, 2, 41, 5, 63, -2, -3, -2, 3, -71, -26, 52, 13, -31, 24, -67, 2, -2, 5, 4, 66, 43, 72, 9, 86, -26, 44], "withholdReward": false, "trial_id": "mdp_trial_17", "block": "test", "trialIndex": 20, "score": 58, "costs": 0, "simulationMode": [null, null, null, null, null], "rewards": [2, -2, 5, 9, 44], "path": ["0", "0", "23", "24", "25", "30", "33"], "rt": [6649, 267, 297, 983, 733], "actions": ["left", "left", "left", "down", "left"], "actionTimes": [11495, 12290, 13136, 14681, 15945], "queries": {"click": {"state": {"target": [], "time": []}, "edge": {"target": [], "time": []}}, "mouseover": {"state": {"target": ["0", "23", "22"], "time": [4977, 7343, 10088]}, "edge": {"target": [], "time": []}}, "mouseout": {"state": {"target": ["0", "0", "23", "22"], "time": [2273, 7252, 9951, 10157]}, "edge": {"target": [], "time": []}}}, "displayed_time": "18.85", "trialTime": 21487, "trial_type": "mouselab-mdp", "trial_index": 31, "time_elapsed": 1125931, "internal_node_id": "0.0-6.0-1.0-16.0"}}, {"uniqueid": "w10597662:a71441188", "current_trial": 32, "dateTime": 1693482306276, "trialdata": {"revealed_states": [], "clicked_states": [], "num_clicks_accrued": [0, 0, 0, 0, 0, 0, 0, 0, 0, 0, 0, 0, 0], "stateRewards": ["", -1, 3, 8, 9, -53, 20, -84, 2, -28, -62, -31, -1, -2, -7, 2, 51, 58, 45, -4, -17, -41, 36, 2, -2, -7, -15, 29, -54, -37, -16, -43, 65, -17], "withholdReward": false, "trial_id": "mdp_trial_18", "block": "test", "trialIndex": 21, "score": 42, "costs": 0, "simulationMode": [null, null, null, null, null], "rewards": [2, -2, -7, -16, 65], "path": ["0", "0", "23", "24", "25", "30", "32"], "rt": [1507, 285, 276, 353, 162], "actions": ["left", "left", "left", "down", "down"], "actionTimes": [5905, 6720, 7551, 8473, 9182], "queries": {"click": {"state": {"target": [], "time": []}, "edge": {"target": [], "time": []}}, "mouseover": {"state": {"target": [], "time": []}, "edge": {"target": [], "time": []}}, "mouseout": {"state": {"target": ["19"], "time": [1257]}, "edge": {"target": [], "time": []}}}, "displayed_time": "18.40", "trialTime": 20271, "trial_type": "mouselab-mdp", "trial_index": 32, "time_elapsed": 1149340, "internal_node_id": "0.0-6.0-1.0-17.0"}}, {"uniqueid": "w10597662:a71441188", "current_trial": 33, "dateTime": 1693482329077, "trialdata": {"revealed_states": [], "clicked_states": [], "num_clicks_accrued": [0, 0, 0, 0, 0, 0, 0, 0, 0, 0, 0, 0, 0], "stateRewards": ["", 2, -1, 8, -2, -16, 69, -39, -7, -13, -27, -86, 2, -2, 2, 13, -34, -16, -20, -5, 19, 81, 32, -2, -1, 2, -14, 20, 80, 58, 4, 70, 12, 73], "withholdReward": false, "trial_id": "mdp_trial_19", "block": "test", "trialIndex": 22, "score": 73, "costs": 0, "simulationMode": [null, null, null, null, null], "rewards": [-2, -1, 2, 4, 70], "path": ["0", "0", "23", "24", "25", "30", "31"], "rt": [2167, 757, 246, 608, 889], "actions": ["left", "left", "left", "down", "right"], "actionTimes": [5466, 6759, 7562, 8710, 10183], "queries": {"click": {"state": {"target": [], "time": []}, "edge": {"target": [], "time": []}}, "mouseover": {"state": {"target": [], "time": []}, "edge": {"target": [], "time": []}}, "mouseout": {"state": {"target": ["28", "23"], "time": [998, 1298]}, "edge": {"target": [], "time": []}}}, "displayed_time": "17.30", "trialTime": 19300, "trial_type": "mouselab-mdp", "trial_index": 33, "time_elapsed": 1172140, "internal_node_id": "0.0-6.0-1.0-18.0"}}, {"uniqueid": "w10597662:a71441188", "current_trial": 34, "dateTime": 1693482350434, "trialdata": {"revealed_states": [], "clicked_states": [], "num_clicks_accrued": [0, 0, 0, 0, 0, 0, 0, 0, 0, 0, 0, 0, 0], "stateRewards": ["", 2, -1, 3, -12, -83, 6, -33, 9, 28, 24, -50, -2, -1, -2, -5, -87, 37, 82, 12, 80, -5, 10, -2, -3, -6, 9, 22, -1, 16, 9, 77, -62, 58], "withholdReward": false, "trial_id": "mdp_trial_20", "block": "test", "trialIndex": 23, "score": -64, "costs": 0, "simulationMode": [null, null, null, null, null], "rewards": [-2, -3, -6, 9, -62], "path": ["0", "0", "23", "24", "25", "30", "32"], "rt": [1548, 432, 360, 1042, 661], "actions": ["left", "left", "left", "down", "down"], "actionTimes": [4348, 5368, 6286, 7876, 9113], "queries": {"click": {"state": {"target": [], "time": []}, "edge": {"target": [], "time": []}}, "mouseover": {"state": {"target": [], "time": []}, "edge": {"target": [], "time": []}}, "mouseout": {"state": {"target": ["0"], "time": [42]}, "edge": {"target": [], "time": []}}}, "displayed_time": "16.80", "trialTime": 18489, "trial_type": "mouselab-mdp", "trial_index": 34, "time_elapsed": 1193497, "internal_node_id": "0.0-6.0-1.0-19.0"}}, {"uniqueid": "w10597662:a71441188", "current_trial": 35, "dateTime": 1693482374739, "trialdata": {"revealed_states": [], "clicked_states": [], "num_clicks_accrued": [0, 0, 0, 0, 0, 0, 0, 0, 0, 0, 0, 0, 0], "stateRewards": ["", 1, -3, -2, 14, 49, -40, -39, 2, 26, -61, 73, 1, -4, -8, 12, 79, 29, -65, -13, 55, -26, 27, -1, 3, 3, 9, -17, -60, -18, -8, 35, -88, 69], "withholdReward": false, "trial_id": "mdp_trial_21", "block": "test", "trialIndex": 24, "score": 66, "costs": 0, "simulationMode": [null, null, null, null, null], "rewards": [-1, 3, 3, -8, 69], "path": ["0", "0", "23", "24", "25", "30", "33"], "rt": [5077, 378, 508, 448, 601], "actions": ["left", "left", "left", "down", "left"], "actionTimes": [8074, 8989, 10042, 11065, 12205], "queries": {"click": {"state": {"target": [], "time": []}, "edge": {"target": [], "time": []}}, "mouseover": {"state": {"target": [], "time": []}, "edge": {"target": [], "time": []}}, "mouseout": {"state": {"target": ["0"], "time": [13291]}, "edge": {"target": [], "time": []}}}, "displayed_time": "17.00", "trialTime": 21622, "trial_type": "mouselab-mdp", "trial_index": 35, "time_elapsed": 1217808, "internal_node_id": "0.0-6.0-1.0-20.0"}}, {"uniqueid": "w10597662:a71441188", "current_trial": 36, "dateTime": 1693482397426, "trialdata": {"revealed_states": [], "clicked_states": [], "num_clicks_accrued": [0, 0, 0, 0, 0, 0, 0, 0, 0, 0, 0, 0, 0], "stateRewards": ["", -2, -2, -3, -6, -15, -11, 41, -12, -63, -76, 2, -2, -3, 8, 9, -36, -2, -18, -16, -32, -85, -17, -2, 1, 5, -16, 82, 35, -88, -1, 80, -82, -20], "withholdReward": false, "trial_id": "mdp_trial_22", "block": "test", "trialIndex": 25, "score": 23, "costs": 0, "simulationMode": [null, null, null, null, null], "rewards": [-2, 1, 5, -16, 35], "path": ["0", "0", "23", "24", "25", "26", "28"], "rt": [1376, 124, 352, 728, 98], "actions": ["left", "left", "left", "up", "right"], "actionTimes": [5070, 5759, 6682, 7947, 8600], "queries": {"click": {"state": {"target": [], "time": []}, "edge": {"target": [], "time": []}}, "mouseover": {"state": {"target": [], "time": []}, "edge": {"target": [], "time": []}}, "mouseout": {"state": {"target": ["25", "0"], "time": [1572, 12465]}, "edge": {"target": [], "time": []}}}, "displayed_time": "17.70", "trialTime": 19855, "trial_type": "mouselab-mdp", "trial_index": 36, "time_elapsed": 1240493, "internal_node_id": "0.0-6.0-1.0-21.0"}}, {"uniqueid": "w10597662:a71441188", "current_trial": 37, "dateTime": 1693482419880, "trialdata": {"revealed_states": [], "clicked_states": [], "num_clicks_accrued": [0, 0, 0, 0, 0, 0, 0, 0, 0, 0, 0, 0, 0], "stateRewards": ["", -1, -4, -1, -11, 43, 69, 39, 4, 17, -20, -82, -2, -1, 4, 8, -79, 24, -79, 11, 36, 64, 41, 2, 4, -1, 11, -79, -47, 75, -3, 63, -36, -19], "withholdReward": false, "trial_id": "mdp_trial_23", "block": "test", "trialIndex": 26, "score": -63, "costs": 0, "simulationMode": [null, null, null, null, null], "rewards": [2, 4, -1, 11, -79], "path": ["0", "0", "23", "24", "25", "26", "27"], "rt": [1314, 120, 267, 703, 23], "actions": ["left", "left", "left", "up", "up"], "actionTimes": [5757, 6431, 7238, 8485, 9047], "queries": {"click": {"state": {"target": [], "time": []}, "edge": {"target": [], "time": []}}, "mouseover": {"state": {"target": [], "time": []}, "edge": {"target": [], "time": []}}, "mouseout": {"state": {"target": ["31", "0", "12"], "time": [1789, 1854, 2053]}, "edge": {"target": [], "time": []}}}, "displayed_time": "18.45", "trialTime": 19509, "trial_type": "mouselab-mdp", "trial_index": 37, "time_elapsed": 1262946, "internal_node_id": "0.0-6.0-1.0-22.0"}}, {"uniqueid": "w10597662:a71441188", "current_trial": 38, "dateTime": 1693482440381, "trialdata": {"revealed_states": [], "clicked_states": [], "num_clicks_accrued": [0, 0, 0, 0, 0, 0, 0, 0, 0, 0, 0, 0, 0], "stateRewards": ["", 2, 2, 3, -15, 23, -14, 73, -7, -32, -20, -6, 1, 1, -5, -12, 73, 6, -84, 11, -81, -57, 13, -2, -1, -4, -8, -52, -58, 49, 13, 5, -41, -41], "withholdReward": false, "trial_id": "mdp_trial_24", "block": "test", "trialIndex": 27, "score": 34, "costs": 0, "simulationMode": [null, null, null, null, null], "rewards": [-2, -1, -4, -8, 49], "path": ["0", "0", "23", "24", "25", "26", "29"], "rt": [1327, 148, 460, 811, 646], "actions": ["left", "left", "left", "up", "left"], "actionTimes": [4249, 4938, 5940, 7303, 8488], "queries": {"click": {"state": {"target": [], "time": []}, "edge": {"target": [], "time": []}}, "mouseover": {"state": {"target": ["12"], "time": [4058]}, "edge": {"target": [], "time": []}}, "mouseout": {"state": {"target": ["0", "12", "13"], "time": [2992, 15067, 15123]}, "edge": {"target": [], "time": []}}}, "displayed_time": "16.93", "trialTime": 17722, "trial_type": "mouselab-mdp", "trial_index": 38, "time_elapsed": 1283449, "internal_node_id": "0.0-6.0-1.0-23.0"}}, {"uniqueid": "w10597662:a71441188", "current_trial": 39, "dateTime": 1693482465368, "trialdata": {"revealed_states": [], "clicked_states": [], "num_clicks_accrued": [0, 0, 0, 0, 0, 0, 0, 0, 0, 0, 0, 0, 0], "stateRewards": ["", -1, -1, 4, -16, -75, 81, -51, -7, -84, 73, -30, -2, 1, -3, -16, -77, 33, 14, 1, 45, 87, -66, 2, 2, -5, -7, -19, -17, 79, -3, 8, 49, 47], "withholdReward": false, "trial_id": "mdp_trial_25", "block": "test", "trialIndex": 28, "score": 68, "costs": 0, "simulationMode": [null, null, null, null, null], "rewards": [-1, -1, 4, -7, 73], "path": ["0", "0", "1", "2", "3", "8", "10"], "rt": [2473, 415, 714, 932, 474], "actions": ["up", "up", "up", "left", "down"], "actionTimes": [6709, 7670, 8931, 10390, 11391], "queries": {"click": {"state": {"target": [], "time": []}, "edge": {"target": [], "time": []}}, "mouseover": {"state": {"target": [], "time": []}, "edge": {"target": [], "time": []}}, "mouseout": {"state": {"target": ["21", "22", "0"], "time": [1231, 1416, 1483]}, "edge": {"target": [], "time": []}}}, "displayed_time": "18.24", "trialTime": 22201, "trial_type": "mouselab-mdp", "trial_index": 39, "time_elapsed": 1308434, "internal_node_id": "0.0-6.0-1.0-24.0"}}, {"uniqueid": "w10597662:a71441188", "current_trial": 40, "dateTime": 1693482487073, "trialdata": {"revealed_states": [], "clicked_states": [], "num_clicks_accrued": [0, 0, 0, 0, 0, 0, 0, 0, 0, 0, 0, 0, 0], "stateRewards": ["", 1, 2, 7, 13, 88, -71, 27, 3, 60, 5, -53, -2, 2, -6, -1, -30, 79, 47, -4, -14, 46, 68, 1, 1, 8, 10, -14, 86, 48, -11, -67, -44, 5], "withholdReward": false, "trial_id": "mdp_trial_26", "block": "test", "trialIndex": 29, "score": -40, "costs": 0, "simulationMode": [null, null, null, null, null], "rewards": [1, 2, 7, 3, -53], "path": ["0", "0", "1", "2", "3", "8", "11"], "rt": [1530, 267, 226, 610, 166], "actions": ["up", "up", "up", "left", "left"], "actionTimes": [4773, 5613, 6359, 7505, 8212], "queries": {"click": {"state": {"target": [], "time": []}, "edge": {"target": [], "time": []}}, "mouseover": {"state": {"target": [], "time": []}, "edge": {"target": [], "time": []}}, "mouseout": {"state": {"target": ["0", "20"], "time": [10795, 10873]}, "edge": {"target": [], "time": []}}}, "displayed_time": "17.25", "trialTime": 18883, "trial_type": "mouselab-mdp", "trial_index": 40, "time_elapsed": 1330142, "internal_node_id": "0.0-6.0-1.0-25.0"}}, {"uniqueid": "w10597662:a71441188", "current_trial": 41, "dateTime": 1693482511240, "trialdata": {"revealed_states": [], "clicked_states": [], "num_clicks_accrued": [0, 0, 0, 0, 0, 0, 0, 0, 0, 0, 0, 0, 0], "stateRewards": ["", -1, -4, -1, -5, -28, -23, -15, -15, -38, 59, -87, 2, 2, -5, 9, -55, -39, -71, -6, 85, -85, -11, -1, -2, 5, -10, 1, 25, 41, -4, 69, -35, 86], "withholdReward": false, "trial_id": "mdp_trial_27", "block": "test", "trialIndex": 30, "score": -59, "costs": 0, "simulationMode": [null, null, null, null, null], "rewards": [-1, -4, -1, -15, -38], "path": ["0", "0", "1", "2", "3", "8", "9"], "rt": [1348, 326, 176, 641, 882], "actions": ["up", "up", "up", "left", "up"], "actionTimes": [5702, 6582, 7294, 8460, 9864], "queries": {"click": {"state": {"target": [], "time": []}, "edge": {"target": [], "time": []}}, "mouseover": {"state": {"target": [], "time": []}, "edge": {"target": [], "time": []}}, "mouseout": {"state": {"target": ["22", "0", "21"], "time": [1783, 11330, 11409]}, "edge": {"target": [], "time": []}}}, "displayed_time": "18.36", "trialTime": 21385, "trial_type": "mouselab-mdp", "trial_index": 41, "time_elapsed": 1354309, "internal_node_id": "0.0-6.0-1.0-26.0"}}, {"uniqueid": "w10597662:a71441188", "current_trial": 42, "dateTime": 1693482535511, "trialdata": {"revealed_states": [], "clicked_states": [], "num_clicks_accrued": [0, 0, 0, 0, 0, 0, 0, 0, 0, 0, 0, 0, 0], "stateRewards": ["", 2, -1, -3, 16, -3, -16, -62, -1, 13, -26, 43, -1, 4, 3, -9, -54, -37, -3, -12, -71, -68, -57, 1, -3, 2, -9, 2, -2, -9, -11, 84, -52, 55], "withholdReward": false, "trial_id": "mdp_trial_28", "block": "test", "trialIndex": 31, "score": -48, "costs": 0, "simulationMode": [null, null, null, null, null], "rewards": [2, -1, -3, 16, -62], "path": ["0", "0", "1", "2", "3", "4", "7"], "rt": [1470, 105, 389, 718, 657], "actions": ["up", "up", "up", "right", "down"], "actionTimes": [6189, 6859, 7769, 9038, 10236], "queries": {"click": {"state": {"target": [], "time": []}, "edge": {"target": [], "time": []}}, "mouseover": {"state": {"target": [], "time": []}, "edge": {"target": [], "time": []}}, "mouseout": {"state": {"target": ["22", "0", "0"], "time": [1727, 2091, 13594]}, "edge": {"target": [], "time": []}}}, "displayed_time": "18.72", "trialTime": 21356, "trial_type": "mouselab-mdp", "trial_index": 42, "time_elapsed": 1378579, "internal_node_id": "0.0-6.0-1.0-27.0"}}, {"uniqueid": "w10597662:a71441188", "current_trial": 43, "dateTime": 1693482559028, "trialdata": {"revealed_states": [], "clicked_states": [], "num_clicks_accrued": [0, 0, 0, 0, 0, 0, 0, 0, 0, 0, 0, 0, 0], "stateRewards": ["", -1, -3, -7, -4, -85, -70, 79, 8, 84, -66, 42, 2, -2, -3, -16, -54, -66, 68, -3, 21, -14, 7, -2, -1, -3, -8, 75, 80, 86, -7, -84, 73, -16], "withholdReward": false, "trial_id": "mdp_trial_29", "block": "test", "trialIndex": 32, "score": -85, "costs": 0, "simulationMode": [null, null, null, null, null], "rewards": [-1, -3, -7, -4, -70], "path": ["0", "0", "1", "2", "3", "4", "6"], "rt": [1647, 36, 422, 596, 137], "actions": ["up", "up", "up", "right", "right"], "actionTimes": [4576, 5166, 6115, 7252, 7916], "queries": {"click": {"state": {"target": [], "time": []}, "edge": {"target": [], "time": []}}, "mouseover": {"state": {"target": [], "time": []}, "edge": {"target": [], "time": []}}, "mouseout": {"state": {"target": ["0"], "time": [3714]}, "edge": {"target": [], "time": []}}}, "displayed_time": "16.93", "trialTime": 20601, "trial_type": "mouselab-mdp", "trial_index": 43, "time_elapsed": 1402096, "internal_node_id": "0.0-6.0-1.0-28.0"}}, {"uniqueid": "w10597662:a71441188", "current_trial": 44, "dateTime": 1693482582518, "trialdata": {"revealed_states": [], "clicked_states": [], "num_clicks_accrued": [0, 0, 0, 0, 0, 0, 0, 0, 0, 0, 0, 0, 0], "stateRewards": ["", 2, -1, -1, -9, -81, -30, 55, -6, 78, 25, 62, 2, 4, -1, 9, -85, 1, -19, 1, -60, 12, -34, 1, 4, -1, -13, -24, -16, -83, -8, 16, 43, 9], "withholdReward": false, "trial_id": "mdp_trial_30", "block": "test", "trialIndex": 33, "score": -90, "costs": 0, "simulationMode": [null, null, null, null, null], "rewards": [2, -1, -1, -9, -81], "path": ["0", "0", "1", "2", "3", "4", "5"], "rt": [1253, 604, 116, 696, 574], "actions": ["up", "up", "up", "right", "up"], "actionTimes": [5654, 6813, 7455, 8699, 9812], "queries": {"click": {"state": {"target": [], "time": []}, "edge": {"target": [], "time": []}}, "mouseover": {"state": {"target": [], "time": []}, "edge": {"target": [], "time": []}}, "mouseout": {"state": {"target": ["19", "13"], "time": [1444, 1541]}, "edge": {"target": [], "time": []}}}, "displayed_time": "18.40", "trialTime": 20475, "trial_type": "mouselab-mdp", "trial_index": 44, "time_elapsed": 1425586, "internal_node_id": "0.0-6.0-1.0-29.0"}}, {"uniqueid": "w10597662:a71441188", "current_trial": 45, "dateTime": 1693482605728, "trialdata": {"revealed_states": [], "clicked_states": [], "num_clicks_accrued": [0, 0, 0, 0, 0, 0, 0, 0, 0, 0, 0, 0, 0], "stateRewards": ["", -1, 1, 8, -3, -24, 11, -65, -6, -77, 48, 44, -2, 1, -2, -7, -55, -35, 33, 8, -28, 19, -53, -1, -1, -5, -5, -70, 10, 44, 8, -58, -70, 51], "withholdReward": false, "trial_id": "mdp_trial_31", "block": "test", "trialIndex": 34, "score": 23, "costs": 0, "simulationMode": [null, null, null, null, null], "rewards": [-2, 1, -2, -7, 33], "path": ["0", "0", "12", "13", "14", "15", "18"], "rt": [1591, 89, 1071, 949, 486], "actions": ["right", "right", "right", "up", "left"], "actionTimes": [5414, 6080, 7684, 9227, 10258], "queries": {"click": {"state": {"target": [], "time": []}, "edge": {"target": [], "time": []}}, "mouseover": {"state": {"target": ["0"], "time": [3896]}, "edge": {"target": [], "time": []}}, "mouseout": {"state": {"target": ["0", "28", "29", "26", "28", "0", "21"], "time": [230, 566, 669, 817, 868, 11510, 12076]}, "edge": {"target": [], "time": []}}}, "displayed_time": "17.83", "trialTime": 19552, "trial_type": "mouselab-mdp", "trial_index": 45, "time_elapsed": 1448786, "internal_node_id": "0.0-6.0-1.0-30.0"}}, {"uniqueid": "w10597662:a71441188", "current_trial": 46, "dateTime": 1693482628552, "trialdata": {"revealed_states": [], "clicked_states": [], "num_clicks_accrued": [0, 0, 0, 0, 0, 0, 0, 0, 0, 0, 0, 0, 0], "stateRewards": ["", -2, -3, -5, 8, 27, 11, 43, -6, -24, -87, 69, -2, 1, 1, 9, 19, 48, -37, 9, -14, 45, 62, 1, 2, 1, 16, -81, -41, 22, 4, -6, -63, 47], "withholdReward": false, "trial_id": "mdp_trial_32", "block": "test", "trialIndex": 35, "score": 28, "costs": 0, "simulationMode": [null, null, null, null, null], "rewards": [-2, 1, 1, 9, 19], "path": ["0", "0", "12", "13", "14", "15", "16"], "rt": [1384, 213, 151, 476, 715], "actions": ["right", "right", "right", "up", "up"], "actionTimes": [4965, 5724, 6443, 7465, 8704], "queries": {"click": {"state": {"target": [], "time": []}, "edge": {"target": [], "time": []}}, "mouseover": {"state": {"target": [], "time": []}, "edge": {"target": [], "time": []}}, "mouseout": {"state": {"target": ["0"], "time": [7608]}, "edge": {"target": [], "time": []}}}, "displayed_time": "17.58", "trialTime": 19300, "trial_type": "mouselab-mdp", "trial_index": 46, "time_elapsed": 1471619, "internal_node_id": "0.0-6.0-1.0-31.0"}}, {"uniqueid": "w10597662:a71441188", "current_trial": 47, "dateTime": 1693482652560, "trialdata": {"revealed_states": [], "clicked_states": [], "num_clicks_accrued": [0, 0, 0, 0, 0, 0, 0, 0, 0, 0, 0, 0, 0], "stateRewards": ["", -1, 1, -5, -6, -78, 47, -13, 12, 48, -88, 20, 2, -3, -2, 13, -20, 37, -57, 14, -38, 30, 31, -2, -2, 8, 2, -23, 78, 28, 12, -74, -88, 8], "withholdReward": false, "trial_id": "mdp_trial_33", "block": "test", "trialIndex": 36, "score": 47, "costs": 0, "simulationMode": [null, null, null, null, null], "rewards": [2, -3, -2, 13, 37], "path": ["0", "0", "12", "13", "14", "15", "17"], "rt": [1767, 49, 40, 573, 1432], "actions": ["right", "right", "right", "up", "right"], "actionTimes": [5745, 6322, 6935, 8081, 10073], "queries": {"click": {"state": {"target": [], "time": []}, "edge": {"target": [], "time": []}}, "mouseover": {"state": {"target": [], "time": []}, "edge": {"target": [], "time": []}}, "mouseout": {"state": {"target": ["30", "25", "24", "12", "0", "0"], "time": [1108, 1257, 1311, 1607, 4051, 11963]}, "edge": {"target": [], "time": []}}}, "displayed_time": "17.98", "trialTime": 20837, "trial_type": "mouselab-mdp", "trial_index": 47, "time_elapsed": 1495626, "internal_node_id": "0.0-6.0-1.0-32.0"}}, {"uniqueid": "w10597662:a71441188", "current_trial": 48, "dateTime": 1693482675932, "trialdata": {"revealed_states": [], "clicked_states": [], "num_clicks_accrued": [0, 0, 0, 0, 0, 0, 0, 0, 0, 0, 0, 0, 0], "stateRewards": ["", 1, 2, -3, -5, 66, -50, -47, -5, 1, 28, -27, 1, 1, -1, -6, 37, -25, 56, 1, -82, -66, -40, -1, -4, -7, 15, -61, -23, 26, 10, 14, -56, 29], "withholdReward": false, "trial_id": "mdp_trial_34", "block": "test", "trialIndex": 37, "score": -80, "costs": 0, "simulationMode": [null, null, null, null, null], "rewards": [1, 1, -1, 1, -82], "path": ["0", "0", "12", "13", "14", "19", "20"], "rt": [1558, 382, 308, 465, 1514], "actions": ["right", "right", "right", "down", "right"], "actionTimes": [5403, 6322, 7162, 8196, 10248], "queries": {"click": {"state": {"target": [], "time": []}, "edge": {"target": [], "time": []}}, "mouseover": {"state": {"target": [], "time": []}, "edge": {"target": [], "time": []}}, "mouseout": {"state": {"target": ["0", "0", "22"], "time": [1712, 12509, 12602]}, "edge": {"target": [], "time": []}}}, "displayed_time": "17.85", "trialTime": 19975, "trial_type": "mouselab-mdp", "trial_index": 48, "time_elapsed": 1519001, "internal_node_id": "0.0-6.0-1.0-33.0"}}, {"uniqueid": "w10597662:a71441188", "current_trial": 49, "dateTime": 1693482700066, "trialdata": {"revealed_states": [], "clicked_states": [], "num_clicks_accrued": [0, 0, 0, 0, 0, 0, 0, 0, 0, 0, 0, 0, 0], "stateRewards": ["", 1, 1, 5, 6, -29, -7, 3, -16, 9, -46, 65, -1, 4, -1, -16, -63, -77, -87, 8, 80, -50, 43, -1, -1, -5, 5, -38, -71, -62, 9, 81, -50, -52], "withholdReward": false, "trial_id": "mdp_trial_35", "block": "test", "trialIndex": 38, "score": 56, "costs": 0, "simulationMode": [null, null, null, null, null], "rewards": [1, 1, 5, -16, 65], "path": ["0", "0", "1", "2", "3", "8", "11"], "rt": [1287, 2911, 728, 1066, 230], "actions": ["up", "up", "up", "left", "left"], "actionTimes": [5772, 9307, 10601, 12221, 12995], "queries": {"click": {"state": {"target": [], "time": []}, "edge": {"target": [], "time": []}}, "mouseover": {"state": {"target": ["0"], "time": [4580]}, "edge": {"target": [], "time": []}}, "mouseout": {"state": {"target": ["0", "21"], "time": [14617, 19499]}, "edge": {"target": [], "time": []}}}, "displayed_time": "18.49", "trialTime": 20238, "trial_type": "mouselab-mdp", "trial_index": 49, "time_elapsed": 1543134, "internal_node_id": "0.0-6.0-1.0-34.0"}}, {"uniqueid": "w10597662:a71441188", "current_trial": 50, "dateTime": 1693482723190, "trialdata": {"revealed_states": [], "clicked_states": [], "num_clicks_accrued": [0, 0, 0, 0, 0, 0, 0, 0, 0, 0, 0, 0, 0], "stateRewards": ["", -2, -3, 8, 14, -73, 73, 84, -12, -2, -50, -17, 2, 1, -2, -9, -44, -27, -33, 16, -63, -47, -66, -2, 1, 4, -5, -33, -11, 50, 9, 38, -79, 31], "withholdReward": false, "trial_id": "mdp_trial_36", "block": "test", "trialIndex": 39, "score": -49, "costs": 0, "simulationMode": [null, null, null, null, null], "rewards": [2, 1, -2, 16, -66], "path": ["0", "0", "12", "13", "14", "19", "22"], "rt": [3175, 349, 209, 381, 520], "actions": ["right", "right", "right", "down", "left"], "actionTimes": [6540, 7446, 8187, 9100, 10148], "queries": {"click": {"state": {"target": [], "time": []}, "edge": {"target": [], "time": []}}, "mouseover": {"state": {"target": [], "time": []}, "edge": {"target": [], "time": []}}, "mouseout": {"state": {"target": ["0", "28", "2", "0"], "time": [5303, 19215, 19464, 19658]}, "edge": {"target": [], "time": []}}}, "displayed_time": "17.37", "trialTime": 19979, "trial_type": "mouselab-mdp", "trial_index": 50, "time_elapsed": 1566257, "internal_node_id": "0.0-6.0-1.0-35.0"}}, {"uniqueid": "w10597662:a71441188", "current_trial": 51, "dateTime": 1693482747386, "trialdata": {"revealed_states": [], "clicked_states": [], "num_clicks_accrued": [0, 0, 0, 0, 0, 0, 0, 0, 0, 0, 0, 0, 0], "stateRewards": ["", 2, -4, 1, -12, -59, -53, -74, 16, -88, -66, 66, 1, -2, 8, -9, -14, 22, 25, -1, -39, 47, -14, -1, -1, -2, 1, -4, 52, -26, 15, -7, 46, 43], "withholdReward": false, "trial_id": "mdp_trial_37", "block": "test", "trialIndex": 40, "score": 53, "costs": 0, "simulationMode": [null, null, null, null, null], "rewards": [1, -2, 8, -1, 47], "path": ["0", "0", "12", "13", "14", "19", "21"], "rt": [1405, 722, 165, 738, 140], "actions": ["right", "right", "right", "down", "down"], "actionTimes": [5753, 7027, 7718, 9003, 9695], "queries": {"click": {"state": {"target": [], "time": []}, "edge": {"target": [], "time": []}}, "mouseover": {"state": {"target": [], "time": []}, "edge": {"target": [], "time": []}}, "mouseout": {"state": {"target": ["0", "0"], "time": [4414, 11053]}, "edge": {"target": [], "time": []}}}, "displayed_time": "18.35", "trialTime": 20082, "trial_type": "mouselab-mdp", "trial_index": 51, "time_elapsed": 1590454, "internal_node_id": "0.0-6.0-1.0-36.0"}}, {"uniqueid": "w10597662:a71441188", "current_trial": 52, "dateTime": 1693482770578, "trialdata": {"revealed_states": [], "clicked_states": [], "num_clicks_accrued": [0, 0, 0, 0, 0, 0, 0, 0, 0, 0, 0, 0, 0], "stateRewards": ["", -2, 1, -3, -16, -39, -52, 30, -7, -41, -59, 11, 2, 1, 8, 2, -11, -26, -42, -13, 87, -59, -48, -1, -1, -1, 16, -79, 31, 50, -1, -84, 34, -82], "withholdReward": false, "trial_id": "mdp_trial_38", "block": "test", "trialIndex": 41, "score": -88, "costs": 0, "simulationMode": [null, null, null, null, null], "rewards": [-1, -1, -1, -1, -84], "path": ["0", "0", "23", "24", "25", "30", "31"], "rt": [2126, 192, 258, 560, 436], "actions": ["left", "left", "left", "down", "right"], "actionTimes": [5524, 6245, 7021, 8131, 9090], "queries": {"click": {"state": {"target": [], "time": []}, "edge": {"target": [], "time": []}}, "mouseover": {"state": {"target": [], "time": []}, "edge": {"target": [], "time": []}}, "mouseout": {"state": {"target": ["23", "0", "22", "20"], "time": [1095, 3950, 10669, 10737]}, "edge": {"target": [], "time": []}}}, "displayed_time": "17.41", "trialTime": 19933, "trial_type": "mouselab-mdp", "trial_index": 52, "time_elapsed": 1613643, "internal_node_id": "0.0-6.0-1.0-37.0"}}, {"uniqueid": "w10597662:a71441188", "current_trial": 53, "dateTime": 1693482794314, "trialdata": {"revealed_states": [], "clicked_states": [], "num_clicks_accrued": [0, 0, 0, 0, 0, 0, 0, 0, 0, 0, 0, 0, 0], "stateRewards": ["", -1, 3, 8, 10, -86, 61, -36, 10, 17, -60, 24, -1, -3, 3, 11, 50, 60, 33, -3, -20, 58, -6, 1, -4, -4, 13, -70, -71, 43, 14, 52, 82, -11], "withholdReward": false, "trial_id": "mdp_trial_39", "block": "test", "trialIndex": 42, "score": 89, "costs": 0, "simulationMode": [null, null, null, null, null], "rewards": [1, -4, -4, 14, 82], "path": ["0", "0", "23", "24", "25", "30", "32"], "rt": [1048, 233, 306, 328, 177], "actions": ["left", "left", "left", "down", "down"], "actionTimes": [5378, 6172, 7022, 7899, 8599], "queries": {"click": {"state": {"target": [], "time": []}, "edge": {"target": [], "time": []}}, "mouseover": {"state": {"target": [], "time": []}, "edge": {"target": [], "time": []}}, "mouseout": {"state": {"target": ["22", "2", "1", "0"], "time": [998, 1197, 1706, 19577]}, "edge": {"target": [], "time": []}}}, "displayed_time": "18.34", "trialTime": 20388, "trial_type": "mouselab-mdp", "trial_index": 53, "time_elapsed": 1637379, "internal_node_id": "0.0-6.0-1.0-38.0"}}, {"uniqueid": "w10597662:a71441188", "current_trial": 54, "dateTime": 1693482817837, "trialdata": {"revealed_states": [], "clicked_states": [], "num_clicks_accrued": [0, 0, 0, 0, 0, 0, 0, 0, 0, 0, 0, 0, 0], "stateRewards": ["", -2, 2, 2, -6, 9, 37, 50, -13, -7, -18, -75, -2, -4, 4, 7, 23, -57, -66, -7, -81, -48, -76, 1, 1, -8, 1, 51, -2, 70, 14, 59, 71, -37], "withholdReward": false, "trial_id": "mdp_trial_40", "block": "test", "trialIndex": 43, "score": -29, "costs": 0, "simulationMode": [null, null, null, null, null], "rewards": [1, 1, -8, 14, -37], "path": ["0", "0", "23", "24", "25", "30", "33"], "rt": [1548, 44, 157, 526, 173], "actions": ["left", "left", "left", "down", "left"], "actionTimes": [5572, 6178, 6918, 8006, 8733], "queries": {"click": {"state": {"target": [], "time": []}, "edge": {"target": [], "time": []}}, "mouseover": {"state": {"target": [], "time": []}, "edge": {"target": [], "time": []}}, "mouseout": {"state": {"target": ["13", "12", "0", "0", "12"], "time": [1150, 1224, 4817, 10473, 10534]}, "edge": {"target": [], "time": []}}}, "displayed_time": "18.02", "trialTime": 19860, "trial_type": "mouselab-mdp", "trial_index": 54, "time_elapsed": 1660905, "internal_node_id": "0.0-6.0-1.0-39.0"}}, {"uniqueid": "w10597662:a71441188", "current_trial": 55, "dateTime": 1693482922869, "trialdata": {"rt": 103684, "response": {"Q0": "$-88 to $88", "Q1": "$-32 to $32", "Q2": "$-88 to $88", "Q3": "The cost for clicking on nodes varied between nodes.", "Q4": "Slightly motivated"}, "question_order": [0, 1, 2, 3, 4], "trial_id": "final_quiz_control", "trial_type": "survey-multi-choice", "trial_index": 55, "time_elapsed": 1765936, "internal_node_id": "0.0-6.0-2.0"}}, {"uniqueid": "w10597662:a71441188", "current_trial": 56, "dateTime": 1693483003124, "trialdata": {"rt": 79607, "response": {"Q0": "I did not have a strategy. I just chose paths randomly.", "Q1": "No", "Q2": "I was not trying to improve. i just went with the flow."}, "trial_id": "self_report_control", "trial_type": "survey-text", "trial_index": 56, "time_elapsed": 1846193, "internal_node_id": "0.0-6.0-3.0"}}, {"uniqueid": "w10597662:a71441188", "current_trial": 57, "dateTime": 1693483098517, "trialdata": {"rt": 95352, "response": {"Q0": "Strongly agree", "Q1": "Disagree", "Q2": "Disagree", "Q3": "Disagree", "Q4": "Agree", "Q5": "Strongly disagree", "Q6": "Strongly agree"}, "question_order": [0, 1, 2, 3, 4, 5, 6], "trial_id": "self_report_2", "trial_type": "survey-multi-choice", "trial_index": 57, "time_elapsed": 1941587, "internal_node_id": "0.0-6.0-4.0"}}, {"uniqueid": "w10597662:a71441188", "current_trial": 58, "dateTime": 1693483139094, "trialdata": {"rt": 40136, "response": {"gender": "female", "age": "21", "colorblind": "0", "effort": "0"}, "trial_type": "survey-html-form", "trial_index": 58, "time_elapsed": 1982164, "internal_node_id": "0.0-6.0-5.0"}}, {"uniqueid": "w10597662:a71441188", "current_trial": 59, "dateTime": 1693483169899, "trialdata": {"rt": 30704, "response": {"Q0": "No.", "Q1": "No.", "Q2": ""}, "trial_type": "survey-text", "trial_index": 59, "time_elapsed": 2012968, "internal_node_id": "0.0-6.0-6.0"}}, {"uniqueid": "w10597662:a71441188", "current_trial": 60, "dateTime": 1693483179189, "trialdata": {"rt": 9161, "stimulus": "<h1>Completion Code Instructions (1/2)</h1>\n<br><br><br><br>\nYou have reached the end of the experiment! The completion code consists of two parts: (1) a code with 2 characters (2) a code with 6 characters. On this page, you will receive the second part of the code. The first part of the completion code will be on the next page.\n<br><br>\nThe second part of your completion code is: <b>EWEK22</b>\n<br><br>\nPlease note this down. Then, press 'Finish HIT' in order to find the first part of your completion code. Once the data has been saved, you will receive this code either in this window or in the original browser window where you started the experiment.\n", "response": 0, "trial_type": "html-button-response", "trial_index": 60, "time_elapsed": 2022258, "internal_node_id": "0.0-6.0-7.0"}}, {"uniqueid": "w10597662:a71441188", "current_trial": 61, "dateTime": 1693483180448, "trialdata": {"success": true, "trial_type": "fullscreen", "trial_index": 61, "time_elapsed": 2023518, "internal_node_id": "0.0-7.0"}}], "questiondata": {"params": {"CODE": "C6DMOQA6", "MIN_TIME": 14, "inspectCost": 1, "startTime": "Thu Aug 31 2023 13:25:55 GMT+0200 (South Africa Standard Time)", "bonusRate": 0.002, "variance": "1_2_4_8_44", "branching": "31123"}, "final_score": 6}, "eventdata": [{"eventtype": "initialized", "value": null, "timestamp": 1693481154475, "interval": 0}, {"eventtype": "window_resize", "value": [1366, 674], "timestamp": 1693481154475, "interval": 0}, {"eventtype": "window_resize", "value": [1366, 674], "timestamp": 1693481155001, "interval": 526}, {"eventtype": "window_resize", "value": [1366, 768], "timestamp": 1693481161976, "interval": 6975}, {"eventtype": "focus", "value": "off", "timestamp": 1693481676489, "interval": 514513}, {"eventtype": "focus", "value": "on", "timestamp": 1693481676492, "interval": 3}, {"eventtype": "window_resize", "value": [1366, 674], "timestamp": 1693481676736, "interval": 244}, {"eventtype": "window_resize", "value": [1366, 768], "timestamp": 1693481679892, "interval": 3156}, {"eventtype": "focus", "value": "off", "timestamp": 1693482009114, "interval": 329222}, {"eventtype": "window_resize", "value": [1366, 768], "timestamp": 1693482009683, "interval": 569}, {"eventtype": "focus", "value": "on", "timestamp": 1693482011731, "interval": 2048}], "useragent": "Mozilla/5.0 (Windows NT 10.0; Win64; x64) AppleWebKit/537.36 (KHTML, like Gecko) Chrome/116.0.0.0 Safari/537.36 Edg/116.0.1938.62", "mode": "live", "id": "w10597662:a71441188", "status": "user data saved", "Beginhit": "2023-08-31 11:25:53.042035", "Beginexp": "2023-08-31 11:26:04.079672", "Endhit": "2023-08-31 11:59:45.721768", "psiturkStatus": 3, "browser": "<redacted>", "platform": "windows", "language": "en-US"}