{"condition": 1, "counterbalance": 0, "assignmentId": "a11157501", "workerId": "w19915293", "hitId": "h42696200", "currenttrial": 11, "bonus": 0, "data": [{"uniqueid": "w19915293:a11157501", "current_trial": 0, "dateTime": 1693564693678, "trialdata": {"success": true, "trial_type": "fullscreen", "trial_index": 0, "time_elapsed": 4459, "internal_node_id": "0.0-0.0"}}, {"uniqueid": "w19915293:a11157501", "current_trial": 1, "dateTime": 1693564703189, "trialdata": {"view_history": [{"page_index": 0, "viewing_time": 9506}], "rt": 9507, "trial_id": "exp_instructions_misaligned", "trial_type": "instructions", "trial_index": 1, "time_elapsed": 13970, "internal_node_id": "0.0-1.0"}}, {"uniqueid": "w19915293:a11157501", "current_trial": 2, "dateTime": 1693564850624, "trialdata": {"view_history": [{"page_index": 0, "viewing_time": 38181}, {"page_index": 1, "viewing_time": 60437}, {"page_index": 2, "viewing_time": 16260}, {"page_index": 1, "viewing_time": 4883}, {"page_index": 2, "viewing_time": 686}, {"page_index": 3, "viewing_time": 26984}], "rt": 147431, "trial_id": "mouselab_instructions_1_misaligned", "trial_type": "instructions", "trial_index": 2, "time_elapsed": 161404, "internal_node_id": "0.0-2.0-1.0"}}, {"uniqueid": "w19915293:a11157501", "current_trial": 3, "dateTime": 1693564911648, "trialdata": {"revealed_states": [], "clicked_states": ["23", "24", "26", "30", "19", "15", "3", "11", "5", "2", "1", "13", "12", "20"], "num_clicks_accrued": [0, 0, 0, 0, 0, 0, 0, 0, 0, 0, 0, 0, 0], "stateRewards": ["", -10, -10, 10, -10, 10, -10, 10, -10, 10, -10, 10, 10, 10, 10, 10, -10, 10, 10, -10, 10, -10, 10, -10, -10, -10, -10, 10, 10, -10, 10, 10, -10, -10], "withholdReward": false, "trial_id": "practice_1", "block": "test", "trialIndex": 0, "score": 26.5, "costs": -7, "simulationMode": [null, null, null, null, null], "rewards": [10, 10, 10, -10, 10], "path": ["0", "0", "12", "13", "14", "19", "20"], "rt": [27189, 248, 134, 87, 62], "actions": ["right", "right", "right", "down", "right"], "actionTimes": [29066, 29832, 30466, 31073, 31649], "queries": {"click": {"state": {"target": ["23", "24", "26", "30", "19", "15", "3", "11", "5", "2", "1", "13", "12", "20"], "time": [2518, 4576, 6563, 8423, 10159, 11848, 13424, 14844, 16894, 18745, 20232, 21987, 23725, 25358]}, "edge": {"target": [], "time": []}}, "mouseover": {"state": {"target": ["23", "24", "25", "24", "25", "26", "25", "30", "31", "19", "14", "15", "18", "7", "3", "2", "8", "11", "10", "5", "4", "7", "2", "1", "1", "13", "12", "20", "20", "21", "21", "22", "13", "0", "0"], "time": [2158, 2758, 3458, 4308, 5007, 6231, 7389, 7955, 8623, 9571, 10422, 10655, 12037, 12171, 12621, 14037, 14420, 14669, 15187, 15902, 17219, 17653, 18389, 19069, 19686, 21637, 23385, 24305, 25121, 25983, 26499, 26948, 27098, 27740, 27903]}, "edge": {"target": [], "time": []}}, "mouseout": {"state": {"target": ["0", "23", "24", "25", "24", "25", "26", "25", "30", "31", "19", "14", "15", "18", "7", "3", "2", "8", "11", "10", "3", "5", "4", "7", "2", "1", "1", "13", "12", "12", "20", "20", "21", "21", "22", "13", "12", "0", "0", "0", "1", "2", "1", "0", "23", "24", "24", "23", "0"], "time": [2112, 2676, 3408, 4280, 4840, 6075, 7105, 7905, 8606, 8639, 10340, 10504, 12021, 12055, 12354, 13706, 14154, 14569, 15053, 15602, 15737, 17136, 17420, 17769, 18954, 19236, 20402, 22285, 23796, 23935, 24383, 25550, 26251, 26903, 26982, 27148, 27500, 27759, 28481, 52410, 52507, 52874, 53040, 53239, 53323, 53490, 53676, 53739, 53806]}, "edge": {"target": [], "time": []}}}, "displayed_time": "32.15", "trialTime": 60558, "trial_type": "mouselab-mdp", "trial_index": 3, "time_elapsed": 222428, "internal_node_id": "0.0-2.0-2.0-0.0"}}, {"uniqueid": "w19915293:a11157501", "current_trial": 4, "dateTime": 1693565069783, "trialdata": {"revealed_states": [], "clicked_states": ["24", "23", "1", "2", "12", "13", "19", "15", "14", "21", "22", "3", "4", "6"], "num_clicks_accrued": [0, 0, 0, 0, 0, 0, 0, 0, 0, 0, 0, 0, 0], "stateRewards": ["", -10, -10, 10, 10, -10, 10, 10, 10, -10, -10, 10, -10, 10, -10, -10, -10, 10, -10, 10, 10, 10, 10, -10, -10, 10, 10, 10, -10, 10, -10, 10, -10, -10], "withholdReward": false, "trial_id": "practice_2", "block": "test", "trialIndex": 1, "score": 6.5, "costs": -7, "simulationMode": [null, null, null, null, null], "rewards": [-10, 10, -10, 10, 10], "path": ["0", "0", "12", "13", "14", "19", "22"], "rt": [24646, 493, 171, 76, 1067], "actions": ["right", "right", "right", "down", "left"], "actionTimes": [26000, 27007, 27669, 28245, 29833], "queries": {"click": {"state": {"target": ["24", "23", "1", "2", "12", "13", "19", "15", "14", "21", "22", "3", "4", "6"], "time": [1923, 3378, 5026, 6589, 8094, 9614, 11287, 12860, 14349, 15740, 17195, 19028, 21832, 23268]}, "edge": {"target": [], "time": []}}, "mouseover": {"state": {"target": ["24", "23", "1", "1", "2", "12", "13", "22", "19", "22", "14", "15", "14", "20", "14", "20", "21", "22", "12", "1", "2", "3", "12", "0", "7", "4", "6", "12"], "time": [1820, 2553, 4004, 4807, 5370, 7872, 9337, 9987, 10901, 12134, 12383, 12633, 13219, 13534, 14068, 14783, 14985, 16267, 18300, 18500, 18648, 18814, 19965, 21385, 21463, 21696, 23080, 24662]}, "edge": {"target": [], "time": []}}, "mouseout": {"state": {"target": ["0", "24", "23", "1", "1", "2", "12", "13", "22", "19", "22", "14", "15", "15", "14", "20", "14", "19", "20", "21", "22", "12", "1", "2", "3", "12", "0", "7", "4", "6", "12", "22", "22"], "time": [1370, 2154, 3641, 4502, 5220, 6853, 8534, 9852, 10785, 11618, 12252, 12466, 12962, 13152, 13317, 13618, 14567, 14683, 14801, 16050, 17432, 18333, 18581, 18697, 19415, 20081, 21401, 21580, 22447, 23580, 31258, 31445, 32531]}, "edge": {"target": [], "time": []}}}, "displayed_time": "30.33", "trialTime": 157611, "trial_type": "mouselab-mdp", "trial_index": 4, "time_elapsed": 380563, "internal_node_id": "0.0-2.0-2.0-1.0"}}, {"uniqueid": "w19915293:a11157501", "current_trial": 5, "dateTime": 1693565085104, "trialdata": {"view_history": [{"page_index": 0, "viewing_time": 9917}, {"page_index": 1, "viewing_time": 5398}], "rt": 15316, "trial_id": "mouselab_instructions_2_misaligned", "trial_type": "instructions", "trial_index": 5, "time_elapsed": 395885, "internal_node_id": "0.0-2.0-3.0"}}, {"uniqueid": "w19915293:a11157501", "current_trial": 6, "dateTime": 1693565111007, "trialdata": {"rt": 25898, "response": {"Q0": "The cost for clicking on nodes may vary between nodes.", "Q1": "The better I perform the higher my bonus will be.", "Q2": "No, the amount of cash at each node of the web may be different each time.", "Q3": "To get the highest total score.", "Q4": "Only before moving the spider.", "Q5": "3 seconds"}, "question_order": [0, 1, 2, 3, 4, 5], "correct": {"Q0": "The cost for clicking on nodes may vary between nodes.", "Q1": "The better I perform the higher my bonus will be.", "Q2": "No, the amount of cash at each node of the web may be different each time.", "Q3": "To get the highest total score.", "Q4": "Only before moving the spider.", "Q5": "3 seconds"}, "trial_id": "mouselab_quiz_misaligned", "trial_type": "survey-multi-choice", "trial_index": 6, "time_elapsed": 421788, "internal_node_id": "0.0-2.0-4.0"}}, {"uniqueid": "w19915293:a11157501", "current_trial": 7, "dateTime": 1693565117246, "trialdata": {"rt": 6232, "response": {"Q0": "No"}, "question_order": [0], "trial_id": "repeat_check", "trial_type": "survey-multi-choice", "trial_index": 7, "time_elapsed": 428027, "internal_node_id": "0.0-4.0-0.0"}}, {"uniqueid": "w19915293:a11157501", "current_trial": 8, "dateTime": 1693565138774, "trialdata": {"rt": 21519, "stimulus": "\n<h1> Get ready to start the game! </h1>\n\nThank you for reading the instructions. Get ready start with the 40 rounds of this game.\n<br><br>\nIf you need to take a break, feel free to take one after the end of a round, before continuing to the next one.\n<br><br>\nRemember, the more money the spider gets, the bigger your bonus will be!\n<br><br>\n<div style='text-align: center;'>Press <code>space</code> to begin.</div>\n\n<br><br>\n(If, at any point, the <code>space</code> key does not take you to the next page, click once on the text and try again.)", "response": " ", "trial_id": "mdp_ready", "trial_type": "html-keyboard-response", "trial_index": 8, "time_elapsed": 449554, "internal_node_id": "0.0-6.0-0.0"}}, {"uniqueid": "w19915293:a11157501", "current_trial": 9, "dateTime": 1693566627203, "trialdata": {"revealed_states": [], "clicked_states": ["23", "24", "1", "2", "12", "13", "3", "14", "19", "22", "18", "15", "17"], "num_clicks_accrued": [0, 0, 0, 0, 0, 0, 0, 0, 0, 0, 0, 0, 0], "stateRewards": ["", 1, 1, -3, 2, 22, -25, -11, -5, 50, 49, 3, 1, -1, 8, 14, -85, -30, 57, -6, -39, -16, 59, -2, -1, 5, 5, 59, -16, 8, 4, 67, 56, -9], "withholdReward": false, "trial_id": "mdp_trial_1", "block": "test", "trialIndex": 2, "score": 67.25, "costs": -11.750000000000002, "simulationMode": [null, null, null, null, null, null], "rewards": [1, -1, 8, 14, 57], "path": ["0", "0", "12", "13", "14", "15", "18"], "rt": [18175, 815, 396, 132, 207, 177], "actions": ["right", "right", "right", "right", "up", "left"], "actionTimes": [20079, 20898, 21822, 22474, 23178, 23852], "queries": {"click": {"state": {"target": ["23", "24", "1", "2", "12", "13", "3", "14", "19", "22", "18", "15", "17"], "time": [2464, 3350, 4283, 5329, 6269, 7056, 8129, 9000, 9997, 10881, 13829, 17422, 18352]}, "edge": {"target": [], "time": []}}, "mouseover": {"state": {"target": ["23", "24", "0", "1", "2", "18", "13", "12", "13", "19", "3", "18", "14", "14", "19", "19", "22", "15", "16", "15", "18", "15", "17", "16", "15", "17"], "time": [2191, 2993, 3609, 3842, 4724, 5574, 5824, 6124, 6673, 7474, 7824, 8389, 8473, 8723, 9223, 9806, 10372, 11522, 12055, 12372, 13555, 14339, 15087, 16157, 16770, 17937]}, "edge": {"target": [], "time": []}}, "mouseout": {"state": {"target": ["2", "1", "0", "23", "24", "23", "0", "1", "2", "18", "13", "12", "13", "19", "13", "3", "18", "14", "14", "19", "19", "22", "14", "15", "16", "15", "18", "15", "17", "16", "15", "17", "26", "28"], "time": [575, 674, 1941, 2626, 3526, 3577, 3675, 4510, 5491, 5674, 5941, 6507, 7224, 7608, 7656, 8273, 8423, 8489, 9173, 9722, 10172, 11057, 11273, 11855, 12306, 13438, 14256, 14988, 15921, 16654, 17855, 18670, 1483791, 1484229]}, "edge": {"target": [], "time": []}}}, "displayed_time": "24.37", "trialTime": 1488164, "trial_type": "mouselab-mdp", "trial_index": 9, "time_elapsed": 1937983, "internal_node_id": "0.0-6.0-1.0-0.0"}}, {"uniqueid": "w19915293:a11157501", "current_trial": 10, "dateTime": 1693566926761, "trialdata": {"revealed_states": [], "clicked_states": ["23", "24", "1", "2", "12", "13", "3", "25", "14", "5", "7", "4", "8", "26", "27", "11", "10", "30", "33", "32", "31"], "num_clicks_accrued": [0, 0, 0, 0, 0, 0, 0, 0, 0, 0, 0, 0, 0], "stateRewards": ["", 1, -3, -4, -11, -56, 61, -47, -16, -28, -9, 69, -2, -3, -4, -8, 40, -86, 59, -4, 80, 27, 54, -1, 3, -1, 8, 67, 23, 50, 6, 83, -43, -29], "withholdReward": false, "trial_id": "mdp_trial_2", "block": "test", "trialIndex": 3, "score": 63.45, "costs": -26.549999999999997, "simulationMode": [null, null, null, null, null], "rewards": [-1, 3, -1, 6, 83], "path": ["0", "0", "23", "24", "25", "30", "31"], "rt": [41157, 54, 138, 503, 106], "actions": ["left", "left", "left", "down", "right"], "actionTimes": [42329, 42904, 43573, 44587, 45204], "queries": {"click": {"state": {"target": ["23", "24", "1", "2", "12", "13", "3", "25", "14", "5", "7", "4", "8", "26", "27", "11", "10", "30", "33", "32", "31"], "time": [1777, 2403, 3201, 3771, 4588, 5366, 6912, 7839, 8665, 9944, 13071, 16128, 18782, 20431, 21507, 24560, 27674, 31122, 32063, 35288, 38350]}, "edge": {"target": [], "time": []}}, "mouseover": {"state": {"target": ["0", "23", "24", "1", "2", "12", "13", "22", "3", "2", "25", "24", "23", "14", "18", "4", "5", "4", "6", "6", "7", "6", "4", "3", "8", "26", "27", "11", "10", "2", "3", "8", "29", "33", "32", "30", "33", "32", "31"], "time": [1260, 1534, 2161, 2811, 3511, 4327, 4911, 6110, 6825, 7159, 7741, 8025, 8060, 8458, 9008, 9374, 9824, 10307, 10441, 11307, 12189, 13757, 14491, 16973, 17143, 20073, 21388, 22019, 25005, 28286, 28686, 28803, 29369, 30649, 30966, 31050, 31683, 32534, 35833]}, "edge": {"target": [], "time": []}}, "mouseout": {"state": {"target": ["0", "0", "23", "23", "24", "1", "2", "12", "13", "22", "2", "3", "2", "25", "24", "23", "14", "18", "4", "5", "4", "6", "6", "7", "6", "4", "3", "8", "26", "26", "27", "11", "10", "2", "3", "8", "29", "33", "32", "30", "33", "32", "31", "19", "20", "19", "22", "0", "23", "0", "23"], "time": [943, 1517, 1928, 2095, 2546, 3344, 3944, 4761, 5679, 6160, 6658, 7124, 7175, 8008, 8057, 8076, 8957, 9028, 9758, 10107, 10374, 10924, 11990, 13426, 14374, 16923, 17073, 19406, 20907, 21206, 21790, 24904, 28236, 28585, 28785, 28886, 30467, 30749, 30984, 31384, 32433, 35534, 38549, 288863, 289179, 289228, 289329, 289412, 289579, 289796, 298562]}, "edge": {"target": [], "time": []}}}, "displayed_time": "45.72", "trialTime": 299294, "trial_type": "mouselab-mdp", "trial_index": 10, "time_elapsed": 2237541, "internal_node_id": "0.0-6.0-1.0-1.0"}}], "questiondata": {"params": {"CODE": "C6DMOQA6", "MIN_TIME": 14, "inspectCost": 1, "startTime": "Fri Sep 01 2023 12:38:05 GMT+0200 (Mitteleurop\u00e4ische Sommerzeit)", "bonusRate": 0.002, "variance": "1_2_4_8_44", "branching": "31123"}}, "eventdata": [{"eventtype": "initialized", "value": null, "timestamp": 1693564684807, "interval": 0}, {"eventtype": "window_resize", "value": [1024, 768], "timestamp": 1693564684807, "interval": 0}, {"eventtype": "window_resize", "value": [1918, 1026], "timestamp": 1693564685176, "interval": 369}, {"eventtype": "window_resize", "value": [1920, 1080], "timestamp": 1693564692903, "interval": 7727}, {"eventtype": "focus", "value": "off", "timestamp": 1693565181778, "interval": 488875}, {"eventtype": "focus", "value": "on", "timestamp": 1693566626488, "interval": 1444710}, {"eventtype": "window_resize", "value": [1918, 1026], "timestamp": 1693566916468, "interval": 289980}, {"eventtype": "focus", "value": "off", "timestamp": 1693566917718, "interval": 1250}, {"eventtype": "focus", "value": "on", "timestamp": 1693566925426, "interval": 7708}, {"eventtype": "focus", "value": "off", "timestamp": 1693566955861, "interval": 30435}, {"eventtype": "focus", "value": "on", "timestamp": 1693570118689, "interval": 3162828}], "useragent": "Mozilla/5.0 (Windows NT 10.0; Win64; x64) AppleWebKit/537.36 (KHTML, like Gecko) Chrome/116.0.0.0 Safari/537.36 Edg/116.0.1938.62", "mode": "live", "id": "w19915293:a11157501", "status": "user data saved", "Beginhit": "2023-09-01 10:38:00.289246", "Beginexp": "2023-09-01 10:38:14.418581", "Endhit": null, "psiturkStatus": 6, "browser": "<redacted>", "platform": "windows", "language": "de", "excludeReason": "dataincomplete"}