{"condition": 0, "counterbalance": 0, "assignmentId": "a59132068", "workerId": "w10432942", "hitId": "h63301307", "currenttrial": 55, "bonus": 0, "data": [{"uniqueid": "w10432942:a59132068", "current_trial": 0, "dateTime": 1691160256246, "trialdata": {"success": true, "trial_type": "fullscreen", "trial_index": 0, "time_elapsed": 7485, "internal_node_id": "0.0-0.0"}}, {"uniqueid": "w10432942:a59132068", "current_trial": 1, "dateTime": 1691160275415, "trialdata": {"view_history": [{"page_index": 0, "viewing_time": 19156}], "rt": 19156, "trial_id": "exp_instructions_control", "trial_type": "instructions", "trial_index": 1, "time_elapsed": 26655, "internal_node_id": "0.0-1.0"}}, {"uniqueid": "w10432942:a59132068", "current_trial": 2, "dateTime": 1691160279123, "trialdata": {"success": true, "trial_type": "fullscreen", "trial_index": 2, "time_elapsed": 30363, "internal_node_id": "0.0-2.0-0.0"}}, {"uniqueid": "w10432942:a59132068", "current_trial": 3, "dateTime": 1691160663849, "trialdata": {"view_history": [{"page_index": 0, "viewing_time": 144903}, {"page_index": 1, "viewing_time": 137222}, {"page_index": 2, "viewing_time": 38051}, {"page_index": 3, "viewing_time": 64545}], "rt": 384721, "trial_id": "mouselab_instructions_1_control", "trial_type": "instructions", "trial_index": 3, "time_elapsed": 415088, "internal_node_id": "0.0-2.0-1.0"}}, {"uniqueid": "w10432942:a59132068", "current_trial": 4, "dateTime": 1691160722311, "trialdata": {"revealed_states": [], "clicked_states": ["12", "13"], "num_clicks_accrued": [0, 0, 0, 0, 0, 0, 0, 0, 0, 0, 0, 0, 0], "stateRewards": ["", 10, 10, 10, 10, -10, -10, 10, -10, 10, 10, 10, -10, -10, -10, -10, 10, 10, 10, -10, -10, 10, 10, -10, -10, 10, 10, -10, -10, 10, -10, 10, -10, 10], "withholdReward": false, "trial_id": "practice_1", "block": "test", "trialIndex": 0, "score": -27.5, "costs": -1, "simulationMode": [null, null, null, null, null], "rewards": [-10, -10, -10, -10, 10], "path": ["0", "0", "12", "13", "14", "19", "21"], "rt": [12130, 1293, 2277, 2833, 216], "actions": ["right", "right", "right", "down", "down"], "actionTimes": [13787, 15572, 18354, 21680, 22398], "queries": {"click": {"state": {"target": ["12", "13"], "time": [3803, 10621]}, "edge": {"target": [], "time": []}}, "mouseover": {"state": {"target": ["12", "13", "0", "12", "13", "12", "12"], "time": [3391, 5506, 6122, 8828, 10173, 11393, 12879]}, "edge": {"target": [], "time": []}}, "mouseout": {"state": {"target": ["0", "12", "13", "12", "0", "12", "13", "13", "12", "12", "13", "18"], "time": [3136, 5147, 5872, 5972, 7520, 8841, 10830, 11274, 11607, 17028, 19162, 25013]}, "edge": {"target": [], "time": []}}}, "displayed_time": "22.90", "trialTime": 57351, "trial_type": "mouselab-mdp", "trial_index": 4, "time_elapsed": 473550, "internal_node_id": "0.0-2.0-2.0-0.0"}}, {"uniqueid": "w10432942:a59132068", "current_trial": 5, "dateTime": 1691160741843, "trialdata": {"revealed_states": [], "clicked_states": ["23", "12"], "num_clicks_accrued": [0, 0, 0, 0, 0, 0, 0, 0, 0, 0, 0, 0, 0], "stateRewards": ["", -10, -10, -10, 10, -10, -10, -10, 10, -10, 10, 10, 10, -10, -10, -10, 10, -10, -10, -10, -10, 10, 10, -10, 10, 10, 10, -10, -10, -10, -10, -10, -10, -10], "withholdReward": false, "trial_id": "practice_2", "block": "test", "trialIndex": 1, "score": -7.5, "costs": -1, "simulationMode": [null, null, null, null, null], "rewards": [10, -10, -10, -10, 10], "path": ["0", "0", "12", "13", "14", "15", "16"], "rt": [4868, 513, 1035, 724, 136], "actions": ["right", "right", "right", "up", "up"], "actionTimes": [10311, 11326, 12865, 14088, 14717], "queries": {"click": {"state": {"target": ["23", "12"], "time": [6975, 8200]}, "edge": {"target": [], "time": []}}, "mouseover": {"state": {"target": ["23", "12"], "time": [6611, 7642]}, "edge": {"target": [], "time": []}}, "mouseout": {"state": {"target": ["0", "23", "12"], "time": [6490, 7558, 9093]}, "edge": {"target": [], "time": []}}}, "displayed_time": "15.21", "trialTime": 19228, "trial_type": "mouselab-mdp", "trial_index": 5, "time_elapsed": 493083, "internal_node_id": "0.0-2.0-2.0-1.0"}}, {"uniqueid": "w10432942:a59132068", "current_trial": 6, "dateTime": 1691160803968, "trialdata": {"view_history": [{"page_index": 0, "viewing_time": 51196}, {"page_index": 1, "viewing_time": 10924}], "rt": 62121, "trial_id": "mouselab_instructions_2_control", "trial_type": "instructions", "trial_index": 6, "time_elapsed": 555208, "internal_node_id": "0.0-2.0-3.0"}}, {"uniqueid": "w10432942:a59132068", "current_trial": 7, "dateTime": 1691160923132, "trialdata": {"rt": 119152, "response": {"Q0": "The cost for clicking on nodes may vary between nodes.", "Q1": "The better I perform the higher my bonus will be.", "Q2": "No, the amount of cash at each node of the web may be different each time.", "Q3": "To get the highest total score.", "Q4": "Only before moving the spider.", "Q5": "3 seconds"}, "question_order": [0, 1, 2, 3, 4, 5], "correct": {"Q0": "The cost for clicking on nodes may vary between nodes.", "Q1": "The better I perform the higher my bonus will be.", "Q2": "No, the amount of cash at each node of the web may be different each time.", "Q3": "To get the highest total score.", "Q4": "Only before moving the spider.", "Q5": "3 seconds"}, "trial_id": "mouselab_quiz_control", "trial_type": "survey-multi-choice", "trial_index": 7, "time_elapsed": 674371, "internal_node_id": "0.0-2.0-4.0"}}, {"uniqueid": "w10432942:a59132068", "current_trial": 8, "dateTime": 1691160948519, "trialdata": {"rt": 25372, "stimulus": "\n<h1> Get ready to start the game! </h1>\n\nThank you for reading the instructions. Get ready start with the 40 rounds of this game.\n<br><br>\nIf you need to take a break, feel free to take one after the end of a round, before continuing to the next one.\n<br><br>\nRemember, the more money the spider gets, the bigger your bonus will be!\n<br><br>\n<div style='text-align: center;'>Press <code>space</code> to begin.</div>\n\n<br><br>\n(If, at any point, the <code>space</code> key does not take you to the next page, click once on the text and try again.)", "response": " ", "trial_id": "mdp_ready", "trial_type": "html-keyboard-response", "trial_index": 8, "time_elapsed": 699759, "internal_node_id": "0.0-4.0-0.0"}}, {"uniqueid": "w10432942:a59132068", "current_trial": 9, "dateTime": 1691160969369, "trialdata": {"revealed_states": [], "clicked_states": ["12"], "num_clicks_accrued": [0, 0, 0, 0, 0, 0, 0, 0, 0, 0, 0, 0, 0], "stateRewards": ["", -1, 3, -7, 16, -32, -74, -48, 2, 10, 15, -30, 1, 1, -2, 10, 12, -83, 67, 13, -66, 47, 65, -2, 4, 2, -14, -8, -57, 24, 9, 65, 12, 46], "withholdReward": false, "trial_id": "mdp_trial_1", "block": "test", "trialIndex": 2, "score": 20.6, "costs": -1.4, "simulationMode": [null, null, null, null, null], "rewards": [1, 1, -2, 10, 12], "path": ["0", "0", "12", "13", "14", "15", "16"], "rt": [4172, 303, 617, 7041, 328], "actions": ["right", "right", "right", "up", "up"], "actionTimes": [6048, 6865, 7978, 15519, 16344], "queries": {"click": {"state": {"target": ["12"], "time": [2980]}, "edge": {"target": [], "time": []}}, "mouseover": {"state": {"target": ["12", "23"], "time": [2558, 4063]}, "edge": {"target": [], "time": []}}, "mouseout": {"state": {"target": ["23", "29", "26", "28", "23", "0", "12", "23", "22", "19", "20", "21"], "time": [577, 771, 821, 838, 888, 2363, 3759, 5193, 17330, 18603, 18615, 20048]}, "edge": {"target": [], "time": []}}}, "displayed_time": "16.85", "trialTime": 20568, "trial_type": "mouselab-mdp", "trial_index": 9, "time_elapsed": 720608, "internal_node_id": "0.0-4.0-1.0-0.0"}}, {"uniqueid": "w10432942:a59132068", "current_trial": 10, "dateTime": 1691160987511, "trialdata": {"revealed_states": [], "clicked_states": ["12"], "num_clicks_accrued": [0, 0, 0, 0, 0, 0, 0, 0, 0, 0, 0, 0, 0], "stateRewards": ["", -2, 4, -7, -3, -76, 39, -28, 10, 14, 12, 60, 2, -3, 6, -10, 88, -34, -41, -3, 72, -13, -56, 1, 3, 2, 8, -51, 23, -57, 1, 14, -46, -16], "withholdReward": false, "trial_id": "mdp_trial_2", "block": "test", "trialIndex": 3, "score": -12.4, "costs": -1.4, "simulationMode": [null, null, null, null, null], "rewards": [2, -3, 6, -3, -13], "path": ["0", "0", "12", "13", "14", "19", "21"], "rt": [4530, 210, 207, 43, 150], "actions": ["right", "right", "right", "down", "down"], "actionTimes": [6935, 7661, 8373, 8911, 9583], "queries": {"click": {"state": {"target": ["12"], "time": [4509]}, "edge": {"target": [], "time": []}}, "mouseover": {"state": {"target": ["0", "12", "23"], "time": [3017, 4028, 5232]}, "edge": {"target": [], "time": []}}, "mouseout": {"state": {"target": ["0", "12", "23"], "time": [3853, 4721, 6802]}, "edge": {"target": [], "time": []}}}, "displayed_time": "16.41", "trialTime": 17821, "trial_type": "mouselab-mdp", "trial_index": 10, "time_elapsed": 738750, "internal_node_id": "0.0-4.0-1.0-1.0"}}, {"uniqueid": "w10432942:a59132068", "current_trial": 11, "dateTime": 1691161007620, "trialdata": {"revealed_states": [], "clicked_states": ["23", "12", "1"], "num_clicks_accrued": [0, 0, 0, 0, 0, 0, 0, 0, 0, 0, 0, 0, 0], "stateRewards": ["", 1, 4, -4, 14, 35, 51, 19, -13, 54, 78, -74, -2, -1, -3, 13, -11, -42, -73, -15, -24, -3, -69, 2, -1, 5, 16, -27, 73, 58, 9, -60, 5, -60], "withholdReward": false, "trial_id": "mdp_trial_3", "block": "test", "trialIndex": 4, "score": 15.8, "costs": -4.199999999999999, "simulationMode": [null, null, null, null, null, null], "rewards": [2, -1, 5, 9, 5], "path": ["0", "0", "23", "24", "25", "30", "32"], "rt": [6468, 861, 1559, 2474, 243, 285], "actions": ["left", "left", "left", "left", "down", "down"], "actionTimes": [9328, 10193, 12256, 15268, 16008, 16799], "queries": {"click": {"state": {"target": ["23", "12", "1"], "time": [3908, 6143, 8238]}, "edge": {"target": [], "time": []}}, "mouseover": {"state": {"target": ["23", "12", "1", "1"], "time": [3439, 4474, 6607, 6891]}, "edge": {"target": [], "time": []}}, "mouseout": {"state": {"target": ["0", "23", "12", "1", "1"], "time": [3325, 4324, 6540, 6724, 8827]}, "edge": {"target": [], "time": []}}}, "displayed_time": "17.30", "trialTime": 19820, "trial_type": "mouselab-mdp", "trial_index": 11, "time_elapsed": 758860, "internal_node_id": "0.0-4.0-1.0-2.0"}}, {"uniqueid": "w10432942:a59132068", "current_trial": 12, "dateTime": 1691161025553, "trialdata": {"revealed_states": [], "clicked_states": ["1", "23", "12"], "num_clicks_accrued": [0, 0, 0, 0, 0, 0, 0, 0, 0, 0, 0, 0, 0], "stateRewards": ["", -1, -1, 7, -15, -43, -21, -84, -9, -45, -66, 2, 1, -2, 2, 8, -27, 44, -52, -5, -84, 11, 53, 1, 4, -4, 16, 83, -82, -15, -16, 68, -43, 81], "withholdReward": false, "trial_id": "mdp_trial_4", "block": "test", "trialIndex": 5, "score": 95.8, "costs": -4.199999999999999, "simulationMode": [null, null, null, null, null, null], "rewards": [1, 4, -4, 16, 83], "path": ["0", "0", "23", "24", "25", "26", "27"], "rt": [7261, 1040, 158, 116, 34, 678], "actions": ["left", "left", "left", "left", "up", "up"], "actionTimes": [9339, 10386, 11065, 11674, 12225, 13403], "queries": {"click": {"state": {"target": ["1", "23", "12"], "time": [3529, 6686, 8564]}, "edge": {"target": [], "time": []}}, "mouseover": {"state": {"target": ["1", "12", "0", "23", "23", "12", "0"], "time": [2967, 4220, 5735, 5784, 6191, 7254, 9188]}, "edge": {"target": [], "time": []}}, "mouseout": {"state": {"target": ["22", "12", "0", "1", "12", "0", "23", "23", "12", "0"], "time": [1136, 1199, 2736, 3986, 5710, 5768, 5852, 7154, 9171, 9206]}, "edge": {"target": [], "time": []}}}, "displayed_time": "16.08", "trialTime": 17620, "trial_type": "mouselab-mdp", "trial_index": 12, "time_elapsed": 776792, "internal_node_id": "0.0-4.0-1.0-3.0"}}, {"uniqueid": "w10432942:a59132068", "current_trial": 13, "dateTime": 1691161043785, "trialdata": {"revealed_states": [], "clicked_states": ["1"], "num_clicks_accrued": [0, 0, 0, 0, 0, 0, 0, 0, 0, 0, 0, 0, 0], "stateRewards": ["", 1, -1, 1, -14, -10, 67, -28, -11, 72, 40, -65, -1, 1, 1, -2, 8, -55, 34, -10, 61, 33, -15, 2, -4, 7, 4, -75, 63, -21, -16, 61, 19, 21], "withholdReward": false, "trial_id": "mdp_trial_5", "block": "test", "trialIndex": 6, "score": -24.4, "costs": -1.4, "simulationMode": [null, null, null, null, null], "rewards": [1, -1, 1, -14, -10], "path": ["0", "0", "1", "2", "3", "4", "5"], "rt": [4630, 99, 180, 2162, 142], "actions": ["up", "up", "up", "right", "up"], "actionTimes": [7476, 8068, 8749, 11431, 12094], "queries": {"click": {"state": {"target": ["1"], "time": [5034]}, "edge": {"target": [], "time": []}}, "mouseover": {"state": {"target": ["12", "1", "2", "1", "2"], "time": [3396, 3698, 3781, 4014, 5651]}, "edge": {"target": [], "time": []}}, "mouseout": {"state": {"target": ["22", "12", "0", "12", "1", "2", "1", "2", "1", "7", "4"], "time": [1814, 1946, 3314, 3596, 3714, 3985, 5567, 7271, 10238, 10299, 14820]}, "edge": {"target": [], "time": []}}}, "displayed_time": "16.85", "trialTime": 17908, "trial_type": "mouselab-mdp", "trial_index": 13, "time_elapsed": 795025, "internal_node_id": "0.0-4.0-1.0-4.0"}}, {"uniqueid": "w10432942:a59132068", "current_trial": 14, "dateTime": 1691161061090, "trialdata": {"revealed_states": [], "clicked_states": ["1", "23", "12"], "num_clicks_accrued": [0, 0, 0, 0, 0, 0, 0, 0, 0, 0, 0, 0, 0], "stateRewards": ["", 1, 2, -3, 6, -88, 74, -45, 7, -46, 40, -77, 1, -4, 4, 3, 22, -25, -59, 8, -83, 19, -60, -1, -1, -1, -8, 26, -29, 64, -7, -88, -51, -55], "withholdReward": false, "trial_id": "mdp_trial_6", "block": "test", "trialIndex": 7, "score": -43.2, "costs": -4.199999999999999, "simulationMode": [null, null, null, null, null, null], "rewards": [1, 2, -3, 7, -46], "path": ["0", "0", "1", "2", "3", "8", "9"], "rt": [6302, 537, 30, 29, 66, 36], "actions": ["up", "up", "up", "up", "left", "up"], "actionTimes": [8270, 8811, 9351, 9897, 10485, 11023], "queries": {"click": {"state": {"target": ["1", "23", "12"], "time": [3021, 5135, 7482]}, "edge": {"target": [], "time": []}}, "mouseover": {"state": {"target": ["1", "23", "0", "12", "13", "12"], "time": [2468, 3715, 5566, 5597, 5787, 6083]}, "edge": {"target": [], "time": []}}, "mouseout": {"state": {"target": ["0", "1", "23", "0", "12", "13", "12", "12", "21"], "time": [1449, 3514, 5550, 5595, 5633, 5954, 8150, 11934, 16437]}, "edge": {"target": [], "time": []}}}, "displayed_time": "15.97", "trialTime": 16969, "trial_type": "mouselab-mdp", "trial_index": 14, "time_elapsed": 812328, "internal_node_id": "0.0-4.0-1.0-5.0"}}, {"uniqueid": "w10432942:a59132068", "current_trial": 15, "dateTime": 1691161078852, "trialdata": {"revealed_states": [], "clicked_states": [], "num_clicks_accrued": [0, 0, 0, 0, 0, 0, 0, 0, 0, 0, 0, 0, 0], "stateRewards": ["", -2, -4, -2, -13, -15, 87, -19, -6, -80, 30, 12, 1, 1, -8, 2, 55, 56, 15, 11, -68, -7, 55, -2, 3, -3, -3, 48, 62, 4, 1, -3, 69, -33], "withholdReward": false, "trial_id": "mdp_trial_7", "block": "test", "trialIndex": 8, "score": -36, "costs": 0, "simulationMode": [null, null, null, null, null], "rewards": [-2, -4, -2, -13, -15], "path": ["0", "0", "1", "2", "3", "4", "5"], "rt": [732, 196, 79, 618, 21], "actions": ["up", "up", "up", "right", "up"], "actionTimes": [2699, 3393, 3975, 5098, 5619], "queries": {"click": {"state": {"target": [], "time": []}, "edge": {"target": [], "time": []}}, "mouseover": {"state": {"target": [], "time": []}, "edge": {"target": [], "time": []}}, "mouseout": {"state": {"target": ["0"], "time": [7144]}, "edge": {"target": [], "time": []}}}, "displayed_time": "15.97", "trialTime": 17422, "trial_type": "mouselab-mdp", "trial_index": 15, "time_elapsed": 830091, "internal_node_id": "0.0-4.0-1.0-6.0"}}, {"uniqueid": "w10432942:a59132068", "current_trial": 16, "dateTime": 1691161098220, "trialdata": {"revealed_states": [], "clicked_states": ["12", "23", "1"], "num_clicks_accrued": [0, 0, 0, 0, 0, 0, 0, 0, 0, 0, 0, 0, 0], "stateRewards": ["", -1, 3, 8, 10, -86, 61, -36, 10, 17, -60, 24, -1, -3, 3, 11, 50, 60, 33, -3, -20, 58, -6, 1, -4, -4, 13, -70, -71, 43, 14, 52, 82, -11], "withholdReward": false, "trial_id": "mdp_trial_8", "block": "test", "trialIndex": 9, "score": 84.8, "costs": -4.199999999999999, "simulationMode": [null, null, null, null, null, null], "rewards": [1, -4, -4, 14, 82], "path": ["0", "0", "23", "24", "25", "30", "32"], "rt": [6251, 605, 120, 639, 541, 146], "actions": ["left", "left", "left", "left", "down", "down"], "actionTimes": [9081, 9690, 10327, 11464, 12500, 13138], "queries": {"click": {"state": {"target": ["12", "23", "1"], "time": [4130, 6444, 8350]}, "edge": {"target": [], "time": []}}, "mouseover": {"state": {"target": ["12", "0", "23", "1"], "time": [3567, 4519, 4839, 7138]}, "edge": {"target": [], "time": []}}, "mouseout": {"state": {"target": ["20", "19", "22", "0", "12", "0", "23"], "time": [716, 1072, 1149, 3456, 4491, 4719, 6904]}, "edge": {"target": [], "time": []}}}, "displayed_time": "16.83", "trialTime": 18953, "trial_type": "mouselab-mdp", "trial_index": 16, "time_elapsed": 849458, "internal_node_id": "0.0-4.0-1.0-7.0"}}, {"uniqueid": "w10432942:a59132068", "current_trial": 17, "dateTime": 1691161115784, "trialdata": {"revealed_states": [], "clicked_states": [], "num_clicks_accrued": [0, 0, 0, 0, 0, 0, 0, 0, 0, 0, 0, 0, 0], "stateRewards": ["", -1, 1, 6, -6, 70, 66, 67, -16, -75, -35, 37, -1, 4, 4, -6, 47, -9, 63, 15, 21, -63, 13, 1, 3, -6, 10, 79, -29, 18, -15, 9, -67, -19], "withholdReward": false, "trial_id": "mdp_trial_9", "block": "test", "trialIndex": 10, "score": -85, "costs": 0, "simulationMode": [null, null, null, null, null], "rewards": [-1, 1, 6, -16, -75], "path": ["0", "0", "1", "2", "3", "8", "9"], "rt": [904, 62, 31, 918, 29], "actions": ["up", "up", "up", "left", "up"], "actionTimes": [2954, 3515, 4049, 5486, 6015], "queries": {"click": {"state": {"target": [], "time": []}, "edge": {"target": [], "time": []}}, "mouseover": {"state": {"target": [], "time": []}, "edge": {"target": [], "time": []}}, "mouseout": {"state": {"target": ["1", "0"], "time": [817, 8218]}, "edge": {"target": [], "time": []}}}, "displayed_time": "16.05", "trialTime": 17178, "trial_type": "mouselab-mdp", "trial_index": 17, "time_elapsed": 867024, "internal_node_id": "0.0-4.0-1.0-8.0"}}, {"uniqueid": "w10432942:a59132068", "current_trial": 18, "dateTime": 1691161134695, "trialdata": {"revealed_states": [], "clicked_states": ["12", "1"], "num_clicks_accrued": [0, 0, 0, 0, 0, 0, 0, 0, 0, 0, 0, 0, 0], "stateRewards": ["", 2, -3, 5, -14, -63, -9, -24, -11, -54, -43, 68, 2, -2, -4, 7, -64, 30, 47, 12, -74, 11, 86, 1, -3, 3, 10, -71, -42, -52, -1, -29, -16, 69], "withholdReward": false, "trial_id": "mdp_trial_10", "block": "test", "trialIndex": 11, "score": 16.2, "costs": -2.8, "simulationMode": [null, null, null, null, null, null], "rewards": [2, -2, -4, 12, 11], "path": ["0", "0", "12", "13", "14", "19", "21"], "rt": [5083, 518, 59, 199, 369, 662], "actions": ["right", "right", "right", "right", "down", "down"], "actionTimes": [7150, 7671, 8242, 8947, 9836, 10997], "queries": {"click": {"state": {"target": ["12", "1"], "time": [3367, 6170]}, "edge": {"target": [], "time": []}}, "mouseover": {"state": {"target": ["12", "23", "1", "1"], "time": [3284, 4268, 5361, 5818]}, "edge": {"target": [], "time": []}}, "mouseout": {"state": {"target": ["12", "0", "12", "23", "1", "1", "1", "15", "17"], "time": [1297, 1430, 3980, 5297, 5463, 6387, 6814, 11983, 12000]}, "edge": {"target": [], "time": []}}}, "displayed_time": "16.07", "trialTime": 18522, "trial_type": "mouselab-mdp", "trial_index": 18, "time_elapsed": 885934, "internal_node_id": "0.0-4.0-1.0-9.0"}}, {"uniqueid": "w10432942:a59132068", "current_trial": 19, "dateTime": 1691161152988, "trialdata": {"revealed_states": [], "clicked_states": [], "num_clicks_accrued": [0, 0, 0, 0, 0, 0, 0, 0, 0, 0, 0, 0, 0], "stateRewards": ["", -2, -1, -1, 5, -54, -87, 35, 2, -8, 20, -22, 1, 3, 6, 13, -75, -32, -55, -3, 56, 62, -22, -1, -4, -1, -7, -51, 84, 70, 7, -15, 5, 55], "withholdReward": false, "trial_id": "mdp_trial_11", "block": "test", "trialIndex": 12, "score": -52, "costs": 0, "simulationMode": [null, null, null, null, null], "rewards": [1, 3, 6, 13, -75], "path": ["0", "0", "12", "13", "14", "15", "16"], "rt": [1096, 9, 2, 287, 482], "actions": ["right", "right", "right", "up", "up"], "actionTimes": [3944, 4465, 4976, 5777, 6778], "queries": {"click": {"state": {"target": [], "time": []}, "edge": {"target": [], "time": []}}, "mouseover": {"state": {"target": ["12"], "time": [3753]}, "edge": {"target": [], "time": []}}, "mouseout": {"state": {"target": ["15", "12", "0", "12", "13", "14"], "time": [1601, 1768, 3674, 7354, 7387, 7421]}, "edge": {"target": [], "time": []}}}, "displayed_time": "16.85", "trialTime": 17899, "trial_type": "mouselab-mdp", "trial_index": 19, "time_elapsed": 904227, "internal_node_id": "0.0-4.0-1.0-10.0"}}, {"uniqueid": "w10432942:a59132068", "current_trial": 20, "dateTime": 1691161169805, "trialdata": {"revealed_states": [], "clicked_states": [], "num_clicks_accrued": [0, 0, 0, 0, 0, 0, 0, 0, 0, 0, 0, 0, 0], "stateRewards": ["", 1, 2, -8, 9, 18, -83, -11, 6, -64, -48, 17, -2, -2, -5, -3, -24, -3, -86, -2, 48, -41, -22, -2, 4, 7, 8, 81, 13, -48, 10, 61, 19, 57], "withholdReward": false, "trial_id": "mdp_trial_12", "block": "test", "trialIndex": 13, "score": 22, "costs": 0, "simulationMode": [null, null, null, null, null], "rewards": [1, 2, -8, 9, 18], "path": ["0", "0", "1", "2", "3", "4", "5"], "rt": [841, 266, 2, 888, 41], "actions": ["up", "up", "up", "right", "up"], "actionTimes": [2295, 3058, 3563, 4970, 5519], "queries": {"click": {"state": {"target": [], "time": []}, "edge": {"target": [], "time": []}}, "mouseover": {"state": {"target": [], "time": []}, "edge": {"target": [], "time": []}}, "mouseout": {"state": {"target": ["0", "21"], "time": [2205, 6309]}, "edge": {"target": [], "time": []}}}, "displayed_time": "15.46", "trialTime": 16412, "trial_type": "mouselab-mdp", "trial_index": 20, "time_elapsed": 921044, "internal_node_id": "0.0-4.0-1.0-11.0"}}, {"uniqueid": "w10432942:a59132068", "current_trial": 21, "dateTime": 1691161187661, "trialdata": {"revealed_states": [], "clicked_states": [], "num_clicks_accrued": [0, 0, 0, 0, 0, 0, 0, 0, 0, 0, 0, 0, 0], "stateRewards": ["", 2, -1, -3, 16, -3, -16, -62, -1, 13, -26, 43, -1, 4, 3, -9, -54, -37, -3, -12, -71, -68, -57, 1, -3, 2, -9, 2, -2, -9, -11, 84, -52, 55], "withholdReward": false, "trial_id": "mdp_trial_13", "block": "test", "trialIndex": 14, "score": -63, "costs": 0, "simulationMode": [null, null, null, null, null], "rewards": [1, -3, 2, -11, -52], "path": ["0", "0", "23", "24", "25", "30", "32"], "rt": [966, 160, 436, 251, 581], "actions": ["left", "left", "left", "down", "down"], "actionTimes": [3176, 3839, 4768, 5516, 6596], "queries": {"click": {"state": {"target": [], "time": []}, "edge": {"target": [], "time": []}}, "mouseover": {"state": {"target": [], "time": []}, "edge": {"target": [], "time": []}}, "mouseout": {"state": {"target": ["13", "0"], "time": [946, 7756]}, "edge": {"target": [], "time": []}}}, "displayed_time": "16.21", "trialTime": 17447, "trial_type": "mouselab-mdp", "trial_index": 21, "time_elapsed": 938900, "internal_node_id": "0.0-4.0-1.0-12.0"}}, {"uniqueid": "w10432942:a59132068", "current_trial": 22, "dateTime": 1691161206560, "trialdata": {"revealed_states": [], "clicked_states": ["23", "12", "1"], "num_clicks_accrued": [0, 0, 0, 0, 0, 0, 0, 0, 0, 0, 0, 0, 0], "stateRewards": ["", -1, -2, 4, 9, 10, -75, 39, 16, -43, 88, -19, -1, 1, 2, 4, -31, 10, 73, 12, 41, -64, -81, -2, 2, -6, 1, -81, -1, -26, 3, -59, -3, -20], "withholdReward": false, "trial_id": "mdp_trial_14", "block": "test", "trialIndex": 15, "score": 15.8, "costs": -4.199999999999999, "simulationMode": [null, null, null, null, null, null], "rewards": [-1, -2, 4, 9, 10], "path": ["0", "0", "1", "2", "3", "4", "5"], "rt": [7868, 2243, 61, 86, 206, 42], "actions": ["right", "up", "up", "up", "right", "up"], "actionTimes": [10358, 12605, 13167, 13790, 14519, 15065], "queries": {"click": {"state": {"target": ["23", "12", "1"], "time": [3795, 6408, 9100]}, "edge": {"target": [], "time": []}}, "mouseover": {"state": {"target": ["23", "13", "12", "1", "1"], "time": [3381, 4717, 4872, 6834, 7451]}, "edge": {"target": [], "time": []}}, "mouseout": {"state": {"target": ["16", "18", "12", "0", "23", "13", "12", "1", "1", "18", "15", "17"], "time": [1247, 1312, 1347, 1947, 3991, 4758, 6808, 6867, 15956, 16037, 16086, 16590]}, "edge": {"target": [], "time": []}}}, "displayed_time": "16.49", "trialTime": 18493, "trial_type": "mouselab-mdp", "trial_index": 22, "time_elapsed": 957800, "internal_node_id": "0.0-4.0-1.0-13.0"}}, {"uniqueid": "w10432942:a59132068", "current_trial": 23, "dateTime": 1691161224328, "trialdata": {"revealed_states": [], "clicked_states": ["23", "12", "1"], "num_clicks_accrued": [0, 0, 0, 0, 0, 0, 0, 0, 0, 0, 0, 0, 0], "stateRewards": ["", -1, 4, -5, 9, 29, -75, -42, -16, 24, -28, -41, 2, -3, 1, 10, 60, 47, 55, -1, -53, 22, -40, 2, -3, -6, 4, -26, 44, 54, 15, -76, 42, 14], "withholdReward": false, "trial_id": "mdp_trial_15", "block": "test", "trialIndex": 16, "score": 65.8, "costs": -4.199999999999999, "simulationMode": [null, null, null, null, null], "rewards": [2, -3, 1, 10, 60], "path": ["0", "0", "12", "13", "14", "15", "16"], "rt": [7486, 149, 276, 114, 31], "actions": ["right", "right", "right", "up", "up"], "actionTimes": [10075, 10727, 11504, 12139, 12676], "queries": {"click": {"state": {"target": ["23", "12", "1"], "time": [3723, 5721, 8106]}, "edge": {"target": [], "time": []}}, "mouseover": {"state": {"target": ["23", "0", "12", "1", "0"], "time": [3268, 4240, 4443, 6560, 8856]}, "edge": {"target": [], "time": []}}, "mouseout": {"state": {"target": ["22", "12", "0", "23", "0", "12", "1", "0", "22", "19", "20"], "time": [1251, 1686, 3168, 4222, 4304, 6223, 8772, 8889, 13525, 13541, 13558]}, "edge": {"target": [], "time": []}}}, "displayed_time": "16.59", "trialTime": 17342, "trial_type": "mouselab-mdp", "trial_index": 23, "time_elapsed": 975568, "internal_node_id": "0.0-4.0-1.0-14.0"}}, {"uniqueid": "w10432942:a59132068", "current_trial": 24, "dateTime": 1691161243399, "trialdata": {"revealed_states": [], "clicked_states": ["23", "12", "1"], "num_clicks_accrued": [0, 0, 0, 0, 0, 0, 0, 0, 0, 0, 0, 0, 0], "stateRewards": ["", 1, -3, -1, 9, -34, -40, 22, -7, 45, 53, -11, 2, 4, 5, 15, 21, 37, -49, -3, 80, -28, -34, 1, -3, 1, 1, -40, -6, -5, -16, -85, -86, 59], "withholdReward": false, "trial_id": "mdp_trial_16", "block": "test", "trialIndex": 17, "score": 42.8, "costs": -4.199999999999999, "simulationMode": [null, null, null, null, null, null], "rewards": [2, 4, 5, 15, 21], "path": ["0", "0", "12", "13", "14", "15", "16"], "rt": [7037, 742, 5, 800, 133, 816], "actions": ["right", "right", "right", "right", "up", "up"], "actionTimes": [9004, 9749, 10269, 11602, 12231, 13549], "queries": {"click": {"state": {"target": ["23", "12", "1"], "time": [3784, 6060, 8535]}, "edge": {"target": [], "time": []}}, "mouseover": {"state": {"target": ["0", "23", "0", "12", "1"], "time": [2724, 3381, 4235, 4396, 6745]}, "edge": {"target": [], "time": []}}, "mouseout": {"state": {"target": ["14", "13", "12", "0", "23", "0", "12", "1", "13"], "time": [660, 722, 1090, 2774, 4211, 4277, 6628, 9144, 16615]}, "edge": {"target": [], "time": []}}}, "displayed_time": "15.97", "trialTime": 18641, "trial_type": "mouselab-mdp", "trial_index": 24, "time_elapsed": 994638, "internal_node_id": "0.0-4.0-1.0-15.0"}}, {"uniqueid": "w10432942:a59132068", "current_trial": 25, "dateTime": 1691161261459, "trialdata": {"revealed_states": [], "clicked_states": ["23", "12", "1"], "num_clicks_accrued": [0, 0, 0, 0, 0, 0, 0, 0, 0, 0, 0, 0, 0], "stateRewards": ["", 2, -4, 1, -12, -59, -53, -74, 16, -88, -66, 66, 1, -2, 8, -9, -14, 22, 25, -1, -39, 47, -14, -1, -1, -2, 1, -4, 52, -26, 15, -7, 46, 43], "withholdReward": false, "trial_id": "mdp_trial_17", "block": "test", "trialIndex": 18, "score": 48.8, "costs": -4.199999999999999, "simulationMode": [null, null, null, null, null], "rewards": [1, -2, 8, -1, 47], "path": ["0", "0", "12", "13", "14", "19", "21"], "rt": [7119, 136, 42, 622, 675], "actions": ["right", "right", "right", "down", "down"], "actionTimes": [9403, 10043, 10603, 11744, 12916], "queries": {"click": {"state": {"target": ["23", "12", "1"], "time": [3422, 5782, 7780]}, "edge": {"target": [], "time": []}}, "mouseover": {"state": {"target": ["23", "0", "12", "1", "0"], "time": [3006, 3902, 4050, 6322, 8839]}, "edge": {"target": [], "time": []}}, "mouseout": {"state": {"target": ["19", "13", "12", "1", "23", "0", "12", "1", "1", "0"], "time": [942, 982, 998, 1131, 3886, 3951, 6220, 7997, 8771, 8854]}, "edge": {"target": [], "time": []}}}, "displayed_time": "16.28", "trialTime": 17586, "trial_type": "mouselab-mdp", "trial_index": 25, "time_elapsed": 1012698, "internal_node_id": "0.0-4.0-1.0-16.0"}}, {"uniqueid": "w10432942:a59132068", "current_trial": 26, "dateTime": 1691161278579, "trialdata": {"revealed_states": [], "clicked_states": [], "num_clicks_accrued": [0, 0, 0, 0, 0, 0, 0, 0, 0, 0, 0, 0, 0], "stateRewards": ["", 2, -1, -2, -5, -47, -57, -33, -11, 31, -18, -72, -2, 1, -4, -8, -46, -53, -50, 15, -85, -9, 39, -2, -2, 1, 14, -1, -8, 53, -12, -41, -74, 62], "withholdReward": false, "trial_id": "mdp_trial_18", "block": "test", "trialIndex": 19, "score": -89, "costs": 0, "simulationMode": [null, null, null, null, null], "rewards": [-2, -2, 1, -12, -74], "path": ["0", "0", "23", "24", "25", "30", "32"], "rt": [668, 2008, 131, 519, 94], "actions": ["left", "left", "left", "down", "down"], "actionTimes": [2303, 4805, 5452, 6466, 7077], "queries": {"click": {"state": {"target": [], "time": []}, "edge": {"target": [], "time": []}}, "mouseover": {"state": {"target": [], "time": []}, "edge": {"target": [], "time": []}}, "mouseout": {"state": {"target": ["0", "0", "23"], "time": [776, 3511, 16335]}, "edge": {"target": [], "time": []}}}, "displayed_time": "15.64", "trialTime": 16740, "trial_type": "mouselab-mdp", "trial_index": 26, "time_elapsed": 1029818, "internal_node_id": "0.0-4.0-1.0-17.0"}}, {"uniqueid": "w10432942:a59132068", "current_trial": 27, "dateTime": 1691161298860, "trialdata": {"revealed_states": [], "clicked_states": ["1", "23", "12"], "num_clicks_accrued": [0, 0, 0, 0, 0, 0, 0, 0, 0, 0, 0, 0, 0], "stateRewards": ["", -2, 1, -5, 2, -68, 80, 33, 10, 67, -59, 20, -1, -3, 3, 14, 74, -2, 24, -16, 63, 80, 46, -1, 4, 6, 12, 83, -38, -43, -4, 43, 14, -79], "withholdReward": false, "trial_id": "mdp_trial_19", "block": "test", "trialIndex": 20, "score": 99.8, "costs": -4.199999999999999, "simulationMode": [null, null, null, null, null], "rewards": [-1, 4, 6, 12, 83], "path": ["0", "0", "23", "24", "25", "26", "27"], "rt": [7796, 94, 601, 1519, 57], "actions": ["left", "left", "left", "up", "up"], "actionTimes": [9890, 10489, 11613, 13653, 14205], "queries": {"click": {"state": {"target": ["1", "23", "12"], "time": [3122, 4880, 6723]}, "edge": {"target": [], "time": []}}, "mouseover": {"state": {"target": ["1", "23", "0", "12"], "time": [2596, 3725, 5360, 5425]}, "edge": {"target": [], "time": []}}, "mouseout": {"state": {"target": ["0", "1", "23", "0", "12", "22", "19"], "time": [558, 3631, 5325, 5376, 7660, 16769, 16795]}, "edge": {"target": [], "time": []}}}, "displayed_time": "16.10", "trialTime": 19843, "trial_type": "mouselab-mdp", "trial_index": 27, "time_elapsed": 1050099, "internal_node_id": "0.0-4.0-1.0-18.0"}}, {"uniqueid": "w10432942:a59132068", "current_trial": 28, "dateTime": 1691161317760, "trialdata": {"revealed_states": [], "clicked_states": ["23", "12", "1"], "num_clicks_accrued": [0, 0, 0, 0, 0, 0, 0, 0, 0, 0, 0, 0, 0], "stateRewards": ["", 2, -1, -4, -13, 74, 77, 3, 2, -43, -2, -11, 2, 3, 7, 11, -26, -29, -33, -3, -3, -13, -3, 1, 3, -7, 14, -59, 33, 9, -5, 34, 79, 68], "withholdReward": false, "trial_id": "mdp_trial_20", "block": "test", "trialIndex": 21, "score": -8.2, "costs": -4.199999999999999, "simulationMode": [null, null, null, null, null, null], "rewards": [2, 3, 7, -3, -13], "path": ["0", "0", "12", "13", "14", "19", "21"], "rt": [6036, 574, 51, 149, 40, 677], "actions": ["right", "right", "right", "right", "down", "down"], "actionTimes": [8238, 8816, 9363, 10047, 10585, 11772], "queries": {"click": {"state": {"target": ["23", "12", "1"], "time": [3314, 5395, 7181]}, "edge": {"target": [], "time": []}}, "mouseover": {"state": {"target": ["23", "12", "1", "1"], "time": [2915, 3923, 5874, 6712]}, "edge": {"target": [], "time": []}}, "mouseout": {"state": {"target": ["14", "13", "12", "0", "23", "12", "1", "1", "1", "0", "24", "25"], "time": [835, 1088, 1154, 2793, 3773, 5813, 5918, 7399, 8147, 17265, 17327, 17361]}, "edge": {"target": [], "time": []}}}, "displayed_time": "16.20", "trialTime": 18413, "trial_type": "mouselab-mdp", "trial_index": 28, "time_elapsed": 1068998, "internal_node_id": "0.0-4.0-1.0-19.0"}}, {"uniqueid": "w10432942:a59132068", "current_trial": 29, "dateTime": 1691161339337, "trialdata": {"revealed_states": [], "clicked_states": ["12", "1", "23"], "num_clicks_accrued": [0, 0, 0, 0, 0, 0, 0, 0, 0, 0, 0, 0, 0], "stateRewards": ["", -2, 2, 8, -6, -25, 3, 87, 2, -62, -2, 74, -2, -1, 2, -1, 79, 49, -37, -14, 5, 67, -9, -1, 2, -2, 5, 15, 38, 32, -14, -38, -38, 30], "withholdReward": false, "trial_id": "mdp_trial_21", "block": "test", "trialIndex": 22, "score": 47.8, "costs": -4.199999999999999, "simulationMode": [null, null, null, null, null], "rewards": [-2, -1, 2, -14, 67], "path": ["0", "0", "12", "13", "14", "19", "21"], "rt": [12296, 436, 44, 297, 3], "actions": ["right", "right", "right", "down", "down"], "actionTimes": [14383, 15332, 15892, 16710, 17240], "queries": {"click": {"state": {"target": ["12", "1", "23"], "time": [4182, 6487, 9805]}, "edge": {"target": [], "time": []}}, "mouseover": {"state": {"target": ["12", "12", "1", "23"], "time": [3471, 3791, 4841, 7196]}, "edge": {"target": [], "time": []}}, "mouseout": {"state": {"target": ["24", "0", "12", "12", "0", "12", "12", "1"], "time": [745, 787, 955, 1071, 1454, 3522, 4389, 6942]}, "edge": {"target": [], "time": []}}}, "displayed_time": "17.75", "trialTime": 21101, "trial_type": "mouselab-mdp", "trial_index": 29, "time_elapsed": 1090576, "internal_node_id": "0.0-4.0-1.0-20.0"}}, {"uniqueid": "w10432942:a59132068", "current_trial": 30, "dateTime": 1691161357632, "trialdata": {"revealed_states": [], "clicked_states": ["23", "1", "12"], "num_clicks_accrued": [0, 0, 0, 0, 0, 0, 0, 0, 0, 0, 0, 0, 0], "stateRewards": ["", -1, 1, -5, -6, -78, 47, -13, 12, 48, -88, 20, 2, -3, -2, 13, -20, 37, -57, 14, -38, 30, 31, -2, -2, 8, 2, -23, 78, 28, 12, -74, -88, 8], "withholdReward": false, "trial_id": "mdp_trial_22", "block": "test", "trialIndex": 23, "score": 36.8, "costs": -4.199999999999999, "simulationMode": [null, null, null, null, null], "rewards": [2, -3, -2, 14, 30], "path": ["0", "0", "12", "13", "14", "19", "21"], "rt": [8680, 439, 582, 56, 3], "actions": ["right", "right", "right", "down", "down"], "actionTimes": [10771, 11716, 12809, 13382, 13894], "queries": {"click": {"state": {"target": ["23", "1", "12"], "time": [4694, 6793, 8641]}, "edge": {"target": [], "time": []}}, "mouseover": {"state": {"target": ["23", "1", "12"], "time": [4286, 5204, 7333]}, "edge": {"target": [], "time": []}}, "mouseout": {"state": {"target": ["23", "23", "1", "12"], "time": [955, 5109, 6999, 17074]}, "edge": {"target": [], "time": []}}}, "displayed_time": "16.09", "trialTime": 17866, "trial_type": "mouselab-mdp", "trial_index": 30, "time_elapsed": 1108870, "internal_node_id": "0.0-4.0-1.0-21.0"}}, {"uniqueid": "w10432942:a59132068", "current_trial": 31, "dateTime": 1691161375560, "trialdata": {"revealed_states": [], "clicked_states": ["12", "1", "23"], "num_clicks_accrued": [0, 0, 0, 0, 0, 0, 0, 0, 0, 0, 0, 0, 0], "stateRewards": ["", -1, 3, -4, -14, 78, 67, 2, 13, -32, 28, 39, -2, 1, -4, -4, -4, -42, -86, 11, 64, -29, -32, -1, -4, 2, -7, 5, 68, -61, 2, -21, 85, 50], "withholdReward": false, "trial_id": "mdp_trial_23", "block": "test", "trialIndex": 24, "score": -27.2, "costs": -4.199999999999999, "simulationMode": [null, null, null, null, null], "rewards": [-2, 1, -4, 11, -29], "path": ["0", "0", "12", "13", "14", "19", "21"], "rt": [8354, 416, 540, 397, 120], "actions": ["right", "right", "right", "down", "down"], "actionTimes": [10490, 11403, 12443, 13351, 13972], "queries": {"click": {"state": {"target": ["12", "1", "23"], "time": [4328, 6500, 8273]}, "edge": {"target": [], "time": []}}, "mouseover": {"state": {"target": ["12", "1", "23", "12"], "time": [3913, 4970, 7032, 10073]}, "edge": {"target": [], "time": []}}, "mouseout": {"state": {"target": ["1", "0", "12", "1", "23", "12"], "time": [1248, 3730, 4801, 6884, 9100, 10316]}, "edge": {"target": [], "time": []}}}, "displayed_time": "16.14", "trialTime": 17513, "trial_type": "mouselab-mdp", "trial_index": 31, "time_elapsed": 1126798, "internal_node_id": "0.0-4.0-1.0-22.0"}}, {"uniqueid": "w10432942:a59132068", "current_trial": 32, "dateTime": 1691161397013, "trialdata": {"revealed_states": [], "clicked_states": ["23", "1", "12"], "num_clicks_accrued": [0, 0, 0, 0, 0, 0, 0, 0, 0, 0, 0, 0, 0], "stateRewards": ["", 1, 2, 8, -2, 23, -69, -18, -16, 54, -21, 71, -1, -4, 7, 11, 43, -6, 88, 6, -55, 72, 43, 1, -3, -2, -1, 68, -31, -54, 4, -8, 25, -2], "withholdReward": false, "trial_id": "mdp_trial_24", "block": "test", "trialIndex": 25, "score": 27.8, "costs": -4.199999999999999, "simulationMode": [null, null, null, null, null], "rewards": [1, 2, 8, -2, 23], "path": ["0", "0", "1", "2", "3", "4", "5"], "rt": [8389, 374, 486, 93, 1369], "actions": ["up", "up", "up", "right", "up"], "actionTimes": [9894, 10764, 11743, 12339, 14209], "queries": {"click": {"state": {"target": ["23", "1", "12"], "time": [3238, 5205, 7368]}, "edge": {"target": [], "time": []}}, "mouseover": {"state": {"target": ["23", "1", "12"], "time": [2881, 3737, 6114]}, "edge": {"target": [], "time": []}}, "mouseout": {"state": {"target": ["0", "23", "1", "12"], "time": [2782, 3605, 5820, 9618]}, "edge": {"target": [], "time": []}}}, "displayed_time": "15.51", "trialTime": 21061, "trial_type": "mouselab-mdp", "trial_index": 32, "time_elapsed": 1148252, "internal_node_id": "0.0-4.0-1.0-23.0"}}, {"uniqueid": "w10432942:a59132068", "current_trial": 33, "dateTime": 1691161415617, "trialdata": {"revealed_states": [], "clicked_states": ["23", "1", "12"], "num_clicks_accrued": [0, 0, 0, 0, 0, 0, 0, 0, 0, 0, 0, 0, 0], "stateRewards": ["", -1, -3, 3, 5, 56, 39, 50, -1, -80, 33, -46, 1, -2, -6, -8, 87, 48, 54, -11, -20, -64, -54, -2, 3, -7, -3, 12, 88, 35, -16, -46, -70, -3], "withholdReward": false, "trial_id": "mdp_trial_25", "block": "test", "trialIndex": 26, "score": -86.2, "costs": -4.199999999999999, "simulationMode": [null, null, null, null, null], "rewards": [1, -2, -6, -11, -64], "path": ["0", "0", "12", "13", "14", "19", "21"], "rt": [7447, 494, 127, 893, 743], "actions": ["right", "right", "right", "down", "down"], "actionTimes": [9748, 10765, 11397, 12789, 14048], "queries": {"click": {"state": {"target": ["23", "1", "12"], "time": [3318, 5502, 7045]}, "edge": {"target": [], "time": []}}, "mouseover": {"state": {"target": ["23", "1", "12"], "time": [2881, 3816, 5919]}, "edge": {"target": [], "time": []}}, "mouseout": {"state": {"target": ["21", "0", "23", "1", "12"], "time": [802, 2799, 3759, 5885, 7841]}, "edge": {"target": [], "time": []}}}, "displayed_time": "16.30", "trialTime": 18121, "trial_type": "mouselab-mdp", "trial_index": 33, "time_elapsed": 1166856, "internal_node_id": "0.0-4.0-1.0-24.0"}}, {"uniqueid": "w10432942:a59132068", "current_trial": 34, "dateTime": 1691161433378, "trialdata": {"revealed_states": [], "clicked_states": [], "num_clicks_accrued": [0, 0, 0, 0, 0, 0, 0, 0, 0, 0, 0, 0, 0], "stateRewards": ["", 1, 1, -7, -9, -44, 24, -83, -15, 44, -24, 72, -2, -3, 4, -5, 57, 55, 29, -11, 22, 12, -25, -1, 2, 7, 12, 33, -8, 47, -4, 8, 50, -4], "withholdReward": false, "trial_id": "mdp_trial_26", "block": "test", "trialIndex": 27, "score": 0, "costs": 0, "simulationMode": [null, null, null, null, null], "rewards": [-2, -3, 4, -11, 12], "path": ["0", "0", "12", "13", "14", "19", "21"], "rt": [1760, 847, 462, 971, 651], "actions": ["right", "right", "right", "down", "down"], "actionTimes": [3602, 4957, 5938, 7436, 8579], "queries": {"click": {"state": {"target": [], "time": []}, "edge": {"target": [], "time": []}}, "mouseover": {"state": {"target": [], "time": []}, "edge": {"target": [], "time": []}}, "mouseout": {"state": {"target": ["22", "12", "0", "12"], "time": [554, 640, 3589, 16625]}, "edge": {"target": [], "time": []}}}, "displayed_time": "15.84", "trialTime": 17298, "trial_type": "mouselab-mdp", "trial_index": 34, "time_elapsed": 1184617, "internal_node_id": "0.0-4.0-1.0-25.0"}}, {"uniqueid": "w10432942:a59132068", "current_trial": 35, "dateTime": 1691161451192, "trialdata": {"revealed_states": [], "clicked_states": ["23", "12", "1"], "num_clicks_accrued": [0, 0, 0, 0, 0, 0, 0, 0, 0, 0, 0, 0, 0], "stateRewards": ["", -2, -4, -8, 8, 63, -50, -19, -7, -17, -31, 31, 1, 3, -5, 12, -35, -63, -29, -4, -17, -75, -79, -2, -3, -2, 8, -3, -85, 10, -2, -82, -82, 56], "withholdReward": false, "trial_id": "mdp_trial_27", "block": "test", "trialIndex": 28, "score": -84.2, "costs": -4.199999999999999, "simulationMode": [null, null, null, null, null, null], "rewards": [1, 3, -5, -4, -75], "path": ["0", "0", "12", "13", "14", "19", "21"], "rt": [7345, 524, 3, 63, 18, 760], "actions": ["right", "right", "right", "right", "down", "down"], "actionTimes": [9197, 9728, 10226, 10800, 11323, 12597], "queries": {"click": {"state": {"target": ["23", "12", "1"], "time": [4067, 5944, 7821]}, "edge": {"target": [], "time": []}}, "mouseover": {"state": {"target": ["1", "1", "23", "0", "12", "1", "0"], "time": [2583, 2851, 2932, 4516, 4766, 6684, 8552]}, "edge": {"target": [], "time": []}}, "mouseout": {"state": {"target": ["0", "1", "1", "23", "0", "12", "1", "1", "0"], "time": [783, 2649, 2883, 4500, 4617, 6389, 8045, 8485, 16767]}, "edge": {"target": [], "time": []}}}, "displayed_time": "15.85", "trialTime": 17315, "trial_type": "mouselab-mdp", "trial_index": 35, "time_elapsed": 1202431, "internal_node_id": "0.0-4.0-1.0-26.0"}}, {"uniqueid": "w10432942:a59132068", "current_trial": 36, "dateTime": 1691161468723, "trialdata": {"revealed_states": [], "clicked_states": ["23", "1", "12"], "num_clicks_accrued": [0, 0, 0, 0, 0, 0, 0, 0, 0, 0, 0, 0, 0], "stateRewards": ["", 2, -4, -4, 13, -80, 62, 13, -11, 57, -13, -44, 1, 4, 3, -4, -29, -88, 15, 16, -58, 68, -45, -1, -3, -1, -9, -44, -86, -19, -7, -36, 59, 66], "withholdReward": false, "trial_id": "mdp_trial_28", "block": "test", "trialIndex": 29, "score": -77.2, "costs": -4.199999999999999, "simulationMode": [null, null, null, null, null, null], "rewards": [2, -4, -4, 13, -80], "path": ["0", "0", "1", "2", "3", "4", "5"], "rt": [5756, 419, 46, 122, 596, 488], "actions": ["up", "up", "up", "up", "right", "up"], "actionTimes": [7621, 8045, 8599, 9241, 10333, 11324], "queries": {"click": {"state": {"target": ["23", "1", "12"], "time": [3142, 4841, 6442]}, "edge": {"target": [], "time": []}}, "mouseover": {"state": {"target": ["23", "1", "12"], "time": [2813, 3666, 5471]}, "edge": {"target": [], "time": []}}, "mouseout": {"state": {"target": ["0", "23", "1", "1", "12", "0", "12", "13", "14"], "time": [1228, 3565, 4852, 5283, 7117, 12869, 13553, 13602, 13652]}, "edge": {"target": [], "time": []}}}, "displayed_time": "15.87", "trialTime": 17066, "trial_type": "mouselab-mdp", "trial_index": 36, "time_elapsed": 1219961, "internal_node_id": "0.0-4.0-1.0-27.0"}}, {"uniqueid": "w10432942:a59132068", "current_trial": 37, "dateTime": 1691161488562, "trialdata": {"revealed_states": [], "clicked_states": ["23", "1", "12"], "num_clicks_accrued": [0, 0, 0, 0, 0, 0, 0, 0, 0, 0, 0, 0, 0], "stateRewards": ["", -1, 4, -3, 3, 57, -61, 5, -11, 23, -1, 34, -2, -4, -1, -13, 27, 38, -36, 4, -45, 21, 88, 1, -2, -1, 1, -69, -5, -78, -12, -9, 38, -54], "withholdReward": false, "trial_id": "mdp_trial_29", "block": "test", "trialIndex": 30, "score": 19.8, "costs": -4.199999999999999, "simulationMode": [null, null, null, null, null, null], "rewards": [1, -2, -1, -12, 38], "path": ["0", "0", "23", "24", "25", "30", "32"], "rt": [6941, 484, 639, 461, 1322, 945], "actions": ["left", "left", "left", "left", "down", "down"], "actionTimes": [8792, 9280, 10429, 11403, 13231, 14670], "queries": {"click": {"state": {"target": ["23", "1", "12"], "time": [3960, 5646, 7663]}, "edge": {"target": [], "time": []}}, "mouseover": {"state": {"target": ["23", "1", "12"], "time": [3603, 4453, 6089]}, "edge": {"target": [], "time": []}}, "mouseout": {"state": {"target": ["20", "19", "0", "23", "1", "1", "12"], "time": [533, 565, 2324, 4369, 5859, 6020, 8222]}, "edge": {"target": [], "time": []}}}, "displayed_time": "15.85", "trialTime": 19338, "trial_type": "mouselab-mdp", "trial_index": 37, "time_elapsed": 1239802, "internal_node_id": "0.0-4.0-1.0-28.0"}}, {"uniqueid": "w10432942:a59132068", "current_trial": 38, "dateTime": 1691161507492, "trialdata": {"revealed_states": [], "clicked_states": ["12", "23", "1"], "num_clicks_accrued": [0, 0, 0, 0, 0, 0, 0, 0, 0, 0, 0, 0, 0], "stateRewards": ["", -2, -3, 1, -14, 48, -49, 67, -1, -35, -48, 3, -2, 1, -4, -5, 86, -84, 39, 1, 48, 41, -42, -1, -4, 2, -7, 18, -86, 17, 7, -9, 57, -69], "withholdReward": false, "trial_id": "mdp_trial_30", "block": "test", "trialIndex": 31, "score": 71.8, "costs": -4.199999999999999, "simulationMode": [null, null, null, null, null, null], "rewards": [-2, 1, -4, -5, 86], "path": ["0", "0", "12", "13", "14", "15", "16"], "rt": [6757, 1025, 909, 359, 1443, 697], "actions": ["right", "right", "right", "right", "up", "up"], "actionTimes": [8914, 9941, 11359, 12226, 14174, 15363], "queries": {"click": {"state": {"target": ["12", "23", "1"], "time": [4129, 5939, 7657]}, "edge": {"target": [], "time": []}}, "mouseover": {"state": {"target": ["12", "12", "0", "23", "1", "0"], "time": [3058, 3575, 4661, 4878, 6461, 8328]}, "edge": {"target": [], "time": []}}, "mouseout": {"state": {"target": ["0", "12", "12", "0", "23", "1", "1", "0", "12", "13", "14"], "time": [2981, 3107, 4351, 4777, 6411, 7867, 8245, 16297, 16330, 16363, 16396]}, "edge": {"target": [], "time": []}}}, "displayed_time": "16.16", "trialTime": 18447, "trial_type": "mouselab-mdp", "trial_index": 38, "time_elapsed": 1258730, "internal_node_id": "0.0-4.0-1.0-29.0"}}, {"uniqueid": "w10432942:a59132068", "current_trial": 39, "dateTime": 1691161525884, "trialdata": {"revealed_states": [], "clicked_states": ["23", "12", "1"], "num_clicks_accrued": [0, 0, 0, 0, 0, 0, 0, 0, 0, 0, 0, 0, 0], "stateRewards": ["", 1, 1, -5, 10, -31, 73, 14, -8, -23, 63, -70, -1, 2, 8, 7, 25, -59, 27, -10, -40, -71, -15, -2, 3, -8, -5, -19, 77, -34, 7, 67, 63, 19], "withholdReward": false, "trial_id": "mdp_trial_31", "block": "test", "trialIndex": 32, "score": -28.2, "costs": -4.199999999999999, "simulationMode": [null, null, null, null, null, null], "rewards": [1, 1, -5, 10, -31], "path": ["0", "0", "1", "2", "3", "4", "5"], "rt": [6339, 502, 787, 184, 147, 1298], "actions": ["up", "up", "up", "up", "right", "up"], "actionTimes": [8338, 8843, 10126, 10806, 11454, 13254], "queries": {"click": {"state": {"target": ["23", "12", "1"], "time": [3679, 5424, 7098]}, "edge": {"target": [], "time": []}}, "mouseover": {"state": {"target": ["0", "23", "0", "12", "1", "0"], "time": [3019, 3133, 4199, 4433, 5867, 7827]}, "edge": {"target": [], "time": []}}, "mouseout": {"state": {"target": ["0", "0", "23", "0", "12", "1", "0", "20"], "time": [1366, 3033, 4154, 4320, 5767, 7752, 7878, 17424]}, "edge": {"target": [], "time": []}}}, "displayed_time": "16.00", "trialTime": 17938, "trial_type": "mouselab-mdp", "trial_index": 39, "time_elapsed": 1277123, "internal_node_id": "0.0-4.0-1.0-30.0"}}, {"uniqueid": "w10432942:a59132068", "current_trial": 40, "dateTime": 1691161544579, "trialdata": {"revealed_states": [], "clicked_states": ["23", "12", "1"], "num_clicks_accrued": [0, 0, 0, 0, 0, 0, 0, 0, 0, 0, 0, 0, 0], "stateRewards": ["", 1, 3, -2, 15, 51, 15, -19, 11, 67, -45, -73, 2, 4, -2, -13, 36, 9, -28, 10, -30, 31, 16, 1, 2, -1, -16, 14, -22, 36, -1, 88, -5, 45], "withholdReward": false, "trial_id": "mdp_trial_32", "block": "test", "trialIndex": 33, "score": 40.8, "costs": -4.199999999999999, "simulationMode": [null, null, null, null, null, null], "rewards": [2, 4, -2, 10, 31], "path": ["0", "0", "12", "13", "14", "19", "21"], "rt": [5567, 464, 704, 518, 590, 670], "actions": ["right", "right", "right", "right", "down", "down"], "actionTimes": [7504, 7973, 9173, 10191, 11277, 12457], "queries": {"click": {"state": {"target": ["23", "12", "1"], "time": [3155, 4705, 6299]}, "edge": {"target": [], "time": []}}, "mouseover": {"state": {"target": ["23", "0", "12", "1", "0"], "time": [2799, 3616, 3718, 5149, 6986]}, "edge": {"target": [], "time": []}}, "mouseout": {"state": {"target": ["14", "0", "23", "0", "12", "1", "0", "23", "24", "30"], "time": [695, 1330, 3598, 3653, 5049, 6933, 7021, 16552, 16602, 16719]}, "edge": {"target": [], "time": []}}}, "displayed_time": "15.94", "trialTime": 18237, "trial_type": "mouselab-mdp", "trial_index": 40, "time_elapsed": 1295817, "internal_node_id": "0.0-4.0-1.0-31.0"}}, {"uniqueid": "w10432942:a59132068", "current_trial": 41, "dateTime": 1691161563754, "trialdata": {"revealed_states": [], "clicked_states": ["23", "12", "1"], "num_clicks_accrued": [0, 0, 0, 0, 0, 0, 0, 0, 0, 0, 0, 0, 0], "stateRewards": ["", -2, 4, -5, -12, 85, -24, -18, -15, -78, -22, 26, -1, -1, 2, 14, -45, 52, -23, 7, -33, 24, -6, -2, -4, 5, -7, -16, 36, -39, 5, 71, -87, -23], "withholdReward": false, "trial_id": "mdp_trial_33", "block": "test", "trialIndex": 34, "score": 26.8, "costs": -4.199999999999999, "simulationMode": [null, null, null, null, null], "rewards": [-1, -1, 2, 7, 24], "path": ["0", "0", "12", "13", "14", "19", "21"], "rt": [7198, 22, 423, 851, 785], "actions": ["right", "right", "right", "down", "down"], "actionTimes": [10158, 10698, 11698, 13045, 14329], "queries": {"click": {"state": {"target": ["23", "12", "1"], "time": [4414, 6195, 8014]}, "edge": {"target": [], "time": []}}, "mouseover": {"state": {"target": ["23", "12", "1"], "time": [3924, 5038, 6958]}, "edge": {"target": [], "time": []}}, "mouseout": {"state": {"target": ["0", "23", "12", "1"], "time": [1286, 4874, 6623, 8743]}, "edge": {"target": [], "time": []}}}, "displayed_time": "16.96", "trialTime": 18679, "trial_type": "mouselab-mdp", "trial_index": 41, "time_elapsed": 1314993, "internal_node_id": "0.0-4.0-1.0-32.0"}}, {"uniqueid": "w10432942:a59132068", "current_trial": 42, "dateTime": 1691161581950, "trialdata": {"revealed_states": [], "clicked_states": ["23", "1", "12"], "num_clicks_accrued": [0, 0, 0, 0, 0, 0, 0, 0, 0, 0, 0, 0, 0], "stateRewards": ["", -1, -3, -5, -14, -13, -47, 79, 8, -60, -64, 41, -1, 2, 3, 13, -46, 61, -79, -11, -64, -65, 23, 1, -2, 6, -14, 46, 32, 21, 7, 75, -66, 15], "withholdReward": false, "trial_id": "mdp_trial_34", "block": "test", "trialIndex": 35, "score": -58.2, "costs": -4.199999999999999, "simulationMode": [null, null, null, null, null, null], "rewards": [1, -2, 6, 7, -66], "path": ["0", "0", "23", "24", "25", "30", "32"], "rt": [6544, 450, 494, 137, 75, 813], "actions": ["left", "left", "left", "left", "down", "down"], "actionTimes": [8539, 8994, 10059, 10705, 11274, 12596], "queries": {"click": {"state": {"target": ["23", "1", "12"], "time": [3512, 5136, 7328]}, "edge": {"target": [], "time": []}}, "mouseover": {"state": {"target": ["23", "1", "12"], "time": [3159, 4127, 6911]}, "edge": {"target": [], "time": []}}, "mouseout": {"state": {"target": ["0", "1", "0", "23", "1", "12", "22"], "time": [696, 1090, 3012, 4013, 6735, 16894, 17015]}, "edge": {"target": [], "time": []}}}, "displayed_time": "16.00", "trialTime": 17688, "trial_type": "mouselab-mdp", "trial_index": 42, "time_elapsed": 1333189, "internal_node_id": "0.0-4.0-1.0-33.0"}}, {"uniqueid": "w10432942:a59132068", "current_trial": 43, "dateTime": 1691161604143, "trialdata": {"revealed_states": [], "clicked_states": [], "num_clicks_accrued": [0, 0, 0, 0, 0, 0, 0, 0, 0, 0, 0, 0, 0], "stateRewards": ["", 2, 4, 4, -8, -36, -33, 38, 16, -51, 57, 57, 1, 3, 4, -6, 45, 68, 87, 1, 63, 24, -55, -2, 2, -6, -13, -63, -50, 8, 2, 80, 6, 60], "withholdReward": false, "trial_id": "mdp_trial_35", "block": "test", "trialIndex": 36, "score": 33, "costs": 0, "simulationMode": [null, null, null, null, null], "rewards": [1, 3, 4, 1, 24], "path": ["0", "0", "12", "13", "14", "19", "21"], "rt": [5158, 433, 46, 69, 692], "actions": ["right", "right", "right", "down", "down"], "actionTimes": [10891, 11821, 12376, 12953, 14143], "queries": {"click": {"state": {"target": [], "time": []}, "edge": {"target": [], "time": []}}, "mouseover": {"state": {"target": ["0"], "time": [8180]}, "edge": {"target": [], "time": []}}, "mouseout": {"state": {"target": ["19", "22"], "time": [797, 841]}, "edge": {"target": [], "time": []}}}, "displayed_time": "19.73", "trialTime": 21677, "trial_type": "mouselab-mdp", "trial_index": 43, "time_elapsed": 1355382, "internal_node_id": "0.0-4.0-1.0-34.0"}}, {"uniqueid": "w10432942:a59132068", "current_trial": 44, "dateTime": 1691161621257, "trialdata": {"revealed_states": [], "clicked_states": ["12", "23", "1"], "num_clicks_accrued": [0, 0, 0, 0, 0, 0, 0, 0, 0, 0, 0, 0, 0], "stateRewards": ["", 2, -1, 5, 8, 75, -35, -77, 1, -9, -81, -58, 1, 2, -7, 5, 77, -16, 19, 16, -10, -18, 40, -2, 3, 7, -5, 64, 1, -62, 10, 27, 10, 65], "withholdReward": false, "trial_id": "mdp_trial_36", "block": "test", "trialIndex": 37, "score": -10.2, "costs": -4.199999999999999, "simulationMode": [null, null, null, null, null], "rewards": [1, 2, -7, 16, -18], "path": ["0", "0", "12", "13", "14", "19", "21"], "rt": [6819, 76, 42, 816, 639], "actions": ["right", "right", "right", "down", "down"], "actionTimes": [8322, 8900, 9504, 10838, 11981], "queries": {"click": {"state": {"target": ["12", "23", "1"], "time": [2717, 4707, 6736]}, "edge": {"target": [], "time": []}}, "mouseover": {"state": {"target": ["12", "0", "23", "1"], "time": [2268, 3187, 3621, 5386]}, "edge": {"target": [], "time": []}}, "mouseout": {"state": {"target": ["0", "12", "0", "23", "1"], "time": [2201, 3153, 3469, 5273, 7622]}, "edge": {"target": [], "time": []}}}, "displayed_time": "15.51", "trialTime": 16537, "trial_type": "mouselab-mdp", "trial_index": 44, "time_elapsed": 1372496, "internal_node_id": "0.0-4.0-1.0-35.0"}}, {"uniqueid": "w10432942:a59132068", "current_trial": 45, "dateTime": 1691161639941, "trialdata": {"revealed_states": [], "clicked_states": ["12", "23", "1"], "num_clicks_accrued": [0, 0, 0, 0, 0, 0, 0, 0, 0, 0, 0, 0, 0], "stateRewards": ["", 1, 4, 5, -5, 58, -80, 75, 6, 25, -39, 46, 2, -2, 4, 2, 59, 31, -22, -12, -61, 15, 72, 1, -2, -7, 8, 77, 76, -23, -7, 71, -15, -3], "withholdReward": false, "trial_id": "mdp_trial_37", "block": "test", "trialIndex": 38, "score": 2.8000000000000007, "costs": -4.199999999999999, "simulationMode": [null, null, null, null, null, null], "rewards": [2, -2, 4, -12, 15], "path": ["0", "0", "12", "13", "14", "19", "21"], "rt": [6424, 528, 765, 412, 697, 228], "actions": ["right", "right", "right", "right", "down", "down"], "actionTimes": [8398, 8931, 10212, 11143, 12346, 13081], "queries": {"click": {"state": {"target": ["12", "23", "1"], "time": [3203, 5003, 7456]}, "edge": {"target": [], "time": []}}, "mouseover": {"state": {"target": ["12", "0", "23", "1"], "time": [2825, 3675, 3991, 5493]}, "edge": {"target": [], "time": []}}, "mouseout": {"state": {"target": ["0", "0", "12", "0", "23", "1", "1", "0", "1"], "time": [573, 2674, 3642, 3763, 5410, 7667, 7994, 16832, 16913]}, "edge": {"target": [], "time": []}}}, "displayed_time": "15.98", "trialTime": 18171, "trial_type": "mouselab-mdp", "trial_index": 45, "time_elapsed": 1391181, "internal_node_id": "0.0-4.0-1.0-36.0"}}, {"uniqueid": "w10432942:a59132068", "current_trial": 46, "dateTime": 1691161657992, "trialdata": {"revealed_states": [], "clicked_states": ["1", "23", "12"], "num_clicks_accrued": [0, 0, 0, 0, 0, 0, 0, 0, 0, 0, 0, 0, 0], "stateRewards": ["", -1, -2, 8, -6, -79, -6, 87, 9, -5, -66, -38, 2, 2, 5, -6, -82, 74, 85, -8, 67, -30, -15, 1, -2, -2, -2, 87, 64, 49, 7, 2, -38, -9], "withholdReward": false, "trial_id": "mdp_trial_38", "block": "test", "trialIndex": 39, "score": 63.8, "costs": -4.199999999999999, "simulationMode": [null, null, null, null, null], "rewards": [2, 2, 5, -8, 67], "path": ["0", "0", "12", "13", "14", "19", "20"], "rt": [8458, 463, 323, 11, 204], "actions": ["right", "right", "right", "down", "right"], "actionTimes": [10111, 11086, 11910, 12417, 13141], "queries": {"click": {"state": {"target": ["1", "23", "12"], "time": [3600, 5918, 7757]}, "edge": {"target": [], "time": []}}, "mouseover": {"state": {"target": ["0", "1", "23", "12"], "time": [2549, 2950, 4549, 6517]}, "edge": {"target": [], "time": []}}, "mouseout": {"state": {"target": ["10", "10", "10", "0", "1", "23", "12", "22", "19"], "time": [469, 600, 663, 2680, 4283, 6317, 8885, 14786, 14804]}, "edge": {"target": [], "time": []}}}, "displayed_time": "15.65", "trialTime": 17488, "trial_type": "mouselab-mdp", "trial_index": 46, "time_elapsed": 1409232, "internal_node_id": "0.0-4.0-1.0-37.0"}}, {"uniqueid": "w10432942:a59132068", "current_trial": 47, "dateTime": 1691161675449, "trialdata": {"revealed_states": [], "clicked_states": ["23", "12", "1"], "num_clicks_accrued": [0, 0, 0, 0, 0, 0, 0, 0, 0, 0, 0, 0, 0], "stateRewards": ["", -2, -4, -2, 10, -8, -15, -47, 7, -84, 53, 5, -1, 2, -7, 3, 83, 31, 47, -1, 30, -8, 69, 2, -4, -1, 8, -7, 12, -8, -8, -13, 30, -84], "withholdReward": false, "trial_id": "mdp_trial_39", "block": "test", "trialIndex": 40, "score": -28.2, "costs": -4.199999999999999, "simulationMode": [null, null, null, null, null, null], "rewards": [2, -4, -1, -8, -13], "path": ["0", "0", "23", "24", "25", "30", "31"], "rt": [5693, 606, 610, 374, 659, 154], "actions": ["left", "left", "left", "left", "down", "right"], "actionTimes": [7508, 8119, 9228, 10126, 11279, 11963], "queries": {"click": {"state": {"target": ["23", "12", "1"], "time": [2940, 4621, 6248]}, "edge": {"target": [], "time": []}}, "mouseover": {"state": {"target": ["23", "12", "1"], "time": [2514, 3613, 5033]}, "edge": {"target": [], "time": []}}, "mouseout": {"state": {"target": ["20", "13", "12", "0", "23", "12", "1", "1", "22", "19", "20"], "time": [498, 627, 694, 996, 3156, 4930, 6463, 6731, 13284, 13301, 13318]}, "edge": {"target": [], "time": []}}}, "displayed_time": "15.82", "trialTime": 16949, "trial_type": "mouselab-mdp", "trial_index": 47, "time_elapsed": 1426688, "internal_node_id": "0.0-4.0-1.0-38.0"}}, {"uniqueid": "w10432942:a59132068", "current_trial": 48, "dateTime": 1691161696370, "trialdata": {"revealed_states": [], "clicked_states": ["23", "12", "1"], "num_clicks_accrued": [0, 0, 0, 0, 0, 0, 0, 0, 0, 0, 0, 0, 0], "stateRewards": ["", -1, -4, -1, -11, 43, 69, 39, 4, 17, -20, -82, -2, -1, 4, 8, -79, 24, -79, 11, 36, 64, 41, 2, 4, -1, 11, -79, -47, 75, -3, 63, -36, -19], "withholdReward": false, "trial_id": "mdp_trial_40", "block": "test", "trialIndex": 41, "score": 86.8, "costs": -4.199999999999999, "simulationMode": [null, null, null, null, null, null], "rewards": [2, 4, -1, 11, 75], "path": ["0", "0", "23", "24", "25", "26", "29"], "rt": [8050, 521, 121, 107, 1598, 511], "actions": ["left", "left", "left", "left", "up", "left"], "actionTimes": [10963, 11488, 12131, 12766, 14860, 15873], "queries": {"click": {"state": {"target": ["23", "12", "1"], "time": [5893, 7581, 9692]}, "edge": {"target": [], "time": []}}, "mouseover": {"state": {"target": ["0", "23", "12", "1", "0"], "time": [3875, 5359, 6556, 8053, 10357]}, "edge": {"target": [], "time": []}}, "mouseout": {"state": {"target": ["20", "14", "13", "12", "0", "0", "23", "12", "1", "0", "21"], "time": [1400, 1700, 1750, 2016, 3652, 4203, 6342, 7989, 10308, 10375, 17409]}, "edge": {"target": [], "time": []}}}, "displayed_time": "16.91", "trialTime": 20402, "trial_type": "mouselab-mdp", "trial_index": 48, "time_elapsed": 1447609, "internal_node_id": "0.0-4.0-1.0-39.0"}}, {"uniqueid": "w10432942:a59132068", "current_trial": 49, "dateTime": 1691161750756, "trialdata": {"rt": 53850, "response": {"Q0": "$-2 to $2", "Q1": "$-16 to $16", "Q2": "$-32 to $32", "Q3": "The cost for clicking on nodes varied between nodes.", "Q4": "Very motivated"}, "question_order": [0, 1, 2, 3, 4], "trial_id": "final_quiz_control", "trial_type": "survey-multi-choice", "trial_index": 49, "time_elapsed": 1501995, "internal_node_id": "0.0-4.0-2.0"}}, {"uniqueid": "w10432942:a59132068", "current_trial": 50, "dateTime": 1691161933729, "trialdata": {"rt": 182550, "response": {"Q0": "I clicked on the nodes to see the values. \nI moved the spider towards the side of positive balances.", "Q1": "My strategy worked through out so they was no need to change it. ", "Q2": "Sometimes the side of positive balances. \nWould lead you to an negative balance. \nSo that affected my strategy. "}, "trial_id": "self_report_control", "trial_type": "survey-text", "trial_index": 50, "time_elapsed": 1684968, "internal_node_id": "0.0-4.0-3.0"}}, {"uniqueid": "w10432942:a59132068", "current_trial": 51, "dateTime": 1691162010368, "trialdata": {"rt": 76333, "response": {"gender": "female", "age": "25", "colorblind": "0", "effort": "0"}, "trial_type": "survey-html-form", "trial_index": 51, "time_elapsed": 1761607, "internal_node_id": "0.0-4.0-4.0"}}, {"uniqueid": "w10432942:a59132068", "current_trial": 52, "dateTime": 1691162104068, "trialdata": {"rt": 93687, "response": {"Q0": "No I understood everything. ", "Q1": "No I haven't participated in a Web of Cash HIT before. ", "Q2": "I have no additional comments. "}, "trial_type": "survey-text", "trial_index": 52, "time_elapsed": 1855308, "internal_node_id": "0.0-4.0-5.0"}}, {"uniqueid": "w10432942:a59132068", "current_trial": 53, "dateTime": 1691162126766, "trialdata": {"rt": 22617, "stimulus": "Press 'Finish HIT' in order to reach the completion code. Once the data has been saved, you will receive the code either in this window or in the original browser window where you started the experiment.\n", "response": 0, "trial_type": "html-button-response", "trial_index": 53, "time_elapsed": 1878006, "internal_node_id": "0.0-5.0"}}, {"uniqueid": "w10432942:a59132068", "current_trial": 54, "dateTime": 1691162127837, "trialdata": {"success": true, "trial_type": "fullscreen", "trial_index": 54, "time_elapsed": 1879077, "internal_node_id": "0.0-6.0"}}], "questiondata": {"params": {"CODE": "C6DMOQA6", "MIN_TIME": 14, "inspectCost": 1, "startTime": "Fri Aug 04 2023 16:44:06 GMT+0200 (South Africa Standard Time)", "bonusRate": 0.002, "variance": "1_2_4_8_44", "branching": "31123"}, "final_score": 173.4}, "eventdata": [{"eventtype": "initialized", "value": null, "timestamp": 1691160246135, "interval": 0}, {"eventtype": "window_resize", "value": [1366, 670], "timestamp": 1691160246135, "interval": 0}, {"eventtype": "window_resize", "value": [1366, 670], "timestamp": 1691160246665, "interval": 530}, {"eventtype": "window_resize", "value": [1366, 768], "timestamp": 1691160255675, "interval": 9010}], "useragent": "Mozilla/5.0 (Windows NT 10.0; Win64; x64) AppleWebKit/537.36 (KHTML, like Gecko) Chrome/115.0.0.0 Safari/537.36", "mode": "live", "id": "w10432942:a59132068", "status": "user data saved", "Beginhit": "2023-08-04 14:44:02.038812", "Beginexp": "2023-08-04 14:44:15.277877", "Endhit": "2023-08-04 15:15:32.508229", "psiturkStatus": 3, "browser": "<redacted>", "platform": "windows", "language": "en-US"}