{"condition": 0, "counterbalance": 0, "assignmentId": "a62418049", "workerId": "w73414741", "hitId": "h98526551", "currenttrial": 67, "bonus": 0, "data": [{"uniqueid": "w73414741:a62418049", "current_trial": 0, "dateTime": 1691142036287, "trialdata": {"success": true, "trial_type": "fullscreen", "trial_index": 0, "time_elapsed": 10538, "internal_node_id": "0.0-0.0"}}, {"uniqueid": "w73414741:a62418049", "current_trial": 1, "dateTime": 1691142058882, "trialdata": {"view_history": [{"page_index": 0, "viewing_time": 22568}], "rt": 22571, "trial_id": "exp_instructions_control", "trial_type": "instructions", "trial_index": 1, "time_elapsed": 33135, "internal_node_id": "0.0-1.0"}}, {"uniqueid": "w73414741:a62418049", "current_trial": 2, "dateTime": 1691142062213, "trialdata": {"success": true, "trial_type": "fullscreen", "trial_index": 2, "time_elapsed": 36466, "internal_node_id": "0.0-2.0-0.0"}}, {"uniqueid": "w73414741:a62418049", "current_trial": 3, "dateTime": 1691142282782, "trialdata": {"view_history": [{"page_index": 0, "viewing_time": 60396}, {"page_index": 1, "viewing_time": 100557}, {"page_index": 2, "viewing_time": 25265}, {"page_index": 3, "viewing_time": 34342}], "rt": 220561, "trial_id": "mouselab_instructions_1_control", "trial_type": "instructions", "trial_index": 3, "time_elapsed": 257034, "internal_node_id": "0.0-2.0-1.0"}}, {"uniqueid": "w73414741:a62418049", "current_trial": 4, "dateTime": 1691142419325, "trialdata": {"revealed_states": [], "clicked_states": ["1", "10", "2", "7", "12", "13", "23", "24", "25", "26", "27", "14", "15", "16", "19", "30", "32", "31", "33", "28", "29", "11", "8", "3", "4", "6", "5", "9", "22", "21", "20", "17", "18"], "num_clicks_accrued": [0, 0, 0, 0, 0, 0, 0, 0, 0, 0, 0, 0, 0], "stateRewards": ["", -10, -10, -10, 10, -10, 10, -10, -10, 10, -10, 10, 10, -10, -10, 10, 10, 10, -10, -10, -10, -10, -10, -10, 10, 10, -10, 10, -10, -10, -10, -10, 10, -10], "withholdReward": false, "trial_id": "practice_1", "block": "test", "trialIndex": 0, "score": -3, "costs": -16.5, "simulationMode": [null, null, null, null, null], "rewards": [10, -10, -10, 10, 10], "path": ["0", "0", "12", "13", "14", "15", "16"], "rt": [122197, 849, 367, 889, 99], "actions": ["right", "right", "right", "up", "up"], "actionTimes": [126556, 127921, 128830, 130246, 130860], "queries": {"click": {"state": {"target": ["1", "10", "2", "7", "12", "13", "23", "24", "25", "26", "27", "14", "15", "16", "19", "30", "32", "31", "33", "28", "29", "11", "8", "3", "4", "6", "5", "9", "22", "21", "20", "17", "18"], "time": [8180, 10825, 12524, 16209, 20811, 22129, 25000, 26252, 30006, 32648, 35891, 42454, 44290, 49989, 54205, 59605, 64587, 65839, 69123, 72084, 73423, 75861, 77352, 79374, 80515, 81740, 83789, 85577, 92699, 93986, 95234, 96596, 98353]}, "edge": {"target": [], "time": []}}, "mouseover": {"state": {"target": ["1", "10", "2", "7", "12", "13", "0", "23", "24", "25", "26", "27", "30", "12", "17", "15", "14", "15", "16", "18", "13", "12", "0", "23", "23", "18", "16", "15", "14", "19", "30", "31", "23", "0", "12", "0", "32", "32", "31", "24", "33", "25", "24", "28", "26", "29", "8", "11", "8", "3", "3", "4", "6", "5", "9", "9", "8", "1", "4", "1", "0", "22", "19", "21", "20", "17", "15", "18", "13", "12", "0", "1", "1", "1", "2", "1", "0", "0", "22", "19", "22"], "time": [7275, 10350, 11724, 15518, 20376, 21878, 24274, 24556, 25864, 28498, 31229, 35492, 39311, 40639, 40737, 41010, 41437, 43884, 46597, 46852, 46984, 47247, 47358, 47538, 47978, 49214, 49445, 53564, 53623, 53697, 57953, 60344, 60430, 60509, 61639, 63718, 63831, 64147, 65355, 66703, 68534, 69822, 70050, 71425, 72721, 72982, 74542, 74772, 76663, 78242, 78898, 80073, 81325, 82836, 84768, 85209, 87910, 89458, 89655, 91187, 91286, 91888, 93335, 93477, 94809, 96050, 97391, 97765, 99851, 100049, 100203, 102817, 103607, 105245, 105664, 106707, 111751, 115302, 116098, 116329, 118524]}, "edge": {"target": [], "time": []}}, "mouseout": {"state": {"target": ["0", "1", "10", "2", "7", "12", "13", "12", "0", "23", "24", "25", "26", "26", "27", "30", "12", "17", "15", "14", "15", "16", "18", "13", "12", "0", "23", "23", "18", "16", "15", "14", "19", "30", "31", "23", "0", "12", "0", "32", "32", "31", "24", "33", "25", "24", "28", "26", "29", "8", "11", "8", "3", "3", "4", "6", "5", "9", "9", "8", "1", "4", "1", "0", "22", "19", "21", "20", "17", "15", "18", "13", "12", "0", "1", "1", "1", "2", "1", "0", "0", "22", "19", "22"], "time": [6912, 10053, 11560, 15401, 19977, 21602, 24160, 24216, 24386, 25760, 28336, 31004, 35058, 35308, 38541, 39874, 40670, 40973, 41130, 42659, 46132, 46768, 46886, 47017, 47320, 47448, 47813, 49011, 49254, 53524, 53591, 53660, 56425, 60327, 60362, 60445, 60642, 63698, 63764, 63899, 64793, 66578, 68343, 69742, 69841, 70323, 72694, 72814, 74004, 74606, 76545, 78171, 78664, 79973, 81135, 82609, 83993, 84870, 87757, 87993, 89493, 91089, 91261, 91821, 93266, 93368, 94190, 95825, 97285, 97572, 99615, 99943, 100162, 102595, 103175, 103974, 105431, 105790, 107788, 114099, 115347, 116180, 118480, 118581]}, "edge": {"target": [], "time": []}}}, "displayed_time": "131.39", "trialTime": 134625, "trial_type": "mouselab-mdp", "trial_index": 4, "time_elapsed": 393576, "internal_node_id": "0.0-2.0-2.0-0.0"}}, {"uniqueid": "w73414741:a62418049", "current_trial": 5, "dateTime": 1691142456375, "trialdata": {"revealed_states": [], "clicked_states": ["1", "2", "3", "4", "6"], "num_clicks_accrued": [0, 0, 0, 0, 0, 0, 0, 0, 0, 0, 0, 0, 0], "stateRewards": ["", 10, -10, -10, -10, 10, 10, -10, 10, -10, 10, -10, -10, 10, 10, -10, 10, -10, 10, -10, 10, 10, 10, -10, 10, -10, 10, -10, -10, 10, -10, 10, 10, 10], "withholdReward": false, "trial_id": "practice_2", "block": "test", "trialIndex": 1, "score": -9, "costs": -2.5, "simulationMode": [null, null, null, null, null], "rewards": [10, -10, -10, -10, 10], "path": ["0", "0", "1", "2", "3", "4", "6"], "rt": [19965, 647, 1182, 340, 277], "actions": ["up", "up", "up", "right", "right"], "actionTimes": [26665, 27843, 29545, 30409, 31216], "queries": {"click": {"state": {"target": ["1", "2", "3", "4", "6"], "time": [9475, 10840, 14531, 18210, 20259]}, "edge": {"target": [], "time": []}}, "mouseover": {"state": {"target": ["1", "2", "3", "4", "6"], "time": [8881, 10404, 14026, 17725, 19873]}, "edge": {"target": [], "time": []}}, "mouseout": {"state": {"target": ["14", "13", "12", "0", "12", "1", "2", "3", "4"], "time": [4949, 4977, 5006, 5280, 5530, 10150, 13907, 17672, 19789]}, "edge": {"target": [], "time": []}}}, "displayed_time": "31.73", "trialTime": 36421, "trial_type": "mouselab-mdp", "trial_index": 5, "time_elapsed": 430627, "internal_node_id": "0.0-2.0-2.0-1.0"}}, {"uniqueid": "w73414741:a62418049", "current_trial": 6, "dateTime": 1691142473062, "trialdata": {"view_history": [{"page_index": 0, "viewing_time": 8302}, {"page_index": 1, "viewing_time": 8374}], "rt": 16677, "trial_id": "mouselab_instructions_2_control", "trial_type": "instructions", "trial_index": 6, "time_elapsed": 447315, "internal_node_id": "0.0-2.0-3.0"}}, {"uniqueid": "w73414741:a62418049", "current_trial": 7, "dateTime": 1691142543651, "trialdata": {"rt": 70570, "response": {"Q0": "The cost for clicking on nodes may vary between nodes.", "Q1": "I will receive a $1 bonus if I perform well, otherwise I will receive no bonus.", "Q2": "No, the amount of cash at each node of the web may be different each time.", "Q3": "To get the highest total score.", "Q4": "Only before moving the spider.", "Q5": "10 seconds"}, "question_order": [0, 1, 2, 3, 4, 5], "correct": {"Q0": "The cost for clicking on nodes may vary between nodes.", "Q1": "The better I perform the higher my bonus will be.", "Q2": "No, the amount of cash at each node of the web may be different each time.", "Q3": "To get the highest total score.", "Q4": "Only before moving the spider.", "Q5": "3 seconds"}, "trial_id": "mouselab_quiz_control", "trial_type": "survey-multi-choice", "trial_index": 7, "time_elapsed": 517903, "internal_node_id": "0.0-2.0-4.0"}}, {"uniqueid": "w73414741:a62418049", "current_trial": 8, "dateTime": 1691142552777, "trialdata": {"success": true, "trial_type": "fullscreen", "trial_index": 8, "time_elapsed": 527029, "internal_node_id": "0.0-2.1-0.1"}}, {"uniqueid": "w73414741:a62418049", "current_trial": 9, "dateTime": 1691142716753, "trialdata": {"view_history": [{"page_index": 0, "viewing_time": 40985}, {"page_index": 1, "viewing_time": 61880}, {"page_index": 2, "viewing_time": 20700}, {"page_index": 3, "viewing_time": 40400}], "rt": 163966, "trial_id": "mouselab_instructions_1_control", "trial_type": "instructions", "trial_index": 9, "time_elapsed": 691006, "internal_node_id": "0.0-2.1-1.1"}}, {"uniqueid": "w73414741:a62418049", "current_trial": 10, "dateTime": 1691142748250, "trialdata": {"revealed_states": [], "clicked_states": ["1", "7", "10", "2", "3", "4", "6", "5"], "num_clicks_accrued": [0, 0, 0, 0, 0, 0, 0, 0, 0, 0, 0, 0, 0], "stateRewards": ["", -10, -10, -10, 10, -10, 10, -10, -10, 10, -10, 10, 10, -10, -10, 10, 10, 10, -10, -10, -10, -10, -10, -10, 10, 10, -10, 10, -10, -10, -10, -10, 10, -10], "withholdReward": false, "trial_id": "practice_1", "block": "test", "trialIndex": 2, "score": -10.5, "costs": -4, "simulationMode": [null, null, null, null, null], "rewards": [-10, -10, -10, 10, 10], "path": ["0", "0", "1", "2", "3", "4", "6"], "rt": [18931, 326, 344, 673, 283], "actions": ["up", "up", "up", "right", "right"], "actionTimes": [22802, 23650, 24520, 25713, 26521], "queries": {"click": {"state": {"target": ["1", "7", "10", "2", "3", "4", "6", "5"], "time": [6933, 8425, 9918, 11161, 12405, 13497, 14608, 19366]}, "edge": {"target": [], "time": []}}, "mouseover": {"state": {"target": ["1", "2", "7", "2", "10", "2", "3", "4", "6", "5"], "time": [6563, 7853, 8116, 9035, 9549, 10801, 11916, 13105, 14180, 16119]}, "edge": {"target": [], "time": []}}, "mouseout": {"state": {"target": ["0", "1", "2", "7", "2", "10", "2", "3", "4", "6"], "time": [6400, 7612, 7903, 8960, 9152, 10551, 11866, 12951, 14021, 15756]}, "edge": {"target": [], "time": []}}}, "displayed_time": "27.04", "trialTime": 30801, "trial_type": "mouselab-mdp", "trial_index": 10, "time_elapsed": 722502, "internal_node_id": "0.0-2.1-2.1-0.1"}}, {"uniqueid": "w73414741:a62418049", "current_trial": 11, "dateTime": 1691142799168, "trialdata": {"revealed_states": [], "clicked_states": ["23", "24", "25", "26", "27", "12", "13", "14", "19", "21", "15", "16", "17", "8", "11"], "num_clicks_accrued": [0, 0, 0, 0, 0, 0, 0, 0, 0, 0, 0, 0, 0], "stateRewards": ["", 10, -10, -10, -10, 10, 10, -10, 10, -10, 10, -10, -10, 10, 10, -10, 10, -10, 10, -10, 10, 10, 10, -10, 10, -10, 10, -10, -10, 10, -10, 10, 10, 10], "withholdReward": false, "trial_id": "practice_2", "block": "test", "trialIndex": 3, "score": -14, "costs": -7.5, "simulationMode": [null, null, null, null, null], "rewards": [10, -10, -10, 10, -10], "path": ["0", "0", "1", "2", "3", "8", "9"], "rt": [38774, 390, 1009, 144, 553], "actions": ["up", "up", "up", "left", "up"], "actionTimes": [41540, 42451, 43984, 44651, 45732], "queries": {"click": {"state": {"target": ["23", "24", "25", "26", "27", "12", "13", "14", "19", "21", "15", "16", "17", "8", "11"], "time": [4845, 6306, 7370, 11167, 12592, 15410, 17445, 18634, 25963, 28826, 31273, 32622, 35895, 39060, 40212]}, "edge": {"target": [], "time": []}}, "mouseover": {"state": {"target": ["23", "23", "24", "25", "26", "27", "1", "13", "12", "13", "14", "19", "21", "19", "14", "15", "16", "17", "18", "2", "8", "11"], "time": [4017, 4470, 5907, 6940, 10135, 12170, 14525, 14608, 14925, 16073, 18263, 25565, 28378, 30376, 30492, 30594, 32183, 34240, 36966, 37136, 38468, 39810]}, "edge": {"target": [], "time": []}}, "mouseout": {"state": {"target": ["5", "1", "0", "23", "23", "24", "25", "26", "27", "1", "13", "12", "13", "14", "19", "19", "21", "19", "14", "15", "16", "17", "18", "2", "8"], "time": [1454, 1734, 3885, 4217, 5759, 6519, 7596, 12003, 14459, 14566, 14850, 15985, 18089, 25349, 26165, 26821, 30299, 30427, 30518, 32017, 33807, 36917, 37009, 38368, 39676]}, "edge": {"target": [], "time": []}}}, "displayed_time": "46.26", "trialTime": 50269, "trial_type": "mouselab-mdp", "trial_index": 11, "time_elapsed": 773419, "internal_node_id": "0.0-2.1-2.1-1.1"}}, {"uniqueid": "w73414741:a62418049", "current_trial": 12, "dateTime": 1691142812757, "trialdata": {"view_history": [{"page_index": 0, "viewing_time": 11051}, {"page_index": 1, "viewing_time": 2525}], "rt": 13578, "trial_id": "mouselab_instructions_2_control", "trial_type": "instructions", "trial_index": 12, "time_elapsed": 787010, "internal_node_id": "0.0-2.1-3.1"}}, {"uniqueid": "w73414741:a62418049", "current_trial": 13, "dateTime": 1691142889773, "trialdata": {"rt": 77004, "response": {"Q0": "The cost for clicking on nodes may vary between nodes.", "Q1": "I will receive a $1 bonus if I perform well, otherwise I will receive no bonus.", "Q2": "No, the amount of cash at each node of the web may be different each time.", "Q3": "To get the highest total score.", "Q4": "Only before moving the spider.", "Q5": "3 seconds"}, "question_order": [0, 1, 2, 3, 4, 5], "correct": {"Q0": "The cost for clicking on nodes may vary between nodes.", "Q1": "The better I perform the higher my bonus will be.", "Q2": "No, the amount of cash at each node of the web may be different each time.", "Q3": "To get the highest total score.", "Q4": "Only before moving the spider.", "Q5": "3 seconds"}, "trial_id": "mouselab_quiz_control", "trial_type": "survey-multi-choice", "trial_index": 13, "time_elapsed": 864026, "internal_node_id": "0.0-2.1-4.1"}}, {"uniqueid": "w73414741:a62418049", "current_trial": 14, "dateTime": 1691142896064, "trialdata": {"success": true, "trial_type": "fullscreen", "trial_index": 14, "time_elapsed": 870317, "internal_node_id": "0.0-2.2-0.2"}}, {"uniqueid": "w73414741:a62418049", "current_trial": 15, "dateTime": 1691142912651, "trialdata": {"view_history": [{"page_index": 0, "viewing_time": 5219}, {"page_index": 1, "viewing_time": 5721}, {"page_index": 2, "viewing_time": 2543}, {"page_index": 3, "viewing_time": 3092}], "rt": 16575, "trial_id": "mouselab_instructions_1_control", "trial_type": "instructions", "trial_index": 15, "time_elapsed": 886903, "internal_node_id": "0.0-2.2-1.2"}}, {"uniqueid": "w73414741:a62418049", "current_trial": 16, "dateTime": 1691142925479, "trialdata": {"revealed_states": [], "clicked_states": [], "num_clicks_accrued": [0, 0, 0, 0, 0, 0, 0, 0, 0, 0, 0, 0, 0], "stateRewards": ["", -10, -10, -10, 10, -10, 10, -10, -10, 10, -10, 10, 10, -10, -10, 10, 10, 10, -10, -10, -10, -10, -10, -10, 10, 10, -10, 10, -10, -10, -10, -10, 10, -10], "withholdReward": false, "trial_id": "practice_1", "block": "test", "trialIndex": 4, "score": -6.5, "costs": 0, "simulationMode": [null, null, null, null, null], "rewards": [-10, -10, -10, 10, 10], "path": ["0", "0", "1", "2", "3", "4", "6"], "rt": [1106, 57, 75, 2203, 197], "actions": ["up", "up", "up", "right", "right"], "actionTimes": [4650, 5225, 5841, 8597, 9310], "queries": {"click": {"state": {"target": [], "time": []}, "edge": {"target": [], "time": []}}, "mouseover": {"state": {"target": [], "time": []}, "edge": {"target": [], "time": []}}, "mouseout": {"state": {"target": [], "time": []}, "edge": {"target": [], "time": []}}}, "displayed_time": "9.83", "trialTime": 12128, "trial_type": "mouselab-mdp", "trial_index": 16, "time_elapsed": 899730, "internal_node_id": "0.0-2.2-2.2-0.2"}}, {"uniqueid": "w73414741:a62418049", "current_trial": 17, "dateTime": 1691142951931, "trialdata": {"revealed_states": [], "clicked_states": ["12", "13", "14", "15", "17", "18", "16"], "num_clicks_accrued": [0, 0, 0, 0, 0, 0, 0, 0, 0, 0, 0, 0, 0], "stateRewards": ["", 10, -10, -10, -10, 10, 10, -10, 10, -10, 10, -10, -10, 10, 10, -10, 10, -10, 10, -10, 10, 10, 10, -10, 10, -10, 10, -10, -10, 10, -10, 10, 10, 10], "withholdReward": false, "trial_id": "practice_2", "block": "test", "trialIndex": 5, "score": 10, "costs": -3.5, "simulationMode": [null, null, null, null, null], "rewards": [-10, 10, 10, -10, 10], "path": ["0", "0", "12", "13", "14", "15", "16"], "rt": [10879, 556, 359, 262, 112], "actions": ["right", "right", "right", "up", "up"], "actionTimes": [12643, 13745, 14642, 15431, 16063], "queries": {"click": {"state": {"target": ["12", "13", "14", "15", "17", "18", "16"], "time": [3253, 4325, 5820, 7126, 9182, 10391, 11517]}, "edge": {"target": [], "time": []}}, "mouseover": {"state": {"target": ["12", "13", "14", "15", "17", "18", "16"], "time": [2702, 3892, 4825, 6625, 8734, 9856, 11019]}, "edge": {"target": [], "time": []}}, "mouseout": {"state": {"target": ["0", "12", "13", "14", "15", "17", "15", "18", "16", "17", "22", "20"], "time": [2621, 3829, 4791, 6538, 8666, 9715, 9780, 10935, 19384, 19502, 19851, 23119]}, "edge": {"target": [], "time": []}}}, "displayed_time": "16.59", "trialTime": 25786, "trial_type": "mouselab-mdp", "trial_index": 17, "time_elapsed": 926182, "internal_node_id": "0.0-2.2-2.2-1.2"}}, {"uniqueid": "w73414741:a62418049", "current_trial": 18, "dateTime": 1691142964092, "trialdata": {"view_history": [{"page_index": 0, "viewing_time": 10237}, {"page_index": 1, "viewing_time": 1910}], "rt": 12149, "trial_id": "mouselab_instructions_2_control", "trial_type": "instructions", "trial_index": 18, "time_elapsed": 938345, "internal_node_id": "0.0-2.2-3.2"}}, {"uniqueid": "w73414741:a62418049", "current_trial": 19, "dateTime": 1691142991817, "trialdata": {"rt": 27712, "response": {"Q0": "The cost for clicking on nodes may vary between nodes.", "Q1": "The better I perform the higher my bonus will be.", "Q2": "No, the amount of cash at each node of the web may be different each time.", "Q3": "To get the highest total score.", "Q4": "Only before moving the spider.", "Q5": "3 seconds"}, "question_order": [0, 1, 2, 3, 4, 5], "correct": {"Q0": "The cost for clicking on nodes may vary between nodes.", "Q1": "The better I perform the higher my bonus will be.", "Q2": "No, the amount of cash at each node of the web may be different each time.", "Q3": "To get the highest total score.", "Q4": "Only before moving the spider.", "Q5": "3 seconds"}, "trial_id": "mouselab_quiz_control", "trial_type": "survey-multi-choice", "trial_index": 19, "time_elapsed": 966070, "internal_node_id": "0.0-2.2-4.2"}}, {"uniqueid": "w73414741:a62418049", "current_trial": 20, "dateTime": 1691142995214, "trialdata": {"rt": 3364, "stimulus": "\n<h1> Get ready to start the game! </h1>\n\nThank you for reading the instructions. Get ready start with the 40 rounds of this game.\n<br><br>\nIf you need to take a break, feel free to take one after the end of a round, before continuing to the next one.\n<br><br>\nRemember, the more money the spider gets, the bigger your bonus will be!\n<br><br>\n<div style='text-align: center;'>Press <code>space</code> to begin.</div>\n\n<br><br>\n(If, at any point, the <code>space</code> key does not take you to the next page, click once on the text and try again.)", "response": " ", "trial_id": "mdp_ready", "trial_type": "html-keyboard-response", "trial_index": 20, "time_elapsed": 969467, "internal_node_id": "0.0-4.0-0.0"}}, {"uniqueid": "w73414741:a62418049", "current_trial": 21, "dateTime": 1691143017427, "trialdata": {"revealed_states": [], "clicked_states": [], "num_clicks_accrued": [0, 0, 0, 0, 0, 0, 0, 0, 0, 0, 0, 0, 0], "stateRewards": ["", -2, 3, 8, -9, 59, 41, -50, -1, 82, 66, 33, 2, -2, 7, 8, 1, -38, 12, -16, 24, -37, 67, 1, 4, -2, 5, 35, -83, 28, 8, -27, 69, -64], "withholdReward": false, "trial_id": "mdp_trial_1", "block": "test", "trialIndex": 6, "score": 90, "costs": 0, "simulationMode": [null, null, null, null, null], "rewards": [-2, 3, 8, -1, 82], "path": ["0", "0", "1", "2", "3", "8", "9"], "rt": [5333, 279, 307, 678, 825], "actions": ["up", "up", "up", "left", "up"], "actionTimes": [9570, 10389, 11209, 12414, 13769], "queries": {"click": {"state": {"target": [], "time": []}, "edge": {"target": [], "time": []}}, "mouseover": {"state": {"target": ["1"], "time": [8259]}, "edge": {"target": [], "time": []}}, "mouseout": {"state": {"target": ["31", "0"], "time": [2828, 8015]}, "edge": {"target": [], "time": []}}}, "displayed_time": "18.24", "trialTime": 21465, "trial_type": "mouselab-mdp", "trial_index": 21, "time_elapsed": 991678, "internal_node_id": "0.0-4.0-1.0-0.0"}}, {"uniqueid": "w73414741:a62418049", "current_trial": 22, "dateTime": 1691143036430, "trialdata": {"revealed_states": [], "clicked_states": [], "num_clicks_accrued": [0, 0, 0, 0, 0, 0, 0, 0, 0, 0, 0, 0, 0], "stateRewards": ["", 2, -4, 4, 9, 69, 9, -75, 12, -86, 66, 25, -1, 3, 2, -13, -88, -3, 1, 4, -69, 49, -84, 2, -1, 4, 2, -18, -81, -52, -15, -69, -54, 25], "withholdReward": false, "trial_id": "mdp_trial_2", "block": "test", "trialIndex": 7, "score": 20, "costs": 0, "simulationMode": [null, null, null, null, null], "rewards": [2, -4, 4, 9, 9], "path": ["0", "0", "1", "2", "3", "4", "6"], "rt": [1623, 1836, 556, 390, 539], "actions": ["up", "up", "up", "right", "right"], "actionTimes": [4539, 6916, 8000, 8907, 9968], "queries": {"click": {"state": {"target": [], "time": []}, "edge": {"target": [], "time": []}}, "mouseover": {"state": {"target": [], "time": []}, "edge": {"target": [], "time": []}}, "mouseout": {"state": {"target": ["1", "0"], "time": [1671, 2083]}, "edge": {"target": [], "time": []}}}, "displayed_time": "16.92", "trialTime": 18331, "trial_type": "mouselab-mdp", "trial_index": 22, "time_elapsed": 1010681, "internal_node_id": "0.0-4.0-1.0-1.0"}}, {"uniqueid": "w73414741:a62418049", "current_trial": 23, "dateTime": 1691143055813, "trialdata": {"revealed_states": [], "clicked_states": [], "num_clicks_accrued": [0, 0, 0, 0, 0, 0, 0, 0, 0, 0, 0, 0, 0], "stateRewards": ["", 2, -4, -8, -15, 71, -43, -41, 7, -17, 20, 67, -1, -1, -4, 6, 37, -24, -47, 9, 34, 57, 45, 1, 2, -4, -5, -23, 88, -5, 13, -40, 43, 44], "withholdReward": false, "trial_id": "mdp_trial_3", "block": "test", "trialIndex": 8, "score": 56, "costs": 0, "simulationMode": [null, null, null, null, null], "rewards": [1, 2, -4, 13, 44], "path": ["0", "0", "23", "24", "25", "30", "33"], "rt": [2342, 233, 256, 167, 2012], "actions": ["left", "left", "left", "down", "left"], "actionTimes": [4700, 5456, 6236, 6949, 9482], "queries": {"click": {"state": {"target": [], "time": []}, "edge": {"target": [], "time": []}}, "mouseover": {"state": {"target": ["23"], "time": [3714]}, "edge": {"target": [], "time": []}}, "mouseout": {"state": {"target": ["0"], "time": [1811]}, "edge": {"target": [], "time": []}}}, "displayed_time": "16.36", "trialTime": 18639, "trial_type": "mouselab-mdp", "trial_index": 23, "time_elapsed": 1030064, "internal_node_id": "0.0-4.0-1.0-2.0"}}, {"uniqueid": "w73414741:a62418049", "current_trial": 24, "dateTime": 1691143080001, "trialdata": {"revealed_states": [], "clicked_states": [], "num_clicks_accrued": [0, 0, 0, 0, 0, 0, 0, 0, 0, 0, 0, 0, 0], "stateRewards": ["", 2, -2, -8, 9, -20, 55, -58, 14, 42, 2, 36, 1, -3, -5, 5, -58, 57, 60, 16, 57, 30, -70, -2, 1, 3, 10, 59, 23, 77, -13, -26, 88, -72], "withholdReward": false, "trial_id": "mdp_trial_4", "block": "test", "trialIndex": 9, "score": 39, "costs": 0, "simulationMode": [null, null, null, null, null], "rewards": [1, -3, -5, 16, 30], "path": ["0", "0", "12", "13", "14", "19", "21"], "rt": [2384, 176, 303, 231, 70], "actions": ["right", "right", "right", "down", "down"], "actionTimes": [5040, 5737, 6564, 7339, 7943], "queries": {"click": {"state": {"target": [], "time": []}, "edge": {"target": [], "time": []}}, "mouseover": {"state": {"target": [], "time": []}, "edge": {"target": [], "time": []}}, "mouseout": {"state": {"target": ["23"], "time": [1451]}, "edge": {"target": [], "time": []}}}, "displayed_time": "16.66", "trialTime": 23435, "trial_type": "mouselab-mdp", "trial_index": 24, "time_elapsed": 1054252, "internal_node_id": "0.0-4.0-1.0-3.0"}}, {"uniqueid": "w73414741:a62418049", "current_trial": 25, "dateTime": 1691143097331, "trialdata": {"revealed_states": [], "clicked_states": [], "num_clicks_accrued": [0, 0, 0, 0, 0, 0, 0, 0, 0, 0, 0, 0, 0], "stateRewards": ["", -2, 3, -1, -9, 44, 48, -37, -3, 71, -39, 87, -1, 3, -4, 4, -21, 59, -15, -8, -1, 28, -38, 2, 4, 4, 8, -85, -72, -63, 14, 58, 63, -46], "withholdReward": false, "trial_id": "mdp_trial_5", "block": "test", "trialIndex": 10, "score": 61, "costs": 0, "simulationMode": [null, null, null, null, null], "rewards": [-1, 3, -4, 4, 59], "path": ["0", "0", "12", "13", "14", "15", "17"], "rt": [1857, 569, 287, 537, 128], "actions": ["right", "right", "right", "up", "right"], "actionTimes": [3725, 4813, 5611, 6661, 7300], "queries": {"click": {"state": {"target": [], "time": []}, "edge": {"target": [], "time": []}}, "mouseover": {"state": {"target": [], "time": []}, "edge": {"target": [], "time": []}}, "mouseout": {"state": {"target": [], "time": []}, "edge": {"target": [], "time": []}}}, "displayed_time": "15.87", "trialTime": 16553, "trial_type": "mouselab-mdp", "trial_index": 25, "time_elapsed": 1071583, "internal_node_id": "0.0-4.0-1.0-4.0"}}, {"uniqueid": "w73414741:a62418049", "current_trial": 26, "dateTime": 1691143116069, "trialdata": {"revealed_states": [], "clicked_states": [], "num_clicks_accrued": [0, 0, 0, 0, 0, 0, 0, 0, 0, 0, 0, 0, 0], "stateRewards": ["", 2, -1, 5, 6, 10, 86, 55, 10, -45, 63, -71, 1, -2, 5, -8, -50, -72, 36, 15, 61, 12, 33, -1, -4, 6, 5, 79, -56, -21, -16, -87, 60, -81], "withholdReward": false, "trial_id": "mdp_trial_6", "block": "test", "trialIndex": 11, "score": 32, "costs": 0, "simulationMode": [null, null, null, null, null], "rewards": [1, -2, 5, -8, 36], "path": ["0", "0", "12", "13", "14", "15", "18"], "rt": [2870, 168, 66, 978, 164], "actions": ["right", "right", "right", "up", "left"], "actionTimes": [5624, 6328, 6911, 8421, 9109], "queries": {"click": {"state": {"target": [], "time": []}, "edge": {"target": [], "time": []}}, "mouseover": {"state": {"target": [], "time": []}, "edge": {"target": [], "time": []}}, "mouseout": {"state": {"target": [], "time": []}, "edge": {"target": [], "time": []}}}, "displayed_time": "16.75", "trialTime": 17979, "trial_type": "mouselab-mdp", "trial_index": 26, "time_elapsed": 1090321, "internal_node_id": "0.0-4.0-1.0-5.0"}}, {"uniqueid": "w73414741:a62418049", "current_trial": 27, "dateTime": 1691143135010, "trialdata": {"revealed_states": [], "clicked_states": [], "num_clicks_accrued": [0, 0, 0, 0, 0, 0, 0, 0, 0, 0, 0, 0, 0], "stateRewards": ["", 2, 4, 7, -6, -76, -81, 2, 5, -66, -3, 36, -2, -4, 6, -2, -69, 4, -49, -6, 67, 38, -67, 2, 1, 1, 6, -68, -21, 52, -16, -16, 6, -70], "withholdReward": false, "trial_id": "mdp_trial_7", "block": "test", "trialIndex": 12, "score": -11, "costs": 0, "simulationMode": [null, null, null, null, null], "rewards": [2, 1, 1, 6, -21], "path": ["0", "0", "23", "24", "25", "26", "28"], "rt": [991, 188, 188, 597, 145], "actions": ["left", "left", "left", "up", "right"], "actionTimes": [3083, 3788, 4503, 5612, 6274], "queries": {"click": {"state": {"target": [], "time": []}, "edge": {"target": [], "time": []}}, "mouseover": {"state": {"target": [], "time": []}, "edge": {"target": [], "time": []}}, "mouseout": {"state": {"target": [], "time": []}, "edge": {"target": [], "time": []}}}, "displayed_time": "16.09", "trialTime": 18271, "trial_type": "mouselab-mdp", "trial_index": 27, "time_elapsed": 1109261, "internal_node_id": "0.0-4.0-1.0-6.0"}}, {"uniqueid": "w73414741:a62418049", "current_trial": 28, "dateTime": 1691143153113, "trialdata": {"revealed_states": [], "clicked_states": [], "num_clicks_accrued": [0, 0, 0, 0, 0, 0, 0, 0, 0, 0, 0, 0, 0], "stateRewards": ["", 2, -3, 5, -14, -63, -9, -24, -11, -54, -43, 68, 2, -2, -4, 7, -64, 30, 47, 12, -74, 11, 86, 1, -3, 3, 10, -71, -42, -52, -1, -29, -16, 69], "withholdReward": false, "trial_id": "mdp_trial_8", "block": "test", "trialIndex": 13, "score": -34, "costs": 0, "simulationMode": [null, null, null, null, null], "rewards": [2, -3, 5, -14, -24], "path": ["0", "0", "1", "2", "3", "4", "7"], "rt": [1965, 120, 220, 80, 136], "actions": ["up", "up", "up", "right", "down"], "actionTimes": [3663, 4327, 5060, 5651, 6325], "queries": {"click": {"state": {"target": [], "time": []}, "edge": {"target": [], "time": []}}, "mouseover": {"state": {"target": [], "time": []}, "edge": {"target": [], "time": []}}, "mouseout": {"state": {"target": [], "time": []}, "edge": {"target": [], "time": []}}}, "displayed_time": "15.70", "trialTime": 17419, "trial_type": "mouselab-mdp", "trial_index": 28, "time_elapsed": 1127364, "internal_node_id": "0.0-4.0-1.0-7.0"}}, {"uniqueid": "w73414741:a62418049", "current_trial": 29, "dateTime": 1691143172249, "trialdata": {"revealed_states": [], "clicked_states": [], "num_clicks_accrued": [0, 0, 0, 0, 0, 0, 0, 0, 0, 0, 0, 0, 0], "stateRewards": ["", 1, -1, 4, 5, -32, 18, 20, 6, -88, -74, 9, -2, 1, -2, -14, 34, -77, -38, -1, 80, -36, 73, 2, 3, -8, 10, -48, -73, -71, -11, -22, 20, 54], "withholdReward": false, "trial_id": "mdp_trial_9", "block": "test", "trialIndex": 14, "score": -78, "costs": 0, "simulationMode": [null, null, null, null, null], "rewards": [1, -1, 4, 6, -88], "path": ["0", "0", "1", "2", "3", "8", "9"], "rt": [2331, 214, 175, 137, 152], "actions": ["up", "up", "up", "left", "up"], "actionTimes": [3911, 4649, 5392, 6049, 6714], "queries": {"click": {"state": {"target": [], "time": []}, "edge": {"target": [], "time": []}}, "mouseover": {"state": {"target": [], "time": []}, "edge": {"target": [], "time": []}}, "mouseout": {"state": {"target": [], "time": []}, "edge": {"target": [], "time": []}}}, "displayed_time": "15.58", "trialTime": 18398, "trial_type": "mouselab-mdp", "trial_index": 29, "time_elapsed": 1146501, "internal_node_id": "0.0-4.0-1.0-8.0"}}, {"uniqueid": "w73414741:a62418049", "current_trial": 30, "dateTime": 1691143190798, "trialdata": {"revealed_states": [], "clicked_states": [], "num_clicks_accrued": [0, 0, 0, 0, 0, 0, 0, 0, 0, 0, 0, 0, 0], "stateRewards": ["", 1, 2, -5, 14, 54, -14, -25, 16, -5, -87, 78, -1, 1, 3, -3, 52, 53, 53, -10, 73, -69, -48, 2, 3, 1, 8, -62, -7, 85, 7, 82, 52, -28], "withholdReward": false, "trial_id": "mdp_trial_10", "block": "test", "trialIndex": 15, "score": 53, "costs": 0, "simulationMode": [null, null, null, null, null], "rewards": [-1, 1, 3, -3, 53], "path": ["0", "0", "12", "13", "14", "15", "17"], "rt": [1584, 317, 269, 856, 440], "actions": ["right", "right", "right", "up", "right"], "actionTimes": [3542, 4413, 5204, 6574, 7550], "queries": {"click": {"state": {"target": [], "time": []}, "edge": {"target": [], "time": []}}, "mouseover": {"state": {"target": [], "time": []}, "edge": {"target": [], "time": []}}, "mouseout": {"state": {"target": [], "time": []}, "edge": {"target": [], "time": []}}}, "displayed_time": "15.97", "trialTime": 17819, "trial_type": "mouselab-mdp", "trial_index": 30, "time_elapsed": 1165049, "internal_node_id": "0.0-4.0-1.0-9.0"}}, {"uniqueid": "w73414741:a62418049", "current_trial": 31, "dateTime": 1691143209531, "trialdata": {"revealed_states": [], "clicked_states": [], "num_clicks_accrued": [0, 0, 0, 0, 0, 0, 0, 0, 0, 0, 0, 0, 0], "stateRewards": ["", -1, 2, -2, 13, -56, -28, 10, 14, 53, -80, -29, 1, -3, -3, -14, 14, 9, -40, -9, 18, 18, 48, 1, 1, 1, -9, 64, -39, -9, 7, -52, -78, 7], "withholdReward": false, "trial_id": "mdp_trial_11", "block": "test", "trialIndex": 16, "score": -42, "costs": 0, "simulationMode": [null, null, null, null, null], "rewards": [1, 1, 1, 7, -52], "path": ["0", "0", "23", "24", "25", "30", "31"], "rt": [2327, 718, 320, 131, 550], "actions": ["left", "left", "left", "down", "right"], "actionTimes": [4275, 5514, 6346, 7018, 8093], "queries": {"click": {"state": {"target": [], "time": []}, "edge": {"target": [], "time": []}}, "mouseover": {"state": {"target": [], "time": []}, "edge": {"target": [], "time": []}}, "mouseout": {"state": {"target": [], "time": []}, "edge": {"target": [], "time": []}}}, "displayed_time": "15.95", "trialTime": 17964, "trial_type": "mouselab-mdp", "trial_index": 31, "time_elapsed": 1183782, "internal_node_id": "0.0-4.0-1.0-10.0"}}, {"uniqueid": "w73414741:a62418049", "current_trial": 32, "dateTime": 1691143228299, "trialdata": {"revealed_states": [], "clicked_states": [], "num_clicks_accrued": [0, 0, 0, 0, 0, 0, 0, 0, 0, 0, 0, 0, 0], "stateRewards": ["", -2, -4, -2, -13, -15, 87, -19, -6, -80, 30, 12, 1, 1, -8, 2, 55, 56, 15, 11, -68, -7, 55, -2, 3, -3, -3, 48, 62, 4, 1, -3, 69, -33], "withholdReward": false, "trial_id": "mdp_trial_12", "block": "test", "trialIndex": 17, "score": 57, "costs": 0, "simulationMode": [null, null, null, null, null], "rewards": [-2, 3, -3, -3, 62], "path": ["0", "0", "23", "24", "25", "26", "28"], "rt": [1536, 285, 204, 798, 338], "actions": ["left", "left", "left", "up", "right"], "actionTimes": [3823, 4631, 5352, 6659, 7538], "queries": {"click": {"state": {"target": [], "time": []}, "edge": {"target": [], "time": []}}, "mouseover": {"state": {"target": [], "time": []}, "edge": {"target": [], "time": []}}, "mouseout": {"state": {"target": [], "time": []}, "edge": {"target": [], "time": []}}}, "displayed_time": "16.29", "trialTime": 18018, "trial_type": "mouselab-mdp", "trial_index": 32, "time_elapsed": 1202550, "internal_node_id": "0.0-4.0-1.0-11.0"}}, {"uniqueid": "w73414741:a62418049", "current_trial": 33, "dateTime": 1691143245812, "trialdata": {"revealed_states": [], "clicked_states": [], "num_clicks_accrued": [0, 0, 0, 0, 0, 0, 0, 0, 0, 0, 0, 0, 0], "stateRewards": ["", 2, -4, 7, 3, 23, -42, 4, 7, -81, -33, 7, -2, -4, 5, -1, 50, -57, -14, -13, -14, 44, 55, -2, -2, 5, -2, 33, 1, 57, -13, -7, 58, 87], "withholdReward": false, "trial_id": "mdp_trial_13", "block": "test", "trialIndex": 18, "score": 75, "costs": 0, "simulationMode": [null, null, null, null, null], "rewards": [-2, -2, 5, -13, 87], "path": ["0", "0", "23", "24", "25", "30", "33"], "rt": [1622, 6, 76, 94, 768], "actions": ["left", "left", "left", "down", "left"], "actionTimes": [3503, 4031, 4650, 5261, 6572], "queries": {"click": {"state": {"target": [], "time": []}, "edge": {"target": [], "time": []}}, "mouseover": {"state": {"target": [], "time": []}, "edge": {"target": [], "time": []}}, "mouseout": {"state": {"target": [], "time": []}, "edge": {"target": [], "time": []}}}, "displayed_time": "15.88", "trialTime": 16753, "trial_type": "mouselab-mdp", "trial_index": 33, "time_elapsed": 1220064, "internal_node_id": "0.0-4.0-1.0-12.0"}}, {"uniqueid": "w73414741:a62418049", "current_trial": 34, "dateTime": 1691143270912, "trialdata": {"revealed_states": [], "clicked_states": [], "num_clicks_accrued": [0, 0, 0, 0, 0, 0, 0, 0, 0, 0, 0, 0, 0], "stateRewards": ["", 1, -2, -8, -13, 4, 34, -84, -4, -49, 88, -70, -1, 3, -4, 10, -77, 13, -34, 15, -21, -16, 27, 1, -2, 8, -8, -6, 38, -26, 6, -15, 66, -3], "withholdReward": false, "trial_id": "mdp_trial_14", "block": "test", "trialIndex": 19, "score": -7, "costs": 0, "simulationMode": [null, null, null, null, null], "rewards": [1, -2, 8, -8, -6], "path": ["0", "0", "23", "24", "25", "26", "27"], "rt": [1479, 57, 356, 637, 89], "actions": ["left", "left", "left", "up", "up"], "actionTimes": [5903, 6498, 7386, 8549, 9150], "queries": {"click": {"state": {"target": [], "time": []}, "edge": {"target": [], "time": []}}, "mouseover": {"state": {"target": [], "time": []}, "edge": {"target": [], "time": []}}, "mouseout": {"state": {"target": [], "time": []}, "edge": {"target": [], "time": []}}}, "displayed_time": "18.43", "trialTime": 24353, "trial_type": "mouselab-mdp", "trial_index": 34, "time_elapsed": 1245164, "internal_node_id": "0.0-4.0-1.0-13.0"}}, {"uniqueid": "w73414741:a62418049", "current_trial": 35, "dateTime": 1691143289595, "trialdata": {"revealed_states": [], "clicked_states": [], "num_clicks_accrued": [0, 0, 0, 0, 0, 0, 0, 0, 0, 0, 0, 0, 0], "stateRewards": ["", -2, -3, 1, -14, 48, -49, 67, -1, -35, -48, 3, -2, 1, -4, -5, 86, -84, 39, 1, 48, 41, -42, -1, -4, 2, -7, 18, -86, 17, 7, -9, 57, -69], "withholdReward": false, "trial_id": "mdp_trial_15", "block": "test", "trialIndex": 20, "score": -65, "costs": 0, "simulationMode": [null, null, null, null, null], "rewards": [-1, -4, 2, 7, -69], "path": ["0", "0", "23", "24", "25", "30", "33"], "rt": [3377, 85, 88, 110, 423], "actions": ["left", "left", "left", "down", "left"], "actionTimes": [5528, 6131, 6732, 7395, 8342], "queries": {"click": {"state": {"target": [], "time": []}, "edge": {"target": [], "time": []}}, "mouseover": {"state": {"target": [], "time": []}, "edge": {"target": [], "time": []}}, "mouseout": {"state": {"target": [], "time": []}, "edge": {"target": [], "time": []}}}, "displayed_time": "16.15", "trialTime": 17875, "trial_type": "mouselab-mdp", "trial_index": 35, "time_elapsed": 1263847, "internal_node_id": "0.0-4.0-1.0-14.0"}}, {"uniqueid": "w73414741:a62418049", "current_trial": 36, "dateTime": 1691143312467, "trialdata": {"revealed_states": [], "clicked_states": [], "num_clicks_accrued": [0, 0, 0, 0, 0, 0, 0, 0, 0, 0, 0, 0, 0], "stateRewards": ["", 1, 4, 5, -5, 58, -80, 75, 6, 25, -39, 46, 2, -2, 4, 2, 59, 31, -22, -12, -61, 15, 72, 1, -2, -7, 8, 77, 76, -23, -7, 71, -15, -3], "withholdReward": false, "trial_id": "mdp_trial_16", "block": "test", "trialIndex": 21, "score": 63, "costs": 0, "simulationMode": [null, null, null, null, null], "rewards": [1, 4, 5, -5, 58], "path": ["0", "0", "1", "2", "3", "4", "5"], "rt": [1212, 273, 320, 369, 277], "actions": ["up", "up", "up", "right", "up"], "actionTimes": [5205, 6018, 6854, 7742, 8544], "queries": {"click": {"state": {"target": [], "time": []}, "edge": {"target": [], "time": []}}, "mouseover": {"state": {"target": [], "time": []}, "edge": {"target": [], "time": []}}, "mouseout": {"state": {"target": [], "time": []}, "edge": {"target": [], "time": []}}}, "displayed_time": "18.00", "trialTime": 22023, "trial_type": "mouselab-mdp", "trial_index": 36, "time_elapsed": 1286719, "internal_node_id": "0.0-4.0-1.0-15.0"}}, {"uniqueid": "w73414741:a62418049", "current_trial": 37, "dateTime": 1691143343132, "trialdata": {"revealed_states": [], "clicked_states": [], "num_clicks_accrued": [0, 0, 0, 0, 0, 0, 0, 0, 0, 0, 0, 0, 0], "stateRewards": ["", -2, 1, -5, 2, -68, 80, 33, 10, 67, -59, 20, -1, -3, 3, 14, 74, -2, 24, -16, 63, 80, 46, -1, 4, 6, 12, 83, -38, -43, -4, 43, 14, -79], "withholdReward": false, "trial_id": "mdp_trial_17", "block": "test", "trialIndex": 22, "score": 24, "costs": 0, "simulationMode": [null, null, null, null, null], "rewards": [-2, 1, -5, 10, 20], "path": ["0", "0", "1", "2", "3", "8", "11"], "rt": [1413, 82, 72, 426, 482], "actions": ["up", "up", "up", "left", "left"], "actionTimes": [10530, 11135, 11726, 12688, 13683], "queries": {"click": {"state": {"target": [], "time": []}, "edge": {"target": [], "time": []}}, "mouseover": {"state": {"target": [], "time": []}, "edge": {"target": [], "time": []}}, "mouseout": {"state": {"target": [], "time": []}, "edge": {"target": [], "time": []}}}, "displayed_time": "23.12", "trialTime": 29583, "trial_type": "mouselab-mdp", "trial_index": 37, "time_elapsed": 1317384, "internal_node_id": "0.0-4.0-1.0-16.0"}}, {"uniqueid": "w73414741:a62418049", "current_trial": 38, "dateTime": 1691143362289, "trialdata": {"revealed_states": [], "clicked_states": [], "num_clicks_accrued": [0, 0, 0, 0, 0, 0, 0, 0, 0, 0, 0, 0, 0], "stateRewards": ["", -2, -1, -6, -14, -55, 78, -13, 11, 14, -71, 59, 2, 2, 6, -6, 9, 38, 14, 7, 85, 11, 68, 1, -4, -1, -3, -63, -85, 9, -2, 63, -86, -10], "withholdReward": false, "trial_id": "mdp_trial_18", "block": "test", "trialIndex": 23, "score": -36, "costs": 0, "simulationMode": [null, null, null, null, null], "rewards": [-2, -1, -6, -14, -13], "path": ["0", "0", "1", "2", "3", "4", "7"], "rt": [1335, 210, 161, 625, 368], "actions": ["up", "up", "up", "right", "down"], "actionTimes": [4602, 5353, 6029, 7176, 8067], "queries": {"click": {"state": {"target": [], "time": []}, "edge": {"target": [], "time": []}}, "mouseover": {"state": {"target": [], "time": []}, "edge": {"target": [], "time": []}}, "mouseout": {"state": {"target": [], "time": []}, "edge": {"target": [], "time": []}}}, "displayed_time": "17.27", "trialTime": 18364, "trial_type": "mouselab-mdp", "trial_index": 38, "time_elapsed": 1336540, "internal_node_id": "0.0-4.0-1.0-17.0"}}, {"uniqueid": "w73414741:a62418049", "current_trial": 39, "dateTime": 1691143379938, "trialdata": {"revealed_states": [], "clicked_states": [], "num_clicks_accrued": [0, 0, 0, 0, 0, 0, 0, 0, 0, 0, 0, 0, 0], "stateRewards": ["", 2, -3, -4, -1, 25, -16, 16, 10, -71, -20, -55, 1, 3, -4, -9, 1, 32, 11, -6, 32, -50, -41, -1, 4, 4, -8, 7, -81, 70, 2, -52, 45, -10], "withholdReward": false, "trial_id": "mdp_trial_19", "block": "test", "trialIndex": 24, "score": 19, "costs": 0, "simulationMode": [null, null, null, null, null], "rewards": [2, -3, -4, -1, 25], "path": ["0", "0", "1", "2", "3", "4", "5"], "rt": [1101, 352, 292, 77, 36], "actions": ["up", "up", "up", "right", "up"], "actionTimes": [2915, 3804, 4621, 5243, 5822], "queries": {"click": {"state": {"target": [], "time": []}, "edge": {"target": [], "time": []}}, "mouseover": {"state": {"target": [], "time": []}, "edge": {"target": [], "time": []}}, "mouseout": {"state": {"target": [], "time": []}, "edge": {"target": [], "time": []}}}, "displayed_time": "15.82", "trialTime": 16872, "trial_type": "mouselab-mdp", "trial_index": 39, "time_elapsed": 1354190, "internal_node_id": "0.0-4.0-1.0-18.0"}}, {"uniqueid": "w73414741:a62418049", "current_trial": 40, "dateTime": 1691143397774, "trialdata": {"revealed_states": [], "clicked_states": [], "num_clicks_accrued": [0, 0, 0, 0, 0, 0, 0, 0, 0, 0, 0, 0, 0], "stateRewards": ["", 1, -1, -7, -7, -22, 15, -13, 13, 26, -32, 38, -1, 1, -7, -4, 16, -62, 86, 12, -54, 56, 64, -2, -1, 6, 14, -57, 37, 62, -6, -25, 50, -70], "withholdReward": false, "trial_id": "mdp_trial_20", "block": "test", "trialIndex": 25, "score": 47, "costs": 0, "simulationMode": [null, null, null, null, null], "rewards": [-2, -1, 6, -6, 50], "path": ["0", "0", "23", "24", "25", "30", "32"], "rt": [1698, 13, 6, 802, 413], "actions": ["left", "left", "left", "down", "down"], "actionTimes": [3521, 4057, 4598, 5932, 6877], "queries": {"click": {"state": {"target": [], "time": []}, "edge": {"target": [], "time": []}}, "mouseover": {"state": {"target": [], "time": []}, "edge": {"target": [], "time": []}}, "mouseout": {"state": {"target": [], "time": []}, "edge": {"target": [], "time": []}}}, "displayed_time": "15.85", "trialTime": 16977, "trial_type": "mouselab-mdp", "trial_index": 40, "time_elapsed": 1372009, "internal_node_id": "0.0-4.0-1.0-19.0"}}, {"uniqueid": "w73414741:a62418049", "current_trial": 41, "dateTime": 1691143417175, "trialdata": {"revealed_states": [], "clicked_states": [], "num_clicks_accrued": [0, 0, 0, 0, 0, 0, 0, 0, 0, 0, 0, 0, 0], "stateRewards": ["", -2, 3, -1, 2, -72, 63, 20, -1, 62, -66, 39, -2, 3, -6, 14, 22, 47, 1, 8, -49, -1, -41, 2, 2, -6, -16, -64, -60, -34, 16, 54, 22, -7], "withholdReward": false, "trial_id": "mdp_trial_21", "block": "test", "trialIndex": 26, "score": 7, "costs": 0, "simulationMode": [null, null, null, null, null], "rewards": [2, 2, -6, 16, -7], "path": ["0", "0", "23", "24", "25", "30", "33"], "rt": [2348, 105, 88, 200, 323], "actions": ["left", "left", "left", "down", "left"], "actionTimes": [5320, 5952, 6568, 7294, 8143], "queries": {"click": {"state": {"target": [], "time": []}, "edge": {"target": [], "time": []}}, "mouseover": {"state": {"target": [], "time": []}, "edge": {"target": [], "time": []}}, "mouseout": {"state": {"target": [], "time": []}, "edge": {"target": [], "time": []}}}, "displayed_time": "16.98", "trialTime": 18214, "trial_type": "mouselab-mdp", "trial_index": 41, "time_elapsed": 1391427, "internal_node_id": "0.0-4.0-1.0-20.0"}}, {"uniqueid": "w73414741:a62418049", "current_trial": 42, "dateTime": 1691143444653, "trialdata": {"revealed_states": [], "clicked_states": ["25", "26", "27", "13", "14", "15"], "num_clicks_accrued": [0, 0, 0, 0, 0, 0, 0, 0, 0, 0, 0, 0, 0], "stateRewards": ["", -1, 1, -2, 5, 73, 15, 61, 8, 7, 38, 76, 2, 2, -4, -6, -6, -26, 43, -5, -45, -85, -35, -2, 1, -4, 15, -10, 69, 72, -11, 84, -49, -38], "withholdReward": false, "trial_id": "mdp_trial_22", "block": "test", "trialIndex": 27, "score": 55.6, "costs": -8.4, "simulationMode": [null, null, null, null, null], "rewards": [-1, 1, -2, 5, 61], "path": ["0", "0", "1", "2", "3", "4", "7"], "rt": [18189, 88, 1112, 244, 521], "actions": ["up", "up", "up", "right", "down"], "actionTimes": [19807, 20440, 22064, 22843, 23887], "queries": {"click": {"state": {"target": ["25", "26", "27", "13", "14", "15"], "time": [2879, 4814, 7095, 11346, 13005, 15195]}, "edge": {"target": [], "time": []}}, "mouseover": {"state": {"target": ["23", "24", "25", "26", "27", "24", "23", "0", "12", "13", "14", "15", "16", "18", "12"], "time": [2177, 2238, 2309, 3701, 5732, 8348, 8482, 9155, 9252, 10502, 12253, 14596, 15943, 16894, 17509]}, "edge": {"target": [], "time": []}}, "mouseout": {"state": {"target": ["0", "23", "24", "25", "26", "27", "24", "23", "0", "12", "13", "14", "15", "16", "18", "12"], "time": [2125, 2224, 2287, 3535, 5634, 8196, 8447, 8659, 9199, 9283, 11550, 14458, 15767, 16810, 17464, 17576]}, "edge": {"target": [], "time": []}}}, "displayed_time": "24.41", "trialTime": 26682, "trial_type": "mouselab-mdp", "trial_index": 42, "time_elapsed": 1418904, "internal_node_id": "0.0-4.0-1.0-21.0"}}, {"uniqueid": "w73414741:a62418049", "current_trial": 43, "dateTime": 1691143463591, "trialdata": {"revealed_states": [], "clicked_states": [], "num_clicks_accrued": [0, 0, 0, 0, 0, 0, 0, 0, 0, 0, 0, 0, 0], "stateRewards": ["", 1, -3, -1, 9, -34, -40, 22, -7, 45, 53, -11, 2, 4, 5, 15, 21, 37, -49, -3, 80, -28, -34, 1, -3, 1, 1, -40, -6, -5, -16, -85, -86, 59], "withholdReward": false, "trial_id": "mdp_trial_23", "block": "test", "trialIndex": 28, "score": -26, "costs": 0, "simulationMode": [null, null, null, null, null], "rewards": [2, 4, 5, -3, -34], "path": ["0", "0", "12", "13", "14", "19", "22"], "rt": [3097, 179, 408, 120, 265], "actions": ["right", "right", "right", "down", "left"], "actionTimes": [6320, 7027, 7959, 8598, 9421], "queries": {"click": {"state": {"target": [], "time": []}, "edge": {"target": [], "time": []}}, "mouseover": {"state": {"target": ["1"], "time": [4074]}, "edge": {"target": [], "time": []}}, "mouseout": {"state": {"target": ["0", "1"], "time": [2336, 4239]}, "edge": {"target": [], "time": []}}}, "displayed_time": "17.23", "trialTime": 18078, "trial_type": "mouselab-mdp", "trial_index": 43, "time_elapsed": 1437843, "internal_node_id": "0.0-4.0-1.0-22.0"}}, {"uniqueid": "w73414741:a62418049", "current_trial": 44, "dateTime": 1691143482836, "trialdata": {"revealed_states": [], "clicked_states": [], "num_clicks_accrued": [0, 0, 0, 0, 0, 0, 0, 0, 0, 0, 0, 0, 0], "stateRewards": ["", 1, 4, 7, -16, -84, -6, -46, -12, -7, -49, -26, -1, 2, -4, 2, 22, 37, -64, 1, 88, -13, -10, 1, -4, -2, 5, 2, -10, -34, 9, 66, 55, 38], "withholdReward": false, "trial_id": "mdp_trial_24", "block": "test", "trialIndex": 29, "score": 36, "costs": 0, "simulationMode": [null, null, null, null, null], "rewards": [-1, 2, -4, 2, 37], "path": ["0", "0", "12", "13", "14", "15", "17"], "rt": [1729, 452, 337, 265, 77], "actions": ["right", "right", "right", "up", "right"], "actionTimes": [5107, 6072, 6922, 7700, 8294], "queries": {"click": {"state": {"target": [], "time": []}, "edge": {"target": [], "time": []}}, "mouseover": {"state": {"target": [], "time": []}, "edge": {"target": [], "time": []}}, "mouseout": {"state": {"target": ["2", "1"], "time": [2103, 2175]}, "edge": {"target": [], "time": []}}}, "displayed_time": "17.38", "trialTime": 18296, "trial_type": "mouselab-mdp", "trial_index": 44, "time_elapsed": 1457088, "internal_node_id": "0.0-4.0-1.0-23.0"}}, {"uniqueid": "w73414741:a62418049", "current_trial": 45, "dateTime": 1691143500020, "trialdata": {"revealed_states": [], "clicked_states": [], "num_clicks_accrued": [0, 0, 0, 0, 0, 0, 0, 0, 0, 0, 0, 0, 0], "stateRewards": ["", -2, 2, -2, -7, -50, -62, -45, 7, 36, -24, -72, -1, -1, 8, -1, -67, 20, -52, 2, 35, -50, 80, -1, 1, 6, -6, -70, 6, 88, 8, -47, 74, -19], "withholdReward": false, "trial_id": "mdp_trial_25", "block": "test", "trialIndex": 30, "score": -67, "costs": 0, "simulationMode": [null, null, null, null, null], "rewards": [-2, 2, -2, 7, -72], "path": ["0", "0", "1", "2", "3", "8", "11"], "rt": [1393, 369, 349, 806, 252], "actions": ["up", "up", "up", "left", "left"], "actionTimes": [2948, 3837, 4707, 6031, 6791], "queries": {"click": {"state": {"target": [], "time": []}, "edge": {"target": [], "time": []}}, "mouseover": {"state": {"target": [], "time": []}, "edge": {"target": [], "time": []}}, "mouseout": {"state": {"target": ["0"], "time": [963]}, "edge": {"target": [], "time": []}}}, "displayed_time": "15.56", "trialTime": 16369, "trial_type": "mouselab-mdp", "trial_index": 45, "time_elapsed": 1474271, "internal_node_id": "0.0-4.0-1.0-24.0"}}, {"uniqueid": "w73414741:a62418049", "current_trial": 46, "dateTime": 1691143535307, "trialdata": {"revealed_states": [], "clicked_states": [], "num_clicks_accrued": [0, 0, 0, 0, 0, 0, 0, 0, 0, 0, 0, 0, 0], "stateRewards": ["", 1, -1, 1, 13, 31, -56, 72, 2, 41, 5, 63, -2, -3, -2, 3, -71, -26, 52, 13, -31, 24, -67, 2, -2, 5, 4, 66, 43, 72, 9, 86, -26, 44], "withholdReward": false, "trial_id": "mdp_trial_26", "block": "test", "trialIndex": 31, "score": -42, "costs": 0, "simulationMode": [null, null, null, null, null], "rewards": [1, -1, 1, 13, -56], "path": ["0", "0", "1", "2", "3", "4", "6"], "rt": [1341, 51, 161, 141, 73], "actions": ["up", "up", "up", "right", "right"], "actionTimes": [3293, 3867, 4558, 5221, 5840], "queries": {"click": {"state": {"target": [], "time": []}, "edge": {"target": [], "time": []}}, "mouseover": {"state": {"target": [], "time": []}, "edge": {"target": [], "time": []}}, "mouseout": {"state": {"target": ["0"], "time": [1465]}, "edge": {"target": [], "time": []}}}, "displayed_time": "15.96", "trialTime": 34346, "trial_type": "mouselab-mdp", "trial_index": 46, "time_elapsed": 1509558, "internal_node_id": "0.0-4.0-1.0-25.0"}}, {"uniqueid": "w73414741:a62418049", "current_trial": 47, "dateTime": 1691143556944, "trialdata": {"revealed_states": [], "clicked_states": [], "num_clicks_accrued": [0, 0, 0, 0, 0, 0, 0, 0, 0, 0, 0, 0, 0], "stateRewards": ["", 1, -4, 6, -3, 40, 76, -51, 5, -24, -63, 44, -2, -2, 8, 1, 76, -85, -58, 10, 59, 20, 11, -2, 3, -3, 3, -82, -10, 54, -7, -57, -6, -32], "withholdReward": false, "trial_id": "mdp_trial_27", "block": "test", "trialIndex": 32, "score": -15, "costs": 0, "simulationMode": [null, null, null, null, null], "rewards": [-2, 3, -3, -7, -6], "path": ["0", "0", "23", "24", "25", "30", "32"], "rt": [2162, 492, 151, 391, 16], "actions": ["left", "left", "left", "down", "down"], "actionTimes": [4200, 5216, 5891, 6797, 7338], "queries": {"click": {"state": {"target": [], "time": []}, "edge": {"target": [], "time": []}}, "mouseover": {"state": {"target": [], "time": []}, "edge": {"target": [], "time": []}}, "mouseout": {"state": {"target": ["0"], "time": [1343]}, "edge": {"target": [], "time": []}}}, "displayed_time": "16.04", "trialTime": 20694, "trial_type": "mouselab-mdp", "trial_index": 47, "time_elapsed": 1531195, "internal_node_id": "0.0-4.0-1.0-26.0"}}, {"uniqueid": "w73414741:a62418049", "current_trial": 48, "dateTime": 1691143574447, "trialdata": {"revealed_states": [], "clicked_states": [], "num_clicks_accrued": [0, 0, 0, 0, 0, 0, 0, 0, 0, 0, 0, 0, 0], "stateRewards": ["", -1, -4, -6, -15, 21, -67, -63, 9, 51, 69, -14, -1, 3, 8, -8, 39, 72, 63, 15, 19, 47, 15, 1, 4, 5, 16, -18, 34, 35, -14, -80, 40, 1], "withholdReward": false, "trial_id": "mdp_trial_28", "block": "test", "trialIndex": 33, "score": 74, "costs": 0, "simulationMode": [null, null, null, null, null], "rewards": [-1, 3, 8, -8, 72], "path": ["0", "0", "12", "13", "14", "15", "17"], "rt": [2055, 286, 323, 495, 26], "actions": ["right", "right", "right", "up", "right"], "actionTimes": [4261, 5072, 5907, 6948, 7491], "queries": {"click": {"state": {"target": [], "time": []}, "edge": {"target": [], "time": []}}, "mouseover": {"state": {"target": [], "time": []}, "edge": {"target": [], "time": []}}, "mouseout": {"state": {"target": ["0"], "time": [1558]}, "edge": {"target": [], "time": []}}}, "displayed_time": "16.21", "trialTime": 16597, "trial_type": "mouselab-mdp", "trial_index": 48, "time_elapsed": 1548699, "internal_node_id": "0.0-4.0-1.0-27.0"}}, {"uniqueid": "w73414741:a62418049", "current_trial": 49, "dateTime": 1691143593446, "trialdata": {"revealed_states": [], "clicked_states": [], "num_clicks_accrued": [0, 0, 0, 0, 0, 0, 0, 0, 0, 0, 0, 0, 0], "stateRewards": ["", -2, 2, -5, -6, 10, -66, -58, -10, -11, -63, -70, -1, -4, -5, 7, 66, -64, -43, -3, 45, -37, 4, -2, -2, -6, -4, -30, 33, 43, 15, -32, -65, -59], "withholdReward": false, "trial_id": "mdp_trial_29", "block": "test", "trialIndex": 34, "score": -78, "costs": 0, "simulationMode": [null, null, null, null, null], "rewards": [-2, 2, -5, -10, -63], "path": ["0", "0", "1", "2", "3", "8", "10"], "rt": [3024, 370, 757, 169, 174], "actions": ["up", "up", "up", "left", "down"], "actionTimes": [5230, 6125, 7406, 8102, 8806], "queries": {"click": {"state": {"target": [], "time": []}, "edge": {"target": [], "time": []}}, "mouseover": {"state": {"target": [], "time": []}, "edge": {"target": [], "time": []}}, "mouseout": {"state": {"target": ["0"], "time": [1622]}, "edge": {"target": [], "time": []}}}, "displayed_time": "16.21", "trialTime": 17928, "trial_type": "mouselab-mdp", "trial_index": 49, "time_elapsed": 1567697, "internal_node_id": "0.0-4.0-1.0-28.0"}}, {"uniqueid": "w73414741:a62418049", "current_trial": 50, "dateTime": 1691143611360, "trialdata": {"revealed_states": [], "clicked_states": [], "num_clicks_accrued": [0, 0, 0, 0, 0, 0, 0, 0, 0, 0, 0, 0, 0], "stateRewards": ["", 2, 2, 3, -15, 23, -14, 73, -7, -32, -20, -6, 1, 1, -5, -12, 73, 6, -84, 11, -81, -57, 13, -2, -1, -4, -8, -52, -58, 49, 13, 5, -41, -41], "withholdReward": false, "trial_id": "mdp_trial_30", "block": "test", "trialIndex": 35, "score": -73, "costs": 0, "simulationMode": [null, null, null, null, null], "rewards": [1, 1, -5, 11, -81], "path": ["0", "0", "12", "13", "14", "19", "20"], "rt": [2018, 54, 70, 110, 306], "actions": ["right", "right", "right", "down", "right"], "actionTimes": [4131, 4747, 5344, 5984, 6812], "queries": {"click": {"state": {"target": [], "time": []}, "edge": {"target": [], "time": []}}, "mouseover": {"state": {"target": [], "time": []}, "edge": {"target": [], "time": []}}, "mouseout": {"state": {"target": ["0"], "time": [1399]}, "edge": {"target": [], "time": []}}}, "displayed_time": "16.12", "trialTime": 17052, "trial_type": "mouselab-mdp", "trial_index": 50, "time_elapsed": 1585612, "internal_node_id": "0.0-4.0-1.0-29.0"}}, {"uniqueid": "w73414741:a62418049", "current_trial": 51, "dateTime": 1691143629028, "trialdata": {"revealed_states": [], "clicked_states": [], "num_clicks_accrued": [0, 0, 0, 0, 0, 0, 0, 0, 0, 0, 0, 0, 0], "stateRewards": ["", -2, 1, -8, 12, -65, -79, 16, 7, -80, -17, -45, -2, 2, -5, -2, -85, 23, -4, -7, 48, 27, -76, 2, 3, 5, 2, 43, 71, -13, 7, -49, 59, -31], "withholdReward": false, "trial_id": "mdp_trial_31", "block": "test", "trialIndex": 36, "score": -62, "costs": 0, "simulationMode": [null, null, null, null, null], "rewards": [-2, 1, -8, 12, -65], "path": ["0", "0", "1", "2", "3", "4", "5"], "rt": [1564, 131, 137, 133, 248], "actions": ["up", "up", "up", "right", "up"], "actionTimes": [3751, 4393, 5053, 5711, 6475], "queries": {"click": {"state": {"target": [], "time": []}, "edge": {"target": [], "time": []}}, "mouseover": {"state": {"target": [], "time": []}, "edge": {"target": [], "time": []}}, "mouseout": {"state": {"target": ["0"], "time": [1354]}, "edge": {"target": [], "time": []}}}, "displayed_time": "16.19", "trialTime": 16741, "trial_type": "mouselab-mdp", "trial_index": 51, "time_elapsed": 1603280, "internal_node_id": "0.0-4.0-1.0-30.0"}}, {"uniqueid": "w73414741:a62418049", "current_trial": 52, "dateTime": 1691143647789, "trialdata": {"revealed_states": [], "clicked_states": [], "num_clicks_accrued": [0, 0, 0, 0, 0, 0, 0, 0, 0, 0, 0, 0, 0], "stateRewards": ["", 2, -1, -1, -9, -81, -30, 55, -6, 78, 25, 62, 2, 4, -1, 9, -85, 1, -19, 1, -60, 12, -34, 1, 4, -1, -13, -24, -16, -83, -8, 16, 43, 9], "withholdReward": false, "trial_id": "mdp_trial_32", "block": "test", "trialIndex": 37, "score": -90, "costs": 0, "simulationMode": [null, null, null, null, null], "rewards": [2, -1, -1, -9, -81], "path": ["0", "0", "1", "2", "3", "4", "5"], "rt": [1197, 167, 517, 433, 68], "actions": ["up", "up", "up", "right", "up"], "actionTimes": [3835, 4524, 5674, 6629, 7220], "queries": {"click": {"state": {"target": [], "time": []}, "edge": {"target": [], "time": []}}, "mouseover": {"state": {"target": [], "time": []}, "edge": {"target": [], "time": []}}, "mouseout": {"state": {"target": ["0"], "time": [2137]}, "edge": {"target": [], "time": []}}}, "displayed_time": "16.64", "trialTime": 17762, "trial_type": "mouselab-mdp", "trial_index": 52, "time_elapsed": 1622040, "internal_node_id": "0.0-4.0-1.0-31.0"}}, {"uniqueid": "w73414741:a62418049", "current_trial": 53, "dateTime": 1691143666272, "trialdata": {"revealed_states": [], "clicked_states": [], "num_clicks_accrued": [0, 0, 0, 0, 0, 0, 0, 0, 0, 0, 0, 0, 0], "stateRewards": ["", -2, 1, -7, 9, 8, 25, 61, -7, -17, 69, -81, 1, 4, -4, -11, 16, 67, 44, 3, 6, -45, -54, -2, 3, 6, -11, -15, 32, -47, 3, -39, -6, -88], "withholdReward": false, "trial_id": "mdp_trial_33", "block": "test", "trialIndex": 38, "score": 28, "costs": 0, "simulationMode": [null, null, null, null, null], "rewards": [-2, 3, 6, -11, 32], "path": ["0", "0", "23", "24", "25", "26", "28"], "rt": [1948, 124, 75, 1054, 18], "actions": ["left", "left", "left", "up", "right"], "actionTimes": [3564, 4208, 4802, 6381, 6935], "queries": {"click": {"state": {"target": [], "time": []}, "edge": {"target": [], "time": []}}, "mouseover": {"state": {"target": [], "time": []}, "edge": {"target": [], "time": []}}, "mouseout": {"state": {"target": ["0"], "time": [1194]}, "edge": {"target": [], "time": []}}}, "displayed_time": "15.62", "trialTime": 17420, "trial_type": "mouselab-mdp", "trial_index": 53, "time_elapsed": 1640524, "internal_node_id": "0.0-4.0-1.0-32.0"}}, {"uniqueid": "w73414741:a62418049", "current_trial": 54, "dateTime": 1691143684035, "trialdata": {"revealed_states": [], "clicked_states": [], "num_clicks_accrued": [0, 0, 0, 0, 0, 0, 0, 0, 0, 0, 0, 0, 0], "stateRewards": ["", -1, 4, 3, 12, -27, 34, -33, 3, -63, 1, 6, 2, 2, -6, -11, -77, -85, 68, -6, 51, 81, -60, -2, -2, 1, 15, 20, 15, 68, -10, -14, 6, -4], "withholdReward": false, "trial_id": "mdp_trial_34", "block": "test", "trialIndex": 39, "score": 10, "costs": 0, "simulationMode": [null, null, null, null, null], "rewards": [-1, 4, 3, 3, 1], "path": ["0", "0", "1", "2", "3", "8", "10"], "rt": [2433, 123, 400, 330, 203], "actions": ["up", "up", "up", "left", "down"], "actionTimes": [4460, 5102, 6028, 6891, 7613], "queries": {"click": {"state": {"target": [], "time": []}, "edge": {"target": [], "time": []}}, "mouseover": {"state": {"target": [], "time": []}, "edge": {"target": [], "time": []}}, "mouseout": {"state": {"target": ["0"], "time": [1495]}, "edge": {"target": [], "time": []}}}, "displayed_time": "16.04", "trialTime": 16785, "trial_type": "mouselab-mdp", "trial_index": 54, "time_elapsed": 1658286, "internal_node_id": "0.0-4.0-1.0-33.0"}}, {"uniqueid": "w73414741:a62418049", "current_trial": 55, "dateTime": 1691143701672, "trialdata": {"revealed_states": [], "clicked_states": [], "num_clicks_accrued": [0, 0, 0, 0, 0, 0, 0, 0, 0, 0, 0, 0, 0], "stateRewards": ["", 1, 1, -3, 7, 49, 78, 26, -5, 26, 48, -43, -1, -3, 2, -5, 4, -1, -60, 10, -35, 51, 81, -2, 1, -7, -5, -39, -86, -54, 4, -3, 74, 77], "withholdReward": false, "trial_id": "mdp_trial_35", "block": "test", "trialIndex": 40, "score": 55, "costs": 0, "simulationMode": [null, null, null, null, null], "rewards": [1, 1, -3, 7, 49], "path": ["0", "0", "1", "2", "3", "4", "5"], "rt": [7508, 63, 61, 467, 71], "actions": ["up", "up", "up", "right", "up"], "actionTimes": [9550, 10222, 10776, 11782, 12369], "queries": {"click": {"state": {"target": [], "time": []}, "edge": {"target": [], "time": []}}, "mouseover": {"state": {"target": [], "time": []}, "edge": {"target": [], "time": []}}, "mouseout": {"state": {"target": ["0"], "time": [1496]}, "edge": {"target": [], "time": []}}}, "displayed_time": "16.04", "trialTime": 16767, "trial_type": "mouselab-mdp", "trial_index": 55, "time_elapsed": 1675923, "internal_node_id": "0.0-4.0-1.0-34.0"}}, {"uniqueid": "w73414741:a62418049", "current_trial": 56, "dateTime": 1691143723284, "trialdata": {"revealed_states": [], "clicked_states": [], "num_clicks_accrued": [0, 0, 0, 0, 0, 0, 0, 0, 0, 0, 0, 0, 0], "stateRewards": ["", -1, 3, 8, 9, -53, 20, -84, 2, -28, -62, -31, -1, -2, -7, 2, 51, 58, 45, -4, -17, -41, 36, 2, -2, -7, -15, 29, -54, -37, -16, -43, 65, -17], "withholdReward": false, "trial_id": "mdp_trial_36", "block": "test", "trialIndex": 41, "score": 50, "costs": 0, "simulationMode": [null, null, null, null, null], "rewards": [-1, -2, -7, 2, 58], "path": ["0", "0", "12", "13", "14", "15", "17"], "rt": [722, 88, 104, 79, 353], "actions": ["right", "right", "right", "up", "right"], "actionTimes": [2761, 3374, 3989, 4584, 5455], "queries": {"click": {"state": {"target": [], "time": []}, "edge": {"target": [], "time": []}}, "mouseover": {"state": {"target": [], "time": []}, "edge": {"target": [], "time": []}}, "mouseout": {"state": {"target": ["0"], "time": [1547]}, "edge": {"target": [], "time": []}}}, "displayed_time": "16.04", "trialTime": 20658, "trial_type": "mouselab-mdp", "trial_index": 56, "time_elapsed": 1697535, "internal_node_id": "0.0-4.0-1.0-35.0"}}, {"uniqueid": "w73414741:a62418049", "current_trial": 57, "dateTime": 1691143741926, "trialdata": {"revealed_states": [], "clicked_states": [], "num_clicks_accrued": [0, 0, 0, 0, 0, 0, 0, 0, 0, 0, 0, 0, 0], "stateRewards": ["", 2, -1, 4, -9, -43, 7, 54, -13, 38, -40, -83, -1, 2, -8, -10, 34, -33, 11, -14, -79, 65, 26, 1, 2, 4, 10, 21, 1, 86, 4, -53, 28, -29], "withholdReward": false, "trial_id": "mdp_trial_37", "block": "test", "trialIndex": 42, "score": -100, "costs": 0, "simulationMode": [null, null, null, null, null], "rewards": [-1, 2, -8, -14, -79], "path": ["0", "0", "12", "13", "14", "19", "20"], "rt": [1640, 169, 959, 147, 282], "actions": ["right", "right", "right", "down", "right"], "actionTimes": [3462, 4148, 5621, 6291, 7092], "queries": {"click": {"state": {"target": [], "time": []}, "edge": {"target": [], "time": []}}, "mouseover": {"state": {"target": [], "time": []}, "edge": {"target": [], "time": []}}, "mouseout": {"state": {"target": ["0"], "time": [1285]}, "edge": {"target": [], "time": []}}}, "displayed_time": "15.83", "trialTime": 17566, "trial_type": "mouselab-mdp", "trial_index": 57, "time_elapsed": 1716178, "internal_node_id": "0.0-4.0-1.0-36.0"}}, {"uniqueid": "w73414741:a62418049", "current_trial": 58, "dateTime": 1691143760324, "trialdata": {"revealed_states": [], "clicked_states": [], "num_clicks_accrued": [0, 0, 0, 0, 0, 0, 0, 0, 0, 0, 0, 0, 0], "stateRewards": ["", 1, 4, -4, 14, 35, 51, 19, -13, 54, 78, -74, -2, -1, -3, 13, -11, -42, -73, -15, -24, -3, -69, 2, -1, 5, 16, -27, 73, 58, 9, -60, 5, -60], "withholdReward": false, "trial_id": "mdp_trial_38", "block": "test", "trialIndex": 43, "score": 95, "costs": 0, "simulationMode": [null, null, null, null, null], "rewards": [2, -1, 5, 16, 73], "path": ["0", "0", "23", "24", "25", "26", "28"], "rt": [1359, 476, 15, 6, 45], "actions": ["left", "left", "left", "up", "right"], "actionTimes": [3586, 4586, 5141, 5680, 6253], "queries": {"click": {"state": {"target": [], "time": []}, "edge": {"target": [], "time": []}}, "mouseover": {"state": {"target": [], "time": []}, "edge": {"target": [], "time": []}}, "mouseout": {"state": {"target": ["0"], "time": [1526]}, "edge": {"target": [], "time": []}}}, "displayed_time": "16.23", "trialTime": 17445, "trial_type": "mouselab-mdp", "trial_index": 58, "time_elapsed": 1734576, "internal_node_id": "0.0-4.0-1.0-37.0"}}, {"uniqueid": "w73414741:a62418049", "current_trial": 59, "dateTime": 1691143778425, "trialdata": {"revealed_states": [], "clicked_states": [], "num_clicks_accrued": [0, 0, 0, 0, 0, 0, 0, 0, 0, 0, 0, 0, 0], "stateRewards": ["", 2, -3, -8, 14, -7, -51, 73, 2, 36, 36, -43, -1, 3, -4, 1, 6, 87, -65, 15, 61, -42, -83, -1, 3, -2, -7, 30, -48, 35, 13, 26, 60, 78], "withholdReward": false, "trial_id": "mdp_trial_39", "block": "test", "trialIndex": 44, "score": 29, "costs": 0, "simulationMode": [null, null, null, null, null], "rewards": [2, -3, -8, 2, 36], "path": ["0", "0", "1", "2", "3", "8", "9"], "rt": [1492, 396, 68, 199, 213], "actions": ["up", "up", "up", "left", "up"], "actionTimes": [3512, 4427, 5015, 5750, 6478], "queries": {"click": {"state": {"target": [], "time": []}, "edge": {"target": [], "time": []}}, "mouseover": {"state": {"target": [], "time": []}, "edge": {"target": [], "time": []}}, "mouseout": {"state": {"target": ["0"], "time": [1403]}, "edge": {"target": [], "time": []}}}, "displayed_time": "16.02", "trialTime": 17120, "trial_type": "mouselab-mdp", "trial_index": 59, "time_elapsed": 1752677, "internal_node_id": "0.0-4.0-1.0-38.0"}}, {"uniqueid": "w73414741:a62418049", "current_trial": 60, "dateTime": 1691143796742, "trialdata": {"revealed_states": [], "clicked_states": [], "num_clicks_accrued": [0, 0, 0, 0, 0, 0, 0, 0, 0, 0, 0, 0, 0], "stateRewards": ["", -1, -3, 1, 13, -64, -29, 12, -4, -33, 50, 56, 2, -3, 4, 11, -64, -58, -55, 12, 47, 38, -25, -2, 2, 5, -15, 85, 7, 84, 10, 8, 57, 26], "withholdReward": false, "trial_id": "mdp_trial_40", "block": "test", "trialIndex": 45, "score": 23, "costs": 0, "simulationMode": [null, null, null, null, null], "rewards": [-2, 2, 5, 10, 8], "path": ["0", "0", "23", "24", "25", "30", "31"], "rt": [1843, 288, 631, 96, 1207], "actions": ["left", "left", "left", "down", "right"], "actionTimes": [4035, 4847, 5990, 6603, 8341], "queries": {"click": {"state": {"target": [], "time": []}, "edge": {"target": [], "time": []}}, "mouseover": {"state": {"target": [], "time": []}, "edge": {"target": [], "time": []}}, "mouseout": {"state": {"target": ["0"], "time": [1666]}, "edge": {"target": [], "time": []}}}, "displayed_time": "16.19", "trialTime": 17333, "trial_type": "mouselab-mdp", "trial_index": 60, "time_elapsed": 1770993, "internal_node_id": "0.0-4.0-1.0-39.0"}}, {"uniqueid": "w73414741:a62418049", "current_trial": 61, "dateTime": 1691143868499, "trialdata": {"rt": 71691, "response": {"Q0": "$-2 to $2", "Q1": "$-16 to $16", "Q2": "$-88 to $88", "Q3": "The cost for clicking on nodes varied between nodes.", "Q4": "Very motivated"}, "question_order": [0, 1, 2, 3, 4], "trial_id": "final_quiz_control", "trial_type": "survey-multi-choice", "trial_index": 61, "time_elapsed": 1842751, "internal_node_id": "0.0-4.0-2.0"}}, {"uniqueid": "w73414741:a62418049", "current_trial": 62, "dateTime": 1691144084366, "trialdata": {"rt": 215768, "response": {"Q0": "Quickly clicking on the nodes.\nThen, mostly move to the top first.", "Q1": "Yes. By alternating my movement in opposite directions.", "Q2": "The 3 second time allocation made it a bit difficult. "}, "trial_id": "self_report_control", "trial_type": "survey-text", "trial_index": 62, "time_elapsed": 2058617, "internal_node_id": "0.0-4.0-3.0"}}, {"uniqueid": "w73414741:a62418049", "current_trial": 63, "dateTime": 1691144136840, "trialdata": {"rt": 52435, "response": {"gender": "female", "age": "27", "colorblind": "0", "effort": "0"}, "trial_type": "survey-html-form", "trial_index": 63, "time_elapsed": 2111093, "internal_node_id": "0.0-4.0-4.0"}}, {"uniqueid": "w73414741:a62418049", "current_trial": 64, "dateTime": 1691144203246, "trialdata": {"rt": 66365, "response": {"Q0": "No", "Q1": "I have never participated in a Web of Cash HIT before.", "Q2": "This was fun!"}, "trial_type": "survey-text", "trial_index": 64, "time_elapsed": 2177498, "internal_node_id": "0.0-4.0-5.0"}}, {"uniqueid": "w73414741:a62418049", "current_trial": 65, "dateTime": 1691144207502, "trialdata": {"rt": 4225, "stimulus": "Press 'Finish HIT' in order to reach the completion code. Once the data has been saved, you will receive the code either in this window or in the original browser window where you started the experiment.\n", "response": 0, "trial_type": "html-button-response", "trial_index": 65, "time_elapsed": 2181755, "internal_node_id": "0.0-5.0"}}, {"uniqueid": "w73414741:a62418049", "current_trial": 66, "dateTime": 1691144208525, "trialdata": {"success": true, "trial_type": "fullscreen", "trial_index": 66, "time_elapsed": 2182778, "internal_node_id": "0.0-6.0"}}], "questiondata": {"params": {"CODE": "C6DMOQA6", "MIN_TIME": 14, "inspectCost": 1, "startTime": "Fri Aug 04 2023 11:40:10 GMT+0200 (South Africa Standard Time)", "bonusRate": 0.002, "variance": "1_2_4_8_44", "branching": "31123"}, "final_score": 272.6}, "eventdata": [{"eventtype": "initialized", "value": null, "timestamp": 1691142009233, "interval": 0}, {"eventtype": "window_resize", "value": [1024, 654], "timestamp": 1691142009233, "interval": 0}, {"eventtype": "window_resize", "value": [1024, 654], "timestamp": 1691142010189, "interval": 956}, {"eventtype": "window_resize", "value": [1366, 768], "timestamp": 1691142035640, "interval": 25451}, {"eventtype": "focus", "value": "off", "timestamp": 1691142549413, "interval": 513773}, {"eventtype": "focus", "value": "on", "timestamp": 1691142549432, "interval": 19}, {"eventtype": "window_resize", "value": [1024, 654], "timestamp": 1691142549704, "interval": 272}, {"eventtype": "window_resize", "value": [1366, 768], "timestamp": 1691142552130, "interval": 2426}, {"eventtype": "focus", "value": "off", "timestamp": 1691142892981, "interval": 340851}, {"eventtype": "focus", "value": "on", "timestamp": 1691142892982, "interval": 1}, {"eventtype": "window_resize", "value": [1024, 654], "timestamp": 1691142893253, "interval": 271}, {"eventtype": "window_resize", "value": [1366, 768], "timestamp": 1691142895405, "interval": 2152}, {"eventtype": "window_resize", "value": [1024, 654], "timestamp": 1691144207942, "interval": 1312537}], "useragent": "Mozilla/5.0 (Windows NT 10.0; Win64; x64) AppleWebKit/537.36 (KHTML, like Gecko) Chrome/115.0.0.0 Safari/537.36", "mode": "live", "id": "w73414741:a62418049", "status": "user data saved", "Beginhit": "2023-08-04 09:39:54.853574", "Beginexp": "2023-08-04 09:40:37.019894", "Endhit": "2023-08-04 10:16:50.865043", "psiturkStatus": 3, "browser": "<redacted>", "platform": "windows", "language": "en-US"}