{"condition": 1, "counterbalance": 0, "assignmentId": "a29691923", "workerId": "w69349293", "hitId": "h33918410", "currenttrial": 56, "bonus": 0, "data": [{"uniqueid": "w69349293:a29691923", "current_trial": 0, "dateTime": 1691143141895, "trialdata": {"success": true, "trial_type": "fullscreen", "trial_index": 0, "time_elapsed": 10166, "internal_node_id": "0.0-0.0"}}, {"uniqueid": "w69349293:a29691923", "current_trial": 1, "dateTime": 1691143204146, "trialdata": {"view_history": [{"page_index": 0, "viewing_time": 62227}], "rt": 62229, "trial_id": "exp_instructions_misaligned", "trial_type": "instructions", "trial_index": 1, "time_elapsed": 72419, "internal_node_id": "0.0-1.0"}}, {"uniqueid": "w69349293:a29691923", "current_trial": 2, "dateTime": 1691143210929, "trialdata": {"success": true, "trial_type": "fullscreen", "trial_index": 2, "time_elapsed": 79201, "internal_node_id": "0.0-2.0-0.0"}}, {"uniqueid": "w69349293:a29691923", "current_trial": 3, "dateTime": 1691143650938, "trialdata": {"view_history": [{"page_index": 0, "viewing_time": 131997}, {"page_index": 1, "viewing_time": 100658}, {"page_index": 2, "viewing_time": 152554}, {"page_index": 3, "viewing_time": 54786}], "rt": 439996, "trial_id": "mouselab_instructions_1_misaligned", "trial_type": "instructions", "trial_index": 3, "time_elapsed": 519210, "internal_node_id": "0.0-2.0-1.0"}}, {"uniqueid": "w69349293:a29691923", "current_trial": 4, "dateTime": 1691143838541, "trialdata": {"revealed_states": [], "clicked_states": ["12", "13", "14", "15", "16", "18", "17", "22", "1", "2", "7", "4", "6", "5", "3", "10", "8", "9", "11", "23", "24", "25", "30", "31", "32", "33", "26", "27", "29", "28", "19", "20", "21"], "num_clicks_accrued": [0, 0, 0, 0, 0, 0, 0, 0, 0, 0, 0, 0, 0], "stateRewards": ["", 10, 10, 10, 10, 10, 10, -10, 10, -10, 10, -10, -10, -10, 10, 10, 10, 10, 10, 10, 10, -10, 10, -10, -10, -10, -10, 10, 10, -10, 10, 10, 10, -10], "withholdReward": false, "trial_id": "practice_1", "block": "test", "trialIndex": 0, "score": -3, "costs": -16.5, "simulationMode": [null, null, null, null, null], "rewards": [-10, -10, 10, 10, 10], "path": ["0", "0", "12", "13", "14", "15", "16"], "rt": [148115, 734, 721, 805, 775], "actions": ["right", "right", "right", "up", "up"], "actionTimes": [170722, 171968, 173211, 174542, 175826], "queries": {"click": {"state": {"target": ["12", "13", "14", "15", "16", "18", "17", "22", "1", "2", "7", "4", "6", "5", "3", "10", "8", "9", "11", "23", "24", "25", "30", "31", "32", "33", "26", "27", "29", "28", "19", "20", "21"], "time": [27587, 31200, 33489, 35796, 37790, 43276, 46340, 49835, 54188, 56759, 59232, 61919, 64142, 66330, 68680, 71568, 73923, 77450, 79885, 82612, 85486, 87650, 90428, 92586, 94791, 97134, 99331, 101461, 103561, 105619, 109618, 111775, 113315]}, "edge": {"target": [], "time": []}}, "mouseover": {"state": {"target": ["1", "13", "12", "13", "14", "15", "16", "18", "17", "19", "22", "0", "1", "0", "1", "2", "7", "4", "6", "5", "3", "10", "8", "9", "11", "23", "24", "25", "30", "31", "30", "31", "32", "33", "25", "26", "27", "29", "26", "28", "12", "19", "20", "21", "22", "0", "12", "0", "0", "23", "23", "0", "12", "13", "12", "0", "1", "14", "13", "20", "12"], "time": [24872, 25376, 26530, 29855, 32903, 34688, 37420, 42907, 46013, 48895, 49292, 51676, 52153, 53121, 53805, 55572, 58139, 61090, 63573, 65641, 67624, 70706, 72993, 75767, 79155, 82234, 84567, 86951, 89069, 89487, 90205, 91572, 94433, 96824, 98540, 98956, 100949, 103150, 105052, 105307, 106754, 109100, 111222, 112984, 115601, 116189, 117916, 129398, 129665, 132799, 134169, 134349, 142432, 145517, 146936, 147167, 148633, 165748, 165814, 165933, 170065]}, "edge": {"target": [], "time": []}}, "mouseout": {"state": {"target": ["12", "18", "12", "0", "1", "13", "12", "13", "14", "15", "16", "18", "17", "19", "22", "0", "1", "0", "1", "2", "7", "2", "4", "6", "5", "3", "10", "8", "9", "11", "23", "24", "25", "30", "31", "30", "31", "32", "33", "25", "26", "27", "29", "26", "28", "12", "19", "19", "20", "21", "22", "0", "12", "0", "0", "23", "23", "0", "12", "13", "12", "0", "1", "14", "13", "20", "12", "19"], "time": [15762, 16007, 20023, 24835, 24909, 26379, 29805, 32770, 34538, 37221, 42772, 45736, 48443, 48995, 51405, 52110, 52819, 53669, 55474, 58068, 60655, 60925, 63449, 65494, 67424, 70456, 72818, 75563, 78855, 80804, 84261, 86872, 88984, 89101, 89987, 91484, 94070, 95102, 98433, 98589, 100624, 102855, 103772, 105155, 106668, 106769, 109825, 110973, 112768, 115465, 115666, 117449, 129368, 129416, 132768, 132832, 134215, 142419, 145201, 146849, 147104, 148424, 149073, 165780, 165831, 165949, 170168, 185446]}, "edge": {"target": [], "time": []}}}, "displayed_time": "176.35", "trialTime": 185859, "trial_type": "mouselab-mdp", "trial_index": 4, "time_elapsed": 706812, "internal_node_id": "0.0-2.0-2.0-0.0"}}, {"uniqueid": "w69349293:a29691923", "current_trial": 5, "dateTime": 1691143877064, "trialdata": {"revealed_states": [], "clicked_states": [], "num_clicks_accrued": [0, 0, 0, 0, 0, 0, 0, 0, 0, 0, 0, 0, 0], "stateRewards": ["", 10, -10, -10, -10, 10, -10, -10, 10, -10, -10, -10, 10, -10, 10, -10, -10, 10, -10, -10, -10, 10, -10, -10, -10, -10, -10, 10, 10, 10, -10, -10, 10, -10], "withholdReward": false, "trial_id": "practice_2", "block": "test", "trialIndex": 1, "score": -6.5, "costs": 0, "simulationMode": [null, null, null, null, null], "rewards": [10, -10, -10, 10, -10], "path": ["0", "0", "1", "2", "3", "8", "9"], "rt": [6751, 2861, 2025, 1699, 861], "actions": ["up", "up", "up", "left", "up"], "actionTimes": [25826, 29211, 31737, 33940, 35300], "queries": {"click": {"state": {"target": [], "time": []}, "edge": {"target": [], "time": []}}, "mouseover": {"state": {"target": ["0", "12", "15", "16"], "time": [22677, 23518, 23727, 23769]}, "edge": {"target": [], "time": []}}, "mouseout": {"state": {"target": ["6", "7", "1", "0", "0", "12", "15", "16"], "time": [17160, 17201, 17289, 17889, 23487, 23553, 23738, 24069]}, "edge": {"target": [], "time": []}}}, "displayed_time": "35.82", "trialTime": 38043, "trial_type": "mouselab-mdp", "trial_index": 5, "time_elapsed": 745336, "internal_node_id": "0.0-2.0-2.0-1.0"}}, {"uniqueid": "w69349293:a29691923", "current_trial": 6, "dateTime": 1691144100061, "trialdata": {"view_history": [{"page_index": 0, "viewing_time": 203722}, {"page_index": 1, "viewing_time": 19267}], "rt": 222990, "trial_id": "mouselab_instructions_2_misaligned", "trial_type": "instructions", "trial_index": 6, "time_elapsed": 968334, "internal_node_id": "0.0-2.0-3.0"}}, {"uniqueid": "w69349293:a29691923", "current_trial": 7, "dateTime": 1691144330564, "trialdata": {"rt": 230489, "response": {"Q0": "The cost for clicking on nodes may vary between nodes.", "Q1": "The better I perform the higher my bonus will be.", "Q2": "No, the amount of cash at each node of the web may be different each time.", "Q3": "To get the highest total score.", "Q4": "Only before moving the spider.", "Q5": "3 seconds"}, "question_order": [0, 1, 2, 3, 4, 5], "correct": {"Q0": "The cost for clicking on nodes may vary between nodes.", "Q1": "The better I perform the higher my bonus will be.", "Q2": "No, the amount of cash at each node of the web may be different each time.", "Q3": "To get the highest total score.", "Q4": "Only before moving the spider.", "Q5": "3 seconds"}, "trial_id": "mouselab_quiz_misaligned", "trial_type": "survey-multi-choice", "trial_index": 7, "time_elapsed": 1198836, "internal_node_id": "0.0-2.0-4.0"}}, {"uniqueid": "w69349293:a29691923", "current_trial": 8, "dateTime": 1691144353563, "trialdata": {"rt": 22975, "stimulus": "\n<h1> Get ready to start the game! </h1>\n\nThank you for reading the instructions. Get ready start with the 40 rounds of this game.\n<br><br>\nIf you need to take a break, feel free to take one after the end of a round, before continuing to the next one.\n<br><br>\nRemember, the more money the spider gets, the bigger your bonus will be!\n<br><br>\n<div style='text-align: center;'>Press <code>space</code> to begin.</div>\n\n<br><br>\n(If, at any point, the <code>space</code> key does not take you to the next page, click once on the text and try again.)", "response": " ", "trial_id": "mdp_ready", "trial_type": "html-keyboard-response", "trial_index": 8, "time_elapsed": 1221836, "internal_node_id": "0.0-4.0-0.0"}}, {"uniqueid": "w69349293:a29691923", "current_trial": 9, "dateTime": 1691144377972, "trialdata": {"revealed_states": [], "clicked_states": [], "num_clicks_accrued": [0, 0, 0, 0, 0, 0, 0, 0, 0, 0, 0, 0, 0], "stateRewards": ["", -1, 1, 6, -6, 70, 66, 67, -16, -75, -35, 37, -1, 4, 4, -6, 47, -9, 63, 15, 21, -63, 13, 1, 3, -6, 10, 79, -29, 18, -15, 9, -67, -19], "withholdReward": false, "trial_id": "mdp_trial_1", "block": "test", "trialIndex": 2, "score": -8, "costs": 0, "simulationMode": [null, null, null, null, null], "rewards": [1, 3, -6, -15, 9], "path": ["0", "0", "23", "24", "25", "30", "31"], "rt": [2222, 2143, 4244, 2597, 1118], "actions": ["left", "left", "left", "down", "right"], "actionTimes": [8426, 11088, 15839, 18939, 20575], "queries": {"click": {"state": {"target": [], "time": []}, "edge": {"target": [], "time": []}}, "mouseover": {"state": {"target": [], "time": []}, "edge": {"target": [], "time": []}}, "mouseout": {"state": {"target": ["1", "7", "7", "18", "14", "19", "0", "0", "28", "26", "25", "25"], "time": [3239, 3304, 3620, 3653, 3721, 5239, 5703, 12005, 12287, 12788, 17055, 21869]}, "edge": {"target": [], "time": []}}}, "displayed_time": "21.07", "trialTime": 23959, "trial_type": "mouselab-mdp", "trial_index": 9, "time_elapsed": 1246243, "internal_node_id": "0.0-4.0-1.0-0.0"}}, {"uniqueid": "w69349293:a29691923", "current_trial": 10, "dateTime": 1691144466325, "trialdata": {"revealed_states": [], "clicked_states": ["2", "7"], "num_clicks_accrued": [0, 0, 0, 0, 0, 0, 0, 0, 0, 0, 0, 0, 0], "stateRewards": ["", -2, 4, -3, -13, 63, -36, 62, 11, 78, 34, -51, 2, -2, 8, -6, -40, -18, 31, 9, 64, 39, 79, 1, 4, -4, 15, -12, 76, 73, -10, -77, 86, -4], "withholdReward": false, "trial_id": "mdp_trial_2", "block": "test", "trialIndex": 3, "score": 46.5, "costs": -2.5, "simulationMode": [null, null, null, null, null], "rewards": [-2, 4, -3, -13, 63], "path": ["0", "0", "1", "2", "3", "4", "5"], "rt": [9956, 1565, 1150, 705, 966], "actions": ["up", "up", "up", "right", "up"], "actionTimes": [14940, 17016, 18664, 19869, 21331], "queries": {"click": {"state": {"target": ["2", "7"], "time": [7724, 9632]}, "edge": {"target": [], "time": []}}, "mouseover": {"state": {"target": ["2", "8", "8", "2", "7", "10", "1"], "time": [5696, 6327, 6668, 7216, 9429, 11665, 13462]}, "edge": {"target": [], "time": []}}, "mouseout": {"state": {"target": ["25", "24", "0", "2", "8", "8", "2", "7", "2", "10", "1"], "time": [1411, 1514, 5639, 6027, 6532, 7027, 9249, 10384, 10719, 13112, 13477]}, "edge": {"target": [], "time": []}}}, "displayed_time": "21.85", "trialTime": 87855, "trial_type": "mouselab-mdp", "trial_index": 10, "time_elapsed": 1334597, "internal_node_id": "0.0-4.0-1.0-1.0"}}, {"uniqueid": "w69349293:a29691923", "current_trial": 11, "dateTime": 1691144487314, "trialdata": {"revealed_states": [], "clicked_states": ["23", "26"], "num_clicks_accrued": [0, 0, 0, 0, 0, 0, 0, 0, 0, 0, 0, 0, 0], "stateRewards": ["", 1, 3, 3, -10, 52, 68, 59, 12, 7, 49, 21, -2, -3, -4, -2, -2, 63, 63, -4, 44, 43, -76, -2, -3, -6, 13, 48, 36, 12, -5, -36, -33, -11], "withholdReward": false, "trial_id": "mdp_trial_3", "block": "test", "trialIndex": 4, "score": 48.7, "costs": -1.3, "simulationMode": [null, null, null, null, null], "rewards": [-2, -3, -6, 13, 48], "path": ["0", "0", "23", "24", "25", "26", "27"], "rt": [6850, 445, 566, 606, 315], "actions": ["left", "left", "left", "up", "up"], "actionTimes": [9215, 10180, 11251, 12383, 13219], "queries": {"click": {"state": {"target": ["23", "26"], "time": [4873, 6573]}, "edge": {"target": [], "time": []}}, "mouseover": {"state": {"target": ["28", "24", "23", "23", "24", "26", "28"], "time": [3170, 3704, 4088, 4389, 5852, 6271, 7971]}, "edge": {"target": [], "time": []}}, "mouseout": {"state": {"target": ["1", "28", "24", "23", "23", "24", "26", "28"], "time": [1315, 3417, 4056, 4101, 5809, 5886, 7440, 8088]}, "edge": {"target": [], "time": []}}}, "displayed_time": "16.37", "trialTime": 20535, "trial_type": "mouselab-mdp", "trial_index": 11, "time_elapsed": 1355586, "internal_node_id": "0.0-4.0-1.0-2.0"}}, {"uniqueid": "w69349293:a29691923", "current_trial": 12, "dateTime": 1691144511634, "trialdata": {"revealed_states": [], "clicked_states": [], "num_clicks_accrued": [0, 0, 0, 0, 0, 0, 0, 0, 0, 0, 0, 0, 0], "stateRewards": ["", -2, 2, -1, -6, 22, 6, 6, -5, 70, -42, 65, 1, 3, 5, -6, -67, -9, 3, 14, 7, -62, -13, -2, 4, 1, 16, 42, -21, -52, -8, 32, 53, 81], "withholdReward": false, "trial_id": "mdp_trial_4", "block": "test", "trialIndex": 5, "score": -39, "costs": 0, "simulationMode": [null, null, null, null, null], "rewards": [1, 3, 5, 14, -62], "path": ["0", "0", "12", "13", "14", "19", "21"], "rt": [10549, 1352, 399, 553, 1387], "actions": ["right", "right", "right", "down", "down"], "actionTimes": [13361, 15334, 16254, 17328, 19240], "queries": {"click": {"state": {"target": [], "time": []}, "edge": {"target": [], "time": []}}, "mouseover": {"state": {"target": ["16", "12"], "time": [6954, 10524]}, "edge": {"target": [], "time": []}}, "mouseout": {"state": {"target": ["23", "16", "12", "13", "12"], "time": [1299, 8639, 14723, 23265, 23354]}, "edge": {"target": [], "time": []}}}, "displayed_time": "19.74", "trialTime": 23723, "trial_type": "mouselab-mdp", "trial_index": 12, "time_elapsed": 1379905, "internal_node_id": "0.0-4.0-1.0-3.0"}}, {"uniqueid": "w69349293:a29691923", "current_trial": 13, "dateTime": 1691144532748, "trialdata": {"revealed_states": [], "clicked_states": ["1", "2"], "num_clicks_accrued": [0, 0, 0, 0, 0, 0, 0, 0, 0, 0, 0, 0, 0], "stateRewards": ["", -1, -4, 8, 8, -68, 47, 24, -7, -61, 49, -69, -1, -1, 8, -7, 42, 1, -45, -11, 10, -63, -6, 1, 4, 6, -16, 79, -37, -58, -12, 81, 18, -53], "withholdReward": false, "trial_id": "mdp_trial_5", "block": "test", "trialIndex": 6, "score": -65.1, "costs": -0.09999999999999998, "simulationMode": [null, null, null, null, null], "rewards": [-1, -4, 8, -7, -61], "path": ["0", "0", "1", "2", "3", "8", "9"], "rt": [3036, 640, 626, 412, 883], "actions": ["up", "up", "up", "left", "up"], "actionTimes": [7066, 8224, 9381, 10317, 11698], "queries": {"click": {"state": {"target": ["1", "2"], "time": [4795, 5932]}, "edge": {"target": [], "time": []}}, "mouseover": {"state": {"target": ["1", "2"], "time": [4515, 5623]}, "edge": {"target": [], "time": []}}, "mouseout": {"state": {"target": ["1", "1"], "time": [1862, 5529]}, "edge": {"target": [], "time": []}}}, "displayed_time": "18.03", "trialTime": 20486, "trial_type": "mouselab-mdp", "trial_index": 13, "time_elapsed": 1401020, "internal_node_id": "0.0-4.0-1.0-4.0"}}, {"uniqueid": "w69349293:a29691923", "current_trial": 14, "dateTime": 1691144557997, "trialdata": {"revealed_states": [], "clicked_states": [], "num_clicks_accrued": [0, 0, 0, 0, 0, 0, 0, 0, 0, 0, 0, 0, 0], "stateRewards": ["", 2, 4, -6, -13, -75, -81, 30, 7, 5, 59, -65, -1, -1, 7, 14, -38, 36, -41, 1, -54, -5, 64, 2, -1, 5, 6, -19, 79, 11, 16, -33, -50, 58], "withholdReward": false, "trial_id": "mdp_trial_6", "block": "test", "trialIndex": 7, "score": -11, "costs": 0, "simulationMode": [null, null, null, null, null], "rewards": [2, -1, 5, 16, -33], "path": ["0", "0", "23", "24", "25", "30", "31"], "rt": [2823, 654, 730, 665, 550], "actions": ["left", "left", "left", "down", "right"], "actionTimes": [5060, 6215, 7458, 8637, 9699], "queries": {"click": {"state": {"target": [], "time": []}, "edge": {"target": [], "time": []}}, "mouseover": {"state": {"target": [], "time": []}, "edge": {"target": [], "time": []}}, "mouseout": {"state": {"target": ["2", "1", "0"], "time": [1171, 1239, 3358]}, "edge": {"target": [], "time": []}}}, "displayed_time": "16.24", "trialTime": 24628, "trial_type": "mouselab-mdp", "trial_index": 14, "time_elapsed": 1426268, "internal_node_id": "0.0-4.0-1.0-5.0"}}, {"uniqueid": "w69349293:a29691923", "current_trial": 15, "dateTime": 1691144577150, "trialdata": {"revealed_states": [], "clicked_states": ["23", "24"], "num_clicks_accrued": [0, 0, 0, 0, 0, 0, 0, 0, 0, 0, 0, 0, 0], "stateRewards": ["", 2, -1, -3, 16, -3, -16, -62, -1, 13, -26, 43, -1, 4, 3, -9, -54, -37, -3, -12, -71, -68, -57, 1, -3, 2, -9, 2, -2, -9, -11, 84, -52, 55], "withholdReward": false, "trial_id": "mdp_trial_7", "block": "test", "trialIndex": 8, "score": -11.1, "costs": -0.09999999999999998, "simulationMode": [null, null, null, null, null], "rewards": [1, -3, 2, -9, -2], "path": ["0", "0", "23", "24", "25", "26", "28"], "rt": [3682, 399, 362, 941, 476], "actions": ["left", "left", "left", "up", "right"], "actionTimes": [5717, 6653, 7529, 8974, 9973], "queries": {"click": {"state": {"target": ["23", "24"], "time": [3708, 4971]}, "edge": {"target": [], "time": []}}, "mouseover": {"state": {"target": ["12", "1", "1", "23", "24"], "time": [2750, 2927, 3318, 3444, 4632]}, "edge": {"target": [], "time": []}}, "mouseout": {"state": {"target": ["0", "12", "1", "1", "23", "24"], "time": [2583, 2901, 2941, 3395, 3787, 17812]}, "edge": {"target": [], "time": []}}}, "displayed_time": "16.04", "trialTime": 18488, "trial_type": "mouselab-mdp", "trial_index": 15, "time_elapsed": 1445422, "internal_node_id": "0.0-4.0-1.0-6.0"}}, {"uniqueid": "w69349293:a29691923", "current_trial": 16, "dateTime": 1691144598969, "trialdata": {"revealed_states": [], "clicked_states": [], "num_clicks_accrued": [0, 0, 0, 0, 0, 0, 0, 0, 0, 0, 0, 0, 0], "stateRewards": ["", -1, -1, 7, -15, -43, -21, -84, -9, -45, -66, 2, 1, -2, 2, 8, -27, 44, -52, -5, -84, 11, 53, 1, 4, -4, 16, 83, -82, -15, -16, 68, -43, 81], "withholdReward": false, "trial_id": "mdp_trial_8", "block": "test", "trialIndex": 9, "score": -70, "costs": 0, "simulationMode": [null, null, null, null, null], "rewards": [-1, -1, 7, -9, -66], "path": ["0", "0", "1", "2", "3", "8", "10"], "rt": [4592, 555, 692, 1016, 747], "actions": ["up", "up", "up", "left", "down"], "actionTimes": [6689, 7765, 8952, 10476, 11724], "queries": {"click": {"state": {"target": [], "time": []}, "edge": {"target": [], "time": []}}, "mouseover": {"state": {"target": [], "time": []}, "edge": {"target": [], "time": []}}, "mouseout": {"state": {"target": ["24", "0", "0"], "time": [1075, 6942, 7239]}, "edge": {"target": [], "time": []}}}, "displayed_time": "16.10", "trialTime": 21202, "trial_type": "mouselab-mdp", "trial_index": 16, "time_elapsed": 1467240, "internal_node_id": "0.0-4.0-1.0-7.0"}}, {"uniqueid": "w69349293:a29691923", "current_trial": 17, "dateTime": 1691144619640, "trialdata": {"revealed_states": [], "clicked_states": ["12", "13"], "num_clicks_accrued": [0, 0, 0, 0, 0, 0, 0, 0, 0, 0, 0, 0, 0], "stateRewards": ["", -1, -3, -5, -14, -13, -47, 79, 8, -60, -64, 41, -1, 2, 3, 13, -46, 61, -79, -11, -64, -65, 23, 1, -2, 6, -14, 46, 32, 21, 7, 75, -66, 15], "withholdReward": false, "trial_id": "mdp_trial_9", "block": "test", "trialIndex": 10, "score": -62.1, "costs": -0.09999999999999998, "simulationMode": [null, null, null, null, null], "rewards": [-1, 2, 3, 13, -79], "path": ["0", "0", "12", "13", "14", "15", "18"], "rt": [3221, 421, 582, 528, 574], "actions": ["right", "right", "right", "up", "left"], "actionTimes": [6667, 7603, 8701, 9744, 10840], "queries": {"click": {"state": {"target": ["12", "13"], "time": [4310, 5292]}, "edge": {"target": [], "time": []}}, "mouseover": {"state": {"target": ["12", "13", "0"], "time": [4113, 5012, 6345]}, "edge": {"target": [], "time": []}}, "mouseout": {"state": {"target": ["12", "12", "13", "12"], "time": [4461, 4946, 6065, 6212]}, "edge": {"target": [], "time": []}}}, "displayed_time": "17.45", "trialTime": 20063, "trial_type": "mouselab-mdp", "trial_index": 17, "time_elapsed": 1487911, "internal_node_id": "0.0-4.0-1.0-8.0"}}, {"uniqueid": "w69349293:a29691923", "current_trial": 18, "dateTime": 1691144639234, "trialdata": {"revealed_states": [], "clicked_states": [], "num_clicks_accrued": [0, 0, 0, 0, 0, 0, 0, 0, 0, 0, 0, 0, 0], "stateRewards": ["", 2, -2, 7, -11, -76, -65, -23, 16, -58, 30, 81, 1, 2, 7, 14, 9, 55, -2, 6, 11, -15, 31, -1, -1, -3, 2, 15, 2, 46, 15, 18, 45, -34], "withholdReward": false, "trial_id": "mdp_trial_10", "block": "test", "trialIndex": 11, "score": 43, "costs": 0, "simulationMode": [null, null, null, null, null], "rewards": [-1, -1, -3, 2, 46], "path": ["0", "0", "23", "24", "25", "26", "29"], "rt": [1198, 456, 430, 623, 214], "actions": ["left", "left", "left", "up", "left"], "actionTimes": [3163, 4137, 5079, 6221, 6946], "queries": {"click": {"state": {"target": [], "time": []}, "edge": {"target": [], "time": []}}, "mouseover": {"state": {"target": [], "time": []}, "edge": {"target": [], "time": []}}, "mouseout": {"state": {"target": ["0"], "time": [15477]}, "edge": {"target": [], "time": []}}}, "displayed_time": "15.97", "trialTime": 18876, "trial_type": "mouselab-mdp", "trial_index": 18, "time_elapsed": 1507506, "internal_node_id": "0.0-4.0-1.0-9.0"}}, {"uniqueid": "w69349293:a29691923", "current_trial": 19, "dateTime": 1691144753254, "trialdata": {"revealed_states": [], "clicked_states": [], "num_clicks_accrued": [0, 0, 0, 0, 0, 0, 0, 0, 0, 0, 0, 0, 0], "stateRewards": ["", -2, -3, 8, -4, -30, 31, 69, 9, 66, 87, 64, -2, 2, 8, 5, 47, 16, -39, -8, -54, 51, -19, 1, -2, -2, -11, -25, -26, 43, -9, 19, -84, 86], "withholdReward": false, "trial_id": "mdp_trial_11", "block": "test", "trialIndex": 12, "score": 99, "costs": 0, "simulationMode": [null, null, null, null, null], "rewards": [-2, -3, 8, 9, 87], "path": ["0", "0", "1", "2", "3", "8", "10"], "rt": [1645, 636, 962, 948, 654], "actions": ["up", "up", "up", "left", "down"], "actionTimes": [4342, 5495, 7051, 8525, 9694], "queries": {"click": {"state": {"target": [], "time": []}, "edge": {"target": [], "time": []}}, "mouseover": {"state": {"target": [], "time": []}, "edge": {"target": [], "time": []}}, "mouseout": {"state": {"target": ["0", "0"], "time": [1221, 14401]}, "edge": {"target": [], "time": []}}}, "displayed_time": "16.70", "trialTime": 113336, "trial_type": "mouselab-mdp", "trial_index": 19, "time_elapsed": 1621525, "internal_node_id": "0.0-4.0-1.0-10.0"}}, {"uniqueid": "w69349293:a29691923", "current_trial": 20, "dateTime": 1691144873730, "trialdata": {"revealed_states": [], "clicked_states": [], "num_clicks_accrued": [0, 0, 0, 0, 0, 0, 0, 0, 0, 0, 0, 0, 0], "stateRewards": ["", -1, -3, -7, -4, -85, -70, 79, 8, 84, -66, 42, 2, -2, -3, -16, -54, -66, 68, -3, 21, -14, 7, -2, -1, -3, -8, 75, 80, 86, -7, -84, 73, -16], "withholdReward": false, "trial_id": "mdp_trial_12", "block": "test", "trialIndex": 13, "score": 60, "costs": 0, "simulationMode": [null, null, null, null, null], "rewards": [-2, -1, -3, -7, 73], "path": ["0", "0", "23", "24", "25", "30", "32"], "rt": [2809, 714, 673, 1660, 422], "actions": ["left", "left", "left", "down", "down"], "actionTimes": [9203, 10439, 11614, 17913, 18847], "queries": {"click": {"state": {"target": [], "time": []}, "edge": {"target": [], "time": []}}, "mouseover": {"state": {"target": [], "time": []}, "edge": {"target": [], "time": []}}, "mouseout": {"state": {"target": ["0", "0"], "time": [4988, 40488]}, "edge": {"target": [], "time": []}}}, "displayed_time": "20.40", "trialTime": 119903, "trial_type": "mouselab-mdp", "trial_index": 20, "time_elapsed": 1742001, "internal_node_id": "0.0-4.0-1.0-11.0"}}, {"uniqueid": "w69349293:a29691923", "current_trial": 21, "dateTime": 1691144893502, "trialdata": {"revealed_states": [], "clicked_states": [], "num_clicks_accrued": [0, 0, 0, 0, 0, 0, 0, 0, 0, 0, 0, 0, 0], "stateRewards": ["", 2, -4, -4, 13, -80, 62, 13, -11, 57, -13, -44, 1, 4, 3, -4, -29, -88, 15, 16, -58, 68, -45, -1, -3, -1, -9, -44, -86, -19, -7, -36, 59, 66], "withholdReward": false, "trial_id": "mdp_trial_13", "block": "test", "trialIndex": 14, "score": 69, "costs": 0, "simulationMode": [null, null, null, null, null], "rewards": [2, -4, -4, 13, 62], "path": ["0", "0", "1", "2", "3", "4", "6"], "rt": [2085, 833, 640, 802, 355], "actions": ["up", "up", "up", "right", "right"], "actionTimes": [4575, 5942, 7076, 8392, 9244], "queries": {"click": {"state": {"target": [], "time": []}, "edge": {"target": [], "time": []}}, "mouseover": {"state": {"target": [], "time": []}, "edge": {"target": [], "time": []}}, "mouseout": {"state": {"target": ["0"], "time": [3166]}, "edge": {"target": [], "time": []}}}, "displayed_time": "16.49", "trialTime": 19077, "trial_type": "mouselab-mdp", "trial_index": 21, "time_elapsed": 1761774, "internal_node_id": "0.0-4.0-1.0-12.0"}}, {"uniqueid": "w69349293:a29691923", "current_trial": 22, "dateTime": 1691144912583, "trialdata": {"revealed_states": [], "clicked_states": [], "num_clicks_accrued": [0, 0, 0, 0, 0, 0, 0, 0, 0, 0, 0, 0, 0], "stateRewards": ["", 2, -3, -5, 5, 11, -9, -33, 6, 67, 6, -30, -1, -2, -6, 13, 55, 13, 72, -14, 75, 21, -66, -2, -4, 6, 15, -1, -35, 60, 2, 51, -73, 12], "withholdReward": false, "trial_id": "mdp_trial_14", "block": "test", "trialIndex": 15, "score": -89, "costs": 0, "simulationMode": [null, null, null, null, null], "rewards": [-1, -2, -6, -14, -66], "path": ["0", "0", "12", "13", "14", "19", "22"], "rt": [953, 427, 523, 407, 604], "actions": ["right", "right", "right", "down", "left"], "actionTimes": [3270, 4206, 5232, 6135, 7246], "queries": {"click": {"state": {"target": [], "time": []}, "edge": {"target": [], "time": []}}, "mouseover": {"state": {"target": [], "time": []}, "edge": {"target": [], "time": []}}, "mouseout": {"state": {"target": ["0"], "time": [857]}, "edge": {"target": [], "time": []}}}, "displayed_time": "16.32", "trialTime": 18367, "trial_type": "mouselab-mdp", "trial_index": 22, "time_elapsed": 1780855, "internal_node_id": "0.0-4.0-1.0-13.0"}}, {"uniqueid": "w69349293:a29691923", "current_trial": 23, "dateTime": 1691144931520, "trialdata": {"revealed_states": [], "clicked_states": [], "num_clicks_accrued": [0, 0, 0, 0, 0, 0, 0, 0, 0, 0, 0, 0, 0], "stateRewards": ["", -1, 2, -2, 5, 80, -61, -27, 12, 44, -26, -75, -2, -4, 1, -16, 42, -49, -50, 4, -44, 2, 80, -2, -2, 5, -2, 59, 10, 24, 7, -48, -86, -44], "withholdReward": false, "trial_id": "mdp_trial_15", "block": "test", "trialIndex": 16, "score": 84, "costs": 0, "simulationMode": [null, null, null, null, null], "rewards": [-1, 2, -2, 5, 80], "path": ["0", "0", "1", "2", "3", "4", "5"], "rt": [1811, 693, 663, 897, 824], "actions": ["up", "up", "up", "right", "up"], "actionTimes": [3524, 4740, 5909, 7310, 8637], "queries": {"click": {"state": {"target": [], "time": []}, "edge": {"target": [], "time": []}}, "mouseover": {"state": {"target": [], "time": []}, "edge": {"target": [], "time": []}}, "mouseout": {"state": {"target": [], "time": []}, "edge": {"target": [], "time": []}}}, "displayed_time": "15.72", "trialTime": 18156, "trial_type": "mouselab-mdp", "trial_index": 23, "time_elapsed": 1799792, "internal_node_id": "0.0-4.0-1.0-14.0"}}, {"uniqueid": "w69349293:a29691923", "current_trial": 24, "dateTime": 1691144951231, "trialdata": {"revealed_states": [], "clicked_states": [], "num_clicks_accrued": [0, 0, 0, 0, 0, 0, 0, 0, 0, 0, 0, 0, 0], "stateRewards": ["", -1, -2, 4, 9, 10, -75, 39, 16, -43, 88, -19, -1, 1, 2, 4, -31, 10, 73, 12, 41, -64, -81, -2, 2, -6, 1, -81, -1, -26, 3, -59, -3, -20], "withholdReward": false, "trial_id": "mdp_trial_16", "block": "test", "trialIndex": 17, "score": 16, "costs": 0, "simulationMode": [null, null, null, null, null], "rewards": [-1, 1, 2, 4, 10], "path": ["0", "0", "12", "13", "14", "15", "17"], "rt": [982, 598, 594, 462, 758], "actions": ["right", "right", "right", "up", "right"], "actionTimes": [2825, 3981, 5118, 6085, 7347], "queries": {"click": {"state": {"target": [], "time": []}, "edge": {"target": [], "time": []}}, "mouseover": {"state": {"target": [], "time": []}, "edge": {"target": [], "time": []}}, "mouseout": {"state": {"target": [], "time": []}, "edge": {"target": [], "time": []}}}, "displayed_time": "15.85", "trialTime": 18872, "trial_type": "mouselab-mdp", "trial_index": 24, "time_elapsed": 1819502, "internal_node_id": "0.0-4.0-1.0-15.0"}}, {"uniqueid": "w69349293:a29691923", "current_trial": 25, "dateTime": 1691144971694, "trialdata": {"revealed_states": [], "clicked_states": ["1"], "num_clicks_accrued": [0, 0, 0, 0, 0, 0, 0, 0, 0, 0, 0, 0, 0], "stateRewards": ["", -1, 2, 7, 8, 75, 67, -11, 6, 52, -17, 38, -1, 4, -8, 14, 74, -37, -17, -12, 52, 55, 71, -2, -1, -5, 2, 21, 6, -88, -14, 64, -61, -47], "withholdReward": false, "trial_id": "mdp_trial_17", "block": "test", "trialIndex": 18, "score": 52.25, "costs": 0.25, "simulationMode": [null, null, null, null, null], "rewards": [-1, 2, 7, 6, 38], "path": ["0", "0", "1", "2", "3", "8", "11"], "rt": [2291, 647, 465, 357, 337], "actions": ["up", "up", "up", "left", "left"], "actionTimes": [5104, 6258, 7227, 8101, 8932], "queries": {"click": {"state": {"target": ["1"], "time": [3852]}, "edge": {"target": [], "time": []}}, "mouseover": {"state": {"target": ["1"], "time": [3493]}, "edge": {"target": [], "time": []}}, "mouseout": {"state": {"target": ["0", "1"], "time": [3464, 3966]}, "edge": {"target": [], "time": []}}}, "displayed_time": "16.82", "trialTime": 19649, "trial_type": "mouselab-mdp", "trial_index": 25, "time_elapsed": 1839966, "internal_node_id": "0.0-4.0-1.0-16.0"}}, {"uniqueid": "w69349293:a29691923", "current_trial": 26, "dateTime": 1691144990383, "trialdata": {"revealed_states": [], "clicked_states": [], "num_clicks_accrued": [0, 0, 0, 0, 0, 0, 0, 0, 0, 0, 0, 0, 0], "stateRewards": ["", 1, -2, -8, -13, 4, 34, -84, -4, -49, 88, -70, -1, 3, -4, 10, -77, 13, -34, 15, -21, -16, 27, 1, -2, 8, -8, -6, 38, -26, 6, -15, 66, -3], "withholdReward": false, "trial_id": "mdp_trial_18", "block": "test", "trialIndex": 19, "score": 10, "costs": 0, "simulationMode": [null, null, null, null, null], "rewards": [1, -2, 8, 6, -3], "path": ["0", "0", "23", "24", "25", "30", "33"], "rt": [640, 388, 360, 416, 779], "actions": ["left", "left", "left", "down", "left"], "actionTimes": [2767, 3684, 4538, 5479, 6776], "queries": {"click": {"state": {"target": [], "time": []}, "edge": {"target": [], "time": []}}, "mouseover": {"state": {"target": [], "time": []}, "edge": {"target": [], "time": []}}, "mouseout": {"state": {"target": ["1"], "time": [1158]}, "edge": {"target": [], "time": []}}}, "displayed_time": "16.13", "trialTime": 17903, "trial_type": "mouselab-mdp", "trial_index": 26, "time_elapsed": 1858654, "internal_node_id": "0.0-4.0-1.0-17.0"}}, {"uniqueid": "w69349293:a29691923", "current_trial": 27, "dateTime": 1691145010952, "trialdata": {"revealed_states": [], "clicked_states": [], "num_clicks_accrued": [0, 0, 0, 0, 0, 0, 0, 0, 0, 0, 0, 0, 0], "stateRewards": ["", -1, 4, -8, 12, 14, 69, -8, 5, -72, -14, 56, -1, -1, -1, 9, 67, 19, 11, -9, -88, -58, 3, 2, -4, -8, 4, 62, 77, -74, 5, -31, 65, 88], "withholdReward": false, "trial_id": "mdp_trial_19", "block": "test", "trialIndex": 20, "score": 17, "costs": 0, "simulationMode": [null, null, null, null, null], "rewards": [-1, -1, -1, 9, 11], "path": ["0", "0", "12", "13", "14", "15", "18"], "rt": [962, 629, 617, 371, 453], "actions": ["right", "right", "right", "up", "left"], "actionTimes": [3154, 4301, 5426, 6291, 7257], "queries": {"click": {"state": {"target": [], "time": []}, "edge": {"target": [], "time": []}}, "mouseover": {"state": {"target": [], "time": []}, "edge": {"target": [], "time": []}}, "mouseout": {"state": {"target": ["0"], "time": [1436]}, "edge": {"target": [], "time": []}}}, "displayed_time": "16.20", "trialTime": 19800, "trial_type": "mouselab-mdp", "trial_index": 27, "time_elapsed": 1879224, "internal_node_id": "0.0-4.0-1.0-18.0"}}, {"uniqueid": "w69349293:a29691923", "current_trial": 28, "dateTime": 1691145031401, "trialdata": {"revealed_states": [], "clicked_states": [], "num_clicks_accrued": [0, 0, 0, 0, 0, 0, 0, 0, 0, 0, 0, 0, 0], "stateRewards": ["", -2, 4, -7, -3, -76, 39, -28, 10, 14, 12, 60, 2, -3, 6, -10, 88, -34, -41, -3, 72, -13, -56, 1, 3, 2, 8, -51, 23, -57, 1, 14, -46, -16], "withholdReward": false, "trial_id": "mdp_trial_20", "block": "test", "trialIndex": 21, "score": -39, "costs": 0, "simulationMode": [null, null, null, null, null], "rewards": [2, -3, 6, -10, -34], "path": ["0", "0", "12", "13", "14", "15", "17"], "rt": [944, 572, 504, 411, 343], "actions": ["right", "right", "right", "up", "right"], "actionTimes": [3890, 4962, 5963, 6884, 7732], "queries": {"click": {"state": {"target": [], "time": []}, "edge": {"target": [], "time": []}}, "mouseover": {"state": {"target": [], "time": []}, "edge": {"target": [], "time": []}}, "mouseout": {"state": {"target": ["0"], "time": [2507]}, "edge": {"target": [], "time": []}}}, "displayed_time": "16.95", "trialTime": 19401, "trial_type": "mouselab-mdp", "trial_index": 28, "time_elapsed": 1899672, "internal_node_id": "0.0-4.0-1.0-19.0"}}, {"uniqueid": "w69349293:a29691923", "current_trial": 29, "dateTime": 1691145051221, "trialdata": {"revealed_states": [], "clicked_states": [], "num_clicks_accrued": [0, 0, 0, 0, 0, 0, 0, 0, 0, 0, 0, 0, 0], "stateRewards": ["", -2, -1, -1, 5, -54, -87, 35, 2, -8, 20, -22, 1, 3, 6, 13, -75, -32, -55, -3, 56, 62, -22, -1, -4, -1, -7, -51, 84, 70, 7, -15, 5, 55], "withholdReward": false, "trial_id": "mdp_trial_21", "block": "test", "trialIndex": 22, "score": -14, "costs": 0, "simulationMode": [null, null, null, null, null], "rewards": [-1, -4, -1, 7, -15], "path": ["0", "0", "23", "24", "25", "30", "31"], "rt": [895, 926, 342, 172, 350], "actions": ["left", "left", "left", "down", "right"], "actionTimes": [3732, 5176, 6024, 6704, 7605], "queries": {"click": {"state": {"target": [], "time": []}, "edge": {"target": [], "time": []}}, "mouseover": {"state": {"target": [], "time": []}, "edge": {"target": [], "time": []}}, "mouseout": {"state": {"target": ["0"], "time": [1413]}, "edge": {"target": [], "time": []}}}, "displayed_time": "16.84", "trialTime": 18999, "trial_type": "mouselab-mdp", "trial_index": 29, "time_elapsed": 1919493, "internal_node_id": "0.0-4.0-1.0-20.0"}}, {"uniqueid": "w69349293:a29691923", "current_trial": 30, "dateTime": 1691145070375, "trialdata": {"revealed_states": [], "clicked_states": [], "num_clicks_accrued": [0, 0, 0, 0, 0, 0, 0, 0, 0, 0, 0, 0, 0], "stateRewards": ["", -2, -4, -2, -13, -15, 87, -19, -6, -80, 30, 12, 1, 1, -8, 2, 55, 56, 15, 11, -68, -7, 55, -2, 3, -3, -3, 48, 62, 4, 1, -3, 69, -33], "withholdReward": false, "trial_id": "mdp_trial_22", "block": "test", "trialIndex": 23, "score": -40, "costs": 0, "simulationMode": [null, null, null, null, null], "rewards": [-2, -4, -2, -13, -19], "path": ["0", "0", "1", "2", "3", "4", "7"], "rt": [833, 385, 509, 530, 448], "actions": ["up", "up", "up", "right", "down"], "actionTimes": [3834, 4756, 5780, 6834, 7785], "queries": {"click": {"state": {"target": [], "time": []}, "edge": {"target": [], "time": []}}, "mouseover": {"state": {"target": [], "time": []}, "edge": {"target": [], "time": []}}, "mouseout": {"state": {"target": ["0", "1", "1"], "time": [1321, 1348, 1621]}, "edge": {"target": [], "time": []}}}, "displayed_time": "17.00", "trialTime": 18324, "trial_type": "mouselab-mdp", "trial_index": 30, "time_elapsed": 1938646, "internal_node_id": "0.0-4.0-1.0-21.0"}}, {"uniqueid": "w69349293:a29691923", "current_trial": 31, "dateTime": 1691145254103, "trialdata": {"revealed_states": [], "clicked_states": [], "num_clicks_accrued": [0, 0, 0, 0, 0, 0, 0, 0, 0, 0, 0, 0, 0], "stateRewards": ["", 2, 4, 4, 9, -88, -10, 44, 16, -54, 64, 78, 1, 2, 5, 16, 80, 36, 7, -4, 9, -47, -70, -1, -3, 6, -16, 11, 80, 28, 8, -1, 34, -17], "withholdReward": false, "trial_id": "mdp_trial_23", "block": "test", "trialIndex": 24, "score": 14, "costs": 0, "simulationMode": [null, null, null, null, null], "rewards": [-1, -3, 6, -16, 28], "path": ["0", "0", "23", "24", "25", "26", "29"], "rt": [1059, 306, 289, 490, 422], "actions": ["left", "left", "left", "up", "left"], "actionTimes": [2745, 3589, 4371, 5359, 6290], "queries": {"click": {"state": {"target": [], "time": []}, "edge": {"target": [], "time": []}}, "mouseover": {"state": {"target": [], "time": []}, "edge": {"target": [], "time": []}}, "mouseout": {"state": {"target": ["0"], "time": [1139]}, "edge": {"target": [], "time": []}}}, "displayed_time": "15.69", "trialTime": 182768, "trial_type": "mouselab-mdp", "trial_index": 31, "time_elapsed": 2122375, "internal_node_id": "0.0-4.0-1.0-22.0"}}, {"uniqueid": "w69349293:a29691923", "current_trial": 32, "dateTime": 1691145273944, "trialdata": {"revealed_states": [], "clicked_states": [], "num_clicks_accrued": [0, 0, 0, 0, 0, 0, 0, 0, 0, 0, 0, 0, 0], "stateRewards": ["", -1, 4, 3, 12, -27, 34, -33, 3, -63, 1, 6, 2, 2, -6, -11, -77, -85, 68, -6, 51, 81, -60, -2, -2, 1, 15, 20, 15, 68, -10, -14, 6, -4], "withholdReward": false, "trial_id": "mdp_trial_24", "block": "test", "trialIndex": 25, "score": -54, "costs": 0, "simulationMode": [null, null, null, null, null], "rewards": [-1, 4, 3, 3, -63], "path": ["0", "0", "1", "2", "3", "8", "9"], "rt": [1192, 538, 583, 619, 1347], "actions": ["up", "up", "up", "left", "up"], "actionTimes": [3165, 4226, 5333, 6460, 8315], "queries": {"click": {"state": {"target": [], "time": []}, "edge": {"target": [], "time": []}}, "mouseover": {"state": {"target": [], "time": []}, "edge": {"target": [], "time": []}}, "mouseout": {"state": {"target": ["0"], "time": [1416]}, "edge": {"target": [], "time": []}}}, "displayed_time": "15.97", "trialTime": 19035, "trial_type": "mouselab-mdp", "trial_index": 32, "time_elapsed": 2142216, "internal_node_id": "0.0-4.0-1.0-23.0"}}, {"uniqueid": "w69349293:a29691923", "current_trial": 33, "dateTime": 1691145293994, "trialdata": {"revealed_states": [], "clicked_states": [], "num_clicks_accrued": [0, 0, 0, 0, 0, 0, 0, 0, 0, 0, 0, 0, 0], "stateRewards": ["", -2, -3, 8, 14, -73, 73, 84, -12, -2, -50, -17, 2, 1, -2, -9, -44, -27, -33, 16, -63, -47, -66, -2, 1, 4, -5, -33, -11, 50, 9, 38, -79, 31], "withholdReward": false, "trial_id": "mdp_trial_25", "block": "test", "trialIndex": 26, "score": -13, "costs": 0, "simulationMode": [null, null, null, null, null], "rewards": [-2, 1, 4, -5, -11], "path": ["0", "0", "23", "24", "25", "26", "28"], "rt": [1197, 376, 447, 270, 488], "actions": ["left", "left", "left", "up", "right"], "actionTimes": [3101, 3996, 4962, 5734, 6735], "queries": {"click": {"state": {"target": [], "time": []}, "edge": {"target": [], "time": []}}, "mouseover": {"state": {"target": [], "time": []}, "edge": {"target": [], "time": []}}, "mouseout": {"state": {"target": ["0"], "time": [1368]}, "edge": {"target": [], "time": []}}}, "displayed_time": "15.91", "trialTime": 19183, "trial_type": "mouselab-mdp", "trial_index": 33, "time_elapsed": 2162266, "internal_node_id": "0.0-4.0-1.0-24.0"}}, {"uniqueid": "w69349293:a29691923", "current_trial": 34, "dateTime": 1691145314372, "trialdata": {"revealed_states": [], "clicked_states": [], "num_clicks_accrued": [0, 0, 0, 0, 0, 0, 0, 0, 0, 0, 0, 0, 0], "stateRewards": ["", -1, 3, -5, -2, -13, -9, -34, -7, -81, 32, 35, -2, -2, 1, -14, -32, 81, 7, 4, 82, 56, -8, -1, 3, -8, 6, -24, -24, -53, 2, 38, 61, 54], "withholdReward": false, "trial_id": "mdp_trial_26", "block": "test", "trialIndex": 27, "score": -53, "costs": 0, "simulationMode": [null, null, null, null, null], "rewards": [-1, 3, -8, 6, -53], "path": ["0", "0", "23", "24", "25", "26", "29"], "rt": [783, 321, 219, 380, 281], "actions": ["left", "left", "left", "up", "left"], "actionTimes": [2092, 2910, 3674, 4552, 5336], "queries": {"click": {"state": {"target": [], "time": []}, "edge": {"target": [], "time": []}}, "mouseover": {"state": {"target": [], "time": []}, "edge": {"target": [], "time": []}}, "mouseout": {"state": {"target": ["0"], "time": [705]}, "edge": {"target": [], "time": []}}}, "displayed_time": "15.31", "trialTime": 19535, "trial_type": "mouselab-mdp", "trial_index": 34, "time_elapsed": 2182644, "internal_node_id": "0.0-4.0-1.0-25.0"}}, {"uniqueid": "w69349293:a29691923", "current_trial": 35, "dateTime": 1691145333172, "trialdata": {"revealed_states": [], "clicked_states": [], "num_clicks_accrued": [0, 0, 0, 0, 0, 0, 0, 0, 0, 0, 0, 0, 0], "stateRewards": ["", 2, -1, -2, -5, -47, -57, -33, -11, 31, -18, -72, -2, 1, -4, -8, -46, -53, -50, 15, -85, -9, 39, -2, -2, 1, 14, -1, -8, 53, -12, -41, -74, 62], "withholdReward": false, "trial_id": "mdp_trial_27", "block": "test", "trialIndex": 28, "score": -89, "costs": 0, "simulationMode": [null, null, null, null, null], "rewards": [-2, -2, 1, -12, -74], "path": ["0", "0", "23", "24", "25", "30", "32"], "rt": [1329, 488, 351, 341, 237], "actions": ["left", "left", "left", "down", "down"], "actionTimes": [3111, 4108, 4982, 5839, 6586], "queries": {"click": {"state": {"target": [], "time": []}, "edge": {"target": [], "time": []}}, "mouseover": {"state": {"target": [], "time": []}, "edge": {"target": [], "time": []}}, "mouseout": {"state": {"target": ["0"], "time": [1093]}, "edge": {"target": [], "time": []}}}, "displayed_time": "15.79", "trialTime": 17912, "trial_type": "mouselab-mdp", "trial_index": 35, "time_elapsed": 2201444, "internal_node_id": "0.0-4.0-1.0-26.0"}}, {"uniqueid": "w69349293:a29691923", "current_trial": 36, "dateTime": 1691145352394, "trialdata": {"revealed_states": [], "clicked_states": [], "num_clicks_accrued": [0, 0, 0, 0, 0, 0, 0, 0, 0, 0, 0, 0, 0], "stateRewards": ["", -2, -1, 3, -3, 71, -58, -21, 7, -10, -75, -37, 2, 4, -1, -12, -79, -29, -48, 3, -41, -10, -30, -1, -2, 1, -15, 13, 66, 22, -1, -42, -86, -55], "withholdReward": false, "trial_id": "mdp_trial_28", "block": "test", "trialIndex": 29, "score": -22, "costs": 0, "simulationMode": [null, null, null, null, null], "rewards": [2, 4, -1, 3, -30], "path": ["0", "0", "12", "13", "14", "19", "22"], "rt": [1162, 449, 238, 195, 223], "actions": ["right", "right", "right", "down", "left"], "actionTimes": [3496, 4471, 5256, 5946, 6692], "queries": {"click": {"state": {"target": [], "time": []}, "edge": {"target": [], "time": []}}, "mouseover": {"state": {"target": [], "time": []}, "edge": {"target": [], "time": []}}, "mouseout": {"state": {"target": ["0"], "time": [1819]}, "edge": {"target": [], "time": []}}}, "displayed_time": "16.34", "trialTime": 18087, "trial_type": "mouselab-mdp", "trial_index": 36, "time_elapsed": 2220666, "internal_node_id": "0.0-4.0-1.0-27.0"}}, {"uniqueid": "w69349293:a29691923", "current_trial": 37, "dateTime": 1691145373314, "trialdata": {"revealed_states": [], "clicked_states": ["1"], "num_clicks_accrued": [0, 0, 0, 0, 0, 0, 0, 0, 0, 0, 0, 0, 0], "stateRewards": ["", 2, 3, 3, 10, 19, -21, 6, 9, 54, 68, 16, 2, 2, -6, -8, 40, -2, -75, -2, -42, 55, 59, -1, 2, 4, -14, 11, -34, -30, -6, 61, -53, 13], "withholdReward": false, "trial_id": "mdp_trial_29", "block": "test", "trialIndex": 30, "score": 24.25, "costs": 0.25, "simulationMode": [null, null, null, null, null], "rewards": [2, 3, 3, 10, 6], "path": ["0", "0", "1", "2", "3", "4", "7"], "rt": [2323, 417, 484, 164, 943], "actions": ["up", "up", "up", "right", "down"], "actionTimes": [4530, 5472, 6487, 7168, 8616], "queries": {"click": {"state": {"target": ["1"], "time": [3293]}, "edge": {"target": [], "time": []}}, "mouseover": {"state": {"target": ["1", "1"], "time": [2272, 2953]}, "edge": {"target": [], "time": []}}, "mouseout": {"state": {"target": ["0", "1"], "time": [1337, 2869]}, "edge": {"target": [], "time": []}}}, "displayed_time": "16.21", "trialTime": 19825, "trial_type": "mouselab-mdp", "trial_index": 37, "time_elapsed": 2241585, "internal_node_id": "0.0-4.0-1.0-28.0"}}, {"uniqueid": "w69349293:a29691923", "current_trial": 38, "dateTime": 1691145454715, "trialdata": {"revealed_states": [], "clicked_states": ["12"], "num_clicks_accrued": [0, 0, 0, 0, 0, 0, 0, 0, 0, 0, 0, 0, 0], "stateRewards": ["", 1, 2, -3, -5, 66, -50, -47, -5, 1, 28, -27, 1, 1, -1, -6, 37, -25, 56, 1, -82, -66, -40, -1, -4, -7, 15, -61, -23, 26, 10, 14, -56, 29], "withholdReward": false, "trial_id": "mdp_trial_30", "block": "test", "trialIndex": 31, "score": 32.25, "costs": 0.25, "simulationMode": [null, null, null, null, null], "rewards": [1, 1, -1, -6, 37], "path": ["0", "0", "12", "13", "14", "15", "16"], "rt": [4711, 393, 296, 436, 570], "actions": ["right", "right", "right", "up", "up"], "actionTimes": [7557, 8567, 9364, 10310, 11918], "queries": {"click": {"state": {"target": ["12"], "time": [6248]}, "edge": {"target": [], "time": []}}, "mouseover": {"state": {"target": ["0", "12"], "time": [6191, 6236]}, "edge": {"target": [], "time": []}}, "mouseout": {"state": {"target": ["1", "0", "0", "12"], "time": [1818, 2874, 6231, 6472]}, "edge": {"target": [], "time": []}}}, "displayed_time": "16.85", "trialTime": 80478, "trial_type": "mouselab-mdp", "trial_index": 38, "time_elapsed": 2322987, "internal_node_id": "0.0-4.0-1.0-29.0"}}, {"uniqueid": "w69349293:a29691923", "current_trial": 39, "dateTime": 1691145473056, "trialdata": {"revealed_states": [], "clicked_states": ["23"], "num_clicks_accrued": [0, 0, 0, 0, 0, 0, 0, 0, 0, 0, 0, 0, 0], "stateRewards": ["", -2, 2, -4, -4, -59, 88, 62, -3, 69, -15, -34, 1, -2, -5, 7, -54, -20, 78, -16, -74, -53, -21, 2, -4, 2, 13, -8, -44, 26, 9, 72, 4, 17], "withholdReward": false, "trial_id": "mdp_trial_31", "block": "test", "trialIndex": 32, "score": 13.25, "costs": 0.25, "simulationMode": [null, null, null, null, null], "rewards": [2, -4, 2, 9, 4], "path": ["0", "0", "23", "24", "25", "30", "32"], "rt": [1824, 509, 398, 617, 411], "actions": ["left", "left", "left", "down", "down"], "actionTimes": [3320, 4357, 5275, 6394, 7323], "queries": {"click": {"state": {"target": ["23"], "time": [2382]}, "edge": {"target": [], "time": []}}, "mouseover": {"state": {"target": ["23"], "time": [2209]}, "edge": {"target": [], "time": []}}, "mouseout": {"state": {"target": ["12", "0"], "time": [593, 2078]}, "edge": {"target": [], "time": []}}}, "displayed_time": "15.51", "trialTime": 17351, "trial_type": "mouselab-mdp", "trial_index": 39, "time_elapsed": 2341328, "internal_node_id": "0.0-4.0-1.0-30.0"}}, {"uniqueid": "w69349293:a29691923", "current_trial": 40, "dateTime": 1691145492699, "trialdata": {"revealed_states": [], "clicked_states": ["12"], "num_clicks_accrued": [0, 0, 0, 0, 0, 0, 0, 0, 0, 0, 0, 0, 0], "stateRewards": ["", -2, 4, -5, -12, 85, -24, -18, -15, -78, -22, 26, -1, -1, 2, 14, -45, 52, -23, 7, -33, 24, -6, -2, -4, 5, -7, -16, 36, -39, 5, 71, -87, -23], "withholdReward": false, "trial_id": "mdp_trial_32", "block": "test", "trialIndex": 33, "score": -30.75, "costs": 0.25, "simulationMode": [null, null, null, null, null], "rewards": [-1, -1, 2, 14, -45], "path": ["0", "0", "12", "13", "14", "15", "16"], "rt": [3830, 538, 423, 313, 147], "actions": ["right", "right", "right", "up", "up"], "actionTimes": [5351, 6407, 7342, 8149, 8805], "queries": {"click": {"state": {"target": ["12"], "time": [2266]}, "edge": {"target": [], "time": []}}, "mouseover": {"state": {"target": ["12"], "time": [2066]}, "edge": {"target": [], "time": []}}, "mouseout": {"state": {"target": ["23", "0", "12"], "time": [639, 2009, 18372]}, "edge": {"target": [], "time": []}}}, "displayed_time": "15.52", "trialTime": 18651, "trial_type": "mouselab-mdp", "trial_index": 40, "time_elapsed": 2360970, "internal_node_id": "0.0-4.0-1.0-31.0"}}, {"uniqueid": "w69349293:a29691923", "current_trial": 41, "dateTime": 1691145512026, "trialdata": {"revealed_states": [], "clicked_states": ["1"], "num_clicks_accrued": [0, 0, 0, 0, 0, 0, 0, 0, 0, 0, 0, 0, 0], "stateRewards": ["", -1, 3, -4, -14, 78, 67, 2, 13, -32, 28, 39, -2, 1, -4, -4, -4, -42, -86, 11, 64, -29, -32, -1, -4, 2, -7, 5, 68, -61, 2, -21, 85, 50], "withholdReward": false, "trial_id": "mdp_trial_33", "block": "test", "trialIndex": 34, "score": 58.25, "costs": 0.25, "simulationMode": [null, null, null, null, null], "rewards": [-1, -4, 2, -7, 68], "path": ["0", "0", "23", "24", "25", "26", "28"], "rt": [2709, 622, 531, 343, 507], "actions": ["left", "left", "left", "up", "right"], "actionTimes": [4513, 5649, 6709, 7743, 8769], "queries": {"click": {"state": {"target": ["1"], "time": [2563]}, "edge": {"target": [], "time": []}}, "mouseover": {"state": {"target": ["1"], "time": [2344]}, "edge": {"target": [], "time": []}}, "mouseout": {"state": {"target": ["0"], "time": [2182]}, "edge": {"target": [], "time": []}}}, "displayed_time": "15.81", "trialTime": 18271, "trial_type": "mouselab-mdp", "trial_index": 41, "time_elapsed": 2380298, "internal_node_id": "0.0-4.0-1.0-32.0"}}, {"uniqueid": "w69349293:a29691923", "current_trial": 42, "dateTime": 1691145532323, "trialdata": {"revealed_states": [], "clicked_states": ["12", "1"], "num_clicks_accrued": [0, 0, 0, 0, 0, 0, 0, 0, 0, 0, 0, 0, 0], "stateRewards": ["", 1, -4, -6, -1, -21, 17, -72, 10, 77, 67, -46, -1, 4, -2, 14, -66, -49, -45, -15, -52, 23, -67, 2, -2, -2, 15, -3, 45, -64, 5, -44, 83, 61], "withholdReward": false, "trial_id": "mdp_trial_34", "block": "test", "trialIndex": 35, "score": -30.5, "costs": 0.5, "simulationMode": [null, null, null, null, null], "rewards": [1, -4, -6, -1, -21], "path": ["0", "0", "1", "2", "3", "4", "5"], "rt": [3034, 470, 481, 462, 347], "actions": ["up", "up", "up", "right", "up"], "actionTimes": [4723, 5729, 6733, 7698, 8566], "queries": {"click": {"state": {"target": ["12", "1"], "time": [2446, 3630]}, "edge": {"target": [], "time": []}}, "mouseover": {"state": {"target": ["12", "1"], "time": [2053, 3319]}, "edge": {"target": [], "time": []}}, "mouseout": {"state": {"target": ["1", "0", "12", "1"], "time": [769, 2003, 3234, 4202]}, "edge": {"target": [], "time": []}}}, "displayed_time": "15.69", "trialTime": 19343, "trial_type": "mouselab-mdp", "trial_index": 42, "time_elapsed": 2400594, "internal_node_id": "0.0-4.0-1.0-33.0"}}, {"uniqueid": "w69349293:a29691923", "current_trial": 43, "dateTime": 1691145553763, "trialdata": {"revealed_states": [], "clicked_states": ["23"], "num_clicks_accrued": [0, 0, 0, 0, 0, 0, 0, 0, 0, 0, 0, 0, 0], "stateRewards": ["", 2, -1, -1, 7, 11, -40, -22, -2, 69, 37, 8, -2, 4, -8, -12, -2, -72, -3, -12, 17, 63, 12, 1, 3, -7, 6, 25, 61, 61, -9, 28, -17, 27], "withholdReward": false, "trial_id": "mdp_trial_35", "block": "test", "trialIndex": 36, "score": 64.25, "costs": 0.25, "simulationMode": [null, null, null, null, null], "rewards": [1, 3, -7, 6, 61], "path": ["0", "0", "23", "24", "25", "26", "29"], "rt": [2113, 461, 570, 669, 416], "actions": ["left", "left", "left", "up", "left"], "actionTimes": [3455, 4443, 5524, 6717, 7656], "queries": {"click": {"state": {"target": ["23"], "time": [2145]}, "edge": {"target": [], "time": []}}, "mouseover": {"state": {"target": ["23", "1"], "time": [1866, 2819]}, "edge": {"target": [], "time": []}}, "mouseout": {"state": {"target": ["0", "23"], "time": [420, 2796]}, "edge": {"target": [], "time": []}}}, "displayed_time": "15.35", "trialTime": 20496, "trial_type": "mouselab-mdp", "trial_index": 43, "time_elapsed": 2422035, "internal_node_id": "0.0-4.0-1.0-34.0"}}, {"uniqueid": "w69349293:a29691923", "current_trial": 44, "dateTime": 1691145574121, "trialdata": {"revealed_states": [], "clicked_states": ["1", "23"], "num_clicks_accrued": [0, 0, 0, 0, 0, 0, 0, 0, 0, 0, 0, 0, 0], "stateRewards": ["", -1, -4, -1, -11, 43, 69, 39, 4, 17, -20, -82, -2, -1, 4, 8, -79, 24, -79, 11, 36, 64, 41, 2, 4, -1, 11, -79, -47, 75, -3, 63, -36, -19], "withholdReward": false, "trial_id": "mdp_trial_36", "block": "test", "trialIndex": 37, "score": -16.5, "costs": 0.5, "simulationMode": [null, null, null, null, null], "rewards": [2, 4, -1, -3, -19], "path": ["0", "0", "23", "24", "25", "30", "33"], "rt": [2781, 708, 581, 453, 403], "actions": ["left", "left", "left", "down", "left"], "actionTimes": [5418, 6661, 7745, 8702, 9600], "queries": {"click": {"state": {"target": ["1", "23"], "time": [3355, 4412]}, "edge": {"target": [], "time": []}}, "mouseover": {"state": {"target": ["1", "23", "12"], "time": [3115, 3942, 4931]}, "edge": {"target": [], "time": []}}, "mouseout": {"state": {"target": ["1", "1", "23"], "time": [1694, 3896, 4896]}, "edge": {"target": [], "time": []}}}, "displayed_time": "16.64", "trialTime": 19320, "trial_type": "mouselab-mdp", "trial_index": 44, "time_elapsed": 2442392, "internal_node_id": "0.0-4.0-1.0-35.0"}}, {"uniqueid": "w69349293:a29691923", "current_trial": 45, "dateTime": 1691145595177, "trialdata": {"revealed_states": [], "clicked_states": ["23", "24", "25"], "num_clicks_accrued": [0, 0, 0, 0, 0, 0, 0, 0, 0, 0, 0, 0, 0], "stateRewards": ["", 1, 1, 1, 15, -76, 52, -32, 14, -57, 37, 49, 1, -4, -3, 6, 83, -76, 25, 9, 36, -1, -17, -1, 4, 4, -2, -22, -21, 58, -15, -57, 49, -24], "withholdReward": false, "trial_id": "mdp_trial_37", "block": "test", "trialIndex": 38, "score": 39.95, "costs": -1.0499999999999998, "simulationMode": [null, null, null, null, null], "rewards": [-1, 4, 4, -15, 49], "path": ["0", "0", "23", "24", "25", "30", "32"], "rt": [5493, 467, 259, 293, 189], "actions": ["left", "left", "left", "down", "down"], "actionTimes": [7258, 8243, 9041, 9838, 10569], "queries": {"click": {"state": {"target": ["23", "24", "25"], "time": [3207, 4544, 6048]}, "edge": {"target": [], "time": []}}, "mouseover": {"state": {"target": ["23", "24", "25", "30"], "time": [2757, 4177, 5523, 6797]}, "edge": {"target": [], "time": []}}, "mouseout": {"state": {"target": ["12", "0", "23", "23", "24", "25"], "time": [629, 2709, 3343, 4060, 5390, 6600]}, "edge": {"target": [], "time": []}}}, "displayed_time": "15.77", "trialTime": 20111, "trial_type": "mouselab-mdp", "trial_index": 45, "time_elapsed": 2463449, "internal_node_id": "0.0-4.0-1.0-36.0"}}, {"uniqueid": "w69349293:a29691923", "current_trial": 46, "dateTime": 1691145615935, "trialdata": {"revealed_states": [], "clicked_states": ["1", "2", "3"], "num_clicks_accrued": [0, 0, 0, 0, 0, 0, 0, 0, 0, 0, 0, 0, 0], "stateRewards": ["", 2, 4, 7, 7, -79, -2, -21, -5, -53, 47, -21, 1, -3, -1, 7, 83, 7, 84, -7, 80, -37, 69, 2, -4, 5, 2, 4, -20, -30, 7, 71, 44, -81], "withholdReward": false, "trial_id": "mdp_trial_38", "block": "test", "trialIndex": 39, "score": -46.05, "costs": -1.0499999999999998, "simulationMode": [null, null, null, null, null], "rewards": [2, 4, 7, -5, -53], "path": ["0", "0", "1", "2", "3", "8", "9"], "rt": [4197, 429, 362, 445, 382], "actions": ["up", "up", "up", "left", "up"], "actionTimes": [8397, 9345, 10229, 11196, 12130], "queries": {"click": {"state": {"target": ["1", "2", "3"], "time": [5233, 6023, 7038]}, "edge": {"target": [], "time": []}}, "mouseover": {"state": {"target": ["1", "2", "3"], "time": [5032, 5734, 6718]}, "edge": {"target": [], "time": []}}, "mouseout": {"state": {"target": ["30", "0", "1", "1", "2"], "time": [2004, 2867, 3197, 5699, 6601]}, "edge": {"target": [], "time": []}}}, "displayed_time": "18.20", "trialTime": 19839, "trial_type": "mouselab-mdp", "trial_index": 46, "time_elapsed": 2484207, "internal_node_id": "0.0-4.0-1.0-37.0"}}, {"uniqueid": "w69349293:a29691923", "current_trial": 47, "dateTime": 1691145635240, "trialdata": {"revealed_states": [], "clicked_states": ["12"], "num_clicks_accrued": [0, 0, 0, 0, 0, 0, 0, 0, 0, 0, 0, 0, 0], "stateRewards": ["", -1, 2, -7, -12, -62, 12, -13, 5, 77, -71, 83, 1, -4, 7, 15, -42, -87, -4, 5, -25, 44, 88, -1, 4, -5, -8, 14, 51, 8, -5, 83, -24, -19], "withholdReward": false, "trial_id": "mdp_trial_39", "block": "test", "trialIndex": 40, "score": -67.75, "costs": 0.25, "simulationMode": [null, null, null, null, null], "rewards": [1, -4, 7, 15, -87], "path": ["0", "0", "12", "13", "14", "15", "17"], "rt": [2457, 293, 216, 361, 488], "actions": ["right", "right", "right", "up", "right"], "actionTimes": [4623, 5479, 6197, 7059, 8057], "queries": {"click": {"state": {"target": ["12"], "time": [3359]}, "edge": {"target": [], "time": []}}, "mouseover": {"state": {"target": ["12", "13"], "time": [2843, 3987]}, "edge": {"target": [], "time": []}}, "mouseout": {"state": {"target": ["3", "1", "0", "0", "12", "13"], "time": [809, 917, 1130, 2802, 3963, 4100]}, "edge": {"target": [], "time": []}}}, "displayed_time": "16.17", "trialTime": 18159, "trial_type": "mouselab-mdp", "trial_index": 47, "time_elapsed": 2503511, "internal_node_id": "0.0-4.0-1.0-38.0"}}, {"uniqueid": "w69349293:a29691923", "current_trial": 48, "dateTime": 1691145654834, "trialdata": {"revealed_states": [], "clicked_states": ["23", "1", "12", "24", "25"], "num_clicks_accrued": [0, 0, 0, 0, 0, 0, 0, 0, 0, 0, 0, 0, 0], "stateRewards": ["", -2, 2, 2, -6, 9, 37, 50, -13, -7, -18, -75, -2, -4, 4, 7, 23, -57, -66, -7, -81, -48, -76, 1, 1, -8, 1, 51, -2, 70, 14, 59, 71, -37], "withholdReward": false, "trial_id": "mdp_trial_40", "block": "test", "trialIndex": 41, "score": 45.45, "costs": -0.5499999999999999, "simulationMode": [null, null, null, null, null], "rewards": [1, 1, -8, 1, 51], "path": ["0", "0", "23", "24", "25", "26", "27"], "rt": [6087, 321, 437, 477, 300], "actions": ["left", "left", "left", "up", "up"], "actionTimes": [8175, 9014, 9948, 10949, 11757], "queries": {"click": {"state": {"target": ["23", "1", "12", "24", "25"], "time": [2709, 3766, 4642, 5574, 6592]}, "edge": {"target": [], "time": []}}, "mouseover": {"state": {"target": ["23", "1", "12", "24", "25"], "time": [2257, 3272, 4344, 5338, 6404]}, "edge": {"target": [], "time": []}}, "mouseout": {"state": {"target": ["13", "12", "23", "1", "12", "24"], "time": [807, 989, 2838, 4272, 5187, 5725]}, "edge": {"target": [], "time": []}}}, "displayed_time": "16.09", "trialTime": 18663, "trial_type": "mouselab-mdp", "trial_index": 48, "time_elapsed": 2523106, "internal_node_id": "0.0-4.0-1.0-39.0"}}, {"uniqueid": "w69349293:a29691923", "current_trial": 49, "dateTime": 1691145707584, "trialdata": {"rt": 52474, "response": {"Q0": "$-2 to $2", "Q1": "$-16 to $16", "Q2": "$-32 to $32", "Q3": "The cost for clicking on nodes varied between nodes.", "Q4": "Very motivated"}, "question_order": [0, 1, 2, 3, 4], "trial_id": "final_quiz_control", "trial_type": "survey-multi-choice", "trial_index": 49, "time_elapsed": 2575856, "internal_node_id": "0.0-4.0-2.0"}}, {"uniqueid": "w69349293:a29691923", "current_trial": 50, "dateTime": 1691145971839, "trialdata": {"rt": 263773, "response": {"Q0": "The strategy I used in the Web of Cash game was to use the node inspector whenever I was uncertain. I would also plan my movements after one round and use that to improve in the next round.", "Q1": "I tried improving my strategy in the Web of Cash. I did this by minimising my use of the node inspector and just used my intuition to guide me through the game.", "Q2": "I found it relatively difficult to improve my performance in the Web of Cash game because whenever I lacked confidence in my moves, the amount I accumulated was high. And, whenever I had great confidence in my moves, the amount I accumulated was low and most times, in the negative range."}, "trial_id": "self_report_control", "trial_type": "survey-text", "trial_index": 50, "time_elapsed": 2840111, "internal_node_id": "0.0-4.0-3.0"}}, {"uniqueid": "w69349293:a29691923", "current_trial": 51, "dateTime": 1691146016169, "trialdata": {"rt": 44311, "response": {"Q0": "Strongly agree", "Q1": "Disagree", "Q2": "Disagree", "Q3": "Strongly agree", "Q4": "Strongly agree", "Q5": "Strongly agree", "Q6": "Strongly disagree"}, "question_order": [0, 1, 2, 3, 4, 5, 6], "trial_id": "self_report_2", "trial_type": "survey-multi-choice", "trial_index": 51, "time_elapsed": 2884442, "internal_node_id": "0.0-4.0-4.0"}}, {"uniqueid": "w69349293:a29691923", "current_trial": 52, "dateTime": 1691146052663, "trialdata": {"rt": 36414, "response": {"gender": "female", "age": "21", "colorblind": "0", "effort": "0"}, "trial_type": "survey-html-form", "trial_index": 52, "time_elapsed": 2920936, "internal_node_id": "0.0-4.0-5.0"}}, {"uniqueid": "w69349293:a29691923", "current_trial": 53, "dateTime": 1691146116376, "trialdata": {"rt": 63689, "response": {"Q0": "No, everything was clear and easy to understand.", "Q1": "No, it was my first time participating in the Web of Cash HIT.", "Q2": "None."}, "trial_type": "survey-text", "trial_index": 53, "time_elapsed": 2984648, "internal_node_id": "0.0-4.0-6.0"}}, {"uniqueid": "w69349293:a29691923", "current_trial": 54, "dateTime": 1691146130467, "trialdata": {"rt": 14044, "stimulus": "Press 'Finish HIT' in order to reach the completion code. Once the data has been saved, you will receive the code either in this window or in the original browser window where you started the experiment.\n", "response": 0, "trial_type": "html-button-response", "trial_index": 54, "time_elapsed": 2998740, "internal_node_id": "0.0-5.0"}}, {"uniqueid": "w69349293:a29691923", "current_trial": 55, "dateTime": 1691146131537, "trialdata": {"success": true, "trial_type": "fullscreen", "trial_index": 55, "time_elapsed": 2999810, "internal_node_id": "0.0-6.0"}}], "questiondata": {"params": {"CODE": "C6DMOQA6", "MIN_TIME": 14, "inspectCost": 1, "startTime": "Fri Aug 04 2023 11:58:48 GMT+0200 (South Africa Standard Time)", "bonusRate": 0.002, "variance": "1_2_4_8_44", "branching": "31123"}, "final_score": -33.75}, "eventdata": [{"eventtype": "initialized", "value": null, "timestamp": 1691143127943, "interval": 0}, {"eventtype": "window_resize", "value": [1024, 654], "timestamp": 1691143127943, "interval": 0}, {"eventtype": "window_resize", "value": [1024, 654], "timestamp": 1691143128515, "interval": 572}, {"eventtype": "window_resize", "value": [1366, 768], "timestamp": 1691143141307, "interval": 12792}], "useragent": "Mozilla/5.0 (Windows NT 10.0; Win64; x64) AppleWebKit/537.36 (KHTML, like Gecko) Chrome/115.0.0.0 Safari/537.36", "mode": "live", "id": "w69349293:a29691923", "status": "user data saved", "Beginhit": "2023-08-04 09:58:41.151041", "Beginexp": "2023-08-04 09:59:02.375226", "Endhit": "2023-08-04 10:48:56.68536", "psiturkStatus": 3, "browser": "<redacted>", "platform": "windows", "language": "en-ZA"}