{"condition": 0, "counterbalance": 0, "assignmentId": "a42576261", "workerId": "w59242215", "hitId": "h43210553", "currenttrial": 67, "bonus": 0, "data": [{"uniqueid": "w59242215:a42576261", "current_trial": 0, "dateTime": 1691071164622, "trialdata": {"success": true, "trial_type": "fullscreen", "trial_index": 0, "time_elapsed": 8679, "internal_node_id": "0.0-0.0"}}, {"uniqueid": "w59242215:a42576261", "current_trial": 1, "dateTime": 1691071184884, "trialdata": {"view_history": [{"page_index": 0, "viewing_time": 20253}], "rt": 20254, "trial_id": "exp_instructions_control", "trial_type": "instructions", "trial_index": 1, "time_elapsed": 28942, "internal_node_id": "0.0-1.0"}}, {"uniqueid": "w59242215:a42576261", "current_trial": 2, "dateTime": 1691071189471, "trialdata": {"success": true, "trial_type": "fullscreen", "trial_index": 2, "time_elapsed": 33528, "internal_node_id": "0.0-2.0-0.0"}}, {"uniqueid": "w59242215:a42576261", "current_trial": 3, "dateTime": 1691071388629, "trialdata": {"view_history": [{"page_index": 0, "viewing_time": 61166}, {"page_index": 1, "viewing_time": 62832}, {"page_index": 0, "viewing_time": 9800}, {"page_index": 1, "viewing_time": 4168}, {"page_index": 2, "viewing_time": 27968}, {"page_index": 3, "viewing_time": 33216}], "rt": 199151, "trial_id": "mouselab_instructions_1_control", "trial_type": "instructions", "trial_index": 3, "time_elapsed": 232687, "internal_node_id": "0.0-2.0-1.0"}}, {"uniqueid": "w59242215:a42576261", "current_trial": 4, "dateTime": 1691071411508, "trialdata": {"revealed_states": [], "clicked_states": [], "num_clicks_accrued": [0, 0, 0, 0, 0, 0, 0, 0, 0, 0, 0, 0, 0], "stateRewards": ["", 10, 10, 10, 10, 10, -10, -10, 10, 10, 10, 10, -10, -10, -10, -10, 10, 10, -10, -10, 10, 10, -10, -10, 10, -10, 10, 10, -10, 10, 10, -10, 10, 10], "withholdReward": false, "trial_id": "practice_1", "block": "test", "trialIndex": 0, "score": 33.5, "costs": 0, "simulationMode": [null, null, null, null, null], "rewards": [10, 10, 10, 10, -10], "path": ["0", "0", "1", "2", "3", "4", "6"], "rt": [6609, 1526, 768, 533, 611], "actions": ["up", "up", "up", "right", "right"], "actionTimes": [11218, 13259, 14531, 15579, 16708], "queries": {"click": {"state": {"target": [], "time": []}, "edge": {"target": [], "time": []}}, "mouseover": {"state": {"target": ["12"], "time": [4847]}, "edge": {"target": [], "time": []}}, "mouseout": {"state": {"target": ["0", "0", "12"], "time": [3134, 4813, 4916]}, "edge": {"target": [], "time": []}}}, "displayed_time": "17.21", "trialTime": 22021, "trial_type": "mouselab-mdp", "trial_index": 4, "time_elapsed": 255565, "internal_node_id": "0.0-2.0-2.0-0.0"}}, {"uniqueid": "w59242215:a42576261", "current_trial": 5, "dateTime": 1691071425186, "trialdata": {"revealed_states": [], "clicked_states": [], "num_clicks_accrued": [0, 0, 0, 0, 0, 0, 0, 0, 0, 0, 0, 0, 0], "stateRewards": ["", 10, 10, -10, 10, -10, -10, -10, -10, 10, -10, 10, 10, 10, -10, -10, 10, 10, 10, -10, 10, 10, 10, -10, -10, -10, -10, 10, 10, -10, -10, 10, -10, 10], "withholdReward": false, "trial_id": "practice_2", "block": "test", "trialIndex": 1, "score": -6.5, "costs": 0, "simulationMode": [null, null, null, null, null], "rewards": [10, 10, -10, -10, -10], "path": ["0", "0", "1", "2", "3", "8", "10"], "rt": [2508, 490, 489, 545, 1010], "actions": ["up", "up", "up", "left", "down"], "actionTimes": [5194, 6208, 7208, 8263, 9792], "queries": {"click": {"state": {"target": [], "time": []}, "edge": {"target": [], "time": []}}, "mouseover": {"state": {"target": [], "time": []}, "edge": {"target": [], "time": []}}, "mouseout": {"state": {"target": ["12", "0"], "time": [1698, 2695]}, "edge": {"target": [], "time": []}}}, "displayed_time": "10.30", "trialTime": 13376, "trial_type": "mouselab-mdp", "trial_index": 5, "time_elapsed": 269244, "internal_node_id": "0.0-2.0-2.0-1.0"}}, {"uniqueid": "w59242215:a42576261", "current_trial": 6, "dateTime": 1691071465384, "trialdata": {"view_history": [{"page_index": 0, "viewing_time": 29769}, {"page_index": 1, "viewing_time": 10432}], "rt": 40201, "trial_id": "mouselab_instructions_2_control", "trial_type": "instructions", "trial_index": 6, "time_elapsed": 309442, "internal_node_id": "0.0-2.0-3.0"}}, {"uniqueid": "w59242215:a42576261", "current_trial": 7, "dateTime": 1691071507369, "trialdata": {"rt": 41979, "response": {"Q0": "The cost for clicking on nodes may vary between nodes.", "Q1": "The better I perform the higher my bonus will be.", "Q2": "No, the amount of cash at each node of the web may be different each time.", "Q3": "To click on the least number of nodes.", "Q4": "Only before moving the spider.", "Q5": "3 seconds"}, "question_order": [0, 1, 2, 3, 4, 5], "correct": {"Q0": "The cost for clicking on nodes may vary between nodes.", "Q1": "The better I perform the higher my bonus will be.", "Q2": "No, the amount of cash at each node of the web may be different each time.", "Q3": "To get the highest total score.", "Q4": "Only before moving the spider.", "Q5": "3 seconds"}, "trial_id": "mouselab_quiz_control", "trial_type": "survey-multi-choice", "trial_index": 7, "time_elapsed": 351427, "internal_node_id": "0.0-2.0-4.0"}}, {"uniqueid": "w59242215:a42576261", "current_trial": 8, "dateTime": 1691071515707, "trialdata": {"success": true, "trial_type": "fullscreen", "trial_index": 8, "time_elapsed": 359765, "internal_node_id": "0.0-2.1-0.1"}}, {"uniqueid": "w59242215:a42576261", "current_trial": 9, "dateTime": 1691071572178, "trialdata": {"view_history": [{"page_index": 0, "viewing_time": 20027}, {"page_index": 1, "viewing_time": 32872}, {"page_index": 2, "viewing_time": 2152}, {"page_index": 3, "viewing_time": 1416}], "rt": 56467, "trial_id": "mouselab_instructions_1_control", "trial_type": "instructions", "trial_index": 9, "time_elapsed": 416236, "internal_node_id": "0.0-2.1-1.1"}}, {"uniqueid": "w59242215:a42576261", "current_trial": 10, "dateTime": 1691071581028, "trialdata": {"revealed_states": [], "clicked_states": [], "num_clicks_accrued": [0, 0, 0, 0, 0, 0, 0, 0, 0, 0, 0, 0, 0], "stateRewards": ["", 10, 10, 10, 10, 10, -10, -10, 10, 10, 10, 10, -10, -10, -10, -10, 10, 10, -10, -10, 10, 10, -10, -10, 10, -10, 10, 10, -10, 10, 10, -10, 10, 10], "withholdReward": false, "trial_id": "practice_1", "block": "test", "trialIndex": 2, "score": 33.5, "costs": 0, "simulationMode": [null, null, null, null, null], "rewards": [10, 10, 10, 10, -10], "path": ["0", "0", "1", "2", "3", "4", "6"], "rt": [1124, 355, 353, 207, 338], "actions": ["up", "up", "up", "right", "right"], "actionTimes": [2658, 3523, 4387, 5107, 5955], "queries": {"click": {"state": {"target": [], "time": []}, "edge": {"target": [], "time": []}}, "mouseover": {"state": {"target": [], "time": []}, "edge": {"target": [], "time": []}}, "mouseout": {"state": {"target": ["0"], "time": [7498]}, "edge": {"target": [], "time": []}}}, "displayed_time": "6.47", "trialTime": 8435, "trial_type": "mouselab-mdp", "trial_index": 10, "time_elapsed": 425084, "internal_node_id": "0.0-2.1-2.1-0.1"}}, {"uniqueid": "w59242215:a42576261", "current_trial": 11, "dateTime": 1691071589947, "trialdata": {"revealed_states": [], "clicked_states": [], "num_clicks_accrued": [0, 0, 0, 0, 0, 0, 0, 0, 0, 0, 0, 0, 0], "stateRewards": ["", 10, 10, -10, 10, -10, -10, -10, -10, 10, -10, 10, 10, 10, -10, -10, 10, 10, 10, -10, 10, 10, 10, -10, -10, -10, -10, 10, 10, -10, -10, 10, -10, 10], "withholdReward": false, "trial_id": "practice_2", "block": "test", "trialIndex": 3, "score": 13.5, "costs": 0, "simulationMode": [null, null, null, null, null], "rewards": [10, 10, -10, -10, 10], "path": ["0", "0", "12", "13", "14", "19", "20"], "rt": [1339, 398, 355, 280, 408], "actions": ["right", "right", "right", "down", "right"], "actionTimes": [3159, 4071, 4942, 5735, 6662], "queries": {"click": {"state": {"target": [], "time": []}, "edge": {"target": [], "time": []}}, "mouseover": {"state": {"target": [], "time": []}, "edge": {"target": [], "time": []}}, "mouseout": {"state": {"target": ["0"], "time": [1219]}, "edge": {"target": [], "time": []}}}, "displayed_time": "7.17", "trialTime": 8630, "trial_type": "mouselab-mdp", "trial_index": 11, "time_elapsed": 434003, "internal_node_id": "0.0-2.1-2.1-1.1"}}, {"uniqueid": "w59242215:a42576261", "current_trial": 12, "dateTime": 1691071595758, "trialdata": {"view_history": [{"page_index": 0, "viewing_time": 3224}, {"page_index": 1, "viewing_time": 2584}], "rt": 5809, "trial_id": "mouselab_instructions_2_control", "trial_type": "instructions", "trial_index": 12, "time_elapsed": 439816, "internal_node_id": "0.0-2.1-3.1"}}, {"uniqueid": "w59242215:a42576261", "current_trial": 13, "dateTime": 1691071627623, "trialdata": {"rt": 31862, "response": {"Q0": "The cost for clicking on nodes may vary between nodes.", "Q1": "The better I perform the higher my bonus will be.", "Q2": "No, the amount of cash at each node of the web may be different each time.", "Q3": "To get the highest total score.", "Q4": "Any time during the round.", "Q5": "3 seconds"}, "question_order": [0, 1, 2, 3, 4, 5], "correct": {"Q0": "The cost for clicking on nodes may vary between nodes.", "Q1": "The better I perform the higher my bonus will be.", "Q2": "No, the amount of cash at each node of the web may be different each time.", "Q3": "To get the highest total score.", "Q4": "Only before moving the spider.", "Q5": "3 seconds"}, "trial_id": "mouselab_quiz_control", "trial_type": "survey-multi-choice", "trial_index": 13, "time_elapsed": 471681, "internal_node_id": "0.0-2.1-4.1"}}, {"uniqueid": "w59242215:a42576261", "current_trial": 14, "dateTime": 1691071633700, "trialdata": {"success": true, "trial_type": "fullscreen", "trial_index": 14, "time_elapsed": 477758, "internal_node_id": "0.0-2.2-0.2"}}, {"uniqueid": "w59242215:a42576261", "current_trial": 15, "dateTime": 1691071747435, "trialdata": {"view_history": [{"page_index": 0, "viewing_time": 48179}, {"page_index": 1, "viewing_time": 61752}, {"page_index": 2, "viewing_time": 2184}, {"page_index": 3, "viewing_time": 1616}], "rt": 113732, "trial_id": "mouselab_instructions_1_control", "trial_type": "instructions", "trial_index": 15, "time_elapsed": 591493, "internal_node_id": "0.0-2.2-1.2"}}, {"uniqueid": "w59242215:a42576261", "current_trial": 16, "dateTime": 1691071754387, "trialdata": {"revealed_states": [], "clicked_states": [], "num_clicks_accrued": [0, 0, 0, 0, 0, 0, 0, 0, 0, 0, 0, 0, 0], "stateRewards": ["", 10, 10, 10, 10, 10, -10, -10, 10, 10, 10, 10, -10, -10, -10, -10, 10, 10, -10, -10, 10, 10, -10, -10, 10, -10, 10, 10, -10, 10, 10, -10, 10, 10], "withholdReward": false, "trial_id": "practice_1", "block": "test", "trialIndex": 4, "score": -26.5, "costs": 0, "simulationMode": [null, null, null, null, null], "rewards": [-10, -10, -10, -10, 10], "path": ["0", "0", "12", "13", "14", "19", "20"], "rt": [499, 115, 152, 229, 312], "actions": ["right", "right", "right", "down", "right"], "actionTimes": [1787, 2420, 3091, 3820, 4635], "queries": {"click": {"state": {"target": [], "time": []}, "edge": {"target": [], "time": []}}, "mouseover": {"state": {"target": [], "time": []}, "edge": {"target": [], "time": []}}, "mouseout": {"state": {"target": ["0", "0"], "time": [770, 5654]}, "edge": {"target": [], "time": []}}}, "displayed_time": "5.15", "trialTime": 6630, "trial_type": "mouselab-mdp", "trial_index": 16, "time_elapsed": 598443, "internal_node_id": "0.0-2.2-2.2-0.2"}}, {"uniqueid": "w59242215:a42576261", "current_trial": 17, "dateTime": 1691071761443, "trialdata": {"revealed_states": [], "clicked_states": [], "num_clicks_accrued": [0, 0, 0, 0, 0, 0, 0, 0, 0, 0, 0, 0, 0], "stateRewards": ["", 10, 10, -10, 10, -10, -10, -10, -10, 10, -10, 10, 10, 10, -10, -10, 10, 10, 10, -10, 10, 10, 10, -10, -10, -10, -10, 10, 10, -10, -10, 10, -10, 10], "withholdReward": false, "trial_id": "practice_2", "block": "test", "trialIndex": 5, "score": 13.5, "costs": 0, "simulationMode": [null, null, null, null, null], "rewards": [10, 10, -10, 10, -10], "path": ["0", "0", "1", "2", "3", "4", "6"], "rt": [968, 319, 222, 146, 280], "actions": ["up", "up", "up", "right", "right"], "actionTimes": [1965, 2782, 3502, 4160, 4960], "queries": {"click": {"state": {"target": [], "time": []}, "edge": {"target": [], "time": []}}, "mouseover": {"state": {"target": [], "time": []}, "edge": {"target": [], "time": []}}, "mouseout": {"state": {"target": ["0", "0"], "time": [414, 6077]}, "edge": {"target": [], "time": []}}}, "displayed_time": "5.48", "trialTime": 6742, "trial_type": "mouselab-mdp", "trial_index": 17, "time_elapsed": 605499, "internal_node_id": "0.0-2.2-2.2-1.2"}}, {"uniqueid": "w59242215:a42576261", "current_trial": 18, "dateTime": 1691071766190, "trialdata": {"view_history": [{"page_index": 0, "viewing_time": 3125}, {"page_index": 1, "viewing_time": 1616}], "rt": 4741, "trial_id": "mouselab_instructions_2_control", "trial_type": "instructions", "trial_index": 18, "time_elapsed": 610248, "internal_node_id": "0.0-2.2-3.2"}}, {"uniqueid": "w59242215:a42576261", "current_trial": 19, "dateTime": 1691071805367, "trialdata": {"rt": 39174, "response": {"Q0": "The cost for clicking on nodes may vary between nodes.", "Q1": "The better I perform the higher my bonus will be.", "Q2": "No, the amount of cash at each node of the web may be different each time.", "Q3": "To get the highest total score.", "Q4": "Only before moving the spider.", "Q5": "3 seconds"}, "question_order": [0, 1, 2, 3, 4, 5], "correct": {"Q0": "The cost for clicking on nodes may vary between nodes.", "Q1": "The better I perform the higher my bonus will be.", "Q2": "No, the amount of cash at each node of the web may be different each time.", "Q3": "To get the highest total score.", "Q4": "Only before moving the spider.", "Q5": "3 seconds"}, "trial_id": "mouselab_quiz_control", "trial_type": "survey-multi-choice", "trial_index": 19, "time_elapsed": 649425, "internal_node_id": "0.0-2.2-4.2"}}, {"uniqueid": "w59242215:a42576261", "current_trial": 20, "dateTime": 1691071824200, "trialdata": {"rt": 18823, "stimulus": "\n<h1> Get ready to start the game! </h1>\n\nThank you for reading the instructions. Get ready start with the 40 rounds of this game.\n<br><br>\nIf you need to take a break, feel free to take one after the end of a round, before continuing to the next one.\n<br><br>\nRemember, the more money the spider gets, the bigger your bonus will be!\n<br><br>\n<div style='text-align: center;'>Press <code>space</code> to begin.</div>\n\n<br><br>\n(If, at any point, the <code>space</code> key does not take you to the next page, click once on the text and try again.)", "response": " ", "trial_id": "mdp_ready", "trial_type": "html-keyboard-response", "trial_index": 20, "time_elapsed": 668258, "internal_node_id": "0.0-4.0-0.0"}}, {"uniqueid": "w59242215:a42576261", "current_trial": 21, "dateTime": 1691071843350, "trialdata": {"revealed_states": [], "clicked_states": ["2"], "num_clicks_accrued": [0, 0, 0, 0, 0, 0, 0, 0, 0, 0, 0, 0, 0], "stateRewards": ["", 1, -3, -1, 9, -34, -40, 22, -7, 45, 53, -11, 2, 4, 5, 15, 21, 37, -49, -3, 80, -28, -34, 1, -3, 1, 1, -40, -6, -5, -16, -85, -86, 59], "withholdReward": false, "trial_id": "mdp_trial_1", "block": "test", "trialIndex": 6, "score": 86.6, "costs": -1.4, "simulationMode": [null, null, null, null, null], "rewards": [2, 4, 5, -3, 80], "path": ["0", "0", "12", "13", "14", "19", "20"], "rt": [4138, 435, 335, 197, 329], "actions": ["right", "right", "right", "down", "right"], "actionTimes": [5771, 6712, 7545, 8241, 9072], "queries": {"click": {"state": {"target": ["2"], "time": [3468]}, "edge": {"target": [], "time": []}}, "mouseover": {"state": {"target": ["1", "2", "12", "12"], "time": [2292, 2511, 4359, 5008]}, "edge": {"target": [], "time": []}}, "mouseout": {"state": {"target": ["1", "2", "12", "12", "13", "14", "20"], "time": [2428, 4026, 4559, 5159, 12307, 12374, 13338]}, "edge": {"target": [], "time": []}}}, "displayed_time": "15.64", "trialTime": 18787, "trial_type": "mouselab-mdp", "trial_index": 21, "time_elapsed": 687407, "internal_node_id": "0.0-4.0-1.0-0.0"}}, {"uniqueid": "w59242215:a42576261", "current_trial": 22, "dateTime": 1691071861312, "trialdata": {"revealed_states": [], "clicked_states": [], "num_clicks_accrued": [0, 0, 0, 0, 0, 0, 0, 0, 0, 0, 0, 0, 0], "stateRewards": ["", -1, 4, -8, 12, 14, 69, -8, 5, -72, -14, 56, -1, -1, -1, 9, 67, 19, 11, -9, -88, -58, 3, 2, -4, -8, 4, 62, 77, -74, 5, -31, 65, 88], "withholdReward": false, "trial_id": "mdp_trial_2", "block": "test", "trialIndex": 7, "score": -36, "costs": 0, "simulationMode": [null, null, null, null, null], "rewards": [2, -4, -8, 5, -31], "path": ["0", "0", "23", "24", "25", "30", "31"], "rt": [745, 441, 309, 268, 355], "actions": ["left", "left", "left", "down", "right"], "actionTimes": [2619, 3571, 4419, 5179, 6051], "queries": {"click": {"state": {"target": [], "time": []}, "edge": {"target": [], "time": []}}, "mouseover": {"state": {"target": ["12"], "time": [2394]}, "edge": {"target": [], "time": []}}, "mouseout": {"state": {"target": ["19", "22", "0", "12"], "time": [782, 826, 2327, 2410]}, "edge": {"target": [], "time": []}}}, "displayed_time": "15.89", "trialTime": 17625, "trial_type": "mouselab-mdp", "trial_index": 22, "time_elapsed": 705370, "internal_node_id": "0.0-4.0-1.0-1.0"}}, {"uniqueid": "w59242215:a42576261", "current_trial": 23, "dateTime": 1691071878765, "trialdata": {"revealed_states": [], "clicked_states": ["26"], "num_clicks_accrued": [0, 0, 0, 0, 0, 0, 0, 0, 0, 0, 0, 0, 0], "stateRewards": ["", -1, 4, -3, 3, 57, -61, 5, -11, 23, -1, 34, -2, -4, -1, -13, 27, 38, -36, 4, -45, 21, 88, 1, -2, -1, 1, -69, -5, -78, -12, -9, 38, -54], "withholdReward": false, "trial_id": "mdp_trial_3", "block": "test", "trialIndex": 8, "score": -69.4, "costs": -1.4, "simulationMode": [null, null, null, null, null], "rewards": [1, -2, -1, -12, -54], "path": ["0", "0", "23", "24", "25", "30", "33"], "rt": [4142, 431, 377, 294, 432], "actions": ["left", "left", "left", "down", "left"], "actionTimes": [5317, 6251, 7131, 7931, 8867], "queries": {"click": {"state": {"target": ["26"], "time": [3579]}, "edge": {"target": [], "time": []}}, "mouseover": {"state": {"target": ["23", "24", "25", "26", "24"], "time": [1374, 1619, 2104, 2854, 3970]}, "edge": {"target": [], "time": []}}, "mouseout": {"state": {"target": ["12", "23", "24", "25", "26", "24"], "time": [220, 1420, 1956, 2555, 3937, 3986]}, "edge": {"target": [], "time": []}}}, "displayed_time": "15.19", "trialTime": 17107, "trial_type": "mouselab-mdp", "trial_index": 23, "time_elapsed": 722822, "internal_node_id": "0.0-4.0-1.0-2.0"}}, {"uniqueid": "w59242215:a42576261", "current_trial": 24, "dateTime": 1691071899892, "trialdata": {"revealed_states": [], "clicked_states": ["1", "2", "3", "4", "6"], "num_clicks_accrued": [0, 0, 0, 0, 0, 0, 0, 0, 0, 0, 0, 0, 0], "stateRewards": ["", -1, 3, 8, 10, -86, 61, -36, 10, 17, -60, 24, -1, -3, 3, 11, 50, 60, 33, -3, -20, 58, -6, 1, -4, -4, 13, -70, -71, 43, 14, 52, 82, -11], "withholdReward": false, "trial_id": "mdp_trial_4", "block": "test", "trialIndex": 9, "score": -23, "costs": -7, "simulationMode": [null, null, null, null, null, null], "rewards": [-1, 3, 8, 10, -36], "path": ["0", "0", "1", "2", "3", "4", "7"], "rt": [10054, 3124, 290, 265, 340, 969], "actions": ["up", "up", "up", "up", "right", "down"], "actionTimes": [11467, 14595, 15386, 16163, 17003, 18467], "queries": {"click": {"state": {"target": ["1", "2", "3", "4", "6"], "time": [2417, 4283, 6267, 8597, 10661]}, "edge": {"target": [], "time": []}}, "mouseover": {"state": {"target": ["1", "1", "2", "3", "4", "4", "6", "1"], "time": [1599, 2087, 2732, 4948, 6582, 7847, 8965, 12515]}, "edge": {"target": [], "time": []}}, "mouseout": {"state": {"target": ["0", "1", "0", "0", "1", "1", "2", "3", "4", "4", "6"], "time": [234, 650, 718, 1552, 1649, 2616, 4865, 6515, 7314, 8848, 10881]}, "edge": {"target": [], "time": []}}}, "displayed_time": "18.96", "trialTime": 20771, "trial_type": "mouselab-mdp", "trial_index": 24, "time_elapsed": 743949, "internal_node_id": "0.0-4.0-1.0-3.0"}}, {"uniqueid": "w59242215:a42576261", "current_trial": 25, "dateTime": 1691071918484, "trialdata": {"revealed_states": [], "clicked_states": ["13", "15", "17"], "num_clicks_accrued": [0, 0, 0, 0, 0, 0, 0, 0, 0, 0, 0, 0, 0], "stateRewards": ["", 1, 1, -7, -9, -44, 24, -83, -15, 44, -24, 72, -2, -3, 4, -5, 57, 55, 29, -11, 22, 12, -25, -1, 2, 7, 12, 33, -8, 47, -4, 8, 50, -4], "withholdReward": false, "trial_id": "mdp_trial_5", "block": "test", "trialIndex": 10, "score": 5.800000000000001, "costs": -4.199999999999999, "simulationMode": [null, null, null, null, null, null], "rewards": [-2, -3, 4, -11, 22], "path": ["0", "0", "12", "13", "14", "19", "20"], "rt": [8543, 2755, 325, 374, 264, 332], "actions": ["right", "right", "right", "right", "down", "right"], "actionTimes": [10174, 12933, 13781, 14661, 15421, 16253], "queries": {"click": {"state": {"target": ["13", "15", "17"], "time": [4200, 6988, 8956]}, "edge": {"target": [], "time": []}}, "mouseover": {"state": {"target": ["23", "24", "24", "23", "0", "12", "13", "18", "13", "15", "17", "12", "0", "12"], "time": [2107, 2223, 2527, 2641, 2673, 2723, 2942, 3106, 3791, 4607, 7489, 11288, 11537, 12606]}, "edge": {"target": [], "time": []}}, "mouseout": {"state": {"target": ["1", "23", "24", "24", "23", "0", "12", "13", "18", "13", "15", "17", "12", "0"], "time": [841, 2174, 2341, 2609, 2656, 2690, 2843, 3075, 3257, 4473, 7439, 9289, 11421, 12205]}, "edge": {"target": [], "time": []}}}, "displayed_time": "16.76", "trialTime": 18261, "trial_type": "mouselab-mdp", "trial_index": 25, "time_elapsed": 762541, "internal_node_id": "0.0-4.0-1.0-4.0"}}, {"uniqueid": "w59242215:a42576261", "current_trial": 26, "dateTime": 1691071937032, "trialdata": {"revealed_states": [], "clicked_states": [], "num_clicks_accrued": [0, 0, 0, 0, 0, 0, 0, 0, 0, 0, 0, 0, 0], "stateRewards": ["", -1, 3, 8, 9, -53, 20, -84, 2, -28, -62, -31, -1, -2, -7, 2, 51, 58, 45, -4, -17, -41, 36, 2, -2, -7, -15, 29, -54, -37, -16, -43, 65, -17], "withholdReward": false, "trial_id": "mdp_trial_6", "block": "test", "trialIndex": 11, "score": -16, "costs": 0, "simulationMode": [null, null, null, null, null], "rewards": [-1, 3, 8, 2, -28], "path": ["0", "0", "1", "2", "3", "8", "9"], "rt": [1113, 388, 289, 274, 333], "actions": ["up", "up", "up", "left", "up"], "actionTimes": [3233, 4136, 4920, 5688, 6512], "queries": {"click": {"state": {"target": [], "time": []}, "edge": {"target": [], "time": []}}, "mouseover": {"state": {"target": [], "time": []}, "edge": {"target": [], "time": []}}, "mouseout": {"state": {"target": ["12", "0"], "time": [1431, 17157]}, "edge": {"target": [], "time": []}}}, "displayed_time": "16.13", "trialTime": 18220, "trial_type": "mouselab-mdp", "trial_index": 26, "time_elapsed": 781089, "internal_node_id": "0.0-4.0-1.0-5.0"}}, {"uniqueid": "w59242215:a42576261", "current_trial": 27, "dateTime": 1691071954094, "trialdata": {"revealed_states": [], "clicked_states": ["23", "12", "1"], "num_clicks_accrued": [0, 0, 0, 0, 0, 0, 0, 0, 0, 0, 0, 0, 0], "stateRewards": ["", -1, -3, -3, 1, -38, 2, -53, -2, -1, -81, 70, -1, 1, -5, -9, 46, 15, 35, -1, -22, 38, 59, -2, 4, -8, 13, 1, -83, -43, 4, 76, 13, 48], "withholdReward": false, "trial_id": "mdp_trial_7", "block": "test", "trialIndex": 12, "score": -48.2, "costs": -4.199999999999999, "simulationMode": [null, null, null, null, null], "rewards": [-1, -3, -3, 1, -38], "path": ["0", "0", "1", "2", "3", "4", "5"], "rt": [9799, 376, 303, 237, 281], "actions": ["up", "up", "up", "right", "up"], "actionTimes": [10980, 11848, 12657, 13392, 14192], "queries": {"click": {"state": {"target": ["23", "12", "1"], "time": [2826, 5768, 9273]}, "edge": {"target": [], "time": []}}, "mouseover": {"state": {"target": ["0", "23", "23", "23", "12", "1"], "time": [1343, 1605, 1940, 2509, 3208, 6538]}, "edge": {"target": [], "time": []}}, "mouseout": {"state": {"target": ["0", "23", "23", "23", "12", "1"], "time": [1573, 1674, 1956, 3123, 6421, 10202]}, "edge": {"target": [], "time": []}}}, "displayed_time": "15.18", "trialTime": 16703, "trial_type": "mouselab-mdp", "trial_index": 27, "time_elapsed": 798151, "internal_node_id": "0.0-4.0-1.0-6.0"}}, {"uniqueid": "w59242215:a42576261", "current_trial": 28, "dateTime": 1691071974361, "trialdata": {"revealed_states": [], "clicked_states": ["23"], "num_clicks_accrued": [0, 0, 0, 0, 0, 0, 0, 0, 0, 0, 0, 0, 0], "stateRewards": ["", -2, 2, 8, -6, -25, 3, 87, 2, -62, -2, 74, -2, -1, 2, -1, 79, 49, -37, -14, 5, 67, -9, -1, 2, -2, 5, 15, 38, 32, -14, -38, -38, 30], "withholdReward": false, "trial_id": "mdp_trial_8", "block": "test", "trialIndex": 13, "score": -54.4, "costs": -1.4, "simulationMode": [null, null, null, null, null], "rewards": [-1, 2, -2, -14, -38], "path": ["0", "0", "23", "24", "25", "30", "31"], "rt": [4884, 3472, 2337, 617, 373], "actions": ["left", "left", "left", "down", "right"], "actionTimes": [6369, 10335, 13182, 14294, 15166], "queries": {"click": {"state": {"target": ["23"], "time": [2952]}, "edge": {"target": [], "time": []}}, "mouseover": {"state": {"target": ["23", "24", "23", "24"], "time": [2065, 2428, 2673, 3462]}, "edge": {"target": [], "time": []}}, "mouseout": {"state": {"target": ["0", "23", "24", "23", "24", "25", "24", "23", "0", "12"], "time": [1669, 2196, 2662, 3312, 11224, 16089, 16156, 16173, 16190, 16490]}, "edge": {"target": [], "time": []}}}, "displayed_time": "15.66", "trialTime": 19831, "trial_type": "mouselab-mdp", "trial_index": 28, "time_elapsed": 818418, "internal_node_id": "0.0-4.0-1.0-7.0"}}, {"uniqueid": "w59242215:a42576261", "current_trial": 29, "dateTime": 1691071992608, "trialdata": {"revealed_states": [], "clicked_states": ["12", "1"], "num_clicks_accrued": [0, 0, 0, 0, 0, 0, 0, 0, 0, 0, 0, 0, 0], "stateRewards": ["", -2, -3, -5, 8, 27, 11, 43, -6, -24, -87, 69, -2, 1, 1, 9, 19, 48, -37, 9, -14, 45, 62, 1, 2, 1, 16, -81, -41, 22, 4, -6, -63, 47], "withholdReward": false, "trial_id": "mdp_trial_9", "block": "test", "trialIndex": 14, "score": 39.2, "costs": -2.8, "simulationMode": [null, null, null, null, null], "rewards": [1, 2, 1, 16, 22], "path": ["0", "0", "23", "24", "25", "26", "29"], "rt": [8441, 1592, 799, 491, 364], "actions": ["left", "left", "left", "up", "left"], "actionTimes": [9757, 11842, 13147, 14139, 14996], "queries": {"click": {"state": {"target": ["12", "1"], "time": [2875, 7083]}, "edge": {"target": [], "time": []}}, "mouseover": {"state": {"target": ["12", "1", "0", "23"], "time": [2088, 3400, 9291, 9430]}, "edge": {"target": [], "time": []}}, "mouseout": {"state": {"target": ["0", "12", "1", "0"], "time": [1883, 3133, 7765, 9381]}, "edge": {"target": [], "time": []}}}, "displayed_time": "15.50", "trialTime": 17890, "trial_type": "mouselab-mdp", "trial_index": 29, "time_elapsed": 836665, "internal_node_id": "0.0-4.0-1.0-8.0"}}, {"uniqueid": "w59242215:a42576261", "current_trial": 30, "dateTime": 1691072010481, "trialdata": {"revealed_states": [], "clicked_states": ["23", "12", "1"], "num_clicks_accrued": [0, 0, 0, 0, 0, 0, 0, 0, 0, 0, 0, 0, 0], "stateRewards": ["", 1, -2, 4, 7, -43, -83, -60, -5, -86, -80, 83, -1, -2, 6, 11, -15, 21, 13, 9, 29, -49, 11, -1, 4, -6, -11, 87, 40, 63, -8, -39, -11, 62], "withholdReward": false, "trial_id": "mdp_trial_10", "block": "test", "trialIndex": 15, "score": -77.2, "costs": -4.199999999999999, "simulationMode": [null, null, null, null, null], "rewards": [1, -2, 4, 7, -83], "path": ["0", "0", "1", "2", "3", "4", "6"], "rt": [9333, 856, 419, 298, 319], "actions": ["up", "up", "up", "right", "right"], "actionTimes": [11484, 12851, 13763, 14557, 15379], "queries": {"click": {"state": {"target": ["23", "12", "1"], "time": [3652, 6902, 9439]}, "edge": {"target": [], "time": []}}, "mouseover": {"state": {"target": ["23", "0", "12", "1"], "time": [3162, 3945, 5323, 7710]}, "edge": {"target": [], "time": []}}, "mouseout": {"state": {"target": ["23", "0", "23", "0", "12", "1"], "time": [1259, 3111, 3911, 4161, 7511, 10110]}, "edge": {"target": [], "time": []}}}, "displayed_time": "16.15", "trialTime": 17547, "trial_type": "mouselab-mdp", "trial_index": 30, "time_elapsed": 854537, "internal_node_id": "0.0-4.0-1.0-9.0"}}, {"uniqueid": "w59242215:a42576261", "current_trial": 31, "dateTime": 1691072027561, "trialdata": {"revealed_states": [], "clicked_states": [], "num_clicks_accrued": [0, 0, 0, 0, 0, 0, 0, 0, 0, 0, 0, 0, 0], "stateRewards": ["", 1, 2, 2, -15, -84, 28, -26, 13, 31, 86, 30, -2, 1, -1, -8, 66, -40, -1, -10, -32, 57, -17, 1, 2, -2, 9, -23, 77, 85, 12, -32, -62, -35], "withholdReward": false, "trial_id": "mdp_trial_11", "block": "test", "trialIndex": 16, "score": 48, "costs": 0, "simulationMode": [null, null, null, null, null], "rewards": [1, 2, 2, 13, 30], "path": ["0", "0", "1", "2", "3", "8", "11"], "rt": [1648, 381, 317, 399, 304], "actions": ["up", "up", "up", "left", "left"], "actionTimes": [2924, 3803, 4619, 5518, 6323], "queries": {"click": {"state": {"target": [], "time": []}, "edge": {"target": [], "time": []}}, "mouseover": {"state": {"target": [], "time": []}, "edge": {"target": [], "time": []}}, "mouseout": {"state": {"target": [], "time": []}, "edge": {"target": [], "time": []}}}, "displayed_time": "15.29", "trialTime": 16707, "trial_type": "mouselab-mdp", "trial_index": 31, "time_elapsed": 871619, "internal_node_id": "0.0-4.0-1.0-10.0"}}, {"uniqueid": "w59242215:a42576261", "current_trial": 32, "dateTime": 1691072044698, "trialdata": {"revealed_states": [], "clicked_states": [], "num_clicks_accrued": [0, 0, 0, 0, 0, 0, 0, 0, 0, 0, 0, 0, 0], "stateRewards": ["", -2, -4, -6, 12, -58, -70, -80, 2, 16, -88, -62, 1, 2, -5, 11, 77, -35, -44, -5, 18, -83, 87, 1, -3, -5, 13, -44, -21, -86, 10, -52, 8, 29], "withholdReward": false, "trial_id": "mdp_trial_12", "block": "test", "trialIndex": 17, "score": -35, "costs": 0, "simulationMode": [null, null, null, null, null], "rewards": [1, 2, -5, 11, -44], "path": ["0", "0", "12", "13", "14", "15", "18"], "rt": [1127, 379, 380, 271, 1359], "actions": ["right", "right", "right", "up", "left"], "actionTimes": [1991, 2894, 3776, 4550, 6422], "queries": {"click": {"state": {"target": [], "time": []}, "edge": {"target": [], "time": []}}, "mouseover": {"state": {"target": [], "time": []}, "edge": {"target": [], "time": []}}, "mouseout": {"state": {"target": [], "time": []}, "edge": {"target": [], "time": []}}}, "displayed_time": "14.88", "trialTime": 16775, "trial_type": "mouselab-mdp", "trial_index": 32, "time_elapsed": 888755, "internal_node_id": "0.0-4.0-1.0-11.0"}}, {"uniqueid": "w59242215:a42576261", "current_trial": 33, "dateTime": 1691072061371, "trialdata": {"revealed_states": [], "clicked_states": ["1"], "num_clicks_accrued": [0, 0, 0, 0, 0, 0, 0, 0, 0, 0, 0, 0, 0], "stateRewards": ["", 1, 1, -3, 7, 49, 78, 26, -5, 26, 48, -43, -1, -3, 2, -5, 4, -1, -60, 10, -35, 51, 81, -2, 1, -7, -5, -39, -86, -54, 4, -3, 74, 77], "withholdReward": false, "trial_id": "mdp_trial_13", "block": "test", "trialIndex": 18, "score": 40.6, "costs": -1.4, "simulationMode": [null, null, null, null, null], "rewards": [1, 1, -3, -5, 48], "path": ["0", "0", "1", "2", "3", "8", "10"], "rt": [3966, 413, 314, 981, 281], "actions": ["up", "up", "up", "left", "down"], "actionTimes": [4957, 5889, 6705, 8187, 8971], "queries": {"click": {"state": {"target": ["1"], "time": [2285]}, "edge": {"target": [], "time": []}}, "mouseover": {"state": {"target": ["1", "0"], "time": [2010, 2623]}, "edge": {"target": [], "time": []}}, "mouseout": {"state": {"target": ["0", "1"], "time": [1826, 2540]}, "edge": {"target": [], "time": []}}}, "displayed_time": "15.01", "trialTime": 16282, "trial_type": "mouselab-mdp", "trial_index": 33, "time_elapsed": 905428, "internal_node_id": "0.0-4.0-1.0-12.0"}}, {"uniqueid": "w59242215:a42576261", "current_trial": 34, "dateTime": 1691072078647, "trialdata": {"revealed_states": [], "clicked_states": ["1"], "num_clicks_accrued": [0, 0, 0, 0, 0, 0, 0, 0, 0, 0, 0, 0, 0], "stateRewards": ["", 2, -4, 7, 3, 23, -42, 4, 7, -81, -33, 7, -2, -4, 5, -1, 50, -57, -14, -13, -14, 44, 55, -2, -2, 5, -2, 33, 1, 57, -13, -7, 58, 87], "withholdReward": false, "trial_id": "mdp_trial_14", "block": "test", "trialIndex": 19, "score": -70.4, "costs": -1.4, "simulationMode": [null, null, null, null, null], "rewards": [2, -4, 7, 7, -81], "path": ["0", "0", "1", "2", "3", "8", "9"], "rt": [4167, 395, 327, 182, 273], "actions": ["up", "up", "up", "left", "up"], "actionTimes": [5346, 6265, 7083, 7770, 8563], "queries": {"click": {"state": {"target": ["1"], "time": [2876]}, "edge": {"target": [], "time": []}}, "mouseover": {"state": {"target": ["1", "12"], "time": [2258, 3173]}, "edge": {"target": [], "time": []}}, "mouseout": {"state": {"target": ["0", "1"], "time": [1974, 3106]}, "edge": {"target": [], "time": []}}}, "displayed_time": "15.18", "trialTime": 16882, "trial_type": "mouselab-mdp", "trial_index": 34, "time_elapsed": 922705, "internal_node_id": "0.0-4.0-1.0-13.0"}}, {"uniqueid": "w59242215:a42576261", "current_trial": 35, "dateTime": 1691072096213, "trialdata": {"revealed_states": [], "clicked_states": [], "num_clicks_accrued": [0, 0, 0, 0, 0, 0, 0, 0, 0, 0, 0, 0, 0], "stateRewards": ["", 1, -2, -2, 10, -31, -77, 35, 9, -47, 8, 48, -2, 1, -4, -3, -26, -50, 43, -11, 76, -38, 17, 1, -1, 6, 10, 15, -9, 12, -8, 85, 11, -55], "withholdReward": false, "trial_id": "mdp_trial_15", "block": "test", "trialIndex": 20, "score": 7, "costs": 0, "simulationMode": [null, null, null, null, null], "rewards": [1, -1, 6, 10, -9], "path": ["0", "0", "23", "24", "25", "26", "28"], "rt": [2806, 279, 273, 257, 429], "actions": ["left", "left", "left", "up", "right"], "actionTimes": [4665, 5439, 6215, 6967, 7888], "queries": {"click": {"state": {"target": [], "time": []}, "edge": {"target": [], "time": []}}, "mouseover": {"state": {"target": ["12"], "time": [1908]}, "edge": {"target": [], "time": []}}, "mouseout": {"state": {"target": ["12", "0", "0"], "time": [808, 1240, 1868]}, "edge": {"target": [], "time": []}}}, "displayed_time": "15.86", "trialTime": 17152, "trial_type": "mouselab-mdp", "trial_index": 35, "time_elapsed": 940269, "internal_node_id": "0.0-4.0-1.0-14.0"}}, {"uniqueid": "w59242215:a42576261", "current_trial": 36, "dateTime": 1691072114012, "trialdata": {"revealed_states": [], "clicked_states": ["23"], "num_clicks_accrued": [0, 0, 0, 0, 0, 0, 0, 0, 0, 0, 0, 0, 0], "stateRewards": ["", -1, 2, -2, 5, 80, -61, -27, 12, 44, -26, -75, -2, -4, 1, -16, 42, -49, -50, 4, -44, 2, 80, -2, -2, 5, -2, 59, 10, 24, 7, -48, -86, -44], "withholdReward": false, "trial_id": "mdp_trial_16", "block": "test", "trialIndex": 21, "score": 77.6, "costs": -1.4, "simulationMode": [null, null, null, null, null], "rewards": [-2, -4, 1, 4, 80], "path": ["0", "0", "12", "13", "14", "19", "22"], "rt": [4481, 371, 489, 216, 381], "actions": ["right", "right", "right", "down", "left"], "actionTimes": [6509, 7377, 8360, 9088, 9968], "queries": {"click": {"state": {"target": ["23"], "time": [3683]}, "edge": {"target": [], "time": []}}, "mouseover": {"state": {"target": ["23", "23"], "time": [3120, 3396]}, "edge": {"target": [], "time": []}}, "mouseout": {"state": {"target": ["12", "0", "23", "23"], "time": [1088, 3087, 3187, 3888]}, "edge": {"target": [], "time": []}}}, "displayed_time": "16.04", "trialTime": 17387, "trial_type": "mouselab-mdp", "trial_index": 36, "time_elapsed": 958069, "internal_node_id": "0.0-4.0-1.0-15.0"}}, {"uniqueid": "w59242215:a42576261", "current_trial": 37, "dateTime": 1691072131550, "trialdata": {"revealed_states": [], "clicked_states": ["1"], "num_clicks_accrued": [0, 0, 0, 0, 0, 0, 0, 0, 0, 0, 0, 0, 0], "stateRewards": ["", 1, 2, -8, 9, 18, -83, -11, 6, -64, -48, 17, -2, -2, -5, -3, -24, -3, -86, -2, 48, -41, -22, -2, 4, 7, 8, 81, 13, -48, 10, 61, 19, 57], "withholdReward": false, "trial_id": "mdp_trial_17", "block": "test", "trialIndex": 22, "score": 20.6, "costs": -1.4, "simulationMode": [null, null, null, null, null], "rewards": [1, 2, -8, 9, 18], "path": ["0", "0", "1", "2", "3", "4", "5"], "rt": [3473, 420, 278, 323, 576], "actions": ["up", "up", "up", "right", "up"], "actionTimes": [5249, 6167, 6941, 7784, 8879], "queries": {"click": {"state": {"target": ["1"], "time": [2866]}, "edge": {"target": [], "time": []}}, "mouseover": {"state": {"target": ["1", "0"], "time": [2310, 3312]}, "edge": {"target": [], "time": []}}, "mouseout": {"state": {"target": ["0", "1", "0"], "time": [2208, 3078, 4832]}, "edge": {"target": [], "time": []}}}, "displayed_time": "15.78", "trialTime": 17136, "trial_type": "mouselab-mdp", "trial_index": 37, "time_elapsed": 975606, "internal_node_id": "0.0-4.0-1.0-16.0"}}, {"uniqueid": "w59242215:a42576261", "current_trial": 38, "dateTime": 1691072148278, "trialdata": {"revealed_states": [], "clicked_states": ["12"], "num_clicks_accrued": [0, 0, 0, 0, 0, 0, 0, 0, 0, 0, 0, 0, 0], "stateRewards": ["", 1, -3, -2, 14, 49, -40, -39, 2, 26, -61, 73, 1, -4, -8, 12, 79, 29, -65, -13, 55, -26, 27, -1, 3, 3, 9, -17, -60, -18, -8, 35, -88, 69], "withholdReward": false, "trial_id": "mdp_trial_18", "block": "test", "trialIndex": 23, "score": 28.6, "costs": -1.4, "simulationMode": [null, null, null, null, null], "rewards": [1, -4, -8, 12, 29], "path": ["0", "0", "12", "13", "14", "15", "17"], "rt": [3751, 324, 381, 289, 305], "actions": ["right", "right", "right", "up", "right"], "actionTimes": [4873, 5703, 6577, 7367, 8199], "queries": {"click": {"state": {"target": ["12"], "time": [2793]}, "edge": {"target": [], "time": []}}, "mouseover": {"state": {"target": ["12"], "time": [2561]}, "edge": {"target": [], "time": []}}, "mouseout": {"state": {"target": ["0", "12"], "time": [2413, 3028]}, "edge": {"target": [], "time": []}}}, "displayed_time": "15.14", "trialTime": 16320, "trial_type": "mouselab-mdp", "trial_index": 38, "time_elapsed": 992335, "internal_node_id": "0.0-4.0-1.0-17.0"}}, {"uniqueid": "w59242215:a42576261", "current_trial": 39, "dateTime": 1691072170006, "trialdata": {"revealed_states": [], "clicked_states": ["1", "23", "24", "25", "26", "29"], "num_clicks_accrued": [0, 0, 0, 0, 0, 0, 0, 0, 0, 0, 0, 0, 0], "stateRewards": ["", -2, 2, 3, -7, -31, -33, 29, -8, -57, 50, -83, -1, -1, 5, 13, -23, -62, 25, 5, -66, -85, 14, 1, -2, -1, 16, 71, 33, -19, -14, 5, -43, 79], "withholdReward": false, "trial_id": "mdp_trial_19", "block": "test", "trialIndex": 24, "score": 76.6, "costs": -8.4, "simulationMode": [null, null, null, null, null], "rewards": [1, -2, -1, 16, 71], "path": ["0", "0", "23", "24", "25", "26", "27"], "rt": [14818, 164, 164, 749, 226], "actions": ["left", "left", "left", "up", "up"], "actionTimes": [15879, 16540, 17220, 18470, 19204], "queries": {"click": {"state": {"target": ["1", "23", "24", "25", "26", "29"], "time": [2124, 4491, 6524, 8852, 10963, 12941]}, "edge": {"target": [], "time": []}}, "mouseover": {"state": {"target": ["1", "23", "0", "24", "25", "26", "29"], "time": [1679, 2891, 4795, 5241, 6790, 9206, 11506]}, "edge": {"target": [], "time": []}}, "mouseout": {"state": {"target": ["0", "1", "23", "0", "23", "24", "25", "26", "29", "29"], "time": [1541, 2574, 4758, 4998, 5159, 6724, 9090, 11455, 13060, 13455]}, "edge": {"target": [], "time": []}}}, "displayed_time": "19.70", "trialTime": 21317, "trial_type": "mouselab-mdp", "trial_index": 39, "time_elapsed": 1014062, "internal_node_id": "0.0-4.0-1.0-18.0"}}, {"uniqueid": "w59242215:a42576261", "current_trial": 40, "dateTime": 1691072188815, "trialdata": {"revealed_states": [], "clicked_states": ["12", "13", "14", "15", "17"], "num_clicks_accrued": [0, 0, 0, 0, 0, 0, 0, 0, 0, 0, 0, 0, 0], "stateRewards": ["", -2, 1, -5, 2, -68, 80, 33, 10, 67, -59, 20, -1, -3, 3, 14, 74, -2, 24, -16, 63, 80, 46, -1, 4, 6, 12, 83, -38, -43, -4, 43, 14, -79], "withholdReward": false, "trial_id": "mdp_trial_20", "block": "test", "trialIndex": 25, "score": 80, "costs": -7, "simulationMode": [null, null, null, null, null], "rewards": [-1, -3, 3, 14, 74], "path": ["0", "0", "12", "13", "14", "15", "16"], "rt": [10824, 194, 68, 143, 339], "actions": ["right", "right", "right", "up", "up"], "actionTimes": [12837, 13530, 14121, 14794, 15625], "queries": {"click": {"state": {"target": ["12", "13", "14", "15", "17"], "time": [2992, 4959, 6778, 8327, 10396]}, "edge": {"target": [], "time": []}}, "mouseover": {"state": {"target": ["12", "13", "14", "15", "16", "17"], "time": [2732, 3326, 5308, 7068, 8985, 9584]}, "edge": {"target": [], "time": []}}, "mouseout": {"state": {"target": ["25", "24", "23", "0", "12", "13", "14", "15", "16", "17", "17"], "time": [758, 1011, 1144, 2510, 3242, 5158, 7002, 8884, 9301, 10509, 10718]}, "edge": {"target": [], "time": []}}}, "displayed_time": "16.12", "trialTime": 18402, "trial_type": "mouselab-mdp", "trial_index": 40, "time_elapsed": 1032872, "internal_node_id": "0.0-4.0-1.0-19.0"}}, {"uniqueid": "w59242215:a42576261", "current_trial": 41, "dateTime": 1691072208063, "trialdata": {"revealed_states": [], "clicked_states": ["1", "2", "3", "4", "7"], "num_clicks_accrued": [0, 0, 0, 0, 0, 0, 0, 0, 0, 0, 0, 0, 0], "stateRewards": ["", 1, 2, -3, -6, 50, -7, 7, -7, -80, 21, -1, 2, 2, 4, -1, 33, 84, 1, 14, -53, 81, 6, -2, -2, -3, -9, -87, -38, -59, -5, -74, -3, -71], "withholdReward": false, "trial_id": "mdp_trial_21", "block": "test", "trialIndex": 26, "score": -6, "costs": -7, "simulationMode": [null, null, null, null, null], "rewards": [1, 2, -3, -6, 7], "path": ["0", "0", "1", "2", "3", "4", "7"], "rt": [12899, 180, 64, 29, 267], "actions": ["up", "up", "up", "right", "down"], "actionTimes": [14600, 15294, 15878, 16427, 17212], "queries": {"click": {"state": {"target": ["1", "2", "3", "4", "7"], "time": [4364, 6242, 8188, 9988, 11844]}, "edge": {"target": [], "time": []}}, "mouseover": {"state": {"target": ["12", "0", "23", "23", "1", "2", "3", "4", "6", "7"], "time": [2401, 2998, 3049, 3318, 4031, 4615, 6649, 8481, 10481, 10830]}, "edge": {"target": [], "time": []}}, "mouseout": {"state": {"target": ["14", "13", "12", "0", "12", "0", "23", "23", "1", "2", "3", "4", "6", "7"], "time": [782, 917, 982, 2316, 2949, 3033, 3099, 3918, 4533, 6466, 8415, 10331, 10671, 12147]}, "edge": {"target": [], "time": []}}}, "displayed_time": "17.71", "trialTime": 18869, "trial_type": "mouselab-mdp", "trial_index": 41, "time_elapsed": 1052120, "internal_node_id": "0.0-4.0-1.0-20.0"}}, {"uniqueid": "w59242215:a42576261", "current_trial": 42, "dateTime": 1691072227223, "trialdata": {"revealed_states": [], "clicked_states": ["23", "24", "25", "30", "32"], "num_clicks_accrued": [0, 0, 0, 0, 0, 0, 0, 0, 0, 0, 0, 0, 0], "stateRewards": ["", -1, 2, -7, -12, -62, 12, -13, 5, 77, -71, 83, 1, -4, 7, 15, -42, -87, -4, 5, -25, 44, 88, -1, 4, -5, -8, 14, 51, 8, -5, 83, -24, -19], "withholdReward": false, "trial_id": "mdp_trial_22", "block": "test", "trialIndex": 27, "score": -23, "costs": -7, "simulationMode": [null, null, null, null, null], "rewards": [1, -4, 7, 5, -25], "path": ["0", "0", "12", "13", "14", "19", "20"], "rt": [11739, 227, 110, 129, 283], "actions": ["right", "right", "right", "down", "right"], "actionTimes": [13278, 14011, 14642, 15279, 16067], "queries": {"click": {"state": {"target": ["23", "24", "25", "30", "32"], "time": [2493, 5212, 7098, 8858, 10754]}, "edge": {"target": [], "time": []}}, "mouseover": {"state": {"target": ["0", "23", "24", "25", "24", "25", "30", "32"], "time": [2019, 2118, 2769, 3935, 5086, 5567, 7400, 9318]}, "edge": {"target": [], "time": []}}, "mouseout": {"state": {"target": ["0", "23", "24", "25", "24", "25", "30", "32"], "time": [2068, 2685, 3852, 4818, 5502, 7333, 9200, 11116]}, "edge": {"target": [], "time": []}}}, "displayed_time": "16.57", "trialTime": 18771, "trial_type": "mouselab-mdp", "trial_index": 42, "time_elapsed": 1071279, "internal_node_id": "0.0-4.0-1.0-21.0"}}, {"uniqueid": "w59242215:a42576261", "current_trial": 43, "dateTime": 1691072243902, "trialdata": {"revealed_states": [], "clicked_states": ["12", "1", "23"], "num_clicks_accrued": [0, 0, 0, 0, 0, 0, 0, 0, 0, 0, 0, 0, 0], "stateRewards": ["", -1, -1, 4, -16, -75, 81, -51, -7, -84, 73, -30, -2, 1, -3, -16, -77, 33, 14, 1, 45, 87, -66, 2, 2, -5, -7, -19, -17, 79, -3, 8, 49, 47], "withholdReward": false, "trial_id": "mdp_trial_23", "block": "test", "trialIndex": 28, "score": 66.8, "costs": -4.199999999999999, "simulationMode": [null, null, null, null, null], "rewards": [2, 2, -5, -7, 79], "path": ["0", "0", "23", "24", "25", "26", "29"], "rt": [7526, 350, 284, 194, 322], "actions": ["left", "left", "left", "up", "left"], "actionTimes": [8964, 9811, 10594, 11288, 12146], "queries": {"click": {"state": {"target": ["12", "1", "23"], "time": [3111, 4970, 6739]}, "edge": {"target": [], "time": []}}, "mouseover": {"state": {"target": ["1", "12", "1", "23"], "time": [1963, 2696, 3395, 5278]}, "edge": {"target": [], "time": []}}, "mouseout": {"state": {"target": ["23", "0", "1", "12", "1", "23"], "time": [743, 1778, 2446, 3245, 5211, 8643]}, "edge": {"target": [], "time": []}}}, "displayed_time": "15.44", "trialTime": 16282, "trial_type": "mouselab-mdp", "trial_index": 43, "time_elapsed": 1087958, "internal_node_id": "0.0-4.0-1.0-22.0"}}, {"uniqueid": "w59242215:a42576261", "current_trial": 44, "dateTime": 1691072260830, "trialdata": {"revealed_states": [], "clicked_states": ["23", "12"], "num_clicks_accrued": [0, 0, 0, 0, 0, 0, 0, 0, 0, 0, 0, 0, 0], "stateRewards": ["", -2, -3, 7, -13, 60, 9, 37, -6, 37, 20, 1, 2, -2, -8, 6, -80, -31, -10, -7, 70, -65, -44, -1, 1, 7, 6, -11, 73, -85, 16, -21, 47, 34], "withholdReward": false, "trial_id": "mdp_trial_24", "block": "test", "trialIndex": 29, "score": -84.8, "costs": -2.8, "simulationMode": [null, null, null, null, null], "rewards": [2, -2, -8, 6, -80], "path": ["0", "0", "12", "13", "14", "15", "16"], "rt": [10205, 147, 136, 109, 414], "actions": ["right", "right", "right", "up", "up"], "actionTimes": [11584, 12239, 12893, 13501, 14422], "queries": {"click": {"state": {"target": ["23", "12"], "time": [2731, 4655]}, "edge": {"target": [], "time": []}}, "mouseover": {"state": {"target": ["23", "23", "12", "1", "13", "14", "19"], "time": [2025, 2394, 3127, 5092, 8759, 8975, 9762]}, "edge": {"target": [], "time": []}}, "mouseout": {"state": {"target": ["0", "23", "23", "12", "1", "13", "14", "19"], "time": [1459, 2141, 2959, 5009, 8290, 8874, 9475, 10390]}, "edge": {"target": [], "time": []}}}, "displayed_time": "15.39", "trialTime": 16566, "trial_type": "mouselab-mdp", "trial_index": 44, "time_elapsed": 1104888, "internal_node_id": "0.0-4.0-1.0-23.0"}}, {"uniqueid": "w59242215:a42576261", "current_trial": 45, "dateTime": 1691072277422, "trialdata": {"revealed_states": [], "clicked_states": ["12", "1", "23"], "num_clicks_accrued": [0, 0, 0, 0, 0, 0, 0, 0, 0, 0, 0, 0, 0], "stateRewards": ["", -2, 1, 6, -2, -10, -78, -69, 14, -15, 7, -1, 1, -1, -2, 13, 77, 32, 87, 5, -74, 30, -26, 1, 3, 4, 12, 39, 54, -43, 2, 10, 23, 13], "withholdReward": false, "trial_id": "mdp_trial_25", "block": "test", "trialIndex": 30, "score": 69.8, "costs": -4.199999999999999, "simulationMode": [null, null, null, null, null], "rewards": [1, 3, 4, 12, 54], "path": ["0", "0", "23", "24", "25", "26", "28"], "rt": [7512, 197, 294, 240, 232], "actions": ["left", "left", "left", "up", "right"], "actionTimes": [8718, 9444, 10253, 10996, 11740], "queries": {"click": {"state": {"target": ["12", "1", "23"], "time": [2150, 4121, 6108]}, "edge": {"target": [], "time": []}}, "mouseover": {"state": {"target": ["12", "1", "23", "0", "12", "13"], "time": [1885, 2675, 4424, 7189, 7273, 7423]}, "edge": {"target": [], "time": []}}, "mouseout": {"state": {"target": ["12", "23", "0", "12", "1", "23", "0", "12", "13"], "time": [411, 658, 1741, 2493, 4374, 7157, 7240, 7357, 7706]}, "edge": {"target": [], "time": []}}}, "displayed_time": "15.21", "trialTime": 16228, "trial_type": "mouselab-mdp", "trial_index": 45, "time_elapsed": 1121478, "internal_node_id": "0.0-4.0-1.0-24.0"}}, {"uniqueid": "w59242215:a42576261", "current_trial": 46, "dateTime": 1691072294326, "trialdata": {"revealed_states": [], "clicked_states": ["1"], "num_clicks_accrued": [0, 0, 0, 0, 0, 0, 0, 0, 0, 0, 0, 0, 0], "stateRewards": ["", 1, 2, -3, 6, -88, 74, -45, 7, -46, 40, -77, 1, -4, 4, 3, 22, -25, -59, 8, -83, 19, -60, -1, -1, -1, -8, 26, -29, 64, -7, -88, -51, -55], "withholdReward": false, "trial_id": "mdp_trial_26", "block": "test", "trialIndex": 31, "score": -40.4, "costs": -1.4, "simulationMode": [null, null, null, null, null], "rewards": [1, 2, -3, 7, -46], "path": ["0", "0", "1", "2", "3", "8", "9"], "rt": [4166, 289, 217, 264, 367], "actions": ["up", "up", "up", "left", "up"], "actionTimes": [5684, 6466, 7177, 7940, 8810], "queries": {"click": {"state": {"target": ["1"], "time": [3628]}, "edge": {"target": [], "time": []}}, "mouseover": {"state": {"target": ["1"], "time": [3294]}, "edge": {"target": [], "time": []}}, "mouseout": {"state": {"target": ["13", "12", "0", "1"], "time": [508, 709, 3099, 3908]}, "edge": {"target": [], "time": []}}}, "displayed_time": "15.53", "trialTime": 16538, "trial_type": "mouselab-mdp", "trial_index": 46, "time_elapsed": 1138382, "internal_node_id": "0.0-4.0-1.0-25.0"}}, {"uniqueid": "w59242215:a42576261", "current_trial": 47, "dateTime": 1691072310996, "trialdata": {"revealed_states": [], "clicked_states": ["12"], "num_clicks_accrued": [0, 0, 0, 0, 0, 0, 0, 0, 0, 0, 0, 0, 0], "stateRewards": ["", 1, 1, 5, 6, -29, -7, 3, -16, 9, -46, 65, -1, 4, -1, -16, -63, -77, -87, 8, 80, -50, 43, -1, -1, -5, 5, -38, -71, -62, 9, 81, -50, -52], "withholdReward": false, "trial_id": "mdp_trial_27", "block": "test", "trialIndex": 32, "score": -65.4, "costs": -1.4, "simulationMode": [null, null, null, null, null], "rewards": [-1, -1, -5, 5, -62], "path": ["0", "0", "23", "24", "25", "26", "29"], "rt": [4398, 244, 236, 141, 289], "actions": ["left", "left", "left", "up", "left"], "actionTimes": [5670, 6444, 7180, 7836, 8635], "queries": {"click": {"state": {"target": ["12"], "time": [3141]}, "edge": {"target": [], "time": []}}, "mouseover": {"state": {"target": ["1", "12"], "time": [2193, 2745]}, "edge": {"target": [], "time": []}}, "mouseout": {"state": {"target": ["1", "12"], "time": [2673, 3412]}, "edge": {"target": [], "time": []}}}, "displayed_time": "15.28", "trialTime": 16245, "trial_type": "mouselab-mdp", "trial_index": 47, "time_elapsed": 1155052, "internal_node_id": "0.0-4.0-1.0-26.0"}}, {"uniqueid": "w59242215:a42576261", "current_trial": 48, "dateTime": 1691072328115, "trialdata": {"revealed_states": [], "clicked_states": [], "num_clicks_accrued": [0, 0, 0, 0, 0, 0, 0, 0, 0, 0, 0, 0, 0], "stateRewards": ["", 2, 1, -3, 7, 46, 11, -36, 16, 71, 5, 1, 2, -2, -8, -3, -4, 6, 55, 7, 68, -54, 2, 1, 1, 6, -6, 42, -4, -84, -11, -65, 63, 25], "withholdReward": false, "trial_id": "mdp_trial_28", "block": "test", "trialIndex": 33, "score": 22, "costs": 0, "simulationMode": [null, null, null, null, null], "rewards": [1, 1, 6, -11, 25], "path": ["0", "0", "23", "24", "25", "30", "33"], "rt": [1099, 135, 188, 87, 1306], "actions": ["left", "left", "left", "down", "left"], "actionTimes": [2498, 3153, 3857, 4440, 6241], "queries": {"click": {"state": {"target": [], "time": []}, "edge": {"target": [], "time": []}}, "mouseover": {"state": {"target": [], "time": []}, "edge": {"target": [], "time": []}}, "mouseout": {"state": {"target": ["12", "0"], "time": [566, 750]}, "edge": {"target": [], "time": []}}}, "displayed_time": "15.41", "trialTime": 16609, "trial_type": "mouselab-mdp", "trial_index": 48, "time_elapsed": 1172171, "internal_node_id": "0.0-4.0-1.0-27.0"}}, {"uniqueid": "w59242215:a42576261", "current_trial": 49, "dateTime": 1691072344698, "trialdata": {"revealed_states": [], "clicked_states": [], "num_clicks_accrued": [0, 0, 0, 0, 0, 0, 0, 0, 0, 0, 0, 0, 0], "stateRewards": ["", -2, -4, -8, 8, 63, -50, -19, -7, -17, -31, 31, 1, 3, -5, 12, -35, -63, -29, -4, -17, -75, -79, -2, -3, -2, 8, -3, -85, 10, -2, -82, -82, 56], "withholdReward": false, "trial_id": "mdp_trial_29", "block": "test", "trialIndex": 34, "score": -25, "costs": 0, "simulationMode": [null, null, null, null, null], "rewards": [-2, -4, -8, 8, -19], "path": ["0", "0", "1", "2", "3", "4", "7"], "rt": [1287, 315, 161, 196, 348], "actions": ["up", "up", "up", "right", "down"], "actionTimes": [2724, 3533, 4195, 4898, 5765], "queries": {"click": {"state": {"target": [], "time": []}, "edge": {"target": [], "time": []}}, "mouseover": {"state": {"target": [], "time": []}, "edge": {"target": [], "time": []}}, "mouseout": {"state": {"target": [], "time": []}, "edge": {"target": [], "time": []}}}, "displayed_time": "15.45", "trialTime": 16131, "trial_type": "mouselab-mdp", "trial_index": 49, "time_elapsed": 1188755, "internal_node_id": "0.0-4.0-1.0-28.0"}}, {"uniqueid": "w59242215:a42576261", "current_trial": 50, "dateTime": 1691072361130, "trialdata": {"revealed_states": [], "clicked_states": [], "num_clicks_accrued": [0, 0, 0, 0, 0, 0, 0, 0, 0, 0, 0, 0, 0], "stateRewards": ["", 2, 3, 6, -12, -29, 12, 87, 4, 35, -30, 67, 2, 3, -5, -9, 44, 69, -8, 1, 45, -8, 28, -2, -1, -8, 11, -12, -5, 81, 9, 87, 82, 88], "withholdReward": false, "trial_id": "mdp_trial_30", "block": "test", "trialIndex": 35, "score": 46, "costs": 0, "simulationMode": [null, null, null, null, null], "rewards": [2, 3, -5, 1, 45], "path": ["0", "0", "12", "13", "14", "19", "20"], "rt": [6426, 250, 148, 113, 281], "actions": ["right", "right", "right", "down", "right"], "actionTimes": [7456, 8205, 8853, 9484, 10285], "queries": {"click": {"state": {"target": [], "time": []}, "edge": {"target": [], "time": []}}, "mouseover": {"state": {"target": ["12", "13", "14", "13", "12"], "time": [2970, 3454, 3872, 4708, 4923]}, "edge": {"target": [], "time": []}}, "mouseout": {"state": {"target": ["0", "12", "13", "14", "13"], "time": [2437, 3405, 3736, 4691, 4770]}, "edge": {"target": [], "time": []}}}, "displayed_time": "15.04", "trialTime": 15957, "trial_type": "mouselab-mdp", "trial_index": 50, "time_elapsed": 1205187, "internal_node_id": "0.0-4.0-1.0-29.0"}}, {"uniqueid": "w59242215:a42576261", "current_trial": 51, "dateTime": 1691072377546, "trialdata": {"revealed_states": [], "clicked_states": ["23", "1"], "num_clicks_accrued": [0, 0, 0, 0, 0, 0, 0, 0, 0, 0, 0, 0, 0], "stateRewards": ["", -1, 4, 3, 12, -27, 34, -33, 3, -63, 1, 6, 2, 2, -6, -11, -77, -85, 68, -6, 51, 81, -60, -2, -2, 1, 15, 20, 15, 68, -10, -14, 6, -4], "withholdReward": false, "trial_id": "mdp_trial_31", "block": "test", "trialIndex": 36, "score": 52.2, "costs": -2.8, "simulationMode": [null, null, null, null, null], "rewards": [2, 2, -6, -11, 68], "path": ["0", "0", "12", "13", "14", "15", "18"], "rt": [7765, 395, 368, 229, 533], "actions": ["right", "right", "right", "up", "left"], "actionTimes": [8912, 9831, 10700, 11461, 12501], "queries": {"click": {"state": {"target": ["23", "1"], "time": [2775, 6130]}, "edge": {"target": [], "time": []}}, "mouseover": {"state": {"target": ["23", "24", "23", "24", "1", "2", "2", "12"], "time": [1701, 1917, 2435, 3251, 5200, 7184, 8033, 8350]}, "edge": {"target": [], "time": []}}, "mouseout": {"state": {"target": ["12", "0", "23", "24", "23", "24", "1", "2", "2"], "time": [383, 1670, 1767, 2352, 3068, 4867, 7067, 7233, 8116]}, "edge": {"target": [], "time": []}}}, "displayed_time": "15.15", "trialTime": 15925, "trial_type": "mouselab-mdp", "trial_index": 51, "time_elapsed": 1221603, "internal_node_id": "0.0-4.0-1.0-30.0"}}, {"uniqueid": "w59242215:a42576261", "current_trial": 52, "dateTime": 1691072394635, "trialdata": {"revealed_states": [], "clicked_states": [], "num_clicks_accrued": [0, 0, 0, 0, 0, 0, 0, 0, 0, 0, 0, 0, 0], "stateRewards": ["", 1, 4, -8, -13, -13, -87, -77, -10, -44, 54, 42, 2, -3, -4, 12, -9, -80, 52, 9, 84, -2, -65, 1, -4, -5, -6, 8, 80, 32, 13, -59, -5, -13], "withholdReward": false, "trial_id": "mdp_trial_32", "block": "test", "trialIndex": 37, "score": 88, "costs": 0, "simulationMode": [null, null, null, null, null], "rewards": [2, -3, -4, 9, 84], "path": ["0", "0", "12", "13", "14", "19", "20"], "rt": [3053, 1155, 216, 236, 365], "actions": ["right", "right", "right", "down", "right"], "actionTimes": [4648, 6326, 7038, 7774, 8637], "queries": {"click": {"state": {"target": [], "time": []}, "edge": {"target": [], "time": []}}, "mouseover": {"state": {"target": [], "time": []}, "edge": {"target": [], "time": []}}, "mouseout": {"state": {"target": ["12"], "time": [619]}, "edge": {"target": [], "time": []}}}, "displayed_time": "15.61", "trialTime": 16639, "trial_type": "mouselab-mdp", "trial_index": 52, "time_elapsed": 1238692, "internal_node_id": "0.0-4.0-1.0-31.0"}}, {"uniqueid": "w59242215:a42576261", "current_trial": 53, "dateTime": 1691072411020, "trialdata": {"revealed_states": [], "clicked_states": [], "num_clicks_accrued": [0, 0, 0, 0, 0, 0, 0, 0, 0, 0, 0, 0, 0], "stateRewards": ["", -1, 2, 5, -6, 13, -64, -47, 8, -79, -80, -33, 1, 2, -2, -16, 56, -71, -10, 3, 29, 44, 85, -1, 4, 5, 4, -36, -56, 19, 8, 52, -13, -2], "withholdReward": false, "trial_id": "mdp_trial_33", "block": "test", "trialIndex": 38, "score": -24, "costs": 0, "simulationMode": [null, null, null, null, null], "rewards": [-1, 4, 5, 4, -36], "path": ["0", "0", "23", "24", "25", "26", "27"], "rt": [3048, 559, 188, 130, 328], "actions": ["left", "left", "left", "up", "up"], "actionTimes": [3984, 5070, 5750, 6391, 7224], "queries": {"click": {"state": {"target": [], "time": []}, "edge": {"target": [], "time": []}}, "mouseover": {"state": {"target": ["23"], "time": [3228]}, "edge": {"target": [], "time": []}}, "mouseout": {"state": {"target": ["0"], "time": [3043]}, "edge": {"target": [], "time": []}}}, "displayed_time": "14.94", "trialTime": 15935, "trial_type": "mouselab-mdp", "trial_index": 53, "time_elapsed": 1255076, "internal_node_id": "0.0-4.0-1.0-32.0"}}, {"uniqueid": "w59242215:a42576261", "current_trial": 54, "dateTime": 1691072428021, "trialdata": {"revealed_states": [], "clicked_states": ["23"], "num_clicks_accrued": [0, 0, 0, 0, 0, 0, 0, 0, 0, 0, 0, 0, 0], "stateRewards": ["", -1, 2, 7, 8, 75, 67, -11, 6, 52, -17, 38, -1, 4, -8, 14, 74, -37, -17, -12, 52, 55, 71, -2, -1, -5, 2, 21, 6, -88, -14, 64, -61, -47], "withholdReward": false, "trial_id": "mdp_trial_34", "block": "test", "trialIndex": 39, "score": -29.4, "costs": -1.4, "simulationMode": [null, null, null, null, null], "rewards": [-1, 4, -8, 14, -37], "path": ["0", "0", "12", "13", "14", "15", "17"], "rt": [4614, 430, 321, 206, 273], "actions": ["right", "right", "right", "up", "right"], "actionTimes": [6157, 7086, 7925, 8629, 9397], "queries": {"click": {"state": {"target": ["23"], "time": [2413]}, "edge": {"target": [], "time": []}}, "mouseover": {"state": {"target": ["23", "0", "0", "12"], "time": [2209, 2670, 5218, 5507]}, "edge": {"target": [], "time": []}}, "mouseout": {"state": {"target": ["23", "0", "0", "23", "0", "0"], "time": [553, 585, 2054, 2637, 2887, 5285]}, "edge": {"target": [], "time": []}}}, "displayed_time": "15.56", "trialTime": 16501, "trial_type": "mouselab-mdp", "trial_index": 54, "time_elapsed": 1272078, "internal_node_id": "0.0-4.0-1.0-33.0"}}, {"uniqueid": "w59242215:a42576261", "current_trial": 55, "dateTime": 1691072444437, "trialdata": {"revealed_states": [], "clicked_states": ["1", "12"], "num_clicks_accrued": [0, 0, 0, 0, 0, 0, 0, 0, 0, 0, 0, 0, 0], "stateRewards": ["", -1, 1, -5, -6, -78, 47, -13, 12, 48, -88, 20, 2, -3, -2, 13, -20, 37, -57, 14, -38, 30, 31, -2, -2, 8, 2, -23, 78, 28, 12, -74, -88, 8], "withholdReward": false, "trial_id": "mdp_trial_35", "block": "test", "trialIndex": 40, "score": 44.2, "costs": -2.8, "simulationMode": [null, null, null, null, null], "rewards": [2, -3, -2, 13, 37], "path": ["0", "0", "12", "13", "14", "15", "17"], "rt": [5658, 227, 133, 83, 213], "actions": ["right", "right", "right", "up", "right"], "actionTimes": [6727, 7493, 8133, 8731, 9462], "queries": {"click": {"state": {"target": ["1", "12"], "time": [1770, 4182]}, "edge": {"target": [], "time": []}}, "mouseover": {"state": {"target": ["1", "12", "13", "0"], "time": [1448, 3816, 4782, 4982]}, "edge": {"target": [], "time": []}}, "mouseout": {"state": {"target": ["12", "0", "1", "12", "13", "12", "0"], "time": [418, 1365, 2266, 4665, 4898, 4965, 5381]}, "edge": {"target": [], "time": []}}}, "displayed_time": "15.07", "trialTime": 15933, "trial_type": "mouselab-mdp", "trial_index": 55, "time_elapsed": 1288493, "internal_node_id": "0.0-4.0-1.0-34.0"}}, {"uniqueid": "w59242215:a42576261", "current_trial": 56, "dateTime": 1691072461229, "trialdata": {"revealed_states": [], "clicked_states": ["23"], "num_clicks_accrued": [0, 0, 0, 0, 0, 0, 0, 0, 0, 0, 0, 0, 0], "stateRewards": ["", 1, -4, -6, -1, -21, 17, -72, 10, 77, 67, -46, -1, 4, -2, 14, -66, -49, -45, -15, -52, 23, -67, 2, -2, -2, 15, -3, 45, -64, 5, -44, 83, 61], "withholdReward": false, "trial_id": "mdp_trial_36", "block": "test", "trialIndex": 41, "score": -52.4, "costs": -1.4, "simulationMode": [null, null, null, null, null], "rewards": [2, -2, -2, 15, -64], "path": ["0", "0", "23", "24", "25", "26", "29"], "rt": [3318, 291, 260, 79, 183], "actions": ["left", "left", "left", "up", "left"], "actionTimes": [4663, 5453, 6204, 6788, 7493], "queries": {"click": {"state": {"target": ["23"], "time": [2669]}, "edge": {"target": [], "time": []}}, "mouseover": {"state": {"target": ["23"], "time": [2326]}, "edge": {"target": [], "time": []}}, "mouseout": {"state": {"target": ["0", "23"], "time": [2192, 2927]}, "edge": {"target": [], "time": []}}}, "displayed_time": "15.35", "trialTime": 16325, "trial_type": "mouselab-mdp", "trial_index": 56, "time_elapsed": 1305285, "internal_node_id": "0.0-4.0-1.0-35.0"}}, {"uniqueid": "w59242215:a42576261", "current_trial": 57, "dateTime": 1691072478172, "trialdata": {"revealed_states": [], "clicked_states": ["23", "1"], "num_clicks_accrued": [0, 0, 0, 0, 0, 0, 0, 0, 0, 0, 0, 0, 0], "stateRewards": ["", -2, 2, 3, -7, 76, 63, 21, 15, 35, -8, -44, 1, 1, -2, -12, 23, 24, 76, -9, 46, 66, -49, -2, -1, 7, 12, 40, -71, -45, -6, 38, -49, 46], "withholdReward": false, "trial_id": "mdp_trial_37", "block": "test", "trialIndex": 42, "score": -60.8, "costs": -2.8, "simulationMode": [null, null, null, null, null], "rewards": [1, 1, -2, -9, -49], "path": ["0", "0", "12", "13", "14", "19", "22"], "rt": [8296, 386, 167, 229, 369], "actions": ["right", "right", "right", "down", "left"], "actionTimes": [9861, 10754, 11418, 12147, 13018], "queries": {"click": {"state": {"target": ["23", "1"], "time": [4058, 7173]}, "edge": {"target": [], "time": []}}, "mouseover": {"state": {"target": ["0", "23", "24", "23", "24", "0", "12", "1", "2", "1"], "time": [2556, 2650, 3267, 3816, 4350, 5100, 5350, 6084, 6133, 6583]}, "edge": {"target": [], "time": []}}, "mouseout": {"state": {"target": ["0", "0", "23", "24", "23", "24", "23", "0", "12", "1", "2", "1"], "time": [2319, 2600, 2785, 3785, 4317, 5033, 5084, 5251, 6021, 6100, 6549, 7503]}, "edge": {"target": [], "time": []}}}, "displayed_time": "15.58", "trialTime": 16466, "trial_type": "mouselab-mdp", "trial_index": 57, "time_elapsed": 1322229, "internal_node_id": "0.0-4.0-1.0-36.0"}}, {"uniqueid": "w59242215:a42576261", "current_trial": 58, "dateTime": 1691072495451, "trialdata": {"revealed_states": [], "clicked_states": ["12"], "num_clicks_accrued": [0, 0, 0, 0, 0, 0, 0, 0, 0, 0, 0, 0, 0], "stateRewards": ["", 2, -1, 1, 10, -52, 86, -22, -2, -14, -63, 38, 1, 3, 7, -8, 11, -32, -27, 9, -71, 40, -87, -2, -1, 5, -7, 12, 31, -57, 13, 86, -58, 29], "withholdReward": false, "trial_id": "mdp_trial_38", "block": "test", "trialIndex": 43, "score": -68.4, "costs": -1.4, "simulationMode": [null, null, null, null, null], "rewards": [1, 3, 7, 9, -87], "path": ["0", "0", "12", "13", "14", "19", "22"], "rt": [3720, 312, 184, 75, 244], "actions": ["right", "right", "right", "down", "left"], "actionTimes": [5509, 6314, 7002, 7594, 8362], "queries": {"click": {"state": {"target": ["12"], "time": [2557]}, "edge": {"target": [], "time": []}}, "mouseover": {"state": {"target": ["12"], "time": [1801]}, "edge": {"target": [], "time": []}}, "mouseout": {"state": {"target": ["0", "12"], "time": [1370, 2834]}, "edge": {"target": [], "time": []}}}, "displayed_time": "15.80", "trialTime": 16835, "trial_type": "mouselab-mdp", "trial_index": 58, "time_elapsed": 1339507, "internal_node_id": "0.0-4.0-1.0-37.0"}}, {"uniqueid": "w59242215:a42576261", "current_trial": 59, "dateTime": 1691072513090, "trialdata": {"revealed_states": [], "clicked_states": ["12"], "num_clicks_accrued": [0, 0, 0, 0, 0, 0, 0, 0, 0, 0, 0, 0, 0], "stateRewards": ["", 2, 4, 4, -8, -36, -33, 38, 16, -51, 57, 57, 1, 3, 4, -6, 45, 68, 87, 1, 63, 24, -55, -2, 2, -6, -13, -63, -50, 8, 2, 80, 6, 60], "withholdReward": false, "trial_id": "mdp_trial_39", "block": "test", "trialIndex": 44, "score": 70.6, "costs": -1.4, "simulationMode": [null, null, null, null, null], "rewards": [1, 3, 4, 1, 63], "path": ["0", "0", "12", "13", "14", "19", "20"], "rt": [4030, 377, 134, 59, 255], "actions": ["right", "right", "right", "down", "right"], "actionTimes": [5961, 6838, 7477, 8037, 8821], "queries": {"click": {"state": {"target": ["12"], "time": [2993]}, "edge": {"target": [], "time": []}}, "mouseover": {"state": {"target": ["12", "1"], "time": [2592, 3793]}, "edge": {"target": [], "time": []}}, "mouseout": {"state": {"target": ["0", "12"], "time": [2482, 3576]}, "edge": {"target": [], "time": []}}}, "displayed_time": "15.94", "trialTime": 17174, "trial_type": "mouselab-mdp", "trial_index": 59, "time_elapsed": 1357147, "internal_node_id": "0.0-4.0-1.0-38.0"}}, {"uniqueid": "w59242215:a42576261", "current_trial": 60, "dateTime": 1691072530842, "trialdata": {"revealed_states": [], "clicked_states": ["12"], "num_clicks_accrued": [0, 0, 0, 0, 0, 0, 0, 0, 0, 0, 0, 0, 0], "stateRewards": ["", 2, 3, -3, 12, -43, 81, -82, -15, 58, -7, -75, -1, -1, 3, -5, 50, -25, -8, 4, 66, 65, -66, 2, -4, 2, -1, -10, 10, 37, 11, 88, -37, 8], "withholdReward": false, "trial_id": "mdp_trial_40", "block": "test", "trialIndex": 45, "score": 34.6, "costs": -1.4, "simulationMode": [null, null, null, null, null], "rewards": [2, -4, 2, -1, 37], "path": ["0", "0", "23", "24", "25", "26", "29"], "rt": [4518, 223, 180, 91, 459], "actions": ["left", "left", "left", "up", "left"], "actionTimes": [5934, 6660, 7362, 7955, 8923], "queries": {"click": {"state": {"target": ["12"], "time": [3041]}, "edge": {"target": [], "time": []}}, "mouseover": {"state": {"target": ["12", "0"], "time": [2629, 5295]}, "edge": {"target": [], "time": []}}, "mouseout": {"state": {"target": ["1", "12", "0"], "time": [650, 3531, 5478]}, "edge": {"target": [], "time": []}}}, "displayed_time": "15.42", "trialTime": 17251, "trial_type": "mouselab-mdp", "trial_index": 60, "time_elapsed": 1374899, "internal_node_id": "0.0-4.0-1.0-39.0"}}, {"uniqueid": "w59242215:a42576261", "current_trial": 61, "dateTime": 1691072587785, "trialdata": {"rt": 56935, "response": {"Q0": "$-2 to $2", "Q1": "$-32 to $32", "Q2": "$-88 to $88", "Q3": "The cost was always $1.4.", "Q4": "Very motivated"}, "question_order": [0, 1, 2, 3, 4], "trial_id": "final_quiz_control", "trial_type": "survey-multi-choice", "trial_index": 61, "time_elapsed": 1431843, "internal_node_id": "0.0-4.0-2.0"}}, {"uniqueid": "w59242215:a42576261", "current_trial": 62, "dateTime": 1691072727703, "trialdata": {"rt": 139876, "response": {"Q0": "My strategy was to use the node inspector in the first nodes and then decide in which direction to move based on the values of each node.", "Q1": "I like to think that I did improve over time as I noticed that the center nodes with negative values seemed to have the highest values at the end.", "Q2": "Each round seemed to be different in pattern from the previous round. "}, "trial_id": "self_report_control", "trial_type": "survey-text", "trial_index": 62, "time_elapsed": 1571761, "internal_node_id": "0.0-4.0-3.0"}}, {"uniqueid": "w59242215:a42576261", "current_trial": 63, "dateTime": 1691072755319, "trialdata": {"rt": 27611, "response": {"gender": "male", "age": "38", "colorblind": "0", "effort": "0"}, "trial_type": "survey-html-form", "trial_index": 63, "time_elapsed": 1599377, "internal_node_id": "0.0-4.0-4.0"}}, {"uniqueid": "w59242215:a42576261", "current_trial": 64, "dateTime": 1691072813027, "trialdata": {"rt": 57694, "response": {"Q0": "There was nothing confusing. The game and instructions were easy to understand.", "Q1": "No, I have never completed such a game previously. ", "Q2": ""}, "trial_type": "survey-text", "trial_index": 64, "time_elapsed": 1657084, "internal_node_id": "0.0-4.0-5.0"}}, {"uniqueid": "w59242215:a42576261", "current_trial": 65, "dateTime": 1691072819452, "trialdata": {"rt": 6412, "stimulus": "Press 'Finish HIT' in order to reach the completion code. Once the data has been saved, you will receive the code either in this window or in the original browser window where you started the experiment.\n", "response": 0, "trial_type": "html-button-response", "trial_index": 65, "time_elapsed": 1663509, "internal_node_id": "0.0-5.0"}}, {"uniqueid": "w59242215:a42576261", "current_trial": 66, "dateTime": 1691072820463, "trialdata": {"success": true, "trial_type": "fullscreen", "trial_index": 66, "time_elapsed": 1664521, "internal_node_id": "0.0-6.0"}}], "questiondata": {"params": {"CODE": "C6DMOQA6", "MIN_TIME": 14, "inspectCost": 1, "startTime": "Thu Aug 03 2023 15:59:11 GMT+0200 (South Africa Standard Time)", "bonusRate": 0.002, "variance": "1_2_4_8_44", "branching": "31123"}, "final_score": 95.6}, "eventdata": [{"eventtype": "initialized", "value": null, "timestamp": 1691071150690, "interval": 0}, {"eventtype": "window_resize", "value": [1536, 758], "timestamp": 1691071150690, "interval": 0}, {"eventtype": "window_resize", "value": [1536, 758], "timestamp": 1691071151185, "interval": 495}, {"eventtype": "window_resize", "value": [1536, 864], "timestamp": 1691071163833, "interval": 12648}, {"eventtype": "focus", "value": "off", "timestamp": 1691071512806, "interval": 348973}, {"eventtype": "focus", "value": "on", "timestamp": 1691071512807, "interval": 1}, {"eventtype": "window_resize", "value": [1536, 758], "timestamp": 1691071513016, "interval": 209}, {"eventtype": "window_resize", "value": [1536, 864], "timestamp": 1691071514971, "interval": 1955}, {"eventtype": "focus", "value": "off", "timestamp": 1691071630723, "interval": 115752}, {"eventtype": "focus", "value": "on", "timestamp": 1691071630723, "interval": 0}, {"eventtype": "window_resize", "value": [1536, 758], "timestamp": 1691071630939, "interval": 216}, {"eventtype": "window_resize", "value": [1536, 864], "timestamp": 1691071632967, "interval": 2028}, {"eventtype": "window_resize", "value": [1536, 758], "timestamp": 1691072819698, "interval": 1186731}], "useragent": "Mozilla/5.0 (Windows NT 10.0; Win64; x64) AppleWebKit/537.36 (KHTML, like Gecko) Chrome/115.0.0.0 Safari/537.36", "mode": "live", "id": "w59242215:a42576261", "status": "user data saved", "Beginhit": "2023-08-03 13:58:59.752854", "Beginexp": "2023-08-03 13:59:19.05222", "Endhit": "2023-08-03 14:26:56.50462", "psiturkStatus": 3, "browser": "<redacted>", "platform": "windows", "language": "en-ZA"}