{"condition": 0, "counterbalance": 0, "assignmentId": "a99862537", "workerId": "w12816576", "hitId": "h66052373", "currenttrial": 55, "bonus": 0, "data": [{"uniqueid": "w12816576:a99862537", "current_trial": 0, "dateTime": 1691141993136, "trialdata": {"success": true, "trial_type": "fullscreen", "trial_index": 0, "time_elapsed": 5391, "internal_node_id": "0.0-0.0"}}, {"uniqueid": "w12816576:a99862537", "current_trial": 1, "dateTime": 1691142017662, "trialdata": {"view_history": [{"page_index": 0, "viewing_time": 24517}], "rt": 24517, "trial_id": "exp_instructions_control", "trial_type": "instructions", "trial_index": 1, "time_elapsed": 29917, "internal_node_id": "0.0-1.0"}}, {"uniqueid": "w12816576:a99862537", "current_trial": 2, "dateTime": 1691142021829, "trialdata": {"success": true, "trial_type": "fullscreen", "trial_index": 2, "time_elapsed": 34084, "internal_node_id": "0.0-2.0-0.0"}}, {"uniqueid": "w12816576:a99862537", "current_trial": 3, "dateTime": 1691142226708, "trialdata": {"view_history": [{"page_index": 0, "viewing_time": 68301}, {"page_index": 1, "viewing_time": 72703}, {"page_index": 2, "viewing_time": 32374}, {"page_index": 3, "viewing_time": 31498}], "rt": 204876, "trial_id": "mouselab_instructions_1_control", "trial_type": "instructions", "trial_index": 3, "time_elapsed": 238963, "internal_node_id": "0.0-2.0-1.0"}}, {"uniqueid": "w12816576:a99862537", "current_trial": 4, "dateTime": 1691142288016, "trialdata": {"revealed_states": [], "clicked_states": ["25", "2", "14", "1", "12", "23", "24", "13", "26", "3", "27", "15", "16", "8", "9"], "num_clicks_accrued": [0, 0, 0, 0, 0, 0, 0, 0, 0, 0, 0, 0, 0], "stateRewards": ["", -10, 10, -10, -10, 10, -10, -10, 10, -10, -10, 10, 10, -10, 10, 10, 10, 10, 10, -10, 10, 10, -10, -10, -10, -10, 10, -10, 10, 10, -10, 10, 10, -10], "withholdReward": false, "trial_id": "practice_1", "block": "test", "trialIndex": 0, "score": 26, "costs": -7.5, "simulationMode": [null, null, null, null, null], "rewards": [10, -10, 10, 10, 10], "path": ["0", "0", "12", "13", "14", "15", "16"], "rt": [41165, 566, 371, 223, 248], "actions": ["right", "right", "right", "up", "up"], "actionTimes": [44220, 45303, 46176, 46919, 47672], "queries": {"click": {"state": {"target": ["25", "2", "14", "1", "12", "23", "24", "13", "26", "3", "27", "15", "16", "8", "9"], "time": [4631, 5954, 7255, 10623, 12485, 14007, 15985, 18780, 25280, 27251, 29344, 32673, 33771, 37762, 39523]}, "edge": {"target": [], "time": []}}, "mouseover": {"state": {"target": ["23", "24", "25", "1", "2", "2", "7", "18", "15", "14", "12", "1", "2", "10", "12", "0", "23", "24", "25", "12", "13", "12", "1", "1", "12", "0", "28", "26", "27", "10", "3", "8", "27", "10", "7", "18", "15", "16", "13", "12", "1", "2", "8", "9", "5", "7", "13", "12"], "time": [3796, 3856, 4056, 5296, 5395, 5595, 6534, 6595, 6655, 6894, 8255, 10256, 11575, 11755, 12259, 13096, 13174, 15276, 16476, 17919, 18016, 19276, 20217, 23176, 23573, 23914, 24837, 25078, 25835, 26537, 26897, 28255, 29016, 30055, 30194, 31359, 31818, 33134, 35699, 35815, 37079, 37136, 37436, 39399, 40579, 41359, 41499, 42259]}, "edge": {"target": [], "time": []}}, "mouseout": {"state": {"target": ["0", "23", "24", "25", "1", "2", "2", "7", "18", "15", "14", "12", "1", "2", "10", "1", "12", "0", "23", "24", "24", "25", "24", "23", "12", "13", "12", "1", "1", "12", "0", "28", "26", "27", "10", "3", "8", "27", "10", "7", "18", "15", "16", "15", "13", "12", "1", "2", "8", "9", "5", "7", "13", "12", "12"], "time": [3779, 3836, 3976, 5175, 5335, 5415, 6514, 6554, 6614, 6795, 7676, 8334, 11455, 11636, 11959, 12059, 12590, 13137, 15077, 16078, 16417, 17578, 17638, 17699, 17995, 19235, 20118, 23076, 23236, 23853, 24013, 24999, 25695, 26457, 26657, 28235, 28276, 29977, 30095, 30374, 31418, 33014, 34796, 34954, 35756, 36978, 37099, 37174, 38734, 40175, 41318, 41379, 41658, 58680, 58700]}, "edge": {"target": [], "time": []}}}, "displayed_time": "48.20", "trialTime": 60296, "trial_type": "mouselab-mdp", "trial_index": 4, "time_elapsed": 300270, "internal_node_id": "0.0-2.0-2.0-0.0"}}, {"uniqueid": "w12816576:a99862537", "current_trial": 5, "dateTime": 1691142344221, "trialdata": {"revealed_states": [], "clicked_states": ["25", "26", "27", "1", "2", "3", "8", "9", "5", "4", "16", "15", "18", "17", "21", "32", "29", "28"], "num_clicks_accrued": [0, 0, 0, 0, 0, 0, 0, 0, 0, 0, 0, 0, 0], "stateRewards": ["", -10, 10, -10, 10, -10, -10, 10, -10, -10, 10, -10, 10, -10, 10, 10, -10, 10, -10, -10, -10, 10, 10, -10, 10, -10, -10, 10, -10, 10, -10, -10, -10, -10], "withholdReward": false, "trial_id": "practice_2", "block": "test", "trialIndex": 1, "score": 24.5, "costs": -9, "simulationMode": [null, null, null, null, null], "rewards": [10, -10, 10, 10, 10], "path": ["0", "0", "12", "13", "14", "15", "17"], "rt": [41923, 248, 295, 305, 2285], "actions": ["right", "right", "right", "up", "right"], "actionTimes": [44345, 45116, 45938, 46752, 49526], "queries": {"click": {"state": {"target": ["25", "26", "27", "1", "2", "3", "8", "9", "5", "4", "16", "15", "18", "17", "21", "32", "29", "28"], "time": [4747, 6508, 8359, 10373, 12491, 14801, 16837, 18242, 19672, 21512, 24220, 25337, 27455, 28971, 31956, 33560, 36659, 38210]}, "edge": {"target": [], "time": []}}, "mouseover": {"state": {"target": ["23", "24", "24", "25", "26", "27", "10", "2", "7", "7", "2", "1", "2", "3", "8", "9", "5", "4", "18", "15", "18", "16", "15", "18", "17", "13", "12", "0", "12", "13", "14", "19", "21", "19", "22", "32", "32", "30", "31", "19", "14", "13", "12", "0", "23", "28", "27", "29", "26", "28", "28", "12", "12", "13", "12", "12", "12", "13", "14", "13"], "time": [2924, 3020, 3643, 3822, 5339, 7983, 9361, 9399, 9424, 9723, 9983, 10160, 10981, 13039, 15898, 17759, 18880, 20100, 22241, 22384, 22594, 23440, 24600, 25879, 27959, 29619, 29698, 30081, 30401, 30742, 31101, 31463, 31780, 32379, 32439, 32579, 32860, 34101, 34541, 34680, 34960, 35040, 35140, 35260, 35380, 35843, 35943, 36400, 37040, 37099, 37399, 38742, 39220, 39719, 39879, 41187, 42063, 42602, 42863, 43703]}, "edge": {"target": [], "time": []}}, "mouseout": {"state": {"target": ["0", "23", "24", "24", "25", "26", "27", "10", "2", "7", "7", "2", "1", "2", "3", "8", "9", "5", "4", "18", "15", "18", "16", "15", "18", "15", "17", "13", "12", "0", "12", "13", "14", "19", "21", "19", "22", "32", "32", "30", "31", "19", "14", "13", "12", "0", "23", "28", "27", "29", "26", "28", "28", "12", "12", "13", "12", "12", "12", "13", "14", "13"], "time": [2883, 2982, 3341, 3723, 5242, 7078, 9281, 9382, 9420, 9460, 9784, 10004, 10880, 12939, 15318, 17559, 18702, 20064, 22082, 22264, 22560, 22605, 24542, 25822, 27879, 27939, 29419, 29659, 29759, 30361, 30721, 31061, 31443, 31540, 32083, 32419, 32479, 32619, 34044, 34501, 34561, 34860, 34980, 35100, 35200, 35320, 35743, 35883, 36320, 37038, 37079, 37139, 38683, 38765, 39403, 39823, 40182, 41503, 42483, 42823, 43523, 43723]}, "edge": {"target": [], "time": []}}}, "displayed_time": "50.02", "trialTime": 55987, "trial_type": "mouselab-mdp", "trial_index": 5, "time_elapsed": 356475, "internal_node_id": "0.0-2.0-2.0-1.0"}}, {"uniqueid": "w12816576:a99862537", "current_trial": 6, "dateTime": 1691142389361, "trialdata": {"view_history": [{"page_index": 0, "viewing_time": 36238}, {"page_index": 1, "viewing_time": 8894}], "rt": 45132, "trial_id": "mouselab_instructions_2_control", "trial_type": "instructions", "trial_index": 6, "time_elapsed": 401616, "internal_node_id": "0.0-2.0-3.0"}}, {"uniqueid": "w12816576:a99862537", "current_trial": 7, "dateTime": 1691142448346, "trialdata": {"rt": 58981, "response": {"Q0": "The cost for clicking on nodes may vary between nodes.", "Q1": "The better I perform the higher my bonus will be.", "Q2": "No, the amount of cash at each node of the web may be different each time.", "Q3": "To get the highest total score.", "Q4": "Only before moving the spider.", "Q5": "3 seconds"}, "question_order": [0, 1, 2, 3, 4, 5], "correct": {"Q0": "The cost for clicking on nodes may vary between nodes.", "Q1": "The better I perform the higher my bonus will be.", "Q2": "No, the amount of cash at each node of the web may be different each time.", "Q3": "To get the highest total score.", "Q4": "Only before moving the spider.", "Q5": "3 seconds"}, "trial_id": "mouselab_quiz_control", "trial_type": "survey-multi-choice", "trial_index": 7, "time_elapsed": 460601, "internal_node_id": "0.0-2.0-4.0"}}, {"uniqueid": "w12816576:a99862537", "current_trial": 8, "dateTime": 1691142471834, "trialdata": {"rt": 23478, "stimulus": "\n<h1> Get ready to start the game! </h1>\n\nThank you for reading the instructions. Get ready start with the 40 rounds of this game.\n<br><br>\nIf you need to take a break, feel free to take one after the end of a round, before continuing to the next one.\n<br><br>\nRemember, the more money the spider gets, the bigger your bonus will be!\n<br><br>\n<div style='text-align: center;'>Press <code>space</code> to begin.</div>\n\n<br><br>\n(If, at any point, the <code>space</code> key does not take you to the next page, click once on the text and try again.)", "response": " ", "trial_id": "mdp_ready", "trial_type": "html-keyboard-response", "trial_index": 8, "time_elapsed": 484089, "internal_node_id": "0.0-4.0-0.0"}}, {"uniqueid": "w12816576:a99862537", "current_trial": 9, "dateTime": 1691142502836, "trialdata": {"revealed_states": [], "clicked_states": ["26", "15", "16", "21", "19", "17", "18"], "num_clicks_accrued": [0, 0, 0, 0, 0, 0, 0, 0, 0, 0, 0, 0, 0], "stateRewards": ["", 1, -2, -8, -3, 31, -84, -55, -14, 15, -58, 17, -2, -3, 7, 7, -12, 48, 67, 4, -44, -68, 46, 2, 3, -5, -7, 76, 27, 5, 11, 57, 52, 59], "withholdReward": false, "trial_id": "mdp_trial_1", "block": "test", "trialIndex": 2, "score": 47.2, "costs": -9.8, "simulationMode": [null, null, null, null, null], "rewards": [-2, -3, 7, 7, 48], "path": ["0", "0", "12", "13", "14", "15", "17"], "rt": [19969, 138, 160, 164, 188], "actions": ["right", "right", "right", "up", "right"], "actionTimes": [22231, 22871, 23536, 24198, 24888], "queries": {"click": {"state": {"target": ["26", "15", "16", "21", "19", "17", "18"], "time": [4687, 6225, 9512, 12452, 14510, 18166, 20240]}, "edge": {"target": [], "time": []}}, "mouseover": {"state": {"target": ["24", "25", "26", "28", "2", "15", "18", "2", "8", "9", "8", "8", "7", "16", "18", "14", "19", "21", "19", "13", "19", "14", "14", "17", "15", "18", "14", "19"], "time": [3834, 4233, 4330, 5190, 5355, 5932, 6731, 6791, 7009, 7170, 8153, 8553, 8750, 9153, 10409, 11530, 11833, 12193, 12952, 13412, 14250, 15073, 17694, 18011, 18593, 18894, 21309, 21409]}, "edge": {"target": [], "time": []}}, "mouseout": {"state": {"target": ["0", "24", "25", "26", "28", "2", "15", "18", "2", "8", "9", "8", "8", "7", "16", "15", "18", "14", "19", "21", "19", "13", "19", "14", "14", "17", "15", "18", "14", "19"], "time": [3793, 3874, 4254, 5170, 5252, 5411, 6711, 6751, 6811, 7030, 8074, 8233, 8713, 8773, 9890, 10289, 11473, 11673, 12093, 12592, 13172, 13994, 14970, 17035, 17811, 18576, 18631, 21269, 21370, 21430]}, "edge": {"target": [], "time": []}}}, "displayed_time": "25.41", "trialTime": 30770, "trial_type": "mouselab-mdp", "trial_index": 9, "time_elapsed": 515089, "internal_node_id": "0.0-4.0-1.0-0.0"}}, {"uniqueid": "w12816576:a99862537", "current_trial": 10, "dateTime": 1691142536667, "trialdata": {"revealed_states": [], "clicked_states": ["29", "28", "15", "17", "18", "3", "8", "9"], "num_clicks_accrued": [0, 0, 0, 0, 0, 0, 0, 0, 0, 0, 0, 0, 0], "stateRewards": ["", 2, -4, 4, 9, 69, 9, -75, 12, -86, 66, 25, -1, 3, 2, -13, -88, -3, 1, 4, -69, 49, -84, 2, -1, 4, 2, -18, -81, -52, -15, -69, -54, 25], "withholdReward": false, "trial_id": "mdp_trial_2", "block": "test", "trialIndex": 3, "score": 27.799999999999997, "costs": -11.200000000000001, "simulationMode": [null, null, null, null, null], "rewards": [2, -4, 4, 12, 25], "path": ["0", "0", "1", "2", "3", "8", "11"], "rt": [21937, 154, 225, 449, 1897], "actions": ["up", "up", "up", "left", "left"], "actionTimes": [25184, 25849, 26599, 27548, 29935], "queries": {"click": {"state": {"target": ["29", "28", "15", "17", "18", "3", "8", "9"], "time": [5827, 8540, 10939, 13437, 15528, 18101, 20267, 22601]}, "edge": {"target": [], "time": []}}, "mouseover": {"state": {"target": ["23", "24", "25", "26", "29", "25", "26", "26", "29", "26", "28", "1", "18", "15", "17", "18", "7", "3", "8", "9", "3"], "time": [3612, 3652, 3695, 3832, 4054, 4437, 4615, 5297, 5537, 6297, 8278, 10152, 10272, 10476, 12697, 15012, 17597, 17959, 20017, 22233, 24554]}, "edge": {"target": [], "time": []}}, "mouseout": {"state": {"target": ["20", "20", "19", "12", "0", "23", "24", "25", "26", "29", "25", "26", "26", "29", "26", "28", "1", "18", "15", "17", "15", "18", "7", "3", "8", "9", "3"], "time": [1735, 1855, 1897, 1975, 3572, 3633, 3673, 3733, 3855, 4317, 4537, 5137, 5357, 6213, 8017, 10092, 10173, 10312, 12537, 13953, 14713, 17477, 17634, 19977, 22177, 24517, 24575]}, "edge": {"target": [], "time": []}}}, "displayed_time": "30.46", "trialTime": 33605, "trial_type": "mouselab-mdp", "trial_index": 10, "time_elapsed": 548920, "internal_node_id": "0.0-4.0-1.0-1.0"}}, {"uniqueid": "w12816576:a99862537", "current_trial": 11, "dateTime": 1691142562183, "trialdata": {"revealed_states": [], "clicked_states": ["12", "23", "25", "30", "32"], "num_clicks_accrued": [0, 0, 0, 0, 0, 0, 0, 0, 0, 0, 0, 0, 0], "stateRewards": ["", -1, -3, 1, 13, -64, -29, 12, -4, -33, 50, 56, 2, -3, 4, 11, -64, -58, -55, 12, 47, 38, -25, -2, 2, 5, -15, 85, 7, 84, 10, 8, 57, 26], "withholdReward": false, "trial_id": "mdp_trial_3", "block": "test", "trialIndex": 4, "score": 65, "costs": -7, "simulationMode": [null, null, null, null, null], "rewards": [-2, 2, 5, 10, 57], "path": ["0", "0", "23", "24", "25", "30", "32"], "rt": [16483, 109, 214, 177, 189], "actions": ["left", "left", "left", "down", "down"], "actionTimes": [19363, 19994, 20698, 21381, 22083], "queries": {"click": {"state": {"target": ["12", "23", "25", "30", "32"], "time": [4897, 7011, 9284, 11583, 13820]}, "edge": {"target": [], "time": []}}, "mouseover": {"state": {"target": ["0", "12", "13", "12", "0", "12", "13", "12", "12", "13", "0", "23", "24", "25", "30", "32", "31"], "time": [3426, 3525, 3625, 3785, 3845, 4163, 4343, 4403, 4703, 5506, 5743, 5923, 7668, 9182, 11282, 12323, 15902]}, "edge": {"target": [], "time": []}}, "mouseout": {"state": {"target": ["12", "0", "12", "13", "12", "0", "12", "13", "12", "12", "13", "12", "0", "23", "24", "25", "30", "32", "31"], "time": [2286, 3465, 3585, 3765, 3825, 4123, 4204, 4384, 4443, 5343, 5603, 5703, 5863, 7564, 8942, 11162, 12203, 15842, 15923]}, "edge": {"target": [], "time": []}}}, "displayed_time": "22.59", "trialTime": 25292, "trial_type": "mouselab-mdp", "trial_index": 11, "time_elapsed": 574436, "internal_node_id": "0.0-4.0-1.0-2.0"}}, {"uniqueid": "w12816576:a99862537", "current_trial": 12, "dateTime": 1691142592747, "trialdata": {"revealed_states": [], "clicked_states": ["21", "19", "14", "16", "15"], "num_clicks_accrued": [0, 0, 0, 0, 0, 0, 0, 0, 0, 0, 0, 0, 0], "stateRewards": ["", -2, 3, -1, 2, -72, 63, 20, -1, 62, -66, 39, -2, 3, -6, 14, 22, 47, 1, 8, -49, -1, -41, 2, 2, -6, -16, -64, -60, -34, 16, 54, 22, -7], "withholdReward": false, "trial_id": "mdp_trial_4", "block": "test", "trialIndex": 5, "score": 24, "costs": -7, "simulationMode": [null, null, null, null, null], "rewards": [-2, 3, -6, 14, 22], "path": ["0", "0", "12", "13", "14", "15", "16"], "rt": [17005, 139, 270, 471, 583], "actions": ["right", "right", "right", "up", "up"], "actionTimes": [19592, 20244, 21020, 22000, 23107], "queries": {"click": {"state": {"target": ["21", "19", "14", "16", "15"], "time": [4060, 6286, 8700, 11436, 13793]}, "edge": {"target": [], "time": []}}, "mouseover": {"state": {"target": ["15", "14", "21", "19", "14", "16", "15"], "time": [3421, 3621, 3841, 4742, 8464, 11101, 12122]}, "edge": {"target": [], "time": []}}, "mouseout": {"state": {"target": ["0", "15", "14", "21", "19", "14", "16", "15", "20", "21"], "time": [2921, 3541, 3661, 4542, 8264, 8828, 12046, 15945, 28306, 28546]}, "edge": {"target": [], "time": []}}}, "displayed_time": "23.62", "trialTime": 30314, "trial_type": "mouselab-mdp", "trial_index": 12, "time_elapsed": 605000, "internal_node_id": "0.0-4.0-1.0-3.0"}}, {"uniqueid": "w12816576:a99862537", "current_trial": 13, "dateTime": 1691142614771, "trialdata": {"revealed_states": [], "clicked_states": [], "num_clicks_accrued": [0, 0, 0, 0, 0, 0, 0, 0, 0, 0, 0, 0, 0], "stateRewards": ["", 1, -3, -1, 9, -34, -40, 22, -7, 45, 53, -11, 2, 4, 5, 15, 21, 37, -49, -3, 80, -28, -34, 1, -3, 1, 1, -40, -6, -5, -16, -85, -86, 59], "withholdReward": false, "trial_id": "mdp_trial_5", "block": "test", "trialIndex": 6, "score": -5, "costs": 0, "simulationMode": [null, null, null, null, null], "rewards": [1, -3, 1, 1, -5], "path": ["0", "0", "23", "24", "25", "26", "29"], "rt": [7202, 227, 257, 358, 585], "actions": ["left", "left", "left", "up", "left"], "actionTimes": [9269, 10018, 10788, 11659, 12757], "queries": {"click": {"state": {"target": [], "time": []}, "edge": {"target": [], "time": []}}, "mouseover": {"state": {"target": ["23", "28", "27", "8", "8", "26", "23", "0", "23", "24", "25", "26"], "time": [2929, 3009, 3229, 3449, 3509, 4015, 4813, 5133, 5231, 5594, 5814, 6334]}, "edge": {"target": [], "time": []}}, "mouseout": {"state": {"target": ["0", "23", "28", "27", "8", "8", "26", "23", "0", "23", "24", "25", "26", "26", "25", "25", "25"], "time": [2671, 2969, 3049, 3369, 3469, 3734, 4753, 4853, 5193, 5514, 5753, 6234, 16234, 17134, 17191, 20674, 20911]}, "edge": {"target": [], "time": []}}}, "displayed_time": "16.07", "trialTime": 21766, "trial_type": "mouselab-mdp", "trial_index": 13, "time_elapsed": 627025, "internal_node_id": "0.0-4.0-1.0-4.0"}}, {"uniqueid": "w12816576:a99862537", "current_trial": 14, "dateTime": 1691142636613, "trialdata": {"revealed_states": [], "clicked_states": ["27", "29", "28", "26"], "num_clicks_accrued": [0, 0, 0, 0, 0, 0, 0, 0, 0, 0, 0, 0, 0], "stateRewards": ["", 2, -3, -5, 5, 11, -9, -33, 6, 67, 6, -30, -1, -2, -6, 13, 55, 13, 72, -14, 75, 21, -66, -2, -4, 6, 15, -1, -35, 60, 2, 51, -73, 12], "withholdReward": false, "trial_id": "mdp_trial_6", "block": "test", "trialIndex": 7, "score": 69.4, "costs": -5.6, "simulationMode": [null, null, null, null, null], "rewards": [-2, -4, 6, 15, 60], "path": ["0", "0", "23", "24", "25", "26", "29"], "rt": [10796, 181, 224, 345, 205], "actions": ["left", "left", "left", "up", "left"], "actionTimes": [14848, 15537, 16278, 17126, 17820], "queries": {"click": {"state": {"target": ["27", "29", "28", "26"], "time": [5174, 7257, 9341, 11976]}, "edge": {"target": [], "time": []}}, "mouseover": {"state": {"target": ["27", "26", "26", "26", "29", "26", "28", "26"], "time": [4692, 5773, 6113, 6768, 7053, 8053, 9096, 11497]}, "edge": {"target": [], "time": []}}, "mouseout": {"state": {"target": ["25", "25", "24", "23", "0", "27", "26", "26", "26", "29", "26", "28", "26"], "time": [3215, 3315, 3355, 3572, 4074, 5693, 5893, 6673, 7015, 7773, 8956, 11337, 12373]}, "edge": {"target": [], "time": []}}}, "displayed_time": "18.34", "trialTime": 21572, "trial_type": "mouselab-mdp", "trial_index": 14, "time_elapsed": 648867, "internal_node_id": "0.0-4.0-1.0-5.0"}}, {"uniqueid": "w12816576:a99862537", "current_trial": 15, "dateTime": 1691142679149, "trialdata": {"revealed_states": [], "clicked_states": ["17", "15", "29", "28", "26", "32", "30", "14", "19", "3", "8", "11"], "num_clicks_accrued": [0, 0, 0, 0, 0, 0, 0, 0, 0, 0, 0, 0, 0], "stateRewards": ["", -2, 4, -7, -3, -76, 39, -28, 10, 14, 12, 60, 2, -3, 6, -10, 88, -34, -41, -3, 72, -13, -56, 1, 3, 2, 8, -51, 23, -57, 1, 14, -46, -16], "withholdReward": false, "trial_id": "mdp_trial_7", "block": "test", "trialIndex": 8, "score": 48.2, "costs": -16.8, "simulationMode": [null, null, null, null, null], "rewards": [-2, 4, -7, 10, 60], "path": ["0", "0", "1", "2", "3", "8", "11"], "rt": [32863, 164, 209, 281, 97], "actions": ["up", "up", "up", "left", "left"], "actionTimes": [35443, 36104, 36810, 37621, 38240], "queries": {"click": {"state": {"target": ["17", "15", "29", "28", "26", "32", "30", "14", "19", "3", "8", "11"], "time": [4701, 6756, 9430, 12175, 14458, 16843, 19088, 22135, 24351, 27285, 29831, 32240]}, "edge": {"target": [], "time": []}}, "mouseover": {"state": {"target": ["12", "13", "15", "15", "17", "15", "26", "29", "26", "28", "26", "25", "32", "30", "31", "22", "19", "14", "19", "22", "12", "2", "3", "8", "11", "10", "12"], "time": [3039, 3080, 3259, 3419, 4137, 5540, 8821, 9080, 11361, 11898, 14158, 16419, 16476, 18877, 21119, 21279, 21320, 21819, 23477, 26342, 26481, 26801, 27121, 29337, 31978, 34398, 34597]}, "edge": {"target": [], "time": []}}, "mouseout": {"state": {"target": ["23", "0", "12", "13", "15", "15", "17", "15", "26", "29", "26", "28", "26", "25", "32", "30", "31", "22", "19", "14", "19", "22", "12", "2", "3", "8", "11", "10", "12"], "time": [1879, 2999, 3059, 3120, 3319, 4077, 5337, 8703, 8961, 11317, 11838, 14058, 16399, 16464, 18697, 21079, 21159, 21300, 21699, 22738, 26322, 26362, 26521, 27002, 29239, 31800, 34358, 34418, 34678]}, "edge": {"target": [], "time": []}}}, "displayed_time": "38.74", "trialTime": 42271, "trial_type": "mouselab-mdp", "trial_index": 15, "time_elapsed": 691402, "internal_node_id": "0.0-4.0-1.0-6.0"}}, {"uniqueid": "w12816576:a99862537", "current_trial": 16, "dateTime": 1691142707999, "trialdata": {"revealed_states": [], "clicked_states": ["16", "5", "9", "7", "10", "26"], "num_clicks_accrued": [0, 0, 0, 0, 0, 0, 0, 0, 0, 0, 0, 0, 0], "stateRewards": ["", -1, -4, -1, -11, 43, 69, 39, 4, 17, -20, -82, -2, -1, 4, 8, -79, 24, -79, 11, 36, 64, 41, 2, 4, -1, 11, -79, -47, 75, -3, 63, -36, -19], "withholdReward": false, "trial_id": "mdp_trial_8", "block": "test", "trialIndex": 9, "score": 17.6, "costs": -8.4, "simulationMode": [null, null, null, null, null], "rewards": [-1, -4, -1, -11, 43], "path": ["0", "0", "1", "2", "3", "4", "5"], "rt": [17943, 166, 159, 265, 179], "actions": ["up", "up", "up", "right", "up"], "actionTimes": [22346, 23019, 23711, 24488, 25189], "queries": {"click": {"state": {"target": ["16", "5", "9", "7", "10", "26"], "time": [5359, 7975, 10456, 13861, 16533, 19473]}, "edge": {"target": [], "time": []}}, "mouseover": {"state": {"target": ["12", "18", "16", "15", "18", "7", "5", "9", "3", "7", "1", "7", "2", "10", "28", "26", "28"], "time": [4580, 4820, 5160, 5841, 7322, 7442, 7722, 10124, 12580, 12800, 13280, 13703, 15740, 16000, 18563, 18923, 21524]}, "edge": {"target": [], "time": []}}, "mouseout": {"state": {"target": ["0", "0", "0", "12", "18", "16", "15", "18", "7", "5", "9", "3", "7", "1", "7", "2", "10", "28", "26", "28"], "time": [2863, 3523, 4540, 4621, 4860, 5781, 7282, 7422, 7482, 8582, 12520, 12601, 12960, 13503, 15700, 15860, 18524, 18583, 21504, 21563]}, "edge": {"target": [], "time": []}}}, "displayed_time": "25.68", "trialTime": 28587, "trial_type": "mouselab-mdp", "trial_index": 16, "time_elapsed": 720253, "internal_node_id": "0.0-4.0-1.0-7.0"}}, {"uniqueid": "w12816576:a99862537", "current_trial": 17, "dateTime": 1691142729510, "trialdata": {"revealed_states": [], "clicked_states": ["32"], "num_clicks_accrued": [0, 0, 0, 0, 0, 0, 0, 0, 0, 0, 0, 0, 0], "stateRewards": ["", 2, 3, 6, -5, -74, -53, 17, -12, 46, 44, 18, -2, 4, 1, -8, 22, -23, -49, 9, -45, 55, 81, 1, -1, -7, -16, -83, -71, -45, 2, 51, 82, 61], "withholdReward": false, "trial_id": "mdp_trial_9", "block": "test", "trialIndex": 10, "score": 75.6, "costs": -1.4, "simulationMode": [null, null, null, null, null], "rewards": [1, -1, -7, 2, 82], "path": ["0", "0", "23", "24", "25", "30", "32"], "rt": [5106, 220, 151, 92, 196], "actions": ["left", "left", "left", "down", "down"], "actionTimes": [7116, 7862, 8541, 9157, 9876], "queries": {"click": {"state": {"target": ["32"], "time": [3290]}, "edge": {"target": [], "time": []}}, "mouseover": {"state": {"target": ["23", "24", "30", "32", "22", "19", "22"], "time": [2463, 2562, 2762, 2882, 5903, 6122, 6328]}, "edge": {"target": [], "time": []}}, "mouseout": {"state": {"target": ["23", "0", "12", "0", "23", "24", "30", "32", "22", "19", "22"], "time": [341, 802, 1340, 2402, 2522, 2583, 2782, 5223, 5962, 6323, 6364]}, "edge": {"target": [], "time": []}}}, "displayed_time": "16.01", "trialTime": 21255, "trial_type": "mouselab-mdp", "trial_index": 17, "time_elapsed": 741764, "internal_node_id": "0.0-4.0-1.0-8.0"}}, {"uniqueid": "w12816576:a99862537", "current_trial": 18, "dateTime": 1691142752694, "trialdata": {"revealed_states": [], "clicked_states": ["9", "5", "4", "21", "32"], "num_clicks_accrued": [0, 0, 0, 0, 0, 0, 0, 0, 0, 0, 0, 0, 0], "stateRewards": ["", 1, -3, -6, -5, 47, 80, -29, 11, -71, 10, -29, -2, 3, -6, 12, 2, -78, -6, 8, 34, -16, -5, -1, 3, 3, -13, 84, -36, -62, -3, -27, 66, 15], "withholdReward": false, "trial_id": "mdp_trial_10", "block": "test", "trialIndex": 11, "score": 61, "costs": -7, "simulationMode": [null, null, null, null, null], "rewards": [-1, 3, 3, -3, 66], "path": ["0", "0", "23", "24", "25", "30", "32"], "rt": [14959, 195, 156, 239, 289], "actions": ["left", "left", "left", "down", "down"], "actionTimes": [16742, 17464, 18142, 18913, 19714], "queries": {"click": {"state": {"target": ["9", "5", "4", "21", "32"], "time": [4189, 6167, 8387, 10917, 13479]}, "edge": {"target": [], "time": []}}, "mouseover": {"state": {"target": ["1", "4", "5", "9", "5", "5", "4", "19", "21", "32"], "time": [2508, 2728, 3163, 3868, 4885, 5448, 8208, 10425, 10585, 13185]}, "edge": {"target": [], "time": []}}, "mouseout": {"state": {"target": ["12", "0", "1", "4", "5", "9", "5", "5", "4", "19", "21", "32"], "time": [1046, 2394, 2528, 2788, 3753, 4748, 5005, 8048, 10350, 10485, 12828, 21531]}, "edge": {"target": [], "time": []}}}, "displayed_time": "20.23", "trialTime": 22883, "trial_type": "mouselab-mdp", "trial_index": 18, "time_elapsed": 764947, "internal_node_id": "0.0-4.0-1.0-9.0"}}, {"uniqueid": "w12816576:a99862537", "current_trial": 19, "dateTime": 1691142776603, "trialdata": {"revealed_states": [], "clicked_states": ["17", "29", "5", "9", "32"], "num_clicks_accrued": [0, 0, 0, 0, 0, 0, 0, 0, 0, 0, 0, 0, 0], "stateRewards": ["", -2, -2, -7, -13, -10, 49, -68, -1, 84, 70, 88, 1, 4, 4, 12, -57, 25, 30, 8, -1, -77, 57, 2, 3, 2, 3, -18, -80, 23, -15, -41, 70, 11], "withholdReward": false, "trial_id": "mdp_trial_11", "block": "test", "trialIndex": 12, "score": 65, "costs": -7, "simulationMode": [null, null, null, null, null], "rewards": [-2, -2, -7, -1, 84], "path": ["0", "0", "1", "2", "3", "8", "9"], "rt": [14097, 128, 151, 168, 212], "actions": ["up", "up", "up", "left", "up"], "actionTimes": [16856, 17505, 18177, 18842, 19557], "queries": {"click": {"state": {"target": ["17", "29", "5", "9", "32"], "time": [3554, 6254, 8768, 11159, 14052]}, "edge": {"target": [], "time": []}}, "mouseover": {"state": {"target": ["12", "13", "14", "17", "15", "28", "26", "29", "3", "4", "5", "9", "28", "24", "30", "32"], "time": [2903, 2963, 3063, 3223, 5563, 5723, 5923, 6003, 8288, 8326, 8403, 10909, 13223, 13284, 13383, 13525]}, "edge": {"target": [], "time": []}}, "mouseout": {"state": {"target": ["2", "5", "3", "2", "0", "12", "13", "14", "17", "15", "28", "26", "29", "3", "4", "5", "9", "9", "28", "24", "30", "32"], "time": [1264, 1884, 1984, 2024, 2863, 2943, 3023, 3103, 5483, 5603, 5763, 5983, 8207, 8307, 8346, 10668, 11255, 13123, 13263, 13304, 13423, 16148]}, "edge": {"target": [], "time": []}}}, "displayed_time": "20.05", "trialTime": 23633, "trial_type": "mouselab-mdp", "trial_index": 19, "time_elapsed": 788857, "internal_node_id": "0.0-4.0-1.0-10.0"}}, {"uniqueid": "w12816576:a99862537", "current_trial": 20, "dateTime": 1691142802406, "trialdata": {"revealed_states": [], "clicked_states": ["16", "21", "32", "27", "5", "9"], "num_clicks_accrued": [0, 0, 0, 0, 0, 0, 0, 0, 0, 0, 0, 0, 0], "stateRewards": ["", 2, -3, -4, -1, 25, -16, 16, 10, -71, -20, -55, 1, 3, -4, -9, 1, 32, 11, -6, 32, -50, -41, -1, 4, 4, -8, 7, -81, 70, 2, -52, 45, -10], "withholdReward": false, "trial_id": "mdp_trial_12", "block": "test", "trialIndex": 13, "score": 45.6, "costs": -8.4, "simulationMode": [null, null, null, null, null], "rewards": [-1, 4, 4, 2, 45], "path": ["0", "0", "23", "24", "25", "30", "32"], "rt": [18690, 76, 70, 104, 152], "actions": ["left", "left", "left", "down", "down"], "actionTimes": [20547, 21142, 21740, 22359, 23018], "queries": {"click": {"state": {"target": ["16", "21", "32", "27", "5", "9"], "time": [4544, 7039, 9689, 12470, 15293, 17914]}, "edge": {"target": [], "time": []}}, "mouseover": {"state": {"target": ["12", "13", "19", "21", "17", "16", "15", "14", "21", "32", "32", "30", "25", "26", "27", "3", "5", "9"], "time": [2248, 2274, 2385, 2929, 3409, 4406, 6409, 6475, 6749, 9229, 9549, 11829, 11889, 11969, 12309, 14549, 14849, 17690]}, "edge": {"target": [], "time": []}}, "mouseout": {"state": {"target": ["0", "12", "13", "19", "21", "17", "16", "15", "14", "21", "32", "32", "30", "25", "26", "27", "3", "5", "9", "3", "2"], "time": [1367, 2268, 2306, 2445, 2989, 4169, 5305, 6469, 6489, 9049, 9365, 11789, 11870, 11929, 12169, 14449, 14570, 15409, 24289, 24729, 24767]}, "edge": {"target": [], "time": []}}}, "displayed_time": "23.52", "trialTime": 25517, "trial_type": "mouselab-mdp", "trial_index": 20, "time_elapsed": 814660, "internal_node_id": "0.0-4.0-1.0-11.0"}}, {"uniqueid": "w12816576:a99862537", "current_trial": 21, "dateTime": 1691142820063, "trialdata": {"revealed_states": [], "clicked_states": ["27", "16"], "num_clicks_accrued": [0, 0, 0, 0, 0, 0, 0, 0, 0, 0, 0, 0, 0], "stateRewards": ["", -1, 4, -5, 9, 29, -75, -42, -16, 24, -28, -41, 2, -3, 1, 10, 60, 47, 55, -1, -53, 22, -40, 2, -3, -6, 4, -26, 44, 54, 15, -76, 42, 14], "withholdReward": false, "trial_id": "mdp_trial_13", "block": "test", "trialIndex": 14, "score": 67.2, "costs": -2.8, "simulationMode": [null, null, null, null, null], "rewards": [2, -3, 1, 10, 60], "path": ["0", "0", "12", "13", "14", "15", "16"], "rt": [8046, 75, 74, 179, 82], "actions": ["right", "right", "right", "up", "up"], "actionTimes": [9942, 10537, 11138, 11859, 12445], "queries": {"click": {"state": {"target": ["27", "16"], "time": [3733, 6573]}, "edge": {"target": [], "time": []}}, "mouseover": {"state": {"target": ["28", "26", "29", "27", "1", "15", "17", "16", "15", "21"], "time": [2963, 3103, 3223, 3540, 5883, 5923, 5960, 6403, 8743, 9003]}, "edge": {"target": [], "time": []}}, "mouseout": {"state": {"target": ["0", "28", "26", "29", "27", "1", "15", "17", "16", "15", "21"], "time": [1579, 3003, 3203, 3400, 5599, 5904, 5940, 6283, 8723, 8768, 15683]}, "edge": {"target": [], "time": []}}}, "displayed_time": "15.90", "trialTime": 17388, "trial_type": "mouselab-mdp", "trial_index": 21, "time_elapsed": 832317, "internal_node_id": "0.0-4.0-1.0-12.0"}}, {"uniqueid": "w12816576:a99862537", "current_trial": 22, "dateTime": 1691142850450, "trialdata": {"revealed_states": [], "clicked_states": ["11", "6", "5", "9", "32", "21", "17", "16"], "num_clicks_accrued": [0, 0, 0, 0, 0, 0, 0, 0, 0, 0, 0, 0, 0], "stateRewards": ["", 1, -2, -3, 14, -42, -87, -37, -11, -50, 33, -44, -2, 4, -7, 13, 48, -75, -66, 12, 23, -2, 82, 1, -4, 3, 12, 51, -15, -26, -11, -52, -29, 82], "withholdReward": false, "trial_id": "mdp_trial_14", "block": "test", "trialIndex": 15, "score": 44.8, "costs": -11.200000000000001, "simulationMode": [null, null, null, null, null], "rewards": [-2, 4, -7, 13, 48], "path": ["0", "0", "12", "13", "14", "15", "16"], "rt": [22766, 110, 106, 53, 54], "actions": ["right", "right", "right", "up", "up"], "actionTimes": [24389, 25006, 25604, 26170, 26771], "queries": {"click": {"state": {"target": ["11", "6", "5", "9", "32", "21", "17", "16"], "time": [3415, 5989, 8697, 11193, 13744, 16238, 18747, 21157]}, "edge": {"target": [], "time": []}}, "mouseover": {"state": {"target": ["7", "4", "3", "8", "11", "8", "3", "4", "6", "6", "5", "9", "33", "32", "21", "17", "16", "1", "23", "0"], "time": [2416, 2472, 2530, 2610, 2690, 5372, 5395, 5413, 5432, 5734, 8175, 10655, 13232, 13492, 16133, 18451, 20851, 23352, 23552, 23813]}, "edge": {"target": [], "time": []}}, "mouseout": {"state": {"target": ["0", "7", "4", "3", "8", "11", "8", "3", "4", "6", "6", "5", "9", "33", "32", "21", "17", "16", "1", "23", "0"], "time": [1073, 2432, 2492, 2590, 2651, 5355, 5393, 5410, 5430, 5450, 8055, 10595, 13135, 13252, 15576, 18176, 20716, 23316, 23375, 23792, 23831]}, "edge": {"target": [], "time": []}}}, "displayed_time": "27.30", "trialTime": 30107, "trial_type": "mouselab-mdp", "trial_index": 22, "time_elapsed": 862704, "internal_node_id": "0.0-4.0-1.0-13.0"}}, {"uniqueid": "w12816576:a99862537", "current_trial": 23, "dateTime": 1691142876201, "trialdata": {"revealed_states": [], "clicked_states": ["27", "16", "21", "32", "5", "9"], "num_clicks_accrued": [0, 0, 0, 0, 0, 0, 0, 0, 0, 0, 0, 0, 0], "stateRewards": ["", 2, -1, 3, -12, -83, 6, -33, 9, 28, 24, -50, -2, -1, -2, -5, -87, 37, 82, 12, 80, -5, 10, -2, -3, -6, 9, 22, -1, 16, 9, 77, -62, 58], "withholdReward": false, "trial_id": "mdp_trial_15", "block": "test", "trialIndex": 16, "score": 32.6, "costs": -8.4, "simulationMode": [null, null, null, null, null], "rewards": [2, -1, 3, 9, 28], "path": ["0", "0", "1", "2", "3", "8", "9"], "rt": [17895, 812, 179, 220, 200], "actions": ["up", "up", "up", "left", "up"], "actionTimes": [19373, 20696, 21400, 22129, 22847], "queries": {"click": {"state": {"target": ["27", "16", "21", "32", "5", "9"], "time": [2546, 5526, 8149, 10698, 13494, 15938]}, "edge": {"target": [], "time": []}}, "mouseover": {"state": {"target": ["28", "27", "29", "26", "28", "1", "15", "17", "16", "15", "14", "21", "32", "7", "5", "9", "8", "24", "28", "23"], "time": [1798, 2138, 3359, 4883, 4903, 4923, 4960, 5000, 5338, 7547, 7581, 7898, 10480, 12780, 13203, 15583, 18130, 18260, 18379, 18698]}, "edge": {"target": [], "time": []}}, "mouseout": {"state": {"target": ["0", "28", "27", "29", "26", "28", "1", "15", "17", "16", "15", "14", "21", "32", "7", "5", "9", "8", "24", "28", "23", "0"], "time": [1611, 1878, 3125, 4864, 4900, 4920, 4941, 4980, 5098, 7524, 7561, 7599, 10047, 12683, 12800, 15403, 18124, 18144, 18319, 18460, 18719, 24504]}, "edge": {"target": [], "time": []}}}, "displayed_time": "23.36", "trialTime": 25466, "trial_type": "mouselab-mdp", "trial_index": 23, "time_elapsed": 888455, "internal_node_id": "0.0-4.0-1.0-14.0"}}, {"uniqueid": "w12816576:a99862537", "current_trial": 24, "dateTime": 1691142907514, "trialdata": {"revealed_states": [], "clicked_states": ["29", "32", "33", "21", "20", "16", "9", "5", "27"], "num_clicks_accrued": [0, 0, 0, 0, 0, 0, 0, 0, 0, 0, 0, 0, 0], "stateRewards": ["", -1, -3, -6, -2, -7, 80, -45, -3, -38, -72, 76, 2, 1, 7, 4, -62, 14, -74, 14, -87, -21, -88, -2, 1, -7, -10, 66, 56, -76, 10, -29, -72, -70], "withholdReward": false, "trial_id": "mdp_trial_16", "block": "test", "trialIndex": 17, "score": 35.4, "costs": -12.600000000000001, "simulationMode": [null, null, null, null, null], "rewards": [-2, 1, -7, -10, 66], "path": ["0", "0", "23", "24", "25", "26", "27"], "rt": [23568, 128, 96, 117, 33], "actions": ["left", "left", "left", "up", "up"], "actionTimes": [25088, 25728, 26325, 26937, 27492], "queries": {"click": {"state": {"target": ["29", "32", "33", "21", "20", "16", "9", "5", "27"], "time": [2278, 4852, 7165, 9856, 12208, 14699, 17135, 19784, 22199]}, "edge": {"target": [], "time": []}}, "mouseover": {"state": {"target": ["23", "29", "33", "32", "33", "30", "31", "22", "21", "20", "16", "9", "5", "11", "27", "26"], "time": [1761, 1978, 4318, 4658, 6902, 9147, 9181, 9278, 9557, 11878, 14438, 16881, 19163, 21761, 21996, 24418]}, "edge": {"target": [], "time": []}}, "mouseout": {"state": {"target": ["0", "23", "29", "33", "32", "33", "30", "31", "22", "21", "20", "16", "9", "5", "11", "27", "26"], "time": [1741, 1779, 4259, 4578, 4967, 9141, 9177, 9198, 9377, 9959, 14162, 16682, 19036, 21682, 21799, 24400, 24438]}, "edge": {"target": [], "time": []}}}, "displayed_time": "28.00", "trialTime": 31038, "trial_type": "mouselab-mdp", "trial_index": 24, "time_elapsed": 919768, "internal_node_id": "0.0-4.0-1.0-15.0"}}, {"uniqueid": "w12816576:a99862537", "current_trial": 25, "dateTime": 1691142928080, "trialdata": {"revealed_states": [], "clicked_states": ["13", "6", "11", "16"], "num_clicks_accrued": [0, 0, 0, 0, 0, 0, 0, 0, 0, 0, 0, 0, 0], "stateRewards": ["", 1, -4, -4, 8, 1, -79, 68, -10, -79, 8, -74, -1, -3, -6, 14, 43, 23, 9, 5, -51, 63, 61, -2, 4, 6, -10, 69, -32, 57, 15, -80, -80, -77], "withholdReward": false, "trial_id": "mdp_trial_17", "block": "test", "trialIndex": 18, "score": 41.4, "costs": -5.6, "simulationMode": [null, null, null, null, null], "rewards": [-1, -3, -6, 14, 43], "path": ["0", "0", "12", "13", "14", "15", "16"], "rt": [13376, 6, 53, 23, 45], "actions": ["right", "right", "right", "up", "up"], "actionTimes": [15531, 16072, 16668, 17201, 17760], "queries": {"click": {"state": {"target": ["13", "6", "11", "16"], "time": [3391, 6808, 9351, 11900]}, "edge": {"target": [], "time": []}}, "mouseover": {"state": {"target": ["12", "13", "15", "16", "4", "6", "4", "8", "11", "11", "11", "16", "15", "14", "21"], "time": [2941, 3154, 4054, 5358, 6258, 6613, 8678, 8719, 8741, 8957, 9237, 11715, 13937, 14016, 14395]}, "edge": {"target": [], "time": []}}, "mouseout": {"state": {"target": ["0", "12", "13", "15", "16", "4", "6", "4", "8", "11", "11", "11", "16", "16", "15", "14", "21"], "time": [2918, 3077, 4004, 5100, 6158, 6554, 8658, 8699, 8736, 8754, 9017, 11278, 12314, 13898, 13978, 14035, 19178]}, "edge": {"target": [], "time": []}}}, "displayed_time": "18.26", "trialTime": 20280, "trial_type": "mouselab-mdp", "trial_index": 25, "time_elapsed": 940334, "internal_node_id": "0.0-4.0-1.0-16.0"}}, {"uniqueid": "w12816576:a99862537", "current_trial": 26, "dateTime": 1691142945098, "trialdata": {"revealed_states": [], "clicked_states": ["21", "32"], "num_clicks_accrued": [0, 0, 0, 0, 0, 0, 0, 0, 0, 0, 0, 0, 0], "stateRewards": ["", -2, -1, -4, -15, -14, -67, 32, -3, -59, 63, 31, 2, -1, -7, -15, 71, -66, -27, -3, -54, -39, 72, 2, 1, 1, -13, 77, -40, 35, -9, 35, 75, 57], "withholdReward": false, "trial_id": "mdp_trial_18", "block": "test", "trialIndex": 19, "score": 67.2, "costs": -2.8, "simulationMode": [null, null, null, null, null], "rewards": [2, 1, 1, -9, 75], "path": ["0", "0", "23", "24", "25", "30", "32"], "rt": [6143, 28, 64, 879, 181], "actions": ["left", "left", "left", "down", "down"], "actionTimes": [7723, 8260, 8838, 10305, 10996], "queries": {"click": {"state": {"target": ["21", "32"], "time": [2400, 4962]}, "edge": {"target": [], "time": []}}, "mouseover": {"state": {"target": ["22", "21", "32"], "time": [2033, 2153, 4854]}, "edge": {"target": [], "time": []}}, "mouseout": {"state": {"target": ["0", "22", "21", "32"], "time": [1954, 2074, 4314, 12514]}, "edge": {"target": [], "time": []}}}, "displayed_time": "15.58", "trialTime": 16732, "trial_type": "mouselab-mdp", "trial_index": 26, "time_elapsed": 957352, "internal_node_id": "0.0-4.0-1.0-17.0"}}, {"uniqueid": "w12816576:a99862537", "current_trial": 27, "dateTime": 1691142964527, "trialdata": {"revealed_states": [], "clicked_states": ["6", "11", "32", "29"], "num_clicks_accrued": [0, 0, 0, 0, 0, 0, 0, 0, 0, 0, 0, 0, 0], "stateRewards": ["", 1, -1, 4, -2, -75, -75, 84, -9, -60, -79, 59, 2, -4, 8, 9, -17, -82, 80, 14, -4, 49, 49, -1, 3, 6, -11, -33, 34, 55, 9, -57, 5, 59], "withholdReward": false, "trial_id": "mdp_trial_19", "block": "test", "trialIndex": 20, "score": 48.4, "costs": -5.6, "simulationMode": [null, null, null, null, null], "rewards": [1, -1, 4, -9, 59], "path": ["0", "0", "1", "2", "3", "8", "11"], "rt": [12385, 43, 56, 81, 97], "actions": ["up", "up", "up", "left", "left"], "actionTimes": [13777, 14329, 14891, 15508, 16148], "queries": {"click": {"state": {"target": ["6", "11", "32", "29"], "time": [3269, 5637, 8405, 11021]}, "edge": {"target": [], "time": []}}, "mouseover": {"state": {"target": ["7", "4", "6", "6", "4", "3", "8", "11", "28", "24", "31", "32", "30", "29"], "time": [1869, 2028, 2488, 2985, 5175, 5210, 5232, 5466, 7885, 7946, 8006, 8224, 10468, 10765]}, "edge": {"target": [], "time": []}}, "mouseout": {"state": {"target": ["0", "7", "4", "6", "6", "4", "3", "8", "11", "28", "24", "31", "32", "30", "29", "26", "28", "1"], "time": [1067, 1907, 2150, 2670, 5169, 5191, 5227, 5406, 7809, 7926, 7986, 8026, 8428, 10508, 17488, 18049, 18088, 18269]}, "edge": {"target": [], "time": []}}}, "displayed_time": "16.65", "trialTime": 19117, "trial_type": "mouselab-mdp", "trial_index": 27, "time_elapsed": 976781, "internal_node_id": "0.0-4.0-1.0-18.0"}}, {"uniqueid": "w12816576:a99862537", "current_trial": 28, "dateTime": 1691142990713, "trialdata": {"revealed_states": [], "clicked_states": ["5", "9", "29", "27", "32", "17", "16"], "num_clicks_accrued": [0, 0, 0, 0, 0, 0, 0, 0, 0, 0, 0, 0, 0], "stateRewards": ["", 1, 1, 1, -3, -7, -1, -41, -10, 20, -72, -63, 1, -4, -2, 2, -66, 30, -84, -2, 49, 23, 71, -1, -4, 4, -12, 67, 5, 18, -16, 88, 56, -5], "withholdReward": false, "trial_id": "mdp_trial_20", "block": "test", "trialIndex": 21, "score": 44.2, "costs": -9.8, "simulationMode": [null, null, null, null, null], "rewards": [-1, -4, 4, -12, 67], "path": ["0", "0", "23", "24", "25", "26", "27"], "rt": [18984, 75, 89, 233, 175], "actions": ["left", "left", "left", "up", "up"], "actionTimes": [20462, 21047, 21669, 22412, 23096], "queries": {"click": {"state": {"target": ["5", "9", "29", "27", "32", "17", "16"], "time": [2344, 4636, 7165, 9521, 12269, 15063, 17497]}, "edge": {"target": [], "time": []}}, "mouseover": {"state": {"target": ["7", "4", "5", "9", "11", "26", "29", "26", "27", "26", "25", "30", "32", "13", "17", "16", "15", "14", "19", "22"], "time": [1810, 1951, 2149, 4474, 6636, 6710, 6934, 9114, 9334, 11675, 11703, 11770, 11990, 14475, 14851, 17235, 19494, 19520, 19544, 19789]}, "edge": {"target": [], "time": []}}, "mouseout": {"state": {"target": ["0", "0", "7", "4", "5", "9", "11", "26", "29", "26", "27", "26", "25", "30", "32", "13", "17", "16", "15", "14", "19", "22"], "time": [691, 1695, 1832, 2090, 4254, 6614, 6654, 6870, 9096, 9214, 11655, 11700, 11730, 11910, 13932, 14531, 17014, 19473, 19514, 19537, 19558, 19829]}, "edge": {"target": [], "time": []}}}, "displayed_time": "23.61", "trialTime": 25889, "trial_type": "mouselab-mdp", "trial_index": 28, "time_elapsed": 1002967, "internal_node_id": "0.0-4.0-1.0-19.0"}}, {"uniqueid": "w12816576:a99862537", "current_trial": 29, "dateTime": 1691143008645, "trialdata": {"revealed_states": [], "clicked_states": ["21", "32", "5", "9"], "num_clicks_accrued": [0, 0, 0, 0, 0, 0, 0, 0, 0, 0, 0, 0, 0], "stateRewards": ["", -1, 3, 8, 9, -53, 20, -84, 2, -28, -62, -31, -1, -2, -7, 2, 51, 58, 45, -4, -17, -41, 36, 2, -2, -7, -15, 29, -54, -37, -16, -43, 65, -17], "withholdReward": false, "trial_id": "mdp_trial_21", "block": "test", "trialIndex": 22, "score": 36.4, "costs": -5.6, "simulationMode": [null, null, null, null, null], "rewards": [2, -2, -7, -16, 65], "path": ["0", "0", "23", "24", "25", "30", "32"], "rt": [11391, 111, 118, 131, 131], "actions": ["left", "left", "left", "down", "down"], "actionTimes": [12770, 13393, 14027, 14677, 15334], "queries": {"click": {"state": {"target": ["21", "32", "5", "9"], "time": [2352, 4796, 7769, 10224]}, "edge": {"target": [], "time": []}}, "mouseover": {"state": {"target": ["12", "22", "19", "21", "32", "31", "5", "9", "3"], "time": [1700, 1780, 1861, 2001, 4559, 7042, 7502, 10062, 12208]}, "edge": {"target": [], "time": []}}, "mouseout": {"state": {"target": ["0", "12", "22", "19", "21", "32", "31", "5", "9", "3", "7"], "time": [1641, 1720, 1820, 1920, 4242, 7022, 7059, 9662, 12202, 12226, 16522]}, "edge": {"target": [], "time": []}}}, "displayed_time": "15.85", "trialTime": 17629, "trial_type": "mouselab-mdp", "trial_index": 29, "time_elapsed": 1020899, "internal_node_id": "0.0-4.0-1.0-20.0"}}, {"uniqueid": "w12816576:a99862537", "current_trial": 30, "dateTime": 1691143048797, "trialdata": {"revealed_states": [], "clicked_states": ["27", "21", "5", "9", "11", "6", "16", "17", "32", "26", "29", "28", "33"], "num_clicks_accrued": [0, 0, 0, 0, 0, 0, 0, 0, 0, 0, 0, 0, 0], "stateRewards": ["", -1, 2, -6, 6, -82, -19, -39, -16, -83, 11, -33, -2, -2, 4, -6, -82, -1, -19, -6, -10, -67, -41, -2, 1, -7, 16, -23, -78, -52, 14, 31, -71, 74], "withholdReward": false, "trial_id": "mdp_trial_22", "block": "test", "trialIndex": 23, "score": 61.8, "costs": -18.2, "simulationMode": [null, null, null, null, null], "rewards": [-2, 1, -7, 14, 74], "path": ["0", "0", "23", "24", "25", "30", "33"], "rt": [32930, 83, 82, 163, 208], "actions": ["left", "left", "left", "down", "left"], "actionTimes": [34447, 35047, 35651, 36329, 37051], "queries": {"click": {"state": {"target": ["27", "21", "5", "9", "11", "6", "16", "17", "32", "26", "29", "28", "33"], "time": [2522, 5196, 7735, 10060, 12405, 14865, 17170, 19584, 22011, 24417, 26785, 29197, 31643]}, "edge": {"target": [], "time": []}}, "mouseover": {"state": {"target": ["23", "24", "26", "27", "1", "13", "19", "21", "19", "14", "6", "4", "5", "9", "11", "8", "3", "4", "6", "16", "17", "14", "13", "32", "30", "25", "26", "29", "28", "25", "33", "30", "31"], "time": [1986, 2045, 2102, 2361, 4502, 4585, 4721, 4902, 7165, 7189, 7282, 7323, 7520, 9763, 12126, 14323, 14363, 14466, 14612, 16846, 19206, 21566, 21591, 21843, 23963, 24023, 24163, 26326, 28945, 31146, 31343, 33663, 33761]}, "edge": {"target": [], "time": []}}, "mouseout": {"state": {"target": ["0", "23", "24", "26", "27", "1", "13", "19", "21", "19", "14", "6", "4", "5", "9", "11", "8", "3", "4", "6", "16", "17", "14", "13", "32", "30", "25", "26", "29", "26", "28", "25", "33", "30", "31"], "time": [1946, 2025, 2062, 2261, 4425, 4525, 4641, 4821, 5381, 7185, 7203, 7303, 7360, 9647, 11986, 14285, 14343, 14421, 14599, 16806, 19146, 21546, 21586, 21603, 23925, 24003, 24063, 24516, 28726, 28782, 31086, 31182, 33626, 33722, 38586]}, "edge": {"target": [], "time": []}}}, "displayed_time": "37.55", "trialTime": 39864, "trial_type": "mouselab-mdp", "trial_index": 30, "time_elapsed": 1061051, "internal_node_id": "0.0-4.0-1.0-21.0"}}, {"uniqueid": "w12816576:a99862537", "current_trial": 31, "dateTime": 1691143066385, "trialdata": {"revealed_states": [], "clicked_states": ["16", "27", "32", "21"], "num_clicks_accrued": [0, 0, 0, 0, 0, 0, 0, 0, 0, 0, 0, 0, 0], "stateRewards": ["", 1, 1, -5, 8, -6, 45, 16, -6, -7, -22, -38, -1, -4, 8, -11, -16, 21, -45, -15, -59, -32, 42, -1, 3, 6, 11, -7, 34, -27, -8, 85, 43, -9], "withholdReward": false, "trial_id": "mdp_trial_23", "block": "test", "trialIndex": 24, "score": 37.4, "costs": -5.6, "simulationMode": [null, null, null, null, null], "rewards": [-1, 3, 6, -8, 43], "path": ["0", "0", "23", "24", "25", "30", "32"], "rt": [11249, 123, 23, 236, 253], "actions": ["left", "left", "left", "down", "down"], "actionTimes": [12586, 13219, 13759, 14519, 15292], "queries": {"click": {"state": {"target": ["16", "27", "32", "21"], "time": [2847, 5134, 7725, 10318]}, "edge": {"target": [], "time": []}}, "mouseover": {"state": {"target": ["12", "15", "16", "12", "27", "26", "25", "30", "32", "21"], "time": [1898, 2098, 2518, 3794, 4794, 7025, 7060, 7163, 7562, 10000]}, "edge": {"target": [], "time": []}}, "mouseout": {"state": {"target": ["0", "0", "12", "15", "16", "12", "27", "26", "25", "30", "32", "21"], "time": [797, 1836, 1920, 2198, 3375, 4699, 7019, 7056, 7097, 7301, 7813, 16299]}, "edge": {"target": [], "time": []}}}, "displayed_time": "15.82", "trialTime": 17305, "trial_type": "mouselab-mdp", "trial_index": 31, "time_elapsed": 1078638, "internal_node_id": "0.0-4.0-1.0-22.0"}}, {"uniqueid": "w12816576:a99862537", "current_trial": 32, "dateTime": 1691143083317, "trialdata": {"revealed_states": [], "clicked_states": ["5", "9"], "num_clicks_accrued": [0, 0, 0, 0, 0, 0, 0, 0, 0, 0, 0, 0, 0], "stateRewards": ["", 2, 3, -1, 6, 44, -4, -59, -14, -3, 64, 16, 1, -3, 3, 6, 3, 49, 19, 3, -49, -14, -86, 1, 2, -3, -8, -33, 14, 32, -13, -77, -47, -67], "withholdReward": false, "trial_id": "mdp_trial_24", "block": "test", "trialIndex": 25, "score": 51.2, "costs": -2.8, "simulationMode": [null, null, null, null, null], "rewards": [2, 3, -1, 6, 44], "path": ["0", "0", "1", "2", "3", "4", "5"], "rt": [5726, 97, 15, 167, 99], "actions": ["up", "up", "up", "right", "up"], "actionTimes": [7094, 7708, 8267, 8946, 9575], "queries": {"click": {"state": {"target": ["5", "9"], "time": [2373, 4749]}, "edge": {"target": [], "time": []}}, "mouseover": {"state": {"target": ["1", "3", "4", "5", "9"], "time": [1730, 1870, 2012, 2250, 4433]}, "edge": {"target": [], "time": []}}, "mouseout": {"state": {"target": ["22", "0", "1", "3", "4", "5", "9", "9", "3", "7", "18", "14"], "time": [431, 1693, 1750, 1950, 2032, 4269, 11332, 11792, 11892, 12053, 15092, 15770]}, "edge": {"target": [], "time": []}}}, "displayed_time": "15.37", "trialTime": 16612, "trial_type": "mouselab-mdp", "trial_index": 32, "time_elapsed": 1095571, "internal_node_id": "0.0-4.0-1.0-23.0"}}, {"uniqueid": "w12816576:a99862537", "current_trial": 33, "dateTime": 1691143104171, "trialdata": {"revealed_states": [], "clicked_states": ["11", "6"], "num_clicks_accrued": [0, 0, 0, 0, 0, 0, 0, 0, 0, 0, 0, 0, 0], "stateRewards": ["", -1, -1, 4, -16, -75, 81, -51, -7, -84, 73, -30, -2, 1, -3, -16, -77, 33, 14, 1, 45, 87, -66, 2, 2, -5, -7, -19, -17, 79, -3, 8, 49, 47], "withholdReward": false, "trial_id": "mdp_trial_25", "block": "test", "trialIndex": 26, "score": 64.2, "costs": -2.8, "simulationMode": [null, null, null, null, null], "rewards": [-1, -1, 4, -16, 81], "path": ["0", "0", "1", "2", "3", "4", "6"], "rt": [7044, 74, 49, 256, 89], "actions": ["up", "up", "up", "right", "right"], "actionTimes": [9482, 10068, 10623, 11395, 12005], "queries": {"click": {"state": {"target": ["11", "6"], "time": [4175, 6528]}, "edge": {"target": [], "time": []}}, "mouseover": {"state": {"target": ["18", "3", "11", "8", "3", "6", "14", "21"], "time": [3056, 3411, 3971, 6057, 6094, 6392, 8414, 8676]}, "edge": {"target": [], "time": []}}, "mouseout": {"state": {"target": ["15", "18", "0", "18", "3", "11", "8", "3", "6", "14", "21"], "time": [675, 694, 2937, 3292, 3511, 6038, 6077, 6115, 8376, 8436, 14636]}, "edge": {"target": [], "time": []}}}, "displayed_time": "16.44", "trialTime": 20549, "trial_type": "mouselab-mdp", "trial_index": 33, "time_elapsed": 1116425, "internal_node_id": "0.0-4.0-1.0-24.0"}}, {"uniqueid": "w12816576:a99862537", "current_trial": 34, "dateTime": 1691143137084, "trialdata": {"revealed_states": [], "clicked_states": ["27", "32", "16", "21", "17", "20", "9", "11"], "num_clicks_accrued": [0, 0, 0, 0, 0, 0, 0, 0, 0, 0, 0, 0, 0], "stateRewards": ["", -1, 1, -2, 5, 73, 15, 61, 8, 7, 38, 76, 2, 2, -4, -6, -6, -26, 43, -5, -45, -85, -35, -2, 1, -4, 15, -10, 69, 72, -11, 84, -49, -38], "withholdReward": false, "trial_id": "mdp_trial_26", "block": "test", "trialIndex": 27, "score": 70.8, "costs": -11.200000000000001, "simulationMode": [null, null, null, null, null], "rewards": [-1, 1, -2, 8, 76], "path": ["0", "0", "1", "2", "3", "8", "11"], "rt": [21085, 4, 1599, 247, 190], "actions": ["up", "up", "up", "left", "left"], "actionTimes": [23969, 24484, 26620, 27392, 28090], "queries": {"click": {"state": {"target": ["27", "32", "16", "21", "17", "20", "9", "11"], "time": [3920, 5834, 8887, 11220, 13773, 16050, 18712, 21070]}, "edge": {"target": [], "time": []}}, "mouseover": {"state": {"target": ["1", "10", "27", "26", "29", "27", "26", "30", "32", "30", "31", "14", "17", "16", "15", "14", "21", "17", "20", "4", "3", "9", "11", "10"], "time": [2998, 3038, 3097, 3297, 3437, 3697, 4277, 4578, 4759, 7959, 8009, 8119, 8318, 8678, 10743, 10784, 11060, 13421, 15777, 18138, 18299, 18518, 20782, 23320]}, "edge": {"target": [], "time": []}}, "mouseout": {"state": {"target": ["21", "19", "22", "0", "1", "10", "27", "26", "29", "27", "26", "30", "32", "30", "31", "14", "17", "16", "15", "14", "21", "17", "20", "4", "3", "9", "11", "10", "1", "0"], "time": [701, 800, 838, 2958, 3017, 3058, 3257, 3318, 3637, 4250, 4482, 4618, 7762, 8003, 8025, 8178, 8598, 9379, 10780, 10800, 13141, 15657, 17998, 18198, 18320, 20599, 23264, 23340, 31683, 31783]}, "edge": {"target": [], "time": []}}}, "displayed_time": "28.60", "trialTime": 32568, "trial_type": "mouselab-mdp", "trial_index": 34, "time_elapsed": 1149338, "internal_node_id": "0.0-4.0-1.0-25.0"}}, {"uniqueid": "w12816576:a99862537", "current_trial": 35, "dateTime": 1691143166227, "trialdata": {"revealed_states": [], "clicked_states": ["10", "7", "5", "9", "32", "27", "16", "21"], "num_clicks_accrued": [0, 0, 0, 0, 0, 0, 0, 0, 0, 0, 0, 0, 0], "stateRewards": ["", 1, -2, -2, 10, -31, -77, 35, 9, -47, 8, 48, -2, 1, -4, -3, -26, -50, 43, -11, 76, -38, 17, 1, -1, 6, 10, 15, -9, 12, -8, 85, 11, -55], "withholdReward": false, "trial_id": "mdp_trial_27", "block": "test", "trialIndex": 28, "score": 30.799999999999997, "costs": -11.200000000000001, "simulationMode": [null, null, null, null, null], "rewards": [1, -2, -2, 10, 35], "path": ["0", "0", "1", "2", "3", "4", "7"], "rt": [21090, 47, 26, 365, 5], "actions": ["up", "up", "up", "right", "down"], "actionTimes": [22297, 22853, 23391, 24270, 24793], "queries": {"click": {"state": {"target": ["10", "7", "5", "9", "32", "27", "16", "21"], "time": [1774, 3895, 6598, 8971, 11438, 14390, 17300, 19785]}, "edge": {"target": [], "time": []}}, "mouseover": {"state": {"target": ["1", "10", "2", "7", "4", "5", "9", "8", "32", "30", "25", "29", "27", "15", "17", "17", "16", "15", "14", "21"], "time": [1302, 1605, 2423, 2704, 6205, 6385, 8668, 10852, 11247, 13429, 13469, 13827, 14248, 16527, 16554, 16827, 17083, 19248, 19270, 19548]}, "edge": {"target": [], "time": []}}, "mouseout": {"state": {"target": ["0", "1", "10", "2", "7", "4", "5", "9", "8", "32", "30", "25", "29", "27", "15", "17", "17", "16", "15", "14", "21"], "time": [1217, 1342, 2383, 2483, 6168, 6245, 7043, 10847, 10864, 13407, 13449, 13562, 14025, 16429, 16547, 16574, 16868, 19228, 19266, 19286, 28128]}, "edge": {"target": [], "time": []}}}, "displayed_time": "25.30", "trialTime": 28815, "trial_type": "mouselab-mdp", "trial_index": 35, "time_elapsed": 1178480, "internal_node_id": "0.0-4.0-1.0-26.0"}}, {"uniqueid": "w12816576:a99862537", "current_trial": 36, "dateTime": 1691143184252, "trialdata": {"revealed_states": [], "clicked_states": ["27", "32", "9", "5"], "num_clicks_accrued": [0, 0, 0, 0, 0, 0, 0, 0, 0, 0, 0, 0, 0], "stateRewards": ["", -1, 3, 1, -7, 56, 76, 57, 3, 11, -9, 14, 1, -2, 2, 8, -77, -3, 79, -5, 88, 24, -66, -2, -1, 7, -7, -30, 14, -76, 11, -36, 28, -6], "withholdReward": false, "trial_id": "mdp_trial_28", "block": "test", "trialIndex": 29, "score": 46.4, "costs": -5.6, "simulationMode": [null, null, null, null, null], "rewards": [-1, 3, 1, -7, 56], "path": ["0", "0", "1", "2", "3", "4", "5"], "rt": [11273, 66, 57, 259, 188], "actions": ["up", "up", "up", "right", "up"], "actionTimes": [13020, 13602, 14172, 14973, 15670], "queries": {"click": {"state": {"target": ["27", "32", "9", "5"], "time": [2945, 4955, 7710, 10020]}, "edge": {"target": [], "time": []}}, "mouseover": {"state": {"target": ["24", "26", "29", "27", "26", "25", "30", "32", "10", "9", "5"], "time": [2217, 2343, 2593, 2713, 3373, 3396, 3461, 3592, 7013, 7552, 9873]}, "edge": {"target": [], "time": []}}, "mouseout": {"state": {"target": ["21", "22", "12", "24", "26", "29", "27", "26", "25", "30", "32", "10", "9", "5", "5", "7"], "time": [672, 753, 954, 2276, 2513, 2653, 3353, 3393, 3433, 3512, 6937, 7032, 9617, 10150, 11997, 16956]}, "edge": {"target": [], "time": []}}}, "displayed_time": "16.20", "trialTime": 17691, "trial_type": "mouselab-mdp", "trial_index": 36, "time_elapsed": 1196506, "internal_node_id": "0.0-4.0-1.0-27.0"}}, {"uniqueid": "w12816576:a99862537", "current_trial": 37, "dateTime": 1691143205065, "trialdata": {"revealed_states": [], "clicked_states": ["17", "20", "22", "27"], "num_clicks_accrued": [0, 0, 0, 0, 0, 0, 0, 0, 0, 0, 0, 0, 0], "stateRewards": ["", -1, 2, -6, 6, 43, 78, 78, -2, 55, -29, -17, -2, -4, 1, -15, 13, 7, -79, 8, -28, -68, 36, -1, -3, 3, -16, 84, -18, 87, 10, 32, 13, -81], "withholdReward": false, "trial_id": "mdp_trial_29", "block": "test", "trialIndex": 30, "score": 61.4, "costs": -5.6, "simulationMode": [null, null, null, null, null], "rewards": [-1, -3, 3, -16, 84], "path": ["0", "0", "23", "24", "25", "26", "27"], "rt": [12223, 6, 2105, 207, 17], "actions": ["left", "left", "left", "up", "up"], "actionTimes": [13806, 14329, 16962, 17684, 18199], "queries": {"click": {"state": {"target": ["17", "20", "22", "27"], "time": [2973, 5055, 8071, 11027]}, "edge": {"target": [], "time": []}}, "mouseover": {"state": {"target": ["12", "13", "14", "17", "17", "20", "19", "22", "13", "22", "26", "29", "27"], "time": [1878, 1915, 1994, 2214, 2737, 3853, 7138, 7275, 7455, 7838, 10278, 10435, 10872]}, "edge": {"target": [], "time": []}}, "mouseout": {"state": {"target": ["0", "12", "13", "14", "17", "17", "20", "19", "22", "13", "22", "26", "29", "27"], "time": [1838, 1897, 1953, 2137, 2438, 3476, 7058, 7215, 7335, 7778, 10058, 10378, 10672, 19519]}, "edge": {"target": [], "time": []}}}, "displayed_time": "18.74", "trialTime": 20503, "trial_type": "mouselab-mdp", "trial_index": 37, "time_elapsed": 1217318, "internal_node_id": "0.0-4.0-1.0-28.0"}}, {"uniqueid": "w12816576:a99862537", "current_trial": 38, "dateTime": 1691143222566, "trialdata": {"revealed_states": [], "clicked_states": ["32", "21", "5", "9"], "num_clicks_accrued": [0, 0, 0, 0, 0, 0, 0, 0, 0, 0, 0, 0, 0], "stateRewards": ["", 2, -1, -1, -9, -81, -30, 55, -6, 78, 25, 62, 2, 4, -1, 9, -85, 1, -19, 1, -60, 12, -34, 1, 4, -1, -13, -24, -16, -83, -8, 16, 43, 9], "withholdReward": false, "trial_id": "mdp_trial_30", "block": "test", "trialIndex": 31, "score": 66.4, "costs": -5.6, "simulationMode": [null, null, null, null, null], "rewards": [2, -1, -1, -6, 78], "path": ["0", "0", "1", "2", "3", "8", "9"], "rt": [11433, 13, 60, 62, 108], "actions": ["up", "up", "up", "left", "up"], "actionTimes": [12832, 13366, 13952, 14534, 15179], "queries": {"click": {"state": {"target": ["32", "21", "5", "9"], "time": [2301, 4772, 7636, 10014]}, "edge": {"target": [], "time": []}}, "mouseover": {"state": {"target": ["31", "32", "21", "19", "18", "7", "4", "5", "9", "8"], "time": [1911, 2071, 4411, 6819, 6951, 7031, 7289, 7429, 9742, 12055]}, "edge": {"target": [], "time": []}}, "mouseout": {"state": {"target": ["1", "0", "31", "32", "21", "21", "19", "18", "7", "4", "5", "9", "9", "8", "2"], "time": [611, 1815, 1951, 4314, 4877, 6774, 6852, 6972, 7074, 7310, 9514, 10138, 11975, 16375, 16711]}, "edge": {"target": [], "time": []}}}, "displayed_time": "15.69", "trialTime": 17184, "trial_type": "mouselab-mdp", "trial_index": 38, "time_elapsed": 1234821, "internal_node_id": "0.0-4.0-1.0-29.0"}}, {"uniqueid": "w12816576:a99862537", "current_trial": 39, "dateTime": 1691143240895, "trialdata": {"revealed_states": [], "clicked_states": ["27", "16"], "num_clicks_accrued": [0, 0, 0, 0, 0, 0, 0, 0, 0, 0, 0, 0, 0], "stateRewards": ["", -1, 2, -2, 5, 80, -61, -27, 12, 44, -26, -75, -2, -4, 1, -16, 42, -49, -50, 4, -44, 2, 80, -2, -2, 5, -2, 59, 10, 24, 7, -48, -86, -44], "withholdReward": false, "trial_id": "mdp_trial_31", "block": "test", "trialIndex": 32, "score": 55.2, "costs": -2.8, "simulationMode": [null, null, null, null, null], "rewards": [-2, -2, 5, -2, 59], "path": ["0", "0", "23", "24", "25", "26", "27"], "rt": [6606, 28, 64, 224, 1089], "actions": ["left", "left", "left", "up", "up"], "actionTimes": [8268, 8829, 9395, 10155, 11763], "queries": {"click": {"state": {"target": ["27", "16"], "time": [2637, 5647]}, "edge": {"target": [], "time": []}}, "mouseover": {"state": {"target": ["23", "24", "27", "10", "16"], "time": [2055, 2095, 2471, 4854, 5451]}, "edge": {"target": [], "time": []}}, "mouseout": {"state": {"target": ["2", "1", "23", "24", "27", "10", "16", "16", "15"], "time": [913, 1032, 2092, 2111, 4614, 4891, 13834, 14152, 14231]}, "edge": {"target": [], "time": []}}}, "displayed_time": "15.66", "trialTime": 18010, "trial_type": "mouselab-mdp", "trial_index": 39, "time_elapsed": 1253148, "internal_node_id": "0.0-4.0-1.0-30.0"}}, {"uniqueid": "w12816576:a99862537", "current_trial": 40, "dateTime": 1691143266279, "trialdata": {"revealed_states": [], "clicked_states": ["9", "5", "6", "11", "10", "7"], "num_clicks_accrued": [0, 0, 0, 0, 0, 0, 0, 0, 0, 0, 0, 0, 0], "stateRewards": ["", -2, -3, 8, -4, -30, 31, 69, 9, 66, 87, 64, -2, 2, 8, 5, 47, 16, -39, -8, -54, 51, -19, 1, -2, -2, -11, -25, -26, 43, -9, 19, -84, 86], "withholdReward": false, "trial_id": "mdp_trial_32", "block": "test", "trialIndex": 33, "score": 90.6, "costs": -8.4, "simulationMode": [null, null, null, null, null], "rewards": [-2, -3, 8, 9, 87], "path": ["0", "0", "1", "2", "3", "8", "10"], "rt": [17520, 95, 53, 124, 188], "actions": ["up", "up", "up", "left", "down"], "actionTimes": [19533, 20146, 20707, 21376, 22079], "queries": {"click": {"state": {"target": ["9", "5", "6", "11", "10", "7"], "time": [3860, 6871, 9170, 11671, 14356, 16868]}, "edge": {"target": [], "time": []}}, "mouseover": {"state": {"target": ["28", "26", "30", "32", "30", "24", "8", "9", "3", "4", "6", "6", "5", "6", "4", "3", "8", "11", "10", "2", "7"], "time": [2610, 2711, 2893, 2930, 3399, 3417, 3489, 3568, 6030, 6089, 6290, 6422, 6670, 8915, 11069, 11109, 11248, 11568, 14168, 16330, 16511]}, "edge": {"target": [], "time": []}}, "mouseout": {"state": {"target": ["7", "2", "1", "0", "28", "26", "30", "32", "30", "24", "8", "9", "3", "4", "6", "6", "5", "6", "6", "4", "3", "8", "11", "10", "2", "7"], "time": [1172, 1317, 1349, 2411, 2690, 2771, 2914, 3393, 3413, 3431, 3508, 5833, 6050, 6252, 6329, 6610, 8773, 9277, 11048, 11089, 11148, 11368, 13891, 16274, 16413, 23674]}, "edge": {"target": [], "time": []}}}, "displayed_time": "22.59", "trialTime": 25054, "trial_type": "mouselab-mdp", "trial_index": 40, "time_elapsed": 1278532, "internal_node_id": "0.0-4.0-1.0-31.0"}}, {"uniqueid": "w12816576:a99862537", "current_trial": 41, "dateTime": 1691143284894, "trialdata": {"revealed_states": [], "clicked_states": ["27", "32", "21", "16"], "num_clicks_accrued": [0, 0, 0, 0, 0, 0, 0, 0, 0, 0, 0, 0, 0], "stateRewards": ["", 1, -3, -2, 14, 49, -40, -39, 2, 26, -61, 73, 1, -4, -8, 12, 79, 29, -65, -13, 55, -26, 27, -1, 3, 3, 9, -17, -60, -18, -8, 35, -88, 69], "withholdReward": false, "trial_id": "mdp_trial_33", "block": "test", "trialIndex": 34, "score": 74.4, "costs": -5.6, "simulationMode": [null, null, null, null, null], "rewards": [1, -4, -8, 12, 79], "path": ["0", "0", "12", "13", "14", "15", "16"], "rt": [11362, 81, 135, 116, 20], "actions": ["right", "right", "right", "up", "up"], "actionTimes": [13415, 14018, 14676, 15333, 15878], "queries": {"click": {"state": {"target": ["27", "32", "21", "16"], "time": [3217, 5312, 7748, 10125]}, "edge": {"target": [], "time": []}}, "mouseover": {"state": {"target": ["28", "27", "26", "25", "30", "32", "21", "19", "15", "16", "18"], "time": [2775, 2935, 3755, 3777, 3836, 3935, 7576, 9660, 9756, 9996, 12739]}, "edge": {"target": [], "time": []}}, "mouseout": {"state": {"target": ["1", "0", "28", "27", "26", "25", "30", "32", "21", "19", "15", "16", "18", "1"], "time": [1138, 2560, 2796, 3715, 3775, 3815, 3876, 7199, 9639, 9686, 9896, 12380, 16980, 17099]}, "edge": {"target": [], "time": []}}}, "displayed_time": "16.40", "trialTime": 18275, "trial_type": "mouselab-mdp", "trial_index": 41, "time_elapsed": 1297148, "internal_node_id": "0.0-4.0-1.0-32.0"}}, {"uniqueid": "w12816576:a99862537", "current_trial": 42, "dateTime": 1691143302961, "trialdata": {"revealed_states": [], "clicked_states": ["11", "6"], "num_clicks_accrued": [0, 0, 0, 0, 0, 0, 0, 0, 0, 0, 0, 0, 0], "stateRewards": ["", 2, -1, -4, -13, 74, 77, 3, 2, -43, -2, -11, 2, 3, 7, 11, -26, -29, -33, -3, -3, -13, -3, 1, 3, -7, 14, -59, 33, 9, -5, 34, 79, 68], "withholdReward": false, "trial_id": "mdp_trial_34", "block": "test", "trialIndex": 35, "score": 58.2, "costs": -2.8, "simulationMode": [null, null, null, null, null], "rewards": [2, -1, -4, -13, 77], "path": ["0", "0", "1", "2", "3", "4", "6"], "rt": [7254, 237, 115, 263, 158], "actions": ["up", "up", "up", "right", "right"], "actionTimes": [8786, 9517, 10153, 10922, 11596], "queries": {"click": {"state": {"target": ["11", "6"], "time": [2668, 5310]}, "edge": {"target": [], "time": []}}, "mouseover": {"state": {"target": ["2", "3", "8", "11", "8", "3", "4", "6", "4"], "time": [1919, 1943, 2119, 2458, 3136, 3178, 3256, 3799, 8354]}, "edge": {"target": [], "time": []}}, "mouseout": {"state": {"target": ["0", "2", "3", "8", "11", "8", "3", "4", "6", "4"], "time": [1740, 1939, 1977, 2140, 3117, 3175, 3215, 3355, 7474, 13679]}, "edge": {"target": [], "time": []}}}, "displayed_time": "15.53", "trialTime": 17642, "trial_type": "mouselab-mdp", "trial_index": 42, "time_elapsed": 1315215, "internal_node_id": "0.0-4.0-1.0-33.0"}}, {"uniqueid": "w12816576:a99862537", "current_trial": 43, "dateTime": 1691143329720, "trialdata": {"revealed_states": [], "clicked_states": ["7", "10", "18", "17", "31", "33"], "num_clicks_accrued": [0, 0, 0, 0, 0, 0, 0, 0, 0, 0, 0, 0, 0], "stateRewards": ["", 1, -1, 4, 5, -32, 18, 20, 6, -88, -74, 9, -2, 1, -2, -14, 34, -77, -38, -1, 80, -36, 73, 2, 3, -8, 10, -48, -73, -71, -11, -22, 20, 54], "withholdReward": false, "trial_id": "mdp_trial_35", "block": "test", "trialIndex": 36, "score": 31.6, "costs": -8.4, "simulationMode": [null, null, null, null, null], "rewards": [2, 3, -8, -11, 54], "path": ["0", "0", "23", "24", "25", "30", "33"], "rt": [16236, 42, 38, 251, 174], "actions": ["left", "left", "left", "down", "left"], "actionTimes": [21542, 22082, 22628, 23403, 24083], "queries": {"click": {"state": {"target": ["7", "10", "18", "17", "31", "33"], "time": [6645, 9024, 11524, 13760, 16343, 18643]}, "edge": {"target": [], "time": []}}, "mouseover": {"state": {"target": ["6", "7", "2", "10", "18", "15", "17", "13", "12", "31", "30", "33"], "time": [6066, 6466, 8649, 8812, 11311, 13372, 13612, 15772, 15812, 16172, 18249, 18489]}, "edge": {"target": [], "time": []}}, "mouseout": {"state": {"target": ["7", "2", "1", "0", "6", "7", "2", "10", "18", "15", "17", "13", "12", "31", "30", "33", "30", "24"], "time": [4210, 4249, 4327, 5426, 6206, 8612, 8732, 10940, 13352, 13428, 15148, 15795, 15849, 18211, 18309, 25592, 25630, 25750]}, "edge": {"target": [], "time": []}}}, "displayed_time": "24.59", "trialTime": 26431, "trial_type": "mouselab-mdp", "trial_index": 43, "time_elapsed": 1341973, "internal_node_id": "0.0-4.0-1.0-34.0"}}, {"uniqueid": "w12816576:a99862537", "current_trial": 44, "dateTime": 1691143347524, "trialdata": {"revealed_states": [], "clicked_states": ["29", "27", "28"], "num_clicks_accrued": [0, 0, 0, 0, 0, 0, 0, 0, 0, 0, 0, 0, 0], "stateRewards": ["", -1, 4, -8, 12, 14, 69, -8, 5, -72, -14, 56, -1, -1, -1, 9, 67, 19, 11, -9, -88, -58, 3, 2, -4, -8, 4, 62, 77, -74, 5, -31, 65, 88], "withholdReward": false, "trial_id": "mdp_trial_36", "block": "test", "trialIndex": 37, "score": 66.8, "costs": -4.199999999999999, "simulationMode": [null, null, null, null, null], "rewards": [2, -4, -8, 4, 77], "path": ["0", "0", "23", "24", "25", "26", "28"], "rt": [9546, 52, 5, 516, 241], "actions": ["left", "left", "left", "up", "right"], "actionTimes": [11268, 11827, 12321, 13373, 14124], "queries": {"click": {"state": {"target": ["29", "27", "28"], "time": [3645, 5841, 8636]}, "edge": {"target": [], "time": []}}, "mouseover": {"state": {"target": ["1", "8", "11", "27", "29", "26", "27", "28", "28"], "time": [2040, 2253, 2454, 2938, 3454, 5539, 5654, 7918, 8415]}, "edge": {"target": [], "time": []}}, "mouseout": {"state": {"target": ["23", "0", "0", "1", "8", "11", "27", "29", "29", "26", "27", "28", "28", "23"], "time": [896, 1074, 2018, 2058, 2416, 2838, 3295, 3721, 4235, 5574, 7798, 7978, 15539, 16436]}, "edge": {"target": [], "time": []}}}, "displayed_time": "15.72", "trialTime": 17462, "trial_type": "mouselab-mdp", "trial_index": 44, "time_elapsed": 1359777, "internal_node_id": "0.0-4.0-1.0-35.0"}}, {"uniqueid": "w12816576:a99862537", "current_trial": 45, "dateTime": 1691143364350, "trialdata": {"revealed_states": [], "clicked_states": ["6"], "num_clicks_accrued": [0, 0, 0, 0, 0, 0, 0, 0, 0, 0, 0, 0, 0], "stateRewards": ["", -2, -3, 8, 14, -73, 73, 84, -12, -2, -50, -17, 2, 1, -2, -9, -44, -27, -33, 16, -63, -47, -66, -2, 1, 4, -5, -33, -11, 50, 9, 38, -79, 31], "withholdReward": false, "trial_id": "mdp_trial_37", "block": "test", "trialIndex": 38, "score": 88.6, "costs": -1.4, "simulationMode": [null, null, null, null, null], "rewards": [-2, -3, 8, 14, 73], "path": ["0", "0", "1", "2", "3", "4", "6"], "rt": [4258, 47, 7, 343, 75], "actions": ["up", "up", "up", "right", "right"], "actionTimes": [5766, 6324, 6827, 7678, 8271], "queries": {"click": {"state": {"target": ["6"], "time": [2749]}, "edge": {"target": [], "time": []}}, "mouseover": {"state": {"target": ["7", "4", "6", "16", "6", "4", "3", "8"], "time": [1937, 1994, 2292, 2412, 2552, 4657, 4734, 4834]}, "edge": {"target": [], "time": []}}, "mouseout": {"state": {"target": ["0", "7", "4", "6", "16", "6", "4", "3", "8", "9"], "time": [1854, 1957, 2152, 2332, 2478, 3614, 4698, 4793, 4894, 9937]}, "edge": {"target": [], "time": []}}}, "displayed_time": "15.51", "trialTime": 16467, "trial_type": "mouselab-mdp", "trial_index": 45, "time_elapsed": 1376603, "internal_node_id": "0.0-4.0-1.0-36.0"}}, {"uniqueid": "w12816576:a99862537", "current_trial": 46, "dateTime": 1691143389212, "trialdata": {"revealed_states": [], "clicked_states": ["11", "6", "9", "5", "21", "32"], "num_clicks_accrued": [0, 0, 0, 0, 0, 0, 0, 0, 0, 0, 0, 0, 0], "stateRewards": ["", 2, -4, -8, -15, 71, -43, -41, 7, -17, 20, 67, -1, -1, -4, 6, 37, -24, -47, 9, 34, 57, 45, 1, 2, -4, -5, -23, 88, -5, 13, -40, 43, 44], "withholdReward": false, "trial_id": "mdp_trial_38", "block": "test", "trialIndex": 39, "score": 37.6, "costs": -8.4, "simulationMode": [null, null, null, null, null], "rewards": [2, -4, -8, -15, 71], "path": ["0", "0", "1", "2", "3", "4", "5"], "rt": [17130, 609, 230, 395, 202], "actions": ["up", "up", "up", "right", "up"], "actionTimes": [18750, 19897, 20632, 21536, 22264], "queries": {"click": {"state": {"target": ["11", "6", "9", "5", "21", "32"], "time": [2368, 4970, 7536, 9772, 13561, 16231]}, "edge": {"target": [], "time": []}}, "mouseover": {"state": {"target": ["1", "2", "8", "8", "11", "3", "4", "6", "4", "9", "5", "4", "7", "7", "4", "7", "12", "13", "19", "21", "32"], "time": [1759, 1790, 1831, 1899, 2184, 4344, 4575, 4760, 6966, 7344, 9580, 12325, 12379, 12539, 12619, 12749, 12920, 13060, 13220, 13360, 16044]}, "edge": {"target": [], "time": []}}, "mouseout": {"state": {"target": ["3", "0", "1", "2", "8", "8", "11", "3", "4", "6", "4", "9", "5", "4", "7", "7", "4", "7", "12", "13", "19", "21", "32"], "time": [782, 1719, 1784, 1811, 1849, 1919, 3081, 4544, 4701, 6944, 6987, 9424, 12305, 12341, 12419, 12579, 12744, 12780, 12980, 13120, 13260, 15584, 18241]}, "edge": {"target": [], "time": []}}}, "displayed_time": "22.76", "trialTime": 24457, "trial_type": "mouselab-mdp", "trial_index": 46, "time_elapsed": 1401466, "internal_node_id": "0.0-4.0-1.0-37.0"}}, {"uniqueid": "w12816576:a99862537", "current_trial": 47, "dateTime": 1691143407956, "trialdata": {"revealed_states": [], "clicked_states": ["29", "33", "28", "31"], "num_clicks_accrued": [0, 0, 0, 0, 0, 0, 0, 0, 0, 0, 0, 0, 0], "stateRewards": ["", 2, 4, 7, -6, -76, -81, 2, 5, -66, -3, 36, -2, -4, 6, -2, -69, 4, -49, -6, 67, 38, -67, 2, 1, 1, 6, -68, -21, 52, -16, -16, 6, -70], "withholdReward": false, "trial_id": "mdp_trial_39", "block": "test", "trialIndex": 40, "score": 56.4, "costs": -5.6, "simulationMode": [null, null, null, null, null], "rewards": [2, 1, 1, 6, 52], "path": ["0", "0", "23", "24", "25", "26", "29"], "rt": [11178, 120, 243, 106, 197], "actions": ["left", "left", "left", "up", "left"], "actionTimes": [12641, 13277, 14023, 14646, 15353], "queries": {"click": {"state": {"target": ["29", "33", "28", "31"], "time": [2488, 4558, 7220, 9651]}, "edge": {"target": [], "time": []}}, "mouseover": {"state": {"target": ["23", "23", "24", "26", "29", "33", "30", "25", "28", "24", "31"], "time": [1593, 1713, 1793, 1953, 2333, 3114, 5034, 6519, 6674, 9157, 9274]}, "edge": {"target": [], "time": []}}, "mouseout": {"state": {"target": ["0", "23", "23", "24", "26", "29", "33", "30", "25", "28", "24", "31"], "time": [1114, 1633, 1753, 1833, 2173, 3042, 4661, 6498, 6556, 9137, 9195, 17197]}, "edge": {"target": [], "time": []}}}, "displayed_time": "15.86", "trialTime": 18373, "trial_type": "mouselab-mdp", "trial_index": 47, "time_elapsed": 1420209, "internal_node_id": "0.0-4.0-1.0-38.0"}}, {"uniqueid": "w12816576:a99862537", "current_trial": 48, "dateTime": 1691143430236, "trialdata": {"revealed_states": [], "clicked_states": ["16", "21", "32", "27", "33"], "num_clicks_accrued": [0, 0, 0, 0, 0, 0, 0, 0, 0, 0, 0, 0, 0], "stateRewards": ["", -2, -3, 4, 1, 33, -53, 15, 9, -12, 61, -6, -2, 4, 6, -11, 47, -43, -7, -11, 46, 23, -28, -1, -1, 3, -10, 11, 76, -76, 10, 18, -38, 87], "withholdReward": false, "trial_id": "mdp_trial_40", "block": "test", "trialIndex": 41, "score": 91, "costs": -7, "simulationMode": [null, null, null, null, null], "rewards": [-1, -1, 3, 10, 87], "path": ["0", "0", "23", "24", "25", "30", "33"], "rt": [13992, 58, 67, 340, 292], "actions": ["left", "left", "left", "down", "left"], "actionTimes": [16273, 16846, 17462, 18308, 19100], "queries": {"click": {"state": {"target": ["16", "21", "32", "27", "33"], "time": [3573, 5690, 8195, 10623, 13485]}, "edge": {"target": [], "time": []}}, "mouseover": {"state": {"target": ["12", "13", "14", "14", "15", "16", "15", "14", "21", "21", "32", "30", "26", "27", "29", "33", "30", "31"], "time": [2717, 2767, 2789, 3166, 3226, 3451, 3928, 3952, 4067, 4387, 8027, 10173, 10228, 10366, 12831, 13248, 15468, 15746]}, "edge": {"target": [], "time": []}}, "mouseout": {"state": {"target": ["0", "12", "13", "14", "14", "15", "16", "15", "14", "21", "21", "32", "30", "26", "27", "29", "33", "30", "31"], "time": [2711, 2746, 2786, 2826, 3186, 3266, 3908, 3949, 3968, 4207, 7671, 10151, 10196, 10266, 12591, 13171, 15431, 15708, 20784]}, "edge": {"target": [], "time": []}}}, "displayed_time": "19.59", "trialTime": 21908, "trial_type": "mouselab-mdp", "trial_index": 48, "time_elapsed": 1442490, "internal_node_id": "0.0-4.0-1.0-39.0"}}, {"uniqueid": "w12816576:a99862537", "current_trial": 49, "dateTime": 1691143516984, "trialdata": {"rt": 86734, "response": {"Q0": "$-16 to 16", "Q1": "$-16 to $16", "Q2": "$-32 to $32", "Q3": "The cost was always $1.4.", "Q4": "Very motivated"}, "question_order": [0, 1, 2, 3, 4], "trial_id": "final_quiz_control", "trial_type": "survey-multi-choice", "trial_index": 49, "time_elapsed": 1529238, "internal_node_id": "0.0-4.0-2.0"}}, {"uniqueid": "w12816576:a99862537", "current_trial": 50, "dateTime": 1691143717821, "trialdata": {"rt": 200827, "response": {"Q0": "I was checking the numbers on the final destination while trying to use the revealer as little as possible. My strategy was to not use more than 5 checks unless I had to, and if I find a big number then that's the route I was using.", "Q1": "Yes. When I started I was checking even the nodes in the middle which would not be my final destination but as I played on I realized I was doing it wrong.", "Q2": "What was difficult was finding the highest number while trying to save money ang still get a high score."}, "trial_id": "self_report_control", "trial_type": "survey-text", "trial_index": 50, "time_elapsed": 1730075, "internal_node_id": "0.0-4.0-3.0"}}, {"uniqueid": "w12816576:a99862537", "current_trial": 51, "dateTime": 1691143739562, "trialdata": {"rt": 21738, "response": {"gender": "female", "age": "30", "colorblind": "0", "effort": "0"}, "trial_type": "survey-html-form", "trial_index": 51, "time_elapsed": 1751817, "internal_node_id": "0.0-4.0-4.0"}}, {"uniqueid": "w12816576:a99862537", "current_trial": 52, "dateTime": 1691143826037, "trialdata": {"rt": 86469, "response": {"Q0": "No really, it was a fun game.", "Q1": "No.", "Q2": "I enjoyed playing this & it helped me think and challenge myself to do better with each round."}, "trial_type": "survey-text", "trial_index": 52, "time_elapsed": 1838292, "internal_node_id": "0.0-4.0-5.0"}}, {"uniqueid": "w12816576:a99862537", "current_trial": 53, "dateTime": 1691143829236, "trialdata": {"rt": 3194, "stimulus": "Press 'Finish HIT' in order to reach the completion code. Once the data has been saved, you will receive the code either in this window or in the original browser window where you started the experiment.\n", "response": 0, "trial_type": "html-button-response", "trial_index": 53, "time_elapsed": 1841491, "internal_node_id": "0.0-5.0"}}, {"uniqueid": "w12816576:a99862537", "current_trial": 54, "dateTime": 1691143830303, "trialdata": {"success": true, "trial_type": "fullscreen", "trial_index": 54, "time_elapsed": 1842558, "internal_node_id": "0.0-6.0"}}], "questiondata": {"params": {"CODE": "C6DMOQA6", "MIN_TIME": 14, "inspectCost": 1, "startTime": "Fri Aug 04 2023 11:39:45 GMT+0200 (South Africa Standard Time)", "bonusRate": 0.002, "variance": "1_2_4_8_44", "branching": "31123"}, "final_score": 2099.8}, "eventdata": [{"eventtype": "initialized", "value": null, "timestamp": 1691141985402, "interval": 0}, {"eventtype": "window_resize", "value": [1024, 654], "timestamp": 1691141985402, "interval": 0}, {"eventtype": "window_resize", "value": [1024, 654], "timestamp": 1691141985867, "interval": 465}, {"eventtype": "window_resize", "value": [1366, 768], "timestamp": 1691141992373, "interval": 6506}, {"eventtype": "window_resize", "value": [1024, 654], "timestamp": 1691143829572, "interval": 1837199}], "useragent": "Mozilla/5.0 (Windows NT 10.0; Win64; x64) AppleWebKit/537.36 (KHTML, like Gecko) Chrome/115.0.0.0 Safari/537.36", "mode": "live", "id": "w12816576:a99862537", "status": "user data saved", "Beginhit": "2023-08-04 09:39:43.90715", "Beginexp": "2023-08-04 09:39:54.20567", "Endhit": "2023-08-04 10:10:32.452035", "psiturkStatus": 3, "browser": "<redacted>", "platform": "windows", "language": "en-US"}