{"condition": 1, "counterbalance": 0, "assignmentId": "a20413699", "workerId": "w93289383", "hitId": "h57937794", "currenttrial": 74, "bonus": 0, "data": [{"uniqueid": "w93289383:a20413699", "current_trial": 0, "dateTime": 1691161600374, "trialdata": {"success": true, "trial_type": "fullscreen", "trial_index": 0, "time_elapsed": 2890, "internal_node_id": "0.0-0.0"}}, {"uniqueid": "w93289383:a20413699", "current_trial": 1, "dateTime": 1691161605909, "trialdata": {"view_history": [{"page_index": 0, "viewing_time": 5532}], "rt": 5533, "trial_id": "exp_instructions_misaligned", "trial_type": "instructions", "trial_index": 1, "time_elapsed": 8425, "internal_node_id": "0.0-1.0"}}, {"uniqueid": "w93289383:a20413699", "current_trial": 2, "dateTime": 1691161608317, "trialdata": {"success": true, "trial_type": "fullscreen", "trial_index": 2, "time_elapsed": 10833, "internal_node_id": "0.0-2.0-0.0"}}, {"uniqueid": "w93289383:a20413699", "current_trial": 3, "dateTime": 1691161633813, "trialdata": {"view_history": [{"page_index": 0, "viewing_time": 7582}, {"page_index": 1, "viewing_time": 8134}, {"page_index": 2, "viewing_time": 3806}, {"page_index": 3, "viewing_time": 5972}], "rt": 25494, "trial_id": "mouselab_instructions_1_misaligned", "trial_type": "instructions", "trial_index": 3, "time_elapsed": 36329, "internal_node_id": "0.0-2.0-1.0"}}, {"uniqueid": "w93289383:a20413699", "current_trial": 4, "dateTime": 1691161678370, "trialdata": {"revealed_states": [], "clicked_states": ["25", "13", "15", "14", "17", "16", "18", "2", "3", "12", "23", "31", "30"], "num_clicks_accrued": [0, 0, 0, 0, 0, 0, 0, 0, 0, 0, 0, 0, 0], "stateRewards": ["", 10, -10, -10, -10, 10, 10, -10, -10, 10, 10, 10, 10, 10, 10, -10, -10, 10, -10, 10, 10, 10, -10, 10, -10, 10, 10, -10, 10, -10, 10, -10, 10, -10], "withholdReward": false, "trial_id": "practice_1", "block": "test", "trialIndex": 0, "score": 7, "costs": -6.5, "simulationMode": [null, null, null, null, null], "rewards": [10, 10, 10, -10, -10], "path": ["0", "0", "12", "13", "14", "15", "16"], "rt": [25049, 233, 523, 181, 8677], "actions": ["right", "right", "right", "up", "up"], "actionTimes": [28329, 29072, 30104, 30784, 39960], "queries": {"click": {"state": {"target": ["25", "13", "15", "14", "17", "16", "18", "2", "3", "12", "23", "31", "30"], "time": [6006, 9421, 11068, 13593, 14670, 15934, 17151, 19350, 20375, 21884, 22946, 24747, 26129]}, "edge": {"target": [], "time": []}}, "mouseover": {"state": {"target": ["0", "24", "25", "12", "13", "14", "15", "14", "17", "16", "16", "18", "13", "12", "1", "2", "3", "1", "12", "23", "31", "31", "30", "33"], "time": [3439, 5699, 5809, 8413, 8955, 10504, 10962, 11664, 14400, 15011, 15732, 16949, 18595, 18705, 19018, 19094, 20191, 20858, 21795, 22476, 23538, 24531, 25608, 26442]}, "edge": {"target": [], "time": []}}, "mouseout": {"state": {"target": ["12", "0", "0", "24", "25", "12", "13", "14", "15", "14", "17", "16", "16", "18", "13", "12", "1", "2", "3", "2", "1", "12", "23", "31", "31", "30", "33", "0", "12", "15", "14", "19", "19"], "time": [449, 1935, 4135, 5768, 6914, 8559, 10461, 10913, 11608, 14302, 14934, 15379, 16184, 18552, 18636, 18746, 19031, 20121, 20782, 20837, 20907, 21964, 23359, 24171, 25538, 26386, 31595, 31830, 31858, 32920, 32975, 33175, 37642]}, "edge": {"target": [], "time": []}}}, "displayed_time": "40.46", "trialTime": 44256, "trial_type": "mouselab-mdp", "trial_index": 4, "time_elapsed": 80885, "internal_node_id": "0.0-2.0-2.0-0.0"}}, {"uniqueid": "w93289383:a20413699", "current_trial": 5, "dateTime": 1691161724570, "trialdata": {"revealed_states": [], "clicked_states": ["12", "13", "14", "15", "18", "16", "17", "22", "19", "20", "21"], "num_clicks_accrued": [0, 0, 0, 0, 0, 0, 0, 0, 0, 0, 0, 0, 0], "stateRewards": ["", 10, 10, -10, 10, 10, 10, -10, -10, 10, 10, -10, 10, 10, -10, 10, -10, -10, -10, 10, -10, -10, 10, 10, -10, -10, 10, -10, -10, -10, -10, -10, -10, 10], "withholdReward": false, "trial_id": "practice_2", "block": "test", "trialIndex": 1, "score": 8, "costs": -5.5, "simulationMode": [null, null, null, null, null], "rewards": [10, 10, -10, 10, -10], "path": ["0", "0", "12", "13", "14", "15", "18"], "rt": [16480, 139, 93, 470, 21187], "actions": ["right", "right", "right", "up", "left"], "actionTimes": [19347, 19987, 20587, 21555, 43243], "queries": {"click": {"state": {"target": ["12", "13", "14", "15", "18", "16", "17", "22", "19", "20", "21"], "time": [4834, 5920, 7188, 8540, 9837, 11070, 12274, 14165, 15248, 16490, 17857]}, "edge": {"target": [], "time": []}}, "mouseover": {"state": {"target": ["12", "13", "14", "15", "18", "16", "17", "19", "22", "22", "22", "19", "20", "21"], "time": [4430, 5326, 6430, 8436, 8944, 10291, 11305, 12923, 13166, 13714, 13964, 14340, 15541, 17084]}, "edge": {"target": [], "time": []}}, "mouseout": {"state": {"target": ["22", "12", "0", "12", "13", "14", "15", "18", "16", "17", "19", "22", "22", "22", "19", "20", "21", "20", "14", "14", "20"], "time": [1645, 1700, 4298, 5264, 6201, 7562, 8850, 10062, 11235, 12562, 13090, 13576, 13791, 14298, 15513, 16916, 18029, 25638, 25687, 26117, 26721]}, "edge": {"target": [], "time": []}}}, "displayed_time": "43.75", "trialTime": 46035, "trial_type": "mouselab-mdp", "trial_index": 5, "time_elapsed": 127085, "internal_node_id": "0.0-2.0-2.0-1.0"}}, {"uniqueid": "w93289383:a20413699", "current_trial": 6, "dateTime": 1691161745310, "trialdata": {"view_history": [{"page_index": 0, "viewing_time": 16896}, {"page_index": 1, "viewing_time": 3842}], "rt": 20738, "trial_id": "mouselab_instructions_2_misaligned", "trial_type": "instructions", "trial_index": 6, "time_elapsed": 147826, "internal_node_id": "0.0-2.0-3.0"}}, {"uniqueid": "w93289383:a20413699", "current_trial": 7, "dateTime": 1691161767763, "trialdata": {"rt": 22449, "response": {"Q0": "The cost for clicking on nodes may vary between nodes.", "Q1": "I will receive a $1 bonus regardless of my performance.", "Q2": "No, the amount of cash at each node of the web may be different each time.", "Q3": "To get the highest total score.", "Q4": "Only before moving the spider.", "Q5": "10 seconds"}, "question_order": [0, 1, 2, 3, 4, 5], "correct": {"Q0": "The cost for clicking on nodes may vary between nodes.", "Q1": "The better I perform the higher my bonus will be.", "Q2": "No, the amount of cash at each node of the web may be different each time.", "Q3": "To get the highest total score.", "Q4": "Only before moving the spider.", "Q5": "3 seconds"}, "trial_id": "mouselab_quiz_misaligned", "trial_type": "survey-multi-choice", "trial_index": 7, "time_elapsed": 170278, "internal_node_id": "0.0-2.0-4.0"}}, {"uniqueid": "w93289383:a20413699", "current_trial": 8, "dateTime": 1691161772082, "trialdata": {"success": true, "trial_type": "fullscreen", "trial_index": 8, "time_elapsed": 174598, "internal_node_id": "0.0-2.1-0.1"}}, {"uniqueid": "w93289383:a20413699", "current_trial": 9, "dateTime": 1691161824097, "trialdata": {"view_history": [{"page_index": 0, "viewing_time": 10217}, {"page_index": 1, "viewing_time": 24422}, {"page_index": 2, "viewing_time": 3832}, {"page_index": 3, "viewing_time": 13542}], "rt": 52013, "trial_id": "mouselab_instructions_1_misaligned", "trial_type": "instructions", "trial_index": 9, "time_elapsed": 226613, "internal_node_id": "0.0-2.1-1.1"}}, {"uniqueid": "w93289383:a20413699", "current_trial": 10, "dateTime": 1691161836642, "trialdata": {"revealed_states": [], "clicked_states": ["23", "24", "25"], "num_clicks_accrued": [0, 0, 0, 0, 0, 0, 0, 0, 0, 0, 0, 0, 0], "stateRewards": ["", 10, -10, -10, -10, 10, 10, -10, -10, 10, 10, 10, 10, 10, 10, -10, -10, 10, -10, 10, 10, 10, -10, 10, -10, 10, 10, -10, 10, -10, 10, -10, 10, -10], "withholdReward": false, "trial_id": "practice_1", "block": "test", "trialIndex": 2, "score": 32, "costs": -1.5, "simulationMode": [null, null, null, null, null], "rewards": [10, -10, 10, 10, 10], "path": ["0", "0", "23", "24", "25", "26", "28"], "rt": [5196, 99, 63, 58, 164], "actions": ["left", "left", "left", "up", "right"], "actionTimes": [6671, 7270, 7838, 8398, 9070], "queries": {"click": {"state": {"target": ["23", "24", "25"], "time": [2249, 3373, 4644]}, "edge": {"target": [], "time": []}}, "mouseover": {"state": {"target": ["23", "24", "25", "24", "25", "26", "28"], "time": [2127, 2691, 3149, 3287, 4204, 4941, 5773]}, "edge": {"target": [], "time": []}}, "mouseout": {"state": {"target": ["12", "0", "23", "24", "25", "24", "25", "26", "28"], "time": [316, 2003, 2649, 3093, 3246, 4045, 4878, 5670, 5864]}, "edge": {"target": [], "time": []}}}, "displayed_time": "9.57", "trialTime": 12375, "trial_type": "mouselab-mdp", "trial_index": 10, "time_elapsed": 239158, "internal_node_id": "0.0-2.1-2.1-0.1"}}, {"uniqueid": "w93289383:a20413699", "current_trial": 11, "dateTime": 1691161844153, "trialdata": {"revealed_states": [], "clicked_states": [], "num_clicks_accrued": [0, 0, 0, 0, 0, 0, 0, 0, 0, 0, 0, 0, 0], "stateRewards": ["", 10, 10, -10, 10, 10, 10, -10, -10, 10, 10, -10, 10, 10, -10, 10, -10, -10, -10, 10, -10, -10, 10, 10, -10, -10, 10, -10, -10, -10, -10, -10, -10, 10], "withholdReward": false, "trial_id": "practice_2", "block": "test", "trialIndex": 3, "score": 13.5, "costs": 0, "simulationMode": [null, null, null, null, null], "rewards": [10, 10, -10, 10, -10], "path": ["0", "0", "12", "13", "14", "15", "17"], "rt": [810, 82, 411, 5, 53], "actions": ["right", "right", "right", "up", "right"], "actionTimes": [3076, 3659, 4571, 5076, 5644], "queries": {"click": {"state": {"target": [], "time": []}, "edge": {"target": [], "time": []}}, "mouseover": {"state": {"target": [], "time": []}, "edge": {"target": [], "time": []}}, "mouseout": {"state": {"target": [], "time": []}, "edge": {"target": [], "time": []}}}, "displayed_time": "6.15", "trialTime": 7355, "trial_type": "mouselab-mdp", "trial_index": 11, "time_elapsed": 246669, "internal_node_id": "0.0-2.1-2.1-1.1"}}, {"uniqueid": "w93289383:a20413699", "current_trial": 12, "dateTime": 1691161847677, "trialdata": {"view_history": [{"page_index": 0, "viewing_time": 2372}, {"page_index": 1, "viewing_time": 1150}], "rt": 3522, "trial_id": "mouselab_instructions_2_misaligned", "trial_type": "instructions", "trial_index": 12, "time_elapsed": 250193, "internal_node_id": "0.0-2.1-3.1"}}, {"uniqueid": "w93289383:a20413699", "current_trial": 13, "dateTime": 1691161864478, "trialdata": {"rt": 16799, "response": {"Q0": "The cost for clicking on nodes may vary between nodes.", "Q1": "The better I perform the higher my bonus will be.", "Q2": "No, the structure of the web will be different each time.", "Q3": "To get the highest total score.", "Q4": "Only before moving the spider.", "Q5": "3 seconds"}, "question_order": [0, 1, 2, 3, 4, 5], "correct": {"Q0": "The cost for clicking on nodes may vary between nodes.", "Q1": "The better I perform the higher my bonus will be.", "Q2": "No, the amount of cash at each node of the web may be different each time.", "Q3": "To get the highest total score.", "Q4": "Only before moving the spider.", "Q5": "3 seconds"}, "trial_id": "mouselab_quiz_misaligned", "trial_type": "survey-multi-choice", "trial_index": 13, "time_elapsed": 266994, "internal_node_id": "0.0-2.1-4.1"}}, {"uniqueid": "w93289383:a20413699", "current_trial": 14, "dateTime": 1691161868018, "trialdata": {"success": true, "trial_type": "fullscreen", "trial_index": 14, "time_elapsed": 270534, "internal_node_id": "0.0-2.2-0.2"}}, {"uniqueid": "w93289383:a20413699", "current_trial": 15, "dateTime": 1691161874027, "trialdata": {"view_history": [{"page_index": 0, "viewing_time": 2065}, {"page_index": 1, "viewing_time": 2551}, {"page_index": 2, "viewing_time": 827}, {"page_index": 3, "viewing_time": 564}], "rt": 6007, "trial_id": "mouselab_instructions_1_misaligned", "trial_type": "instructions", "trial_index": 15, "time_elapsed": 276543, "internal_node_id": "0.0-2.2-1.2"}}, {"uniqueid": "w93289383:a20413699", "current_trial": 16, "dateTime": 1691161880737, "trialdata": {"revealed_states": [], "clicked_states": [], "num_clicks_accrued": [0, 0, 0, 0, 0, 0, 0, 0, 0, 0, 0, 0, 0], "stateRewards": ["", 10, -10, -10, -10, 10, 10, -10, -10, 10, 10, 10, 10, 10, 10, -10, -10, 10, -10, 10, 10, 10, -10, 10, -10, 10, 10, -10, 10, -10, 10, -10, 10, -10], "withholdReward": false, "trial_id": "practice_1", "block": "test", "trialIndex": 4, "score": 13.5, "costs": 0, "simulationMode": [null, null, null, null, null], "rewards": [10, -10, 10, 10, -10], "path": ["0", "0", "23", "24", "25", "26", "29"], "rt": [714, 15, 453, 77, 77], "actions": ["left", "left", "left", "up", "left"], "actionTimes": [2180, 2700, 3652, 4228, 4804], "queries": {"click": {"state": {"target": [], "time": []}, "edge": {"target": [], "time": []}}, "mouseover": {"state": {"target": ["0"], "time": [1739]}, "edge": {"target": [], "time": []}}, "mouseout": {"state": {"target": ["12", "0", "0"], "time": [169, 1037, 5364]}, "edge": {"target": [], "time": []}}}, "displayed_time": "5.31", "trialTime": 6539, "trial_type": "mouselab-mdp", "trial_index": 16, "time_elapsed": 283253, "internal_node_id": "0.0-2.2-2.2-0.2"}}, {"uniqueid": "w93289383:a20413699", "current_trial": 17, "dateTime": 1691161886313, "trialdata": {"revealed_states": [], "clicked_states": [], "num_clicks_accrued": [0, 0, 0, 0, 0, 0, 0, 0, 0, 0, 0, 0, 0], "stateRewards": ["", 10, 10, -10, 10, 10, 10, -10, -10, 10, 10, -10, 10, 10, -10, 10, -10, -10, -10, 10, -10, -10, 10, 10, -10, -10, 10, -10, -10, -10, -10, -10, -10, 10], "withholdReward": false, "trial_id": "practice_2", "block": "test", "trialIndex": 5, "score": 13.5, "costs": 0, "simulationMode": [null, null, null, null, null], "rewards": [10, 10, -10, 10, -10], "path": ["0", "0", "12", "13", "14", "19", "20"], "rt": [210, 841, 62, 132, 44], "actions": ["right", "right", "right", "down", "right"], "actionTimes": [1187, 2531, 3099, 3731, 4275], "queries": {"click": {"state": {"target": [], "time": []}, "edge": {"target": [], "time": []}}, "mouseover": {"state": {"target": [], "time": []}, "edge": {"target": [], "time": []}}, "mouseout": {"state": {"target": ["0"], "time": [4681]}, "edge": {"target": [], "time": []}}}, "displayed_time": "4.78", "trialTime": 5419, "trial_type": "mouselab-mdp", "trial_index": 17, "time_elapsed": 288829, "internal_node_id": "0.0-2.2-2.2-1.2"}}, {"uniqueid": "w93289383:a20413699", "current_trial": 18, "dateTime": 1691161890307, "trialdata": {"view_history": [{"page_index": 0, "viewing_time": 2601}, {"page_index": 1, "viewing_time": 1390}], "rt": 3992, "trial_id": "mouselab_instructions_2_misaligned", "trial_type": "instructions", "trial_index": 18, "time_elapsed": 292823, "internal_node_id": "0.0-2.2-3.2"}}, {"uniqueid": "w93289383:a20413699", "current_trial": 19, "dateTime": 1691161907208, "trialdata": {"rt": 16899, "response": {"Q0": "The cost for clicking on nodes may vary between nodes.", "Q1": "I will receive a $1 bonus if I perform well, otherwise I will receive no bonus.", "Q2": "No, the structure of the web will be different each time.", "Q3": "To get the highest total score.", "Q4": "Only before moving the spider.", "Q5": "3 seconds"}, "question_order": [0, 1, 2, 3, 4, 5], "correct": {"Q0": "The cost for clicking on nodes may vary between nodes.", "Q1": "The better I perform the higher my bonus will be.", "Q2": "No, the amount of cash at each node of the web may be different each time.", "Q3": "To get the highest total score.", "Q4": "Only before moving the spider.", "Q5": "3 seconds"}, "trial_id": "mouselab_quiz_misaligned", "trial_type": "survey-multi-choice", "trial_index": 19, "time_elapsed": 309724, "internal_node_id": "0.0-2.2-4.2"}}, {"uniqueid": "w93289383:a20413699", "current_trial": 20, "dateTime": 1691161910612, "trialdata": {"success": true, "trial_type": "fullscreen", "trial_index": 20, "time_elapsed": 313128, "internal_node_id": "0.0-2.3-0.3"}}, {"uniqueid": "w93289383:a20413699", "current_trial": 21, "dateTime": 1691161961161, "trialdata": {"view_history": [{"page_index": 0, "viewing_time": 29193}, {"page_index": 1, "viewing_time": 13914}, {"page_index": 2, "viewing_time": 1170}, {"page_index": 3, "viewing_time": 6270}], "rt": 50547, "trial_id": "mouselab_instructions_1_misaligned", "trial_type": "instructions", "trial_index": 21, "time_elapsed": 363677, "internal_node_id": "0.0-2.3-1.3"}}, {"uniqueid": "w93289383:a20413699", "current_trial": 22, "dateTime": 1691161967538, "trialdata": {"revealed_states": [], "clicked_states": [], "num_clicks_accrued": [0, 0, 0, 0, 0, 0, 0, 0, 0, 0, 0, 0, 0], "stateRewards": ["", 10, -10, -10, -10, 10, 10, -10, -10, 10, 10, 10, 10, 10, 10, -10, -10, 10, -10, 10, 10, 10, -10, 10, -10, 10, 10, -10, 10, -10, 10, -10, 10, -10], "withholdReward": false, "trial_id": "practice_1", "block": "test", "trialIndex": 6, "score": 13.5, "costs": 0, "simulationMode": [null, null, null, null, null], "rewards": [10, -10, 10, 10, -10], "path": ["0", "0", "23", "24", "25", "30", "33"], "rt": [556, 253, 137, 146, 101], "actions": ["left", "left", "left", "down", "left"], "actionTimes": [2298, 3050, 3690, 4338, 4938], "queries": {"click": {"state": {"target": [], "time": []}, "edge": {"target": [], "time": []}}, "mouseover": {"state": {"target": [], "time": []}, "edge": {"target": [], "time": []}}, "mouseout": {"state": {"target": ["12"], "time": [1370]}, "edge": {"target": [], "time": []}}}, "displayed_time": "5.44", "trialTime": 6194, "trial_type": "mouselab-mdp", "trial_index": 22, "time_elapsed": 370053, "internal_node_id": "0.0-2.3-2.3-0.3"}}, {"uniqueid": "w93289383:a20413699", "current_trial": 23, "dateTime": 1691161974810, "trialdata": {"revealed_states": [], "clicked_states": [], "num_clicks_accrued": [0, 0, 0, 0, 0, 0, 0, 0, 0, 0, 0, 0, 0], "stateRewards": ["", 10, 10, -10, 10, 10, 10, -10, -10, 10, 10, -10, 10, 10, -10, 10, -10, -10, -10, 10, -10, -10, 10, 10, -10, -10, 10, -10, -10, -10, -10, -10, -10, 10], "withholdReward": false, "trial_id": "practice_2", "block": "test", "trialIndex": 7, "score": 33.5, "costs": 0, "simulationMode": [null, null, null, null, null], "rewards": [10, 10, -10, 10, 10], "path": ["0", "0", "1", "2", "3", "4", "5"], "rt": [818, 80, 1599, 48, 188], "actions": ["up", "up", "up", "right", "up"], "actionTimes": [1865, 2449, 4553, 5105, 5793], "queries": {"click": {"state": {"target": [], "time": []}, "edge": {"target": [], "time": []}}, "mouseover": {"state": {"target": [], "time": []}, "edge": {"target": [], "time": []}}, "mouseout": {"state": {"target": ["0"], "time": [1052]}, "edge": {"target": [], "time": []}}}, "displayed_time": "6.29", "trialTime": 7081, "trial_type": "mouselab-mdp", "trial_index": 23, "time_elapsed": 377325, "internal_node_id": "0.0-2.3-2.3-1.3"}}, {"uniqueid": "w93289383:a20413699", "current_trial": 24, "dateTime": 1691161979579, "trialdata": {"view_history": [{"page_index": 0, "viewing_time": 3762}, {"page_index": 1, "viewing_time": 1006}], "rt": 4767, "trial_id": "mouselab_instructions_2_misaligned", "trial_type": "instructions", "trial_index": 24, "time_elapsed": 382095, "internal_node_id": "0.0-2.3-3.3"}}, {"uniqueid": "w93289383:a20413699", "current_trial": 25, "dateTime": 1691161993043, "trialdata": {"rt": 13463, "response": {"Q0": "The cost for clicking on nodes may vary between nodes.", "Q1": "The better I perform the higher my bonus will be.", "Q2": "No, the structure of the web will be different each time.", "Q3": "To get the highest total score.", "Q4": "Only before moving the spider.", "Q5": "3 seconds"}, "question_order": [0, 1, 2, 3, 4, 5], "correct": {"Q0": "The cost for clicking on nodes may vary between nodes.", "Q1": "The better I perform the higher my bonus will be.", "Q2": "No, the amount of cash at each node of the web may be different each time.", "Q3": "To get the highest total score.", "Q4": "Only before moving the spider.", "Q5": "3 seconds"}, "trial_id": "mouselab_quiz_misaligned", "trial_type": "survey-multi-choice", "trial_index": 25, "time_elapsed": 395559, "internal_node_id": "0.0-2.3-4.3"}}, {"uniqueid": "w93289383:a20413699", "current_trial": 26, "dateTime": 1691161997401, "trialdata": {"rt": 4352, "stimulus": "\n<h1> Get ready to start the game! </h1>\n\nThank you for reading the instructions. Get ready start with the 40 rounds of this game.\n<br><br>\nIf you need to take a break, feel free to take one after the end of a round, before continuing to the next one.\n<br><br>\nRemember, the more money the spider gets, the bigger your bonus will be!\n<br><br>\n<div style='text-align: center;'>Press <code>space</code> to begin.</div>\n\n<br><br>\n(If, at any point, the <code>space</code> key does not take you to the next page, click once on the text and try again.)", "response": " ", "trial_id": "mdp_ready", "trial_type": "html-keyboard-response", "trial_index": 26, "time_elapsed": 399917, "internal_node_id": "0.0-4.0-0.0"}}, {"uniqueid": "w93289383:a20413699", "current_trial": 27, "dateTime": 1691162023458, "trialdata": {"revealed_states": [], "clicked_states": [], "num_clicks_accrued": [0, 0, 0, 0, 0, 0, 0, 0, 0, 0, 0, 0, 0], "stateRewards": ["", 1, -1, 1, 13, 31, -56, 72, 2, 41, 5, 63, -2, -3, -2, 3, -71, -26, 52, 13, -31, 24, -67, 2, -2, 5, 4, 66, 43, 72, 9, 86, -26, 44], "withholdReward": false, "trial_id": "mdp_trial_1", "block": "test", "trialIndex": 8, "score": 58, "costs": 0, "simulationMode": [null, null, null, null, null], "rewards": [2, -2, 5, 9, 44], "path": ["0", "0", "23", "24", "25", "30", "33"], "rt": [1310, 107, 116, 74, 131], "actions": ["left", "left", "left", "down", "left"], "actionTimes": [3165, 3781, 4405, 4989, 5621], "queries": {"click": {"state": {"target": [], "time": []}, "edge": {"target": [], "time": []}}, "mouseover": {"state": {"target": [], "time": []}, "edge": {"target": [], "time": []}}, "mouseout": {"state": {"target": [], "time": []}, "edge": {"target": [], "time": []}}}, "displayed_time": "15.86", "trialTime": 25886, "trial_type": "mouselab-mdp", "trial_index": 27, "time_elapsed": 425974, "internal_node_id": "0.0-4.0-1.0-0.0"}}, {"uniqueid": "w93289383:a20413699", "current_trial": 28, "dateTime": 1691162040362, "trialdata": {"revealed_states": [], "clicked_states": [], "num_clicks_accrued": [0, 0, 0, 0, 0, 0, 0, 0, 0, 0, 0, 0, 0], "stateRewards": ["", 1, -4, 6, -3, 40, 76, -51, 5, -24, -63, 44, -2, -2, 8, 1, 76, -85, -58, 10, 59, 20, 11, -2, 3, -3, 3, -82, -10, 54, -7, -57, -6, -32], "withholdReward": false, "trial_id": "mdp_trial_2", "block": "test", "trialIndex": 9, "score": 73, "costs": 0, "simulationMode": [null, null, null, null, null], "rewards": [-2, -2, 8, 10, 59], "path": ["0", "0", "12", "13", "14", "19", "20"], "rt": [1053, 353, 211, 32, 114], "actions": ["right", "right", "right", "down", "right"], "actionTimes": [2564, 3420, 4132, 4668, 5292], "queries": {"click": {"state": {"target": [], "time": []}, "edge": {"target": [], "time": []}}, "mouseover": {"state": {"target": [], "time": []}, "edge": {"target": [], "time": []}}, "mouseout": {"state": {"target": [], "time": []}, "edge": {"target": [], "time": []}}}, "displayed_time": "15.51", "trialTime": 16693, "trial_type": "mouselab-mdp", "trial_index": 28, "time_elapsed": 442877, "internal_node_id": "0.0-4.0-1.0-1.0"}}, {"uniqueid": "w93289383:a20413699", "current_trial": 29, "dateTime": 1691162057761, "trialdata": {"revealed_states": [], "clicked_states": [], "num_clicks_accrued": [0, 0, 0, 0, 0, 0, 0, 0, 0, 0, 0, 0, 0], "stateRewards": ["", 2, -1, 8, -2, -16, 69, -39, -7, -13, -27, -86, 2, -2, 2, 13, -34, -16, -20, -5, 19, 81, 32, -2, -1, 2, -14, 20, 80, 58, 4, 70, 12, 73], "withholdReward": false, "trial_id": "mdp_trial_3", "block": "test", "trialIndex": 10, "score": -25, "costs": 0, "simulationMode": [null, null, null, null, null], "rewards": [2, -1, 8, -7, -27], "path": ["0", "0", "1", "2", "3", "8", "10"], "rt": [482, 100, 96, 508, 77], "actions": ["up", "up", "up", "left", "down"], "actionTimes": [2342, 2950, 3558, 4566, 5142], "queries": {"click": {"state": {"target": [], "time": []}, "edge": {"target": [], "time": []}}, "mouseover": {"state": {"target": [], "time": []}, "edge": {"target": [], "time": []}}, "mouseout": {"state": {"target": [], "time": []}, "edge": {"target": [], "time": []}}}, "displayed_time": "15.86", "trialTime": 17166, "trial_type": "mouselab-mdp", "trial_index": 29, "time_elapsed": 460277, "internal_node_id": "0.0-4.0-1.0-2.0"}}, {"uniqueid": "w93289383:a20413699", "current_trial": 30, "dateTime": 1691162077137, "trialdata": {"revealed_states": [], "clicked_states": [], "num_clicks_accrued": [0, 0, 0, 0, 0, 0, 0, 0, 0, 0, 0, 0, 0], "stateRewards": ["", -2, 2, -1, -6, 22, 6, 6, -5, 70, -42, 65, 1, 3, 5, -6, -67, -9, 3, 14, 7, -62, -13, -2, 4, 1, 16, 42, -21, -52, -8, 32, 53, 81], "withholdReward": false, "trial_id": "mdp_trial_4", "block": "test", "trialIndex": 11, "score": 27, "costs": 0, "simulationMode": [null, null, null, null, null], "rewards": [-2, 4, 1, -8, 32], "path": ["0", "0", "23", "24", "25", "30", "31"], "rt": [487, 115, 1, 23, 31], "actions": ["left", "left", "left", "down", "right"], "actionTimes": [4892, 5508, 6013, 6548, 7084], "queries": {"click": {"state": {"target": [], "time": []}, "edge": {"target": [], "time": []}}, "mouseover": {"state": {"target": [], "time": []}, "edge": {"target": [], "time": []}}, "mouseout": {"state": {"target": [], "time": []}, "edge": {"target": [], "time": []}}}, "displayed_time": "18.41", "trialTime": 19148, "trial_type": "mouselab-mdp", "trial_index": 30, "time_elapsed": 479653, "internal_node_id": "0.0-4.0-1.0-3.0"}}, {"uniqueid": "w93289383:a20413699", "current_trial": 31, "dateTime": 1691162093529, "trialdata": {"revealed_states": [], "clicked_states": ["18"], "num_clicks_accrued": [0, 0, 0, 0, 0, 0, 0, 0, 0, 0, 0, 0, 0], "stateRewards": ["", 2, 4, 4, 9, -88, -10, 44, 16, -54, 64, 78, 1, 2, 5, 16, 80, 36, 7, -4, 9, -47, -70, -1, -3, 6, -16, 11, 80, 28, 8, -1, 34, -17], "withholdReward": false, "trial_id": "mdp_trial_5", "block": "test", "trialIndex": 12, "score": 28.85, "costs": -2.15, "simulationMode": [null, null, null, null, null], "rewards": [1, 2, 5, 16, 7], "path": ["0", "0", "12", "13", "14", "15", "18"], "rt": [4393, 59, 105, 30, 46], "actions": ["right", "right", "right", "up", "left"], "actionTimes": [5735, 6303, 6919, 7455, 7999], "queries": {"click": {"state": {"target": ["18"], "time": [2062]}, "edge": {"target": [], "time": []}}, "mouseover": {"state": {"target": ["18", "0"], "time": [1749, 3528]}, "edge": {"target": [], "time": []}}, "mouseout": {"state": {"target": ["0", "18", "0"], "time": [1458, 2639, 3549]}, "edge": {"target": [], "time": []}}}, "displayed_time": "15.34", "trialTime": 16183, "trial_type": "mouselab-mdp", "trial_index": 31, "time_elapsed": 496045, "internal_node_id": "0.0-4.0-1.0-4.0"}}, {"uniqueid": "w93289383:a20413699", "current_trial": 32, "dateTime": 1691162110451, "trialdata": {"revealed_states": [], "clicked_states": ["33", "21"], "num_clicks_accrued": [0, 0, 0, 0, 0, 0, 0, 0, 0, 0, 0, 0, 0], "stateRewards": ["", -2, 4, -3, -13, 63, -36, 62, 11, 78, 34, -51, 2, -2, 8, -6, -40, -18, 31, 9, 64, 39, 79, 1, 4, -4, 15, -12, 76, 73, -10, -77, 86, -4], "withholdReward": false, "trial_id": "mdp_trial_6", "block": "test", "trialIndex": 13, "score": 51.7, "costs": -4.3, "simulationMode": [null, null, null, null, null], "rewards": [2, -2, 8, 9, 39], "path": ["0", "0", "12", "13", "14", "19", "21"], "rt": [8592, 53, 2, 23, 73], "actions": ["right", "right", "right", "down", "down"], "actionTimes": [9933, 10485, 10990, 11525, 12109], "queries": {"click": {"state": {"target": ["33", "21"], "time": [2214, 6798]}, "edge": {"target": [], "time": []}}, "mouseover": {"state": {"target": ["31", "30", "33", "21"], "time": [1646, 1681, 1744, 6703]}, "edge": {"target": [], "time": []}}, "mouseout": {"state": {"target": ["0", "31", "30", "33", "21"], "time": [1578, 1668, 1703, 2709, 7001]}, "edge": {"target": [], "time": []}}}, "displayed_time": "15.34", "trialTime": 16702, "trial_type": "mouselab-mdp", "trial_index": 32, "time_elapsed": 512966, "internal_node_id": "0.0-4.0-1.0-5.0"}}, {"uniqueid": "w93289383:a20413699", "current_trial": 33, "dateTime": 1691162127378, "trialdata": {"revealed_states": [], "clicked_states": ["27", "20"], "num_clicks_accrued": [0, 0, 0, 0, 0, 0, 0, 0, 0, 0, 0, 0, 0], "stateRewards": ["", -2, 1, -3, -16, -39, -52, 30, -7, -41, -59, 11, 2, 1, 8, 2, -11, -26, -42, -13, 87, -59, -48, -1, -1, -1, 16, -79, 31, 50, -1, -84, 34, -82], "withholdReward": false, "trial_id": "mdp_trial_7", "block": "test", "trialIndex": 14, "score": 80.7, "costs": -4.3, "simulationMode": [null, null, null, null, null], "rewards": [2, 1, 8, -13, 87], "path": ["0", "0", "12", "13", "14", "19", "20"], "rt": [7326, 2, 421, 65, 55], "actions": ["right", "right", "right", "down", "right"], "actionTimes": [8384, 8884, 9816, 10384, 10938], "queries": {"click": {"state": {"target": ["27", "20"], "time": [1638, 5283]}, "edge": {"target": [], "time": []}}, "mouseover": {"state": {"target": ["28", "27", "1", "12", "22", "21", "20"], "time": [1324, 1499, 2020, 2068, 2158, 2812, 5040]}, "edge": {"target": [], "time": []}}, "mouseout": {"state": {"target": ["12", "0", "28", "27", "1", "12", "22", "21", "20", "20"], "time": [748, 1255, 1339, 1937, 2034, 2110, 2207, 5000, 5342, 5652]}, "edge": {"target": [], "time": []}}}, "displayed_time": "15.06", "trialTime": 16704, "trial_type": "mouselab-mdp", "trial_index": 33, "time_elapsed": 529894, "internal_node_id": "0.0-4.0-1.0-6.0"}}, {"uniqueid": "w93289383:a20413699", "current_trial": 34, "dateTime": 1691162143506, "trialdata": {"revealed_states": [], "clicked_states": ["32", "6"], "num_clicks_accrued": [0, 0, 0, 0, 0, 0, 0, 0, 0, 0, 0, 0, 0], "stateRewards": ["", 2, 3, -1, 16, -78, -11, 46, 2, -20, 79, -67, 2, 3, 2, 11, -83, -42, -58, -11, -67, -22, 55, 2, -1, -1, -16, -83, -82, 23, -11, -29, 13, 13], "withholdReward": false, "trial_id": "mdp_trial_8", "block": "test", "trialIndex": 15, "score": -2.3000000000000007, "costs": -4.3, "simulationMode": [null, null, null, null, null], "rewards": [2, -1, -1, -11, 13], "path": ["0", "0", "23", "24", "25", "30", "33"], "rt": [7281, 104, 76, 12, 90], "actions": ["left", "left", "left", "down", "left"], "actionTimes": [8073, 8681, 9257, 9769, 10361], "queries": {"click": {"state": {"target": ["32", "6"], "time": [1304, 4664]}, "edge": {"target": [], "time": []}}, "mouseover": {"state": {"target": ["32", "0", "18", "16", "16", "6"], "time": [1172, 1631, 1666, 1693, 1791, 1867]}, "edge": {"target": [], "time": []}}, "mouseout": {"state": {"target": ["21", "0", "32", "0", "18", "16", "16", "6"], "time": [103, 1027, 1554, 1637, 1673, 1721, 1818, 5249]}, "edge": {"target": [], "time": []}}}, "displayed_time": "14.79", "trialTime": 15881, "trial_type": "mouselab-mdp", "trial_index": 34, "time_elapsed": 546021, "internal_node_id": "0.0-4.0-1.0-7.0"}}, {"uniqueid": "w93289383:a20413699", "current_trial": 35, "dateTime": 1691162161251, "trialdata": {"revealed_states": [], "clicked_states": ["28", "17", "22"], "num_clicks_accrued": [0, 0, 0, 0, 0, 0, 0, 0, 0, 0, 0, 0, 0], "stateRewards": ["", 2, 3, -2, -8, -8, -41, 74, 15, -23, -80, 1, 1, 3, 3, -15, -63, -78, 67, 13, 75, -41, 86, 2, -2, 6, -3, -8, -49, 50, -6, 83, 74, 80], "withholdReward": false, "trial_id": "mdp_trial_9", "block": "test", "trialIndex": 16, "score": 99.55, "costs": -6.449999999999999, "simulationMode": [null, null, null, null, null], "rewards": [1, 3, 3, 13, 86], "path": ["0", "0", "12", "13", "14", "19", "22"], "rt": [11803, 102, 203, 46, 66], "actions": ["right", "right", "right", "down", "left"], "actionTimes": [12830, 13438, 14150, 14694, 15270], "queries": {"click": {"state": {"target": ["28", "17", "22"], "time": [2622, 6023, 9671]}, "edge": {"target": [], "time": []}}, "mouseover": {"state": {"target": ["0", "31", "32", "30", "33", "25", "10", "26", "28", "1", "18", "15", "17", "19", "22", "19"], "time": [1216, 1445, 1508, 1744, 1794, 2098, 2230, 2334, 2528, 2980, 3036, 3064, 4702, 9452, 9605, 10571]}, "edge": {"target": [], "time": []}}, "mouseout": {"state": {"target": ["0", "0", "31", "32", "30", "33", "25", "10", "26", "28", "28", "1", "18", "15", "17", "19", "22", "22", "19", "21"], "time": [799, 1265, 1466, 1710, 1751, 2070, 2112, 2265, 2487, 2692, 2931, 2994, 3050, 3119, 6404, 9515, 9728, 10536, 10626, 16613]}, "edge": {"target": [], "time": []}}}, "displayed_time": "15.78", "trialTime": 17502, "trial_type": "mouselab-mdp", "trial_index": 35, "time_elapsed": 563766, "internal_node_id": "0.0-4.0-1.0-8.0"}}, {"uniqueid": "w93289383:a20413699", "current_trial": 36, "dateTime": 1691162182625, "trialdata": {"revealed_states": [], "clicked_states": ["16", "32", "27", "33"], "num_clicks_accrued": [0, 0, 0, 0, 0, 0, 0, 0, 0, 0, 0, 0, 0], "stateRewards": ["", -1, 2, -7, -12, -62, 12, -13, 5, 77, -71, 83, 1, -4, 7, 15, -42, -87, -4, 5, -25, 44, 88, -1, 4, -5, -8, 14, 51, 8, -5, 83, -24, -19], "withholdReward": false, "trial_id": "mdp_trial_10", "block": "test", "trialIndex": 17, "score": -4.600000000000001, "costs": -8.6, "simulationMode": [null, null, null, null, null], "rewards": [-1, 4, -5, -8, 14], "path": ["0", "0", "23", "24", "25", "26", "27"], "rt": [14799, 38, 383, 6, 470], "actions": ["left", "left", "left", "up", "up"], "actionTimes": [15925, 16461, 17349, 17853, 18837], "queries": {"click": {"state": {"target": ["16", "32", "27", "33"], "time": [2020, 5389, 8919, 12429]}, "edge": {"target": [], "time": []}}, "mouseover": {"state": {"target": ["12", "15", "16", "15", "14", "19", "22", "32", "31", "24", "27", "28", "24", "31", "30", "33", "30", "31"], "time": [1409, 1478, 1805, 2354, 2388, 2423, 2658, 5311, 8568, 8596, 8818, 9200, 9228, 12193, 12227, 12276, 12644, 12686]}, "edge": {"target": [], "time": []}}, "mouseout": {"state": {"target": ["0", "1", "1", "12", "15", "16", "15", "14", "19", "22", "32", "31", "24", "27", "28", "24", "31", "30", "33", "33", "30", "31"], "time": [553, 609, 783, 1429, 1485, 2332, 2374, 2409, 2609, 2722, 5455, 8583, 8611, 9158, 9214, 9235, 12213, 12248, 12477, 12624, 12673, 12708]}, "edge": {"target": [], "time": []}}}, "displayed_time": "19.34", "trialTime": 21125, "trial_type": "mouselab-mdp", "trial_index": 36, "time_elapsed": 585141, "internal_node_id": "0.0-4.0-1.0-9.0"}}, {"uniqueid": "w93289383:a20413699", "current_trial": 37, "dateTime": 1691162198801, "trialdata": {"revealed_states": [], "clicked_states": ["3", "21"], "num_clicks_accrued": [0, 0, 0, 0, 0, 0, 0, 0, 0, 0, 0, 0, 0], "stateRewards": ["", -1, -4, -1, -11, 43, 69, 39, 4, 17, -20, -82, -2, -1, 4, 8, -79, 24, -79, 11, 36, 64, 41, 2, 4, -1, 11, -79, -47, 75, -3, 63, -36, -19], "withholdReward": false, "trial_id": "mdp_trial_11", "block": "test", "trialIndex": 18, "score": 72.9, "costs": -3.0999999999999996, "simulationMode": [null, null, null, null, null], "rewards": [-2, -1, 4, 11, 64], "path": ["0", "0", "12", "13", "14", "19", "21"], "rt": [7662, 86, 63, 21, 157], "actions": ["right", "right", "right", "down", "down"], "actionTimes": [8959, 9543, 10111, 10631, 11288], "queries": {"click": {"state": {"target": ["3", "21"], "time": [3152, 4862]}, "edge": {"target": [], "time": []}}, "mouseover": {"state": {"target": ["23", "30", "31", "12", "2", "3", "7", "18", "15", "17", "21"], "time": [1622, 1879, 2011, 2233, 2497, 3053, 3477, 3511, 3526, 3546, 4116]}, "edge": {"target": [], "time": []}}, "mouseout": {"state": {"target": ["0", "23", "30", "31", "12", "2", "3", "7", "18", "15", "17", "21"], "time": [1449, 1650, 1962, 2053, 2262, 3011, 3442, 3498, 3519, 3539, 3561, 5428]}, "edge": {"target": [], "time": []}}}, "displayed_time": "15.30", "trialTime": 15967, "trial_type": "mouselab-mdp", "trial_index": 37, "time_elapsed": 601317, "internal_node_id": "0.0-4.0-1.0-10.0"}}, {"uniqueid": "w93289383:a20413699", "current_trial": 38, "dateTime": 1691162215257, "trialdata": {"revealed_states": [], "clicked_states": ["29", "14", "17"], "num_clicks_accrued": [0, 0, 0, 0, 0, 0, 0, 0, 0, 0, 0, 0, 0], "stateRewards": ["", 1, 2, -3, -6, 50, -7, 7, -7, -80, 21, -1, 2, 2, 4, -1, 33, 84, 1, 14, -53, 81, 6, -2, -2, -3, -9, -87, -38, -59, -5, -74, -3, -71], "withholdReward": false, "trial_id": "mdp_trial_12", "block": "test", "trialIndex": 19, "score": 85.75, "costs": -5.25, "simulationMode": [null, null, null, null, null], "rewards": [2, 2, 4, -1, 84], "path": ["0", "0", "12", "13", "14", "15", "17"], "rt": [9205, 93, 51, 114, 10], "actions": ["right", "right", "right", "up", "right"], "actionTimes": [10222, 10829, 11389, 12013, 12533], "queries": {"click": {"state": {"target": ["29", "14", "17"], "time": [1527, 5495, 6520]}, "edge": {"target": [], "time": []}}, "mouseover": {"state": {"target": ["23", "24", "25", "29", "26", "7", "18", "13", "13", "19", "20", "17", "14", "17", "15", "18"], "time": [1161, 1210, 1265, 1431, 1918, 2036, 2529, 2724, 4599, 4682, 4744, 5094, 5244, 6293, 7199, 7267]}, "edge": {"target": [], "time": []}}, "mouseout": {"state": {"target": ["0", "23", "24", "25", "29", "26", "7", "18", "13", "13", "19", "20", "17", "14", "14", "17", "15", "18", "7"], "time": [1140, 1189, 1237, 1369, 1581, 1942, 2077, 2654, 2911, 4613, 4716, 4778, 5105, 6078, 6203, 7162, 7245, 7320, 13911]}, "edge": {"target": [], "time": []}}}, "displayed_time": "15.02", "trialTime": 16253, "trial_type": "mouselab-mdp", "trial_index": 38, "time_elapsed": 617773, "internal_node_id": "0.0-4.0-1.0-11.0"}}, {"uniqueid": "w93289383:a20413699", "current_trial": 39, "dateTime": 1691162232953, "trialdata": {"revealed_states": [], "clicked_states": ["33", "17", "11"], "num_clicks_accrued": [0, 0, 0, 0, 0, 0, 0, 0, 0, 0, 0, 0, 0], "stateRewards": ["", 1, 1, 1, 15, -76, 52, -32, 14, -57, 37, 49, 1, -4, -3, 6, 83, -76, 25, 9, 36, -1, -17, -1, 4, 4, -2, -22, -21, 58, -15, -57, 49, -24], "withholdReward": false, "trial_id": "mdp_trial_13", "block": "test", "trialIndex": 20, "score": 59.55, "costs": -6.449999999999999, "simulationMode": [null, null, null, null, null], "rewards": [1, 1, 1, 14, 49], "path": ["0", "0", "1", "2", "3", "8", "11"], "rt": [11885, 163, 153, 6, 210], "actions": ["up", "up", "up", "left", "left"], "actionTimes": [12922, 13594, 14250, 14764, 15474], "queries": {"click": {"state": {"target": ["33", "17", "11"], "time": [1926, 5519, 9003]}, "edge": {"target": [], "time": []}}, "mouseover": {"state": {"target": ["31", "32", "33", "30", "13", "15", "17", "17", "12", "1", "10", "11", "8", "10"], "time": [1329, 1346, 1582, 2304, 5137, 5172, 5228, 5360, 6256, 8623, 8700, 8866, 10485, 10583]}, "edge": {"target": [], "time": []}}, "mouseout": {"state": {"target": ["12", "0", "31", "32", "33", "30", "13", "15", "17", "17", "12", "1", "10", "11", "8", "10", "0"], "time": [234, 1278, 1340, 1367, 2276, 2333, 5152, 5186, 5249, 5979, 8568, 8651, 8749, 10464, 10527, 10922, 16491]}, "edge": {"target": [], "time": []}}}, "displayed_time": "15.98", "trialTime": 17426, "trial_type": "mouselab-mdp", "trial_index": 39, "time_elapsed": 635469, "internal_node_id": "0.0-4.0-1.0-12.0"}}, {"uniqueid": "w93289383:a20413699", "current_trial": 40, "dateTime": 1691162256681, "trialdata": {"revealed_states": [], "clicked_states": ["33", "17", "11", "21", "31"], "num_clicks_accrued": [0, 0, 0, 0, 0, 0, 0, 0, 0, 0, 0, 0, 0], "stateRewards": ["", -1, -2, -8, 8, -27, -82, 19, -14, -62, 4, 1, -2, 2, 6, 10, 73, -51, -2, 2, 73, -48, 54, -1, 2, -4, 11, -25, 47, 86, 15, 33, 43, -42], "withholdReward": false, "trial_id": "mdp_trial_14", "block": "test", "trialIndex": 21, "score": 34.25, "costs": -10.75, "simulationMode": [null, null, null, null, null], "rewards": [-1, 2, -4, 15, 33], "path": ["0", "0", "23", "24", "25", "30", "31"], "rt": [18483, 105, 92, 16, 3], "actions": ["left", "left", "left", "down", "right"], "actionTimes": [19256, 19872, 20464, 20984, 21491], "queries": {"click": {"state": {"target": ["33", "17", "11", "21", "31"], "time": [1397, 4483, 7797, 11607, 16065]}, "edge": {"target": [], "time": []}}, "mouseover": {"state": {"target": ["23", "24", "25", "33", "25", "28", "10", "2", "4", "10", "26", "26", "28", "1", "18", "15", "17", "15", "7", "2", "10", "11", "10", "12", "21", "21", "31", "30", "30", "31"], "time": [1050, 1071, 1092, 1265, 1648, 1675, 1703, 1717, 2016, 2119, 2316, 2759, 2814, 2862, 2905, 2954, 3238, 4828, 4890, 4918, 5231, 7633, 8036, 8495, 11335, 11502, 15369, 15397, 15578, 15717]}, "edge": {"target": [], "time": []}}, "mouseout": {"state": {"target": ["0", "1", "2", "1", "0", "23", "24", "25", "33", "25", "28", "10", "2", "4", "10", "26", "26", "28", "1", "18", "15", "17", "15", "7", "2", "10", "11", "10", "12", "21", "21", "31", "30", "30", "31"], "time": [292, 321, 494, 529, 835, 1064, 1085, 1114, 1613, 1662, 1682, 1710, 1732, 2045, 2127, 2331, 2800, 2835, 2877, 2932, 3072, 4807, 4835, 4904, 4953, 5391, 8001, 8058, 8509, 11362, 11891, 15383, 15433, 15682, 22445]}, "edge": {"target": [], "time": []}}}, "displayed_time": "22.00", "trialTime": 23504, "trial_type": "mouselab-mdp", "trial_index": 40, "time_elapsed": 659196, "internal_node_id": "0.0-4.0-1.0-13.0"}}, {"uniqueid": "w93289383:a20413699", "current_trial": 41, "dateTime": 1691162272753, "trialdata": {"revealed_states": [], "clicked_states": ["29", "20"], "num_clicks_accrued": [0, 0, 0, 0, 0, 0, 0, 0, 0, 0, 0, 0, 0], "stateRewards": ["", 1, 1, 1, -3, -7, -1, -41, -10, 20, -72, -63, 1, -4, -2, 2, -66, 30, -84, -2, 49, 23, 71, -1, -4, 4, -12, 67, 5, 18, -16, 88, 56, -5], "withholdReward": false, "trial_id": "mdp_trial_15", "block": "test", "trialIndex": 22, "score": 37.7, "costs": -4.3, "simulationMode": [null, null, null, null, null], "rewards": [1, -4, -2, -2, 49], "path": ["0", "0", "12", "13", "14", "19", "20"], "rt": [7643, 66, 98, 51, 25], "actions": ["right", "right", "right", "down", "right"], "actionTimes": [8656, 9232, 9840, 10392, 10928], "queries": {"click": {"state": {"target": ["29", "20"], "time": [1597, 5018]}, "edge": {"target": [], "time": []}}, "mouseover": {"state": {"target": ["23", "24", "25", "29", "24", "23", "20"], "time": [1261, 1289, 1324, 1478, 1929, 1949, 4852]}, "edge": {"target": [], "time": []}}, "mouseout": {"state": {"target": ["12", "0", "23", "24", "25", "29", "24", "23", "20", "12", "18", "16", "13"], "time": [747, 1241, 1276, 1303, 1365, 1866, 1942, 1956, 5336, 12443, 12456, 12643, 12679]}, "edge": {"target": [], "time": []}}}, "displayed_time": "15.02", "trialTime": 15864, "trial_type": "mouselab-mdp", "trial_index": 41, "time_elapsed": 675268, "internal_node_id": "0.0-4.0-1.0-14.0"}}, {"uniqueid": "w93289383:a20413699", "current_trial": 42, "dateTime": 1691162289033, "trialdata": {"revealed_states": [], "clicked_states": ["33", "6"], "num_clicks_accrued": [0, 0, 0, 0, 0, 0, 0, 0, 0, 0, 0, 0, 0], "stateRewards": ["", 2, -3, -2, 14, -4, 85, 46, 15, -28, 41, 31, -1, -1, -1, 5, 62, 79, 57, 12, -73, -64, 86, -1, 1, -3, -5, 68, 11, -32, 8, -80, -21, -56], "withholdReward": false, "trial_id": "mdp_trial_16", "block": "test", "trialIndex": 23, "score": 91.7, "costs": -4.3, "simulationMode": [null, null, null, null, null], "rewards": [2, -3, -2, 14, 85], "path": ["0", "0", "1", "2", "3", "4", "6"], "rt": [7454, 24, 9, 183, 87], "actions": ["up", "up", "up", "right", "right"], "actionTimes": [8835, 9363, 9883, 10571, 11155], "queries": {"click": {"state": {"target": ["33", "6"], "time": [1876, 5038]}, "edge": {"target": [], "time": []}}, "mouseover": {"state": {"target": ["0", "31", "30", "33", "24", "23", "1", "6", "7", "28", "26", "29", "25", "24"], "time": [1435, 1629, 1656, 1782, 2045, 2067, 2087, 2434, 5617, 5681, 5706, 5770, 6865, 6879]}, "edge": {"target": [], "time": []}}, "mouseout": {"state": {"target": ["0", "0", "31", "30", "33", "24", "23", "1", "6", "7", "28", "26", "29", "25", "24"], "time": [927, 1518, 1643, 1685, 1991, 2059, 2075, 2102, 5582, 5634, 5697, 5730, 6816, 6873, 6900]}, "edge": {"target": [], "time": []}}}, "displayed_time": "15.38", "trialTime": 16067, "trial_type": "mouselab-mdp", "trial_index": 42, "time_elapsed": 691549, "internal_node_id": "0.0-4.0-1.0-15.0"}}, {"uniqueid": "w93289383:a20413699", "current_trial": 43, "dateTime": 1691162304681, "trialdata": {"revealed_states": [], "clicked_states": ["32", "6"], "num_clicks_accrued": [0, 0, 0, 0, 0, 0, 0, 0, 0, 0, 0, 0, 0], "stateRewards": ["", 1, 3, 3, -10, 52, 68, 59, 12, 7, 49, 21, -2, -3, -4, -2, -2, 63, 63, -4, 44, 43, -76, -2, -3, -6, 13, 48, 36, 12, -5, -36, -33, -11], "withholdReward": false, "trial_id": "mdp_trial_17", "block": "test", "trialIndex": 24, "score": 60.7, "costs": -4.3, "simulationMode": [null, null, null, null, null], "rewards": [1, 3, 3, -10, 68], "path": ["0", "0", "1", "2", "3", "4", "6"], "rt": [7945, 77, 220, 171, 131], "actions": ["up", "up", "up", "right", "right"], "actionTimes": [9066, 9642, 10362, 11041, 11682], "queries": {"click": {"state": {"target": ["32", "6"], "time": [1560, 5133]}, "edge": {"target": [], "time": []}}, "mouseover": {"state": {"target": ["32", "32", "13", "15", "16", "6", "4", "2"], "time": [1279, 1452, 4750, 4792, 4847, 4924, 5439, 5530]}, "edge": {"target": [], "time": []}}, "mouseout": {"state": {"target": ["0", "32", "32", "13", "15", "16", "6", "6", "4", "2", "3", "0"], "time": [1188, 1327, 1759, 4764, 4812, 4875, 5144, 5410, 5447, 6042, 12480, 12632]}, "edge": {"target": [], "time": []}}}, "displayed_time": "15.12", "trialTime": 15434, "trial_type": "mouselab-mdp", "trial_index": 43, "time_elapsed": 707196, "internal_node_id": "0.0-4.0-1.0-16.0"}}, {"uniqueid": "w93289383:a20413699", "current_trial": 44, "dateTime": 1691162321281, "trialdata": {"revealed_states": [], "clicked_states": ["33", "16"], "num_clicks_accrued": [0, 0, 0, 0, 0, 0, 0, 0, 0, 0, 0, 0, 0], "stateRewards": ["", 1, -3, -4, -11, -56, 61, -47, -16, -28, -9, 69, -2, -3, -4, -8, 40, -86, 59, -4, 80, 27, 54, -1, 3, -1, 8, 67, 23, 50, 6, 83, -43, -29], "withholdReward": false, "trial_id": "mdp_trial_18", "block": "test", "trialIndex": 25, "score": 18.7, "costs": -4.3, "simulationMode": [null, null, null, null, null], "rewards": [-2, -3, -4, -8, 40], "path": ["0", "0", "12", "13", "14", "15", "16"], "rt": [7782, 81, 248, 132, 53], "actions": ["right", "right", "right", "up", "up"], "actionTimes": [9488, 10080, 10831, 11464, 12016], "queries": {"click": {"state": {"target": ["33", "16"], "time": [2173, 5716]}, "edge": {"target": [], "time": []}}, "mouseover": {"state": {"target": ["31", "30", "33", "32", "20", "17", "16", "15", "14", "22"], "time": [1836, 1865, 2051, 2419, 5344, 5385, 5635, 5976, 6114, 7184]}, "edge": {"target": [], "time": []}}, "mouseout": {"state": {"target": ["0", "31", "30", "33", "32", "20", "17", "16", "15", "14", "22"], "time": [1767, 1857, 1872, 2371, 2437, 5358, 5406, 5941, 6024, 7128, 7205]}, "edge": {"target": [], "time": []}}}, "displayed_time": "15.71", "trialTime": 16384, "trial_type": "mouselab-mdp", "trial_index": 44, "time_elapsed": 723797, "internal_node_id": "0.0-4.0-1.0-17.0"}}, {"uniqueid": "w93289383:a20413699", "current_trial": 45, "dateTime": 1691162338288, "trialdata": {"revealed_states": [], "clicked_states": ["33", "21", "27"], "num_clicks_accrued": [0, 0, 0, 0, 0, 0, 0, 0, 0, 0, 0, 0, 0], "stateRewards": ["", -1, 1, 6, -6, 70, 66, 67, -16, -75, -35, 37, -1, 4, 4, -6, 47, -9, 63, 15, 21, -63, 13, 1, 3, -6, 10, 79, -29, 18, -15, 9, -67, -19], "withholdReward": false, "trial_id": "mdp_trial_19", "block": "test", "trialIndex": 26, "score": 80.55, "costs": -6.449999999999999, "simulationMode": [null, null, null, null, null], "rewards": [1, 3, -6, 10, 79], "path": ["0", "0", "23", "24", "25", "26", "27"], "rt": [11224, 61, 283, 148, 70], "actions": ["left", "left", "left", "up", "up"], "actionTimes": [12687, 13255, 14047, 14703, 15279], "queries": {"click": {"state": {"target": ["33", "21", "27"], "time": [2162, 5700, 9001]}, "edge": {"target": [], "time": []}}, "mouseover": {"state": {"target": ["30", "33", "30", "21", "21", "22", "0", "23", "26", "27", "28", "23"], "time": [1901, 2076, 2430, 5415, 5582, 6180, 6236, 6264, 6929, 7158, 9352, 9847]}, "edge": {"target": [], "time": []}}, "mouseout": {"state": {"target": ["0", "30", "33", "30", "21", "21", "22", "0", "23", "26", "27", "28", "23"], "time": [1644, 1915, 2388, 2468, 5442, 6118, 6187, 6255, 6290, 6985, 9283, 9762, 9888]}, "edge": {"target": [], "time": []}}}, "displayed_time": "15.78", "trialTime": 16782, "trial_type": "mouselab-mdp", "trial_index": 45, "time_elapsed": 740804, "internal_node_id": "0.0-4.0-1.0-18.0"}}, {"uniqueid": "w93289383:a20413699", "current_trial": 46, "dateTime": 1691162354465, "trialdata": {"revealed_states": [], "clicked_states": ["32", "5"], "num_clicks_accrued": [0, 0, 0, 0, 0, 0, 0, 0, 0, 0, 0, 0, 0], "stateRewards": ["", 1, 1, 7, -11, 80, -20, -53, -14, 3, 31, 27, 2, -1, -8, -10, 33, 41, 86, 9, 78, -37, -13, -1, -2, -6, -8, -80, 75, 4, -16, -49, -74, 24], "withholdReward": false, "trial_id": "mdp_trial_20", "block": "test", "trialIndex": 27, "score": 73.7, "costs": -4.3, "simulationMode": [null, null, null, null, null], "rewards": [1, 1, 7, -11, 80], "path": ["0", "0", "1", "2", "3", "4", "5"], "rt": [7658, 65, 222, 29, 110], "actions": ["up", "up", "up", "right", "up"], "actionTimes": [9237, 9804, 10524, 11061, 11685], "queries": {"click": {"state": {"target": ["32", "5"], "time": [2113, 5552]}, "edge": {"target": [], "time": []}}, "mouseover": {"state": {"target": ["32", "22", "19", "20", "15", "6", "5", "6", "18"], "time": [2003, 2462, 2491, 2543, 5273, 5322, 5392, 5928, 6021]}, "edge": {"target": [], "time": []}}, "mouseout": {"state": {"target": ["0", "32", "22", "19", "20", "15", "6", "5", "5", "6", "18", "7", "7", "22", "21", "19", "21"], "time": [1816, 2371, 2483, 2514, 3128, 5295, 5343, 5604, 5871, 5937, 6782, 13663, 13871, 13954, 14010, 14239, 14815]}, "edge": {"target": [], "time": []}}}, "displayed_time": "15.58", "trialTime": 15901, "trial_type": "mouselab-mdp", "trial_index": 46, "time_elapsed": 756981, "internal_node_id": "0.0-4.0-1.0-19.0"}}, {"uniqueid": "w93289383:a20413699", "current_trial": 47, "dateTime": 1691162369914, "trialdata": {"revealed_states": [], "clicked_states": ["17"], "num_clicks_accrued": [0, 0, 0, 0, 0, 0, 0, 0, 0, 0, 0, 0, 0], "stateRewards": ["", -1, 3, 8, 9, -53, 20, -84, 2, -28, -62, -31, -1, -2, -7, 2, 51, 58, 45, -4, -17, -41, 36, 2, -2, -7, -15, 29, -54, -37, -16, -43, 65, -17], "withholdReward": false, "trial_id": "mdp_trial_21", "block": "test", "trialIndex": 28, "score": 47.85, "costs": -2.15, "simulationMode": [null, null, null, null, null], "rewards": [-1, -2, -7, 2, 58], "path": ["0", "0", "12", "13", "14", "15", "17"], "rt": [4917, 37, 175, 69, 420], "actions": ["right", "right", "right", "up", "right"], "actionTimes": [5464, 6007, 6679, 7247, 8167], "queries": {"click": {"state": {"target": ["17"], "time": [1921]}, "edge": {"target": [], "time": []}}, "mouseover": {"state": {"target": ["12", "13", "15", "17", "17", "14", "22"], "time": [1287, 1329, 1497, 1545, 1763, 2129, 2157]}, "edge": {"target": [], "time": []}}, "mouseout": {"state": {"target": ["0", "12", "13", "15", "17", "17", "14", "22", "30", "31"], "time": [1273, 1308, 1350, 1531, 1621, 2080, 2142, 2165, 9294, 9315]}, "edge": {"target": [], "time": []}}}, "displayed_time": "14.55", "trialTime": 15176, "trial_type": "mouselab-mdp", "trial_index": 47, "time_elapsed": 772430, "internal_node_id": "0.0-4.0-1.0-20.0"}}, {"uniqueid": "w93289383:a20413699", "current_trial": 48, "dateTime": 1691162386217, "trialdata": {"revealed_states": [], "clicked_states": ["33", "6", "11"], "num_clicks_accrued": [0, 0, 0, 0, 0, 0, 0, 0, 0, 0, 0, 0, 0], "stateRewards": ["", -2, 2, -5, 1, 42, -63, -58, -6, 2, 16, 81, -2, 4, 7, -10, 33, 3, -33, -2, -52, -84, -27, 2, -3, -3, 15, -74, -14, -5, -5, -84, 79, -31], "withholdReward": false, "trial_id": "mdp_trial_22", "block": "test", "trialIndex": 29, "score": 63.55, "costs": -6.449999999999999, "simulationMode": [null, null, null, null, null], "rewards": [-2, 2, -5, -6, 81], "path": ["0", "0", "1", "2", "3", "8", "11"], "rt": [10739, 90, 221, 195, 261], "actions": ["up", "up", "up", "left", "left"], "actionTimes": [11661, 12252, 12972, 13668, 14428], "queries": {"click": {"state": {"target": ["33", "6", "11"], "time": [1304, 4550, 7964]}, "edge": {"target": [], "time": []}}, "mouseover": {"state": {"target": ["31", "30", "33", "30", "31", "12", "7", "6", "4", "3", "8", "11"], "time": [1076, 1111, 1194, 1576, 1606, 1955, 1995, 2354, 5085, 7687, 7763, 7874]}, "edge": {"target": [], "time": []}}, "mouseout": {"state": {"target": ["0", "31", "30", "33", "30", "31", "12", "7", "6", "4", "3", "8", "11", "3", "2", "12"], "time": [1027, 1090, 1152, 1556, 1597, 1627, 1963, 2021, 5000, 7666, 7721, 7840, 11075, 15464, 15492, 15548]}, "edge": {"target": [], "time": []}}}, "displayed_time": "14.94", "trialTime": 16052, "trial_type": "mouselab-mdp", "trial_index": 48, "time_elapsed": 788733, "internal_node_id": "0.0-4.0-1.0-21.0"}}, {"uniqueid": "w93289383:a20413699", "current_trial": 49, "dateTime": 1691162401793, "trialdata": {"revealed_states": [], "clicked_states": ["21", "29"], "num_clicks_accrued": [0, 0, 0, 0, 0, 0, 0, 0, 0, 0, 0, 0, 0], "stateRewards": ["", 2, 3, -6, -5, -3, 55, 40, 11, 61, 11, 51, 2, -4, -6, 9, -25, 29, -15, -6, 7, -77, -2, -2, -4, 1, 14, -43, -1, 56, -12, -54, 41, -74], "withholdReward": false, "trial_id": "mdp_trial_23", "block": "test", "trialIndex": 30, "score": 60.7, "costs": -4.3, "simulationMode": [null, null, null, null, null], "rewards": [-2, -4, 1, 14, 56], "path": ["0", "0", "23", "24", "25", "26", "29"], "rt": [7386, 172, 157, 282, 105], "actions": ["left", "left", "left", "up", "left"], "actionTimes": [8425, 9098, 9761, 10554, 11161], "queries": {"click": {"state": {"target": ["21", "29"], "time": [1417, 4529]}, "edge": {"target": [], "time": []}}, "mouseover": {"state": {"target": ["22", "21", "20", "20", "30", "29", "26", "28", "1", "18", "1", "28"], "time": [1229, 1373, 2430, 2679, 3111, 3382, 4903, 4928, 4965, 5015, 5542, 5631]}, "edge": {"target": [], "time": []}}, "mouseout": {"state": {"target": ["0", "22", "21", "21", "20", "20", "30", "29", "26", "28", "1", "18", "1", "28"], "time": [1152, 1242, 1445, 1737, 2450, 2722, 3135, 4888, 4919, 4935, 4981, 5298, 5576, 6027]}, "edge": {"target": [], "time": []}}}, "displayed_time": "15.04", "trialTime": 15329, "trial_type": "mouselab-mdp", "trial_index": 49, "time_elapsed": 804309, "internal_node_id": "0.0-4.0-1.0-22.0"}}, {"uniqueid": "w93289383:a20413699", "current_trial": 50, "dateTime": 1691162417673, "trialdata": {"revealed_states": [], "clicked_states": ["29", "20"], "num_clicks_accrued": [0, 0, 0, 0, 0, 0, 0, 0, 0, 0, 0, 0, 0], "stateRewards": ["", 1, -1, 4, 5, -32, 18, 20, 6, -88, -74, 9, -2, 1, -2, -14, 34, -77, -38, -1, 80, -36, 73, 2, 3, -8, 10, -48, -73, -71, -11, -22, 20, 54], "withholdReward": false, "trial_id": "mdp_trial_24", "block": "test", "trialIndex": 31, "score": 71.7, "costs": -4.3, "simulationMode": [null, null, null, null, null], "rewards": [-2, 1, -2, -1, 80], "path": ["0", "0", "12", "13", "14", "19", "20"], "rt": [8095, 131, 123, 146, 84], "actions": ["right", "right", "right", "down", "right"], "actionTimes": [9340, 9980, 10604, 11252, 11836], "queries": {"click": {"state": {"target": ["29", "20"], "time": [2373, 5668]}, "edge": {"target": [], "time": []}}, "mouseover": {"state": {"target": ["24", "25", "29", "26", "24", "23", "22", "19", "20", "20", "21"], "time": [1722, 1847, 2229, 2619, 2661, 2680, 2739, 2764, 3091, 5571, 7807]}, "edge": {"target": [], "time": []}}, "mouseout": {"state": {"target": ["24", "25", "29", "26", "24", "23", "22", "19", "20", "20", "21"], "time": [1798, 2111, 2597, 2628, 2670, 2693, 2749, 2793, 3479, 6043, 7839]}, "edge": {"target": [], "time": []}}}, "displayed_time": "15.25", "trialTime": 15620, "trial_type": "mouselab-mdp", "trial_index": 50, "time_elapsed": 820189, "internal_node_id": "0.0-4.0-1.0-23.0"}}, {"uniqueid": "w93289383:a20413699", "current_trial": 51, "dateTime": 1691162436169, "trialdata": {"revealed_states": [], "clicked_states": ["17", "33", "20"], "num_clicks_accrued": [0, 0, 0, 0, 0, 0, 0, 0, 0, 0, 0, 0, 0], "stateRewards": ["", -1, -3, -6, -2, -7, 80, -45, -3, -38, -72, 76, 2, 1, 7, 4, -62, 14, -74, 14, -87, -21, -88, -2, 1, -7, -10, 66, 56, -76, 10, -29, -72, -70], "withholdReward": false, "trial_id": "mdp_trial_25", "block": "test", "trialIndex": 32, "score": -70.45, "costs": -6.449999999999999, "simulationMode": [null, null, null, null, null], "rewards": [2, 1, 7, 14, -88], "path": ["0", "0", "12", "13", "14", "19", "22"], "rt": [11992, 115, 106, 447, 134], "actions": ["right", "right", "right", "down", "left"], "actionTimes": [13632, 14247, 14855, 15807, 16439], "queries": {"click": {"state": {"target": ["17", "33", "20"], "time": [2426, 5651, 9281]}, "edge": {"target": [], "time": []}}, "mouseover": {"state": {"target": ["12", "13", "14", "17", "15", "28", "23", "31", "30", "33", "30", "22", "19", "20"], "time": [1991, 2025, 2081, 2310, 2773, 3007, 3403, 3527, 3661, 4026, 5968, 8873, 8908, 8970]}, "edge": {"target": [], "time": []}}, "mouseout": {"state": {"target": ["0", "12", "13", "14", "17", "15", "28", "23", "31", "30", "33", "30", "22", "19", "20"], "time": [1977, 2012, 2054, 2255, 2477, 2789, 3037, 3457, 3631, 3670, 5944, 5990, 8894, 8943, 17373]}, "edge": {"target": [], "time": []}}}, "displayed_time": "16.94", "trialTime": 18239, "trial_type": "mouselab-mdp", "trial_index": 51, "time_elapsed": 838685, "internal_node_id": "0.0-4.0-1.0-24.0"}}, {"uniqueid": "w93289383:a20413699", "current_trial": 52, "dateTime": 1691162451897, "trialdata": {"revealed_states": [], "clicked_states": ["33"], "num_clicks_accrued": [0, 0, 0, 0, 0, 0, 0, 0, 0, 0, 0, 0, 0], "stateRewards": ["", 2, 3, 6, -5, -74, -53, 17, -12, 46, 44, 18, -2, 4, 1, -8, 22, -23, -49, 9, -45, 55, 81, 1, -1, -7, -16, -83, -71, -45, 2, 51, 82, 61], "withholdReward": false, "trial_id": "mdp_trial_26", "block": "test", "trialIndex": 33, "score": 53.85, "costs": -2.15, "simulationMode": [null, null, null, null, null], "rewards": [1, -1, -7, 2, 61], "path": ["0", "0", "23", "24", "25", "30", "33"], "rt": [4603, 69, 30, 124, 125], "actions": ["left", "left", "left", "down", "left"], "actionTimes": [5682, 6257, 6793, 7417, 8041], "queries": {"click": {"state": {"target": ["33"], "time": [1685]}, "edge": {"target": [], "time": []}}, "mouseover": {"state": {"target": ["31", "30", "33", "30", "23", "0", "12", "17", "17"], "time": [1338, 1435, 1540, 1943, 2013, 2029, 2052, 2430, 2678]}, "edge": {"target": [], "time": []}}, "mouseout": {"state": {"target": ["0", "31", "30", "33", "30", "23", "0", "12", "17", "17"], "time": [1248, 1380, 1492, 1725, 1964, 2021, 2044, 2068, 2469, 2783]}, "edge": {"target": [], "time": []}}}, "displayed_time": "15.08", "trialTime": 15481, "trial_type": "mouselab-mdp", "trial_index": 52, "time_elapsed": 854412, "internal_node_id": "0.0-4.0-1.0-25.0"}}, {"uniqueid": "w93289383:a20413699", "current_trial": 53, "dateTime": 1691162471881, "trialdata": {"revealed_states": [], "clicked_states": ["6", "33", "21", "16"], "num_clicks_accrued": [0, 0, 0, 0, 0, 0, 0, 0, 0, 0, 0, 0, 0], "stateRewards": ["", -2, 2, -5, -6, 10, -66, -58, -10, -11, -63, -70, -1, -4, -5, 7, 66, -64, -43, -3, 45, -37, 4, -2, -2, -6, -4, -30, 33, 43, 15, -32, -65, -59], "withholdReward": false, "trial_id": "mdp_trial_27", "block": "test", "trialIndex": 34, "score": 54.4, "costs": -8.6, "simulationMode": [null, null, null, null, null], "rewards": [-1, -4, -5, 7, 66], "path": ["0", "0", "12", "13", "14", "15", "16"], "rt": [14547, 52, 166, 118, 99], "actions": ["right", "right", "right", "up", "up"], "actionTimes": [15554, 16106, 16778, 17402, 18002], "queries": {"click": {"state": {"target": ["6", "33", "21", "16"], "time": [1890, 5024, 8346, 11740]}, "edge": {"target": [], "time": []}}, "mouseover": {"state": {"target": ["1", "2", "3", "3", "6", "16", "15", "19", "32", "33", "30", "31", "21", "18", "16", "1", "25"], "time": [1129, 1151, 1199, 1400, 1740, 2130, 2160, 2265, 2623, 3026, 5431, 5464, 8234, 11497, 11629, 12128, 12200]}, "edge": {"target": [], "time": []}}, "mouseout": {"state": {"target": ["13", "12", "1", "2", "3", "3", "6", "16", "15", "19", "32", "33", "30", "31", "21", "18", "16", "1", "25", "25", "31"], "time": [670, 795, 1143, 1185, 1212, 1406, 2088, 2138, 2183, 2294, 2632, 5414, 5455, 5481, 8665, 11525, 12041, 12137, 12223, 18928, 18977]}, "edge": {"target": [], "time": []}}}, "displayed_time": "18.50", "trialTime": 19714, "trial_type": "mouselab-mdp", "trial_index": 53, "time_elapsed": 874397, "internal_node_id": "0.0-4.0-1.0-26.0"}}, {"uniqueid": "w93289383:a20413699", "current_trial": 54, "dateTime": 1691162488177, "trialdata": {"revealed_states": [], "clicked_states": ["29"], "num_clicks_accrued": [0, 0, 0, 0, 0, 0, 0, 0, 0, 0, 0, 0, 0], "stateRewards": ["", 1, 4, -4, 14, 35, 51, 19, -13, 54, 78, -74, -2, -1, -3, 13, -11, -42, -73, -15, -24, -3, -69, 2, -1, 5, 16, -27, 73, 58, 9, -60, 5, -60], "withholdReward": false, "trial_id": "mdp_trial_28", "block": "test", "trialIndex": 35, "score": 77.85, "costs": -2.15, "simulationMode": [null, null, null, null, null], "rewards": [2, -1, 5, 16, 58], "path": ["0", "0", "23", "24", "25", "26", "29"], "rt": [4863, 101, 41, 4, 280], "actions": ["left", "left", "left", "up", "left"], "actionTimes": [6527, 7127, 7671, 8178, 8967], "queries": {"click": {"state": {"target": ["29"], "time": [2737]}, "edge": {"target": [], "time": []}}, "mouseover": {"state": {"target": ["0", "27", "29", "29", "25", "31"], "time": [1677, 2149, 2205, 2664, 3004, 3030]}, "edge": {"target": [], "time": []}}, "mouseout": {"state": {"target": ["20", "12", "0", "0", "27", "29", "29", "25", "31"], "time": [1190, 1253, 1274, 1913, 2156, 2212, 2974, 3021, 3041]}, "edge": {"target": [], "time": []}}}, "displayed_time": "15.67", "trialTime": 15919, "trial_type": "mouselab-mdp", "trial_index": 54, "time_elapsed": 890693, "internal_node_id": "0.0-4.0-1.0-27.0"}}, {"uniqueid": "w93289383:a20413699", "current_trial": 55, "dateTime": 1691162504977, "trialdata": {"revealed_states": [], "clicked_states": ["16", "32", "29"], "num_clicks_accrued": [0, 0, 0, 0, 0, 0, 0, 0, 0, 0, 0, 0, 0], "stateRewards": ["", 1, -2, 4, 7, -43, -83, -60, -5, -86, -80, 83, -1, -2, 6, 11, -15, 21, 13, 9, 29, -49, 11, -1, 4, -6, -11, 87, 40, 63, -8, -39, -11, 62], "withholdReward": false, "trial_id": "mdp_trial_29", "block": "test", "trialIndex": 36, "score": 42.55, "costs": -6.449999999999999, "simulationMode": [null, null, null, null, null], "rewards": [-1, 4, -6, -11, 63], "path": ["0", "0", "23", "24", "25", "26", "29"], "rt": [11445, 31, 129, 104, 76], "actions": ["left", "left", "left", "up", "left"], "actionTimes": [12693, 13228, 13860, 14468, 15044], "queries": {"click": {"state": {"target": ["16", "32", "29"], "time": [2229, 5811, 9362]}, "edge": {"target": [], "time": []}}, "mouseover": {"state": {"target": ["12", "13", "14", "15", "16", "15", "13", "32", "30", "25", "29", "25", "31"], "time": [1605, 1661, 1848, 1912, 2141, 2562, 2625, 5508, 8987, 9002, 9259, 9578, 9604]}, "edge": {"target": [], "time": []}}, "mouseout": {"state": {"target": ["0", "12", "13", "14", "15", "16", "15", "13", "32", "30", "25", "29", "25", "31"], "time": [1428, 1633, 1772, 1863, 2044, 2531, 2579, 2643, 6178, 8994, 9022, 9546, 9588, 9621]}, "edge": {"target": [], "time": []}}}, "displayed_time": "15.54", "trialTime": 16460, "trial_type": "mouselab-mdp", "trial_index": 55, "time_elapsed": 907492, "internal_node_id": "0.0-4.0-1.0-28.0"}}, {"uniqueid": "w93289383:a20413699", "current_trial": 56, "dateTime": 1691162520681, "trialdata": {"revealed_states": [], "clicked_states": ["29"], "num_clicks_accrued": [0, 0, 0, 0, 0, 0, 0, 0, 0, 0, 0, 0, 0], "stateRewards": ["", -1, 3, 8, 10, -86, 61, -36, 10, 17, -60, 24, -1, -3, 3, 11, 50, 60, 33, -3, -20, 58, -6, 1, -4, -4, 13, -70, -71, 43, 14, 52, 82, -11], "withholdReward": false, "trial_id": "mdp_trial_30", "block": "test", "trialIndex": 37, "score": 46.85, "costs": -2.15, "simulationMode": [null, null, null, null, null], "rewards": [1, -4, -4, 13, 43], "path": ["0", "0", "23", "24", "25", "26", "29"], "rt": [4340, 196, 172, 50, 384], "actions": ["left", "left", "left", "up", "left"], "actionTimes": [5405, 6109, 6781, 7333, 8213], "queries": {"click": {"state": {"target": ["29"], "time": [1445]}, "edge": {"target": [], "time": []}}, "mouseover": {"state": {"target": ["23", "24", "29", "26", "24", "23"], "time": [1154, 1176, 1364, 1765, 1812, 1845]}, "edge": {"target": [], "time": []}}, "mouseout": {"state": {"target": ["31", "24", "24", "23", "0", "23", "24", "29", "26", "24", "23"], "time": [377, 397, 599, 626, 1128, 1169, 1183, 1678, 1773, 1836, 1853]}, "edge": {"target": [], "time": []}}}, "displayed_time": "15.07", "trialTime": 15429, "trial_type": "mouselab-mdp", "trial_index": 56, "time_elapsed": 923197, "internal_node_id": "0.0-4.0-1.0-29.0"}}, {"uniqueid": "w93289383:a20413699", "current_trial": 57, "dateTime": 1691162536969, "trialdata": {"revealed_states": [], "clicked_states": ["29"], "num_clicks_accrued": [0, 0, 0, 0, 0, 0, 0, 0, 0, 0, 0, 0, 0], "stateRewards": ["", 1, 2, 7, 13, 88, -71, 27, 3, 60, 5, -53, -2, 2, -6, -1, -30, 79, 47, -4, -14, 46, 68, 1, 1, 8, 10, -14, 86, 48, -11, -67, -44, 5], "withholdReward": false, "trial_id": "mdp_trial_31", "block": "test", "trialIndex": 38, "score": 65.85, "costs": -2.15, "simulationMode": [null, null, null, null, null], "rewards": [1, 1, 8, 10, 48], "path": ["0", "0", "23", "24", "25", "26", "29"], "rt": [4097, 120, 63, 292, 5], "actions": ["left", "left", "left", "up", "left"], "actionTimes": [5068, 5692, 6260, 7052, 7556], "queries": {"click": {"state": {"target": ["29"], "time": [1343]}, "edge": {"target": [], "time": []}}, "mouseover": {"state": {"target": ["25", "29", "25", "24", "23", "12", "13", "14"], "time": [985, 1279, 1583, 1619, 1639, 1675, 1695, 1709]}, "edge": {"target": [], "time": []}}, "mouseout": {"state": {"target": ["0", "25", "29", "25", "24", "23", "12", "13", "14"], "time": [751, 1016, 1551, 1600, 1629, 1650, 1686, 1707, 1719]}, "edge": {"target": [], "time": []}}}, "displayed_time": "14.97", "trialTime": 15980, "trial_type": "mouselab-mdp", "trial_index": 57, "time_elapsed": 939485, "internal_node_id": "0.0-4.0-1.0-30.0"}}, {"uniqueid": "w93289383:a20413699", "current_trial": 58, "dateTime": 1691162554377, "trialdata": {"revealed_states": [], "clicked_states": ["29", "20", "9"], "num_clicks_accrued": [0, 0, 0, 0, 0, 0, 0, 0, 0, 0, 0, 0, 0], "stateRewards": ["", -1, 1, -6, -1, 80, 23, 2, -11, 73, -81, 59, 1, 3, 5, -1, -26, 28, -3, 16, -59, -13, -50, -2, -2, 2, 15, -50, 86, 17, -4, 37, 35, 44], "withholdReward": false, "trial_id": "mdp_trial_32", "block": "test", "trialIndex": 39, "score": 49.55, "costs": -6.449999999999999, "simulationMode": [null, null, null, null, null], "rewards": [-1, 1, -6, -11, 73], "path": ["0", "0", "1", "2", "3", "8", "9"], "rt": [12347, 81, 66, 20, 132], "actions": ["up", "up", "up", "left", "up"], "actionTimes": [13162, 13745, 14330, 14849, 15497], "queries": {"click": {"state": {"target": ["29", "20", "9"], "time": [1450, 5723, 9508]}, "edge": {"target": [], "time": []}}, "mouseover": {"state": {"target": ["0", "23", "24", "29", "26", "25", "24", "31", "31", "19", "20", "19", "13", "12", "2", "8", "10", "1", "2", "8", "9", "8", "0"], "time": [982, 1044, 1071, 1397, 1763, 1809, 1828, 1844, 4897, 5397, 5655, 6493, 6571, 6591, 6659, 6731, 6828, 8939, 9086, 9189, 9425, 9812, 9899]}, "edge": {"target": [], "time": []}}, "mouseout": {"state": {"target": ["0", "23", "24", "29", "26", "25", "24", "31", "31", "19", "20", "19", "13", "12", "2", "8", "10", "1", "2", "8", "9", "8", "0"], "time": [1022, 1064, 1085, 1711, 1779, 1819, 1835, 1852, 4926, 5495, 6354, 6532, 6581, 6601, 6669, 6795, 6875, 9043, 9127, 9362, 9788, 9838, 9908]}, "edge": {"target": [], "time": []}}}, "displayed_time": "16.00", "trialTime": 17097, "trial_type": "mouselab-mdp", "trial_index": 58, "time_elapsed": 956893, "internal_node_id": "0.0-4.0-1.0-31.0"}}, {"uniqueid": "w93289383:a20413699", "current_trial": 59, "dateTime": 1691162569937, "trialdata": {"revealed_states": [], "clicked_states": ["29", "21"], "num_clicks_accrued": [0, 0, 0, 0, 0, 0, 0, 0, 0, 0, 0, 0, 0], "stateRewards": ["", 2, 3, 3, 10, 19, -21, 6, 9, 54, 68, 16, 2, 2, -6, -8, 40, -2, -75, -2, -42, 55, 59, -1, 2, 4, -14, 11, -34, -30, -6, 61, -53, 13], "withholdReward": false, "trial_id": "mdp_trial_33", "block": "test", "trialIndex": 40, "score": 46.7, "costs": -4.3, "simulationMode": [null, null, null, null, null], "rewards": [2, 2, -6, -2, 55], "path": ["0", "0", "12", "13", "14", "19", "21"], "rt": [8092, 94, 290, 35, 334], "actions": ["right", "right", "right", "down", "down"], "actionTimes": [9125, 9725, 10517, 11061, 11893], "queries": {"click": {"state": {"target": ["29", "21"], "time": [1743, 5319]}, "edge": {"target": [], "time": []}}, "mouseover": {"state": {"target": ["0", "31", "30", "29", "25", "31", "21", "21"], "time": [1087, 1252, 1315, 1615, 2001, 2034, 4960, 5224]}, "edge": {"target": [], "time": []}}, "mouseout": {"state": {"target": ["0", "31", "30", "29", "25", "31", "21", "21"], "time": [1141, 1294, 1330, 1961, 2017, 2050, 4989, 6143]}, "edge": {"target": [], "time": []}}}, "displayed_time": "15.04", "trialTime": 15269, "trial_type": "mouselab-mdp", "trial_index": 59, "time_elapsed": 972452, "internal_node_id": "0.0-4.0-1.0-32.0"}}, {"uniqueid": "w93289383:a20413699", "current_trial": 60, "dateTime": 1691162594889, "trialdata": {"revealed_states": [], "clicked_states": ["9", "32", "17", "29", "21"], "num_clicks_accrued": [0, 0, 0, 0, 0, 0, 0, 0, 0, 0, 0, 0, 0], "stateRewards": ["", -2, 4, 3, 5, -61, 4, 30, 1, -47, 83, 10, 1, 4, 7, -14, 19, -74, -83, 6, -2, -2, -65, -1, -2, 4, -11, 12, -1, -68, 11, -38, -28, 66], "withholdReward": false, "trial_id": "mdp_trial_34", "block": "test", "trialIndex": 41, "score": -95.75, "costs": -10.75, "simulationMode": [null, null, null, null, null], "rewards": [1, 4, 7, -14, -83], "path": ["0", "0", "12", "13", "14", "15", "18"], "rt": [19554, 180, 91, 36, 260], "actions": ["right", "right", "right", "up", "left"], "actionTimes": [20612, 21300, 21892, 22428, 23196], "queries": {"click": {"state": {"target": ["9", "32", "17", "29", "21"], "time": [2084, 5409, 8977, 13306, 17160]}, "edge": {"target": [], "time": []}}, "mouseover": {"state": {"target": ["2", "3", "8", "9", "8", "10", "32", "22", "14", "17", "20", "19", "22", "31", "25", "29", "25", "24", "22", "13", "18", "21"], "time": [1528, 1771, 1834, 1959, 2274, 2307, 5349, 8626, 8660, 8876, 12591, 12600, 12609, 12660, 12855, 13188, 13651, 13674, 14125, 14179, 14462, 17077]}, "edge": {"target": [], "time": []}}, "mouseout": {"state": {"target": ["0", "2", "3", "8", "9", "8", "10", "32", "22", "14", "17", "20", "19", "22", "31", "25", "29", "25", "24", "22", "13", "18", "21"], "time": [1279, 1612, 1786, 1918, 2248, 2299, 2325, 5570, 8640, 8689, 9219, 12599, 12607, 12616, 12682, 12890, 13592, 13663, 13686, 14155, 14190, 14473, 17474]}, "edge": {"target": [], "time": []}}}, "displayed_time": "23.70", "trialTime": 24636, "trial_type": "mouselab-mdp", "trial_index": 60, "time_elapsed": 997405, "internal_node_id": "0.0-4.0-1.0-33.0"}}, {"uniqueid": "w93289383:a20413699", "current_trial": 61, "dateTime": 1691162610650, "trialdata": {"revealed_states": [], "clicked_states": ["29", "20"], "num_clicks_accrued": [0, 0, 0, 0, 0, 0, 0, 0, 0, 0, 0, 0, 0], "stateRewards": ["", 1, -3, -1, 9, -34, -40, 22, -7, 45, 53, -11, 2, 4, 5, 15, 21, 37, -49, -3, 80, -28, -34, 1, -3, 1, 1, -40, -6, -5, -16, -85, -86, 59], "withholdReward": false, "trial_id": "mdp_trial_35", "block": "test", "trialIndex": 42, "score": 83.7, "costs": -4.3, "simulationMode": [null, null, null, null, null], "rewards": [2, 4, 5, -3, 80], "path": ["0", "0", "12", "13", "14", "19", "20"], "rt": [7840, 113, 168, 149, 144], "actions": ["right", "right", "right", "down", "right"], "actionTimes": [8789, 9404, 10076, 10732, 11380], "queries": {"click": {"state": {"target": ["29", "20"], "time": [1648, 5120]}, "edge": {"target": [], "time": []}}, "mouseover": {"state": {"target": ["23", "24", "25", "29", "25", "24", "21", "20", "22"], "time": [1081, 1407, 1429, 1553, 1980, 2001, 2086, 4994, 8282]}, "edge": {"target": [], "time": []}}, "mouseout": {"state": {"target": ["19", "22", "0", "23", "24", "25", "29", "25", "24", "21", "20", "22", "14", "13", "12"], "time": [476, 497, 727, 1151, 1415, 1442, 1925, 1991, 2010, 2096, 5392, 8290, 12651, 12664, 12678]}, "edge": {"target": [], "time": []}}}, "displayed_time": "14.95", "trialTime": 15477, "trial_type": "mouselab-mdp", "trial_index": 61, "time_elapsed": 1013165, "internal_node_id": "0.0-4.0-1.0-34.0"}}, {"uniqueid": "w93289383:a20413699", "current_trial": 62, "dateTime": 1691162626889, "trialdata": {"revealed_states": [], "clicked_states": ["29", "21"], "num_clicks_accrued": [0, 0, 0, 0, 0, 0, 0, 0, 0, 0, 0, 0, 0], "stateRewards": ["", -2, -3, 8, -4, -30, 31, 69, 9, 66, 87, 64, -2, 2, 8, 5, 47, 16, -39, -8, -54, 51, -19, 1, -2, -2, -11, -25, -26, 43, -9, 19, -84, 86], "withholdReward": false, "trial_id": "mdp_trial_36", "block": "test", "trialIndex": 43, "score": 46.7, "costs": -4.3, "simulationMode": [null, null, null, null, null], "rewards": [-2, 2, 8, -8, 51], "path": ["0", "0", "12", "13", "14", "19", "21"], "rt": [7278, 126, 86, 102, 83], "actions": ["right", "right", "right", "down", "down"], "actionTimes": [8761, 9393, 9978, 10585, 11169], "queries": {"click": {"state": {"target": ["29", "21"], "time": [2082, 5392]}, "edge": {"target": [], "time": []}}, "mouseover": {"state": {"target": ["29", "24", "21", "21"], "time": [1966, 2282, 2347, 2894]}, "edge": {"target": [], "time": []}}, "mouseout": {"state": {"target": ["23", "29", "29", "24", "21", "21"], "time": [1147, 2115, 2243, 2291, 2356, 5654]}, "edge": {"target": [], "time": []}}}, "displayed_time": "15.48", "trialTime": 15921, "trial_type": "mouselab-mdp", "trial_index": 62, "time_elapsed": 1029405, "internal_node_id": "0.0-4.0-1.0-35.0"}}, {"uniqueid": "w93289383:a20413699", "current_trial": 63, "dateTime": 1691162642786, "trialdata": {"revealed_states": [], "clicked_states": ["29", "21", "33"], "num_clicks_accrued": [0, 0, 0, 0, 0, 0, 0, 0, 0, 0, 0, 0, 0], "stateRewards": ["", 1, 1, 6, -14, -40, 37, 16, -13, 33, -68, 49, 2, 4, 3, 6, 55, 27, 32, 10, -65, 20, -87, 2, 1, -6, -5, -42, 12, 29, -8, 16, 76, -33], "withholdReward": false, "trial_id": "mdp_trial_37", "block": "test", "trialIndex": 44, "score": 14.55, "costs": -6.449999999999999, "simulationMode": [null, null, null, null, null], "rewards": [2, 1, -6, -5, 29], "path": ["0", "0", "23", "24", "25", "26", "29"], "rt": [10313, 74, 69, 300, 23], "actions": ["left", "left", "left", "up", "left"], "actionTimes": [11593, 12169, 12744, 13544, 14064], "queries": {"click": {"state": {"target": ["29", "21", "33"], "time": [2008, 5143, 8469]}, "edge": {"target": [], "time": []}}, "mouseover": {"state": {"target": ["27", "29", "26", "28", "1", "14", "19", "21", "22", "13", "19", "21", "32", "33", "33", "30", "31"], "time": [1568, 1832, 2213, 2231, 2266, 2327, 2805, 2855, 3411, 3462, 3763, 3919, 5830, 6081, 6852, 8718, 8759]}, "edge": {"target": [], "time": []}}, "mouseout": {"state": {"target": ["0", "27", "29", "26", "28", "1", "14", "19", "21", "22", "13", "19", "21", "32", "33", "33", "30", "31"], "time": [1387, 1630, 2196, 2222, 2248, 2276, 2337, 2829, 3372, 3444, 3527, 3807, 5408, 5873, 6623, 8699, 8749, 8777]}, "edge": {"target": [], "time": []}}}, "displayed_time": "15.28", "trialTime": 15593, "trial_type": "mouselab-mdp", "trial_index": 63, "time_elapsed": 1045302, "internal_node_id": "0.0-4.0-1.0-36.0"}}, {"uniqueid": "w93289383:a20413699", "current_trial": 64, "dateTime": 1691162662593, "trialdata": {"revealed_states": [], "clicked_states": ["9", "7", "31", "18"], "num_clicks_accrued": [0, 0, 0, 0, 0, 0, 0, 0, 0, 0, 0, 0, 0], "stateRewards": ["", -1, 4, 3, 12, -27, 34, -33, 3, -63, 1, 6, 2, 2, -6, -11, -77, -85, 68, -6, 51, 81, -60, -2, -2, 1, 15, 20, 15, 68, -10, -14, 6, -4], "withholdReward": false, "trial_id": "mdp_trial_38", "block": "test", "trialIndex": 45, "score": 46.4, "costs": -8.6, "simulationMode": [null, null, null, null, null], "rewards": [2, 2, -6, -11, 68], "path": ["0", "0", "12", "13", "14", "15", "18"], "rt": [14186, 105, 270, 89, 27], "actions": ["right", "right", "right", "up", "left"], "actionTimes": [15365, 15973, 16749, 17341, 17869], "queries": {"click": {"state": {"target": ["9", "7", "31", "18"], "time": [1896, 5008, 8152, 11592]}, "edge": {"target": [], "time": []}}, "mouseover": {"state": {"target": ["23", "24", "26", "8", "9", "3", "2", "12", "0", "7", "31", "31", "12", "13", "18", "12", "25", "29", "25"], "time": [1347, 1409, 1485, 1603, 1805, 2116, 2139, 2172, 3141, 3323, 6369, 7929, 11311, 11342, 11458, 11777, 12584, 12814, 14839]}, "edge": {"target": [], "time": []}}, "mouseout": {"state": {"target": ["0", "23", "24", "26", "8", "9", "3", "2", "12", "0", "7", "31", "31", "12", "13", "18", "12", "31", "25", "29", "25"], "time": [1319, 1388, 1444, 1527, 1735, 2064, 2127, 2151, 2186, 3152, 5263, 7604, 8406, 11324, 11363, 11735, 11786, 12557, 12595, 13596, 18874]}, "edge": {"target": [], "time": []}}}, "displayed_time": "18.38", "trialTime": 19477, "trial_type": "mouselab-mdp", "trial_index": 64, "time_elapsed": 1065109, "internal_node_id": "0.0-4.0-1.0-37.0"}}, {"uniqueid": "w93289383:a20413699", "current_trial": 65, "dateTime": 1691162678193, "trialdata": {"revealed_states": [], "clicked_states": ["29", "21"], "num_clicks_accrued": [0, 0, 0, 0, 0, 0, 0, 0, 0, 0, 0, 0, 0], "stateRewards": ["", 2, -1, 1, 10, -52, 86, -22, -2, -14, -63, 38, 1, 3, 7, -8, 11, -32, -27, 9, -71, 40, -87, -2, -1, 5, -7, 12, 31, -57, 13, 86, -58, 29], "withholdReward": false, "trial_id": "mdp_trial_39", "block": "test", "trialIndex": 46, "score": 55.7, "costs": -4.3, "simulationMode": [null, null, null, null, null], "rewards": [1, 3, 7, 9, 40], "path": ["0", "0", "12", "13", "14", "19", "21"], "rt": [7520, 154, 185, 263, 133], "actions": ["right", "right", "right", "down", "down"], "actionTimes": [8517, 9181, 9869, 10637, 11277], "queries": {"click": {"state": {"target": ["29", "21"], "time": [1596, 4650]}, "edge": {"target": [], "time": []}}, "mouseover": {"state": {"target": ["23", "24", "25", "29", "25", "21"], "time": [1260, 1295, 1351, 1489, 1791, 2852]}, "edge": {"target": [], "time": []}}, "mouseout": {"state": {"target": ["0", "23", "24", "25", "29", "25", "21"], "time": [1246, 1281, 1323, 1413, 1766, 1809, 5042]}, "edge": {"target": [], "time": []}}}, "displayed_time": "15.00", "trialTime": 15269, "trial_type": "mouselab-mdp", "trial_index": 65, "time_elapsed": 1080709, "internal_node_id": "0.0-4.0-1.0-38.0"}}, {"uniqueid": "w93289383:a20413699", "current_trial": 66, "dateTime": 1691162693801, "trialdata": {"revealed_states": [], "clicked_states": ["29"], "num_clicks_accrued": [0, 0, 0, 0, 0, 0, 0, 0, 0, 0, 0, 0, 0], "stateRewards": ["", -2, -3, -6, -7, 9, 16, 65, 5, -41, 20, -25, -1, -4, 1, -11, -49, -4, 71, 1, 39, -62, 52, -2, -3, 7, -9, -28, -70, 84, 8, 24, -58, 82], "withholdReward": false, "trial_id": "mdp_trial_40", "block": "test", "trialIndex": 47, "score": 74.85, "costs": -2.15, "simulationMode": [null, null, null, null, null], "rewards": [-2, -3, 7, -9, 84], "path": ["0", "0", "23", "24", "25", "26", "29"], "rt": [4364, 156, 161, 112, 130], "actions": ["left", "left", "left", "up", "left"], "actionTimes": [5294, 5950, 6614, 7230, 7870], "queries": {"click": {"state": {"target": ["29"], "time": [1631]}, "edge": {"target": [], "time": []}}, "mouseover": {"state": {"target": ["23", "24", "26", "29", "29", "28", "10", "5", "6", "6", "5"], "time": [1146, 1175, 1209, 1224, 1576, 1870, 1896, 2150, 2189, 2424, 2680]}, "edge": {"target": [], "time": []}}, "mouseout": {"state": {"target": ["0", "23", "24", "26", "29", "29", "28", "10", "5", "6", "6", "5", "4"], "time": [1126, 1167, 1182, 1216, 1271, 1810, 1879, 1908, 2160, 2228, 2494, 9667, 9890]}, "edge": {"target": [], "time": []}}}, "displayed_time": "14.93", "trialTime": 15270, "trial_type": "mouselab-mdp", "trial_index": 66, "time_elapsed": 1096317, "internal_node_id": "0.0-4.0-1.0-39.0"}}, {"uniqueid": "w93289383:a20413699", "current_trial": 67, "dateTime": 1691162737630, "trialdata": {"rt": 43824, "response": {"Q0": "$-2 to $2", "Q1": "$-32 to $32", "Q2": "$-88 to $88", "Q3": "The cost for clicking on nodes varied between nodes.", "Q4": "Very motivated"}, "question_order": [0, 1, 2, 3, 4], "trial_id": "final_quiz_control", "trial_type": "survey-multi-choice", "trial_index": 67, "time_elapsed": 1140146, "internal_node_id": "0.0-4.0-2.0"}}, {"uniqueid": "w93289383:a20413699", "current_trial": 68, "dateTime": 1691162911023, "trialdata": {"rt": 173388, "response": {"Q0": "I always clicked on the nodes furthest from the starting point. I clicked on a few only spending up to 10 dollars in node finding so i would always make a profit. As soon as I found a node worth 50 or more i would head over to grantee i would have a profit rather than hunting for more nodes then losing money due to the finding fee.", "Q1": "to begin with i was just clicking random nodes but as i realised the further out nodes were worth more money i decided thats where i wanted to base my aim", "Q2": "i found it pretty easy to get a good strategy down to always get a profit but i imagine itd be hard to get a strategy down to maximise profits all the way as its partially luck"}, "trial_id": "self_report_control", "trial_type": "survey-text", "trial_index": 68, "time_elapsed": 1313539, "internal_node_id": "0.0-4.0-3.0"}}, {"uniqueid": "w93289383:a20413699", "current_trial": 69, "dateTime": 1691162957509, "trialdata": {"rt": 46483, "response": {"Q0": "Strongly disagree", "Q1": "Neither disagree nor agree", "Q2": "Neither disagree nor agree", "Q3": "Agree", "Q4": "Strongly disagree", "Q5": "Strongly agree", "Q6": "Strongly disagree"}, "question_order": [0, 1, 2, 3, 4, 5, 6], "trial_id": "self_report_2", "trial_type": "survey-multi-choice", "trial_index": 69, "time_elapsed": 1360025, "internal_node_id": "0.0-4.0-4.0"}}, {"uniqueid": "w93289383:a20413699", "current_trial": 70, "dateTime": 1691162974663, "trialdata": {"rt": 17150, "response": {"gender": "female", "age": "20", "colorblind": "1", "effort": "0"}, "trial_type": "survey-html-form", "trial_index": 70, "time_elapsed": 1377179, "internal_node_id": "0.0-4.0-5.0"}}, {"uniqueid": "w93289383:a20413699", "current_trial": 71, "dateTime": 1691163043153, "trialdata": {"rt": 68484, "response": {"Q0": "it was super easy to understand and visualise everything nothing confusing at all", "Q1": "i dont believe i ever have completed one before this was a new experience and it was super fun look forward to seeing what bonus i get", "Q2": "super fun and easy to use thank you :)"}, "trial_type": "survey-text", "trial_index": 71, "time_elapsed": 1445669, "internal_node_id": "0.0-4.0-6.0"}}, {"uniqueid": "w93289383:a20413699", "current_trial": 72, "dateTime": 1691163044763, "trialdata": {"rt": 1606, "stimulus": "Press 'Finish HIT' in order to reach the completion code. Once the data has been saved, you will receive the code either in this window or in the original browser window where you started the experiment.\n", "response": 0, "trial_type": "html-button-response", "trial_index": 72, "time_elapsed": 1447279, "internal_node_id": "0.0-5.0"}}, {"uniqueid": "w93289383:a20413699", "current_trial": 73, "dateTime": 1691163045766, "trialdata": {"success": true, "trial_type": "fullscreen", "trial_index": 73, "time_elapsed": 1448282, "internal_node_id": "0.0-6.0"}}], "questiondata": {"params": {"CODE": "C6DMOQA6", "MIN_TIME": 14, "inspectCost": 1, "startTime": "Fri Aug 04 2023 16:06:36 GMT+0100 (British Summer Time)", "bonusRate": 0.002, "variance": "1_2_4_8_44", "branching": "31123"}, "final_score": 1839.5}, "eventdata": [{"eventtype": "initialized", "value": null, "timestamp": 1691161596358, "interval": 0}, {"eventtype": "window_resize", "value": [1520, 1022], "timestamp": 1691161596358, "interval": 0}, {"eventtype": "window_resize", "value": [1520, 1022], "timestamp": 1691161596663, "interval": 305}, {"eventtype": "window_resize", "value": [2135, 1200], "timestamp": 1691161599575, "interval": 2912}, {"eventtype": "focus", "value": "off", "timestamp": 1691161769941, "interval": 170366}, {"eventtype": "window_resize", "value": [1520, 1022], "timestamp": 1691161770146, "interval": 205}, {"eventtype": "focus", "value": "on", "timestamp": 1691161771012, "interval": 866}, {"eventtype": "window_resize", "value": [2135, 1200], "timestamp": 1691161771291, "interval": 279}, {"eventtype": "focus", "value": "off", "timestamp": 1691161865792, "interval": 94501}, {"eventtype": "window_resize", "value": [1520, 1022], "timestamp": 1691161865998, "interval": 206}, {"eventtype": "focus", "value": "on", "timestamp": 1691161866962, "interval": 964}, {"eventtype": "window_resize", "value": [2135, 1200], "timestamp": 1691161867236, "interval": 274}, {"eventtype": "focus", "value": "off", "timestamp": 1691161908637, "interval": 41401}, {"eventtype": "window_resize", "value": [1520, 1022], "timestamp": 1691161908844, "interval": 207}, {"eventtype": "focus", "value": "on", "timestamp": 1691161909552, "interval": 708}, {"eventtype": "window_resize", "value": [2135, 1200], "timestamp": 1691161909820, "interval": 268}, {"eventtype": "window_resize", "value": [1520, 1022], "timestamp": 1691163044976, "interval": 1135156}], "useragent": "Mozilla/5.0 (Windows NT 10.0; Win64; x64) AppleWebKit/537.36 (KHTML, like Gecko) Chrome/114.0.0.0 Safari/537.36 OPR/100.0.0.0", "mode": "live", "id": "w93289383:a20413699", "status": "user data saved", "Beginhit": "2023-08-04 15:06:39.657694", "Beginexp": "2023-08-04 15:06:44.722825", "Endhit": "2023-08-04 15:30:50.516038", "psiturkStatus": 3, "browser": "<redacted>", "platform": "windows", "language": "en-GB"}