{"condition": 0, "counterbalance": 0, "assignmentId": "a24100349", "workerId": "w34470983", "hitId": "h67491493", "currenttrial": 62, "bonus": 0, "data": [{"uniqueid": "w34470983:a24100349", "current_trial": 0, "dateTime": 1693834586134, "trialdata": {"success": true, "trial_type": "fullscreen", "trial_index": 0, "time_elapsed": 4389, "internal_node_id": "0.0-0.0"}}, {"uniqueid": "w34470983:a24100349", "current_trial": 1, "dateTime": 1693834594014, "trialdata": {"view_history": [{"page_index": 0, "viewing_time": 7877}], "rt": 7878, "trial_id": "exp_instructions_misaligned", "trial_type": "instructions", "trial_index": 1, "time_elapsed": 12269, "internal_node_id": "0.0-1.0"}}, {"uniqueid": "w34470983:a24100349", "current_trial": 2, "dateTime": 1693834634286, "trialdata": {"view_history": [{"page_index": 0, "viewing_time": 11943}, {"page_index": 1, "viewing_time": 20680}, {"page_index": 2, "viewing_time": 5632}, {"page_index": 3, "viewing_time": 2016}], "rt": 40271, "trial_id": "mouselab_instructions_1_misaligned", "trial_type": "instructions", "trial_index": 2, "time_elapsed": 52541, "internal_node_id": "0.0-2.0-1.0"}}, {"uniqueid": "w34470983:a24100349", "current_trial": 3, "dateTime": 1693834651805, "trialdata": {"revealed_states": [], "clicked_states": ["23", "1", "12"], "num_clicks_accrued": [0, 0, 0, 0, 0, 0, 0, 0, 0, 0, 0, 0, 0], "stateRewards": ["", 10, -10, 10, 10, -10, -10, 10, 10, 10, 10, -10, 10, 10, -10, 10, -10, -10, 10, -10, 10, 10, -10, -10, 10, -10, 10, -10, -10, -10, 10, 10, -10, 10], "withholdReward": false, "trial_id": "practice_1", "block": "test", "trialIndex": 0, "score": 12, "costs": -1.5, "simulationMode": [null, null, null, null, null], "rewards": [10, -10, 10, 10, -10], "path": ["0", "0", "1", "2", "3", "8", "11"], "rt": [5467, 903, 546, 3194, 403], "actions": ["up", "up", "up", "left", "left"], "actionTimes": [7335, 8743, 9793, 13490, 14394], "queries": {"click": {"state": {"target": ["23", "1", "12"], "time": [2813, 4596, 5981]}, "edge": {"target": [], "time": []}}, "mouseover": {"state": {"target": ["23", "1", "12"], "time": [2698, 3360, 5635]}, "edge": {"target": [], "time": []}}, "mouseout": {"state": {"target": ["0", "0", "23", "1", "1", "12", "1", "4"], "time": [581, 2002, 3190, 4690, 5223, 6618, 8050, 11186]}, "edge": {"target": [], "time": []}}}, "displayed_time": "14.89", "trialTime": 17272, "trial_type": "mouselab-mdp", "trial_index": 3, "time_elapsed": 70060, "internal_node_id": "0.0-2.0-2.0-0.0"}}, {"uniqueid": "w34470983:a24100349", "current_trial": 4, "dateTime": 1693834665315, "trialdata": {"revealed_states": [], "clicked_states": ["12", "19"], "num_clicks_accrued": [0, 0, 0, 0, 0, 0, 0, 0, 0, 0, 0, 0, 0], "stateRewards": ["", 10, -10, 10, 10, -10, -10, -10, 10, -10, -10, -10, 10, 10, -10, -10, -10, 10, 10, 10, 10, 10, 10, -10, 10, 10, 10, 10, -10, -10, 10, 10, -10, -10], "withholdReward": false, "trial_id": "practice_2", "block": "test", "trialIndex": 1, "score": 32.5, "costs": -1, "simulationMode": [null, null, null, null, null], "rewards": [10, 10, -10, 10, 10], "path": ["0", "0", "12", "13", "14", "19", "21"], "rt": [6796, 146, 443, 64, 209], "actions": ["right", "right", "right", "down", "down"], "actionTimes": [9259, 9911, 10857, 11425, 12140], "queries": {"click": {"state": {"target": ["12", "19"], "time": [3686, 6735]}, "edge": {"target": [], "time": []}}, "mouseover": {"state": {"target": ["12", "12", "22", "14", "19"], "time": [2889, 3556, 5498, 5900, 6463]}, "edge": {"target": [], "time": []}}, "mouseout": {"state": {"target": ["0", "12", "12", "22", "14", "19"], "time": [1668, 3344, 4108, 5572, 6356, 7039]}, "edge": {"target": [], "time": []}}}, "displayed_time": "12.64", "trialTime": 13400, "trial_type": "mouselab-mdp", "trial_index": 4, "time_elapsed": 83570, "internal_node_id": "0.0-2.0-2.0-1.0"}}, {"uniqueid": "w34470983:a24100349", "current_trial": 5, "dateTime": 1693834679510, "trialdata": {"view_history": [{"page_index": 0, "viewing_time": 10121}, {"page_index": 1, "viewing_time": 4072}], "rt": 14193, "trial_id": "mouselab_instructions_2_misaligned", "trial_type": "instructions", "trial_index": 5, "time_elapsed": 97765, "internal_node_id": "0.0-2.0-3.0"}}, {"uniqueid": "w34470983:a24100349", "current_trial": 6, "dateTime": 1693834715823, "trialdata": {"rt": 36310, "response": {"Q0": "It is less costly to inspect further nodes.", "Q1": "The better I perform the higher my bonus will be.", "Q2": "No, the amount of cash at each node of the web may be different each time.", "Q3": "To get the highest total score.", "Q4": "Only before moving the spider.", "Q5": "3 seconds"}, "question_order": [0, 1, 2, 3, 4, 5], "correct": {"Q0": "The cost for clicking on nodes may vary between nodes.", "Q1": "The better I perform the higher my bonus will be.", "Q2": "No, the amount of cash at each node of the web may be different each time.", "Q3": "To get the highest total score.", "Q4": "Only before moving the spider.", "Q5": "3 seconds"}, "trial_id": "mouselab_quiz_misaligned", "trial_type": "survey-multi-choice", "trial_index": 6, "time_elapsed": 134078, "internal_node_id": "0.0-2.0-4.0"}}, {"uniqueid": "w34470983:a24100349", "current_trial": 7, "dateTime": 1693834721286, "trialdata": {"success": true, "trial_type": "fullscreen", "trial_index": 7, "time_elapsed": 139541, "internal_node_id": "0.0-2.1-0.1-0.1"}}, {"uniqueid": "w34470983:a24100349", "current_trial": 8, "dateTime": 1693834749222, "trialdata": {"view_history": [{"page_index": 0, "viewing_time": 5911}, {"page_index": 1, "viewing_time": 18632}, {"page_index": 2, "viewing_time": 1424}, {"page_index": 3, "viewing_time": 1968}], "rt": 27935, "trial_id": "mouselab_instructions_1_misaligned", "trial_type": "instructions", "trial_index": 8, "time_elapsed": 167477, "internal_node_id": "0.0-2.1-1.1"}}, {"uniqueid": "w34470983:a24100349", "current_trial": 9, "dateTime": 1693834756714, "trialdata": {"revealed_states": [], "clicked_states": [], "num_clicks_accrued": [0, 0, 0, 0, 0, 0, 0, 0, 0, 0, 0, 0, 0], "stateRewards": ["", 10, -10, 10, 10, -10, -10, 10, 10, 10, 10, -10, 10, 10, -10, 10, -10, -10, 10, -10, 10, 10, -10, -10, 10, -10, 10, -10, -10, -10, 10, 10, -10, 10], "withholdReward": false, "trial_id": "practice_1", "block": "test", "trialIndex": 2, "score": 13.5, "costs": 0, "simulationMode": [null, null, null, null, null], "rewards": [10, -10, 10, 10, -10], "path": ["0", "0", "1", "2", "3", "8", "11"], "rt": [650, 40, 146, 548, 444], "actions": ["up", "up", "up", "left", "left"], "actionTimes": [1909, 2456, 3108, 4159, 5106], "queries": {"click": {"state": {"target": [], "time": []}, "edge": {"target": [], "time": []}}, "mouseover": {"state": {"target": [], "time": []}, "edge": {"target": [], "time": []}}, "mouseout": {"state": {"target": ["12", "0"], "time": [635, 2093]}, "edge": {"target": [], "time": []}}}, "displayed_time": "5.61", "trialTime": 7270, "trial_type": "mouselab-mdp", "trial_index": 9, "time_elapsed": 174969, "internal_node_id": "0.0-2.1-2.1-0.1"}}, {"uniqueid": "w34470983:a24100349", "current_trial": 10, "dateTime": 1693834761633, "trialdata": {"revealed_states": [], "clicked_states": [], "num_clicks_accrued": [0, 0, 0, 0, 0, 0, 0, 0, 0, 0, 0, 0, 0], "stateRewards": ["", 10, -10, 10, 10, -10, -10, -10, 10, -10, -10, -10, 10, 10, -10, -10, -10, 10, 10, 10, 10, 10, 10, -10, 10, 10, 10, 10, -10, -10, 10, 10, -10, -10], "withholdReward": false, "trial_id": "practice_2", "block": "test", "trialIndex": 3, "score": 33.5, "costs": 0, "simulationMode": [null, null, null, null, null], "rewards": [10, 10, -10, 10, 10], "path": ["0", "0", "12", "13", "14", "19", "21"], "rt": [263, 209, 25, 2, 38], "actions": ["right", "right", "right", "down", "down"], "actionTimes": [726, 1441, 1967, 2471, 3017], "queries": {"click": {"state": {"target": [], "time": []}, "edge": {"target": [], "time": []}}, "mouseover": {"state": {"target": [], "time": []}, "edge": {"target": [], "time": []}}, "mouseout": {"state": {"target": ["0"], "time": [3779]}, "edge": {"target": [], "time": []}}}, "displayed_time": "3.52", "trialTime": 4804, "trial_type": "mouselab-mdp", "trial_index": 10, "time_elapsed": 179888, "internal_node_id": "0.0-2.1-2.1-1.1"}}, {"uniqueid": "w34470983:a24100349", "current_trial": 11, "dateTime": 1693834764886, "trialdata": {"view_history": [{"page_index": 0, "viewing_time": 2091}, {"page_index": 1, "viewing_time": 1160}], "rt": 3251, "trial_id": "mouselab_instructions_2_misaligned", "trial_type": "instructions", "trial_index": 11, "time_elapsed": 183141, "internal_node_id": "0.0-2.1-3.1"}}, {"uniqueid": "w34470983:a24100349", "current_trial": 12, "dateTime": 1693834778279, "trialdata": {"rt": 13391, "response": {"Q0": "The cost for clicking on nodes may vary between nodes.", "Q1": "The better I perform the higher my bonus will be.", "Q2": "No, the amount of cash at each node of the web may be different each time.", "Q3": "To get the highest total score.", "Q4": "Only before moving the spider.", "Q5": "3 seconds"}, "question_order": [0, 1, 2, 3, 4, 5], "correct": {"Q0": "The cost for clicking on nodes may vary between nodes.", "Q1": "The better I perform the higher my bonus will be.", "Q2": "No, the amount of cash at each node of the web may be different each time.", "Q3": "To get the highest total score.", "Q4": "Only before moving the spider.", "Q5": "3 seconds"}, "trial_id": "mouselab_quiz_misaligned", "trial_type": "survey-multi-choice", "trial_index": 12, "time_elapsed": 196533, "internal_node_id": "0.0-2.1-4.1"}}, {"uniqueid": "w34470983:a24100349", "current_trial": 13, "dateTime": 1693834782470, "trialdata": {"rt": 4188, "response": {"Q0": "No"}, "question_order": [0], "trial_id": "repeat_check", "trial_type": "survey-multi-choice", "trial_index": 13, "time_elapsed": 200725, "internal_node_id": "0.0-4.0-0.0"}}, {"uniqueid": "w34470983:a24100349", "current_trial": 14, "dateTime": 1693834785096, "trialdata": {"rt": 2624, "stimulus": "\n<h1> Get ready to start the game! </h1>\n\nThank you for reading the instructions. Get ready start with the 40 rounds of this game.\n<br><br>\nIf you need to take a break, feel free to take one after the end of a round, before continuing to the next one.\n<br><br>\nRemember, the more money the spider gets, the bigger your bonus will be!\n<br><br>\n<div style='text-align: center;'>Press <code>space</code> to begin.</div>\n\n<br><br>\n(If, at any point, the <code>space</code> key does not take you to the next page, click once on the text and try again.)", "response": " ", "trial_id": "mdp_ready", "trial_type": "html-keyboard-response", "trial_index": 14, "time_elapsed": 203351, "internal_node_id": "0.0-6.0-0.0"}}, {"uniqueid": "w34470983:a24100349", "current_trial": 15, "dateTime": 1693834804696, "trialdata": {"revealed_states": [], "clicked_states": [], "num_clicks_accrued": [0, 0, 0, 0, 0, 0, 0, 0, 0, 0, 0, 0, 0], "stateRewards": ["", 1, -4, -6, 11, -20, 8, -30, 1, -38, 88, 42, 2, 3, 5, -12, -8, -74, 30, -8, 67, -19, 42, 2, -1, 4, 13, 50, -68, 2, -8, -15, 87, -46], "withholdReward": false, "trial_id": "mdp_trial_1", "block": "test", "trialIndex": 4, "score": -50, "costs": 0, "simulationMode": [null, null, null, null, null], "rewards": [2, -1, 4, 13, -68], "path": ["0", "0", "23", "24", "25", "26", "28"], "rt": [5379, 24, 148, 67, 43], "actions": ["left", "left", "left", "up", "right"], "actionTimes": [9249, 9774, 10426, 10994, 11541], "queries": {"click": {"state": {"target": [], "time": []}, "edge": {"target": [], "time": []}}, "mouseover": {"state": {"target": ["23", "23", "24", "25", "24", "23"], "time": [4512, 4648, 4798, 5144, 6272, 6794]}, "edge": {"target": [], "time": []}}, "mouseout": {"state": {"target": ["33", "29", "25", "24", "23", "0", "23", "23", "24", "25", "24", "23"], "time": [912, 1072, 1145, 1235, 1521, 4472, 4555, 4688, 4992, 6236, 6697, 7322]}, "edge": {"target": [], "time": []}}}, "displayed_time": "17.87", "trialTime": 19481, "trial_type": "mouselab-mdp", "trial_index": 15, "time_elapsed": 222951, "internal_node_id": "0.0-6.0-1.0-0.0"}}, {"uniqueid": "w34470983:a24100349", "current_trial": 16, "dateTime": 1693834821568, "trialdata": {"revealed_states": [], "clicked_states": ["12", "25", "15", "19"], "num_clicks_accrued": [0, 0, 0, 0, 0, 0, 0, 0, 0, 0, 0, 0, 0], "stateRewards": ["", -1, 4, -5, 9, 29, -75, -42, -16, 24, -28, -41, 2, -3, 1, 10, 60, 47, 55, -1, -53, 22, -40, 2, -3, -6, 4, -26, 44, 54, 15, -76, 42, 14], "withholdReward": false, "trial_id": "mdp_trial_2", "block": "test", "trialIndex": 5, "score": 66.2, "costs": -3.8, "simulationMode": [null, null, null, null, null], "rewards": [2, -3, 1, 10, 60], "path": ["0", "0", "12", "13", "14", "15", "16"], "rt": [5559, 228, 321, 758, 62], "actions": ["right", "right", "right", "up", "up"], "actionTimes": [6375, 7110, 7931, 9193, 9759], "queries": {"click": {"state": {"target": ["12", "25", "15", "19"], "time": [1590, 3470, 4902, 5590]}, "edge": {"target": [], "time": []}}, "mouseover": {"state": {"target": ["12", "23", "24", "25", "13", "15", "14", "19"], "time": [1159, 2427, 2787, 3259, 4375, 4599, 5103, 5196]}, "edge": {"target": [], "time": []}}, "mouseout": {"state": {"target": ["0", "12", "23", "24", "25", "13", "15", "15", "14", "19", "19", "14", "16", "17", "19", "21"], "time": [1104, 2142, 2611, 2939, 3744, 4478, 4987, 5079, 5139, 5892, 8228, 8314, 9193, 10073, 10934, 11003]}, "edge": {"target": [], "time": []}}}, "displayed_time": "14.82", "trialTime": 16755, "trial_type": "mouselab-mdp", "trial_index": 16, "time_elapsed": 239822, "internal_node_id": "0.0-6.0-1.0-1.0"}}, {"uniqueid": "w34470983:a24100349", "current_trial": 17, "dateTime": 1693834837848, "trialdata": {"revealed_states": [], "clicked_states": ["14", "16", "25", "27"], "num_clicks_accrued": [0, 0, 0, 0, 0, 0, 0, 0, 0, 0, 0, 0, 0], "stateRewards": ["", 1, 2, -8, 9, 18, -83, -11, 6, -64, -48, 17, -2, -2, -5, -3, -24, -3, -86, -2, 48, -41, -22, -2, 4, 7, 8, 81, 13, -48, 10, 61, 19, 57], "withholdReward": false, "trial_id": "mdp_trial_3", "block": "test", "trialIndex": 6, "score": 91.8, "costs": -6.199999999999999, "simulationMode": [null, null, null, null, null], "rewards": [-2, 4, 7, 8, 81], "path": ["0", "0", "23", "24", "25", "26", "27"], "rt": [9447, 105, 20, 276, 86], "actions": ["left", "left", "left", "up", "up"], "actionTimes": [10570, 11181, 11706, 12484, 13072], "queries": {"click": {"state": {"target": ["14", "16", "25", "27"], "time": [1849, 2746, 5569, 7010]}, "edge": {"target": [], "time": []}}, "mouseover": {"state": {"target": ["12", "13", "14", "15", "16", "15", "13", "12", "0", "23", "24", "26", "25", "26", "27", "24", "23"], "time": [1311, 1449, 1679, 2268, 2608, 3069, 3197, 3263, 3312, 3360, 3445, 4034, 4344, 6564, 6783, 7717, 8858]}, "edge": {"target": [], "time": []}}, "mouseout": {"state": {"target": ["0", "12", "13", "14", "15", "16", "15", "13", "12", "0", "23", "24", "26", "25", "26", "27", "24", "23"], "time": [1237, 1400, 1625, 1951, 2507, 3027, 3099, 3227, 3306, 3349, 3403, 3488, 4289, 6540, 6711, 7440, 7984, 13919]}, "edge": {"target": [], "time": []}}}, "displayed_time": "15.12", "trialTime": 16160, "trial_type": "mouselab-mdp", "trial_index": 17, "time_elapsed": 256103, "internal_node_id": "0.0-6.0-1.0-2.0"}}, {"uniqueid": "w34470983:a24100349", "current_trial": 18, "dateTime": 1693834853586, "trialdata": {"revealed_states": [], "clicked_states": ["12", "1", "23", "26", "30", "27"], "num_clicks_accrued": [0, 0, 0, 0, 0, 0, 0, 0, 0, 0, 0, 0, 0], "stateRewards": ["", -2, 4, -7, -3, -76, 39, -28, 10, 14, 12, 60, 2, -3, 6, -10, 88, -34, -41, -3, 72, -13, -56, 1, 3, 2, 8, -51, 23, -57, 1, 14, -46, -16], "withholdReward": false, "trial_id": "mdp_trial_4", "block": "test", "trialIndex": 7, "score": -43.5, "costs": -4.5, "simulationMode": [null, null, null, null, null, null], "rewards": [2, -3, 6, -10, -34], "path": ["0", "0", "12", "13", "14", "15", "17"], "rt": [7319, 732, 16, 98, 83, 169], "actions": ["right", "right", "right", "right", "up", "right"], "actionTimes": [8225, 8959, 9485, 10094, 10682, 11355], "queries": {"click": {"state": {"target": ["12", "1", "23", "26", "30", "27"], "time": [1948, 2989, 3893, 4861, 5628, 6452]}, "edge": {"target": [], "time": []}}, "mouseover": {"state": {"target": ["12", "13", "13", "12", "1", "23", "24", "25", "26", "25", "30", "25", "27", "28", "1", "18", "16", "16", "15", "14", "19", "21"], "time": [1130, 1266, 1610, 1778, 2751, 3576, 4389, 4517, 4638, 5159, 5335, 6063, 6349, 6655, 6731, 6822, 7071, 7550, 8011, 8072, 8114, 8412]}, "edge": {"target": [], "time": []}}, "mouseout": {"state": {"target": ["0", "12", "13", "13", "12", "12", "12", "1", "23", "24", "25", "26", "25", "30", "30", "25", "26", "27", "28", "1", "18", "16", "16", "15", "14", "19", "21"], "time": [1050, 1210, 1354, 1749, 2356, 2508, 2659, 3230, 4152, 4413, 4559, 5087, 5251, 5839, 6015, 6124, 6221, 6622, 6682, 6749, 6931, 7398, 7981, 8048, 8102, 8157, 8448]}, "edge": {"target": [], "time": []}}}, "displayed_time": "14.91", "trialTime": 15620, "trial_type": "mouselab-mdp", "trial_index": 18, "time_elapsed": 271840, "internal_node_id": "0.0-6.0-1.0-3.0"}}, {"uniqueid": "w34470983:a24100349", "current_trial": 19, "dateTime": 1693834869700, "trialdata": {"revealed_states": [], "clicked_states": ["1", "23", "30", "26", "27"], "num_clicks_accrued": [0, 0, 0, 0, 0, 0, 0, 0, 0, 0, 0, 0, 0], "stateRewards": ["", -2, -3, 8, -4, -30, 31, 69, 9, 66, 87, 64, -2, 2, 8, 5, 47, 16, -39, -8, -54, 51, -19, 1, -2, -2, -11, -25, -26, 43, -9, 19, -84, 86], "withholdReward": false, "trial_id": "mdp_trial_5", "block": "test", "trialIndex": 8, "score": -30.75, "costs": -4.75, "simulationMode": [null, null, null, null, null, null], "rewards": [-2, 2, 8, 5, -39], "path": ["0", "0", "12", "13", "14", "15", "18"], "rt": [6106, 923, 37, 39, 25, 23], "actions": ["left", "right", "right", "right", "up", "left"], "actionTimes": [6985, 7910, 8456, 9003, 9529, 10054], "queries": {"click": {"state": {"target": ["1", "23", "30", "26", "27"], "time": [1565, 3198, 3998, 4862, 5966]}, "edge": {"target": [], "time": []}}, "mouseover": {"state": {"target": ["1", "2", "23", "31", "30", "25", "26", "26", "24", "0", "27", "28"], "time": [1243, 1870, 3019, 3544, 3847, 4303, 4400, 4655, 5237, 5437, 5638, 6221]}, "edge": {"target": [], "time": []}}, "mouseout": {"state": {"target": ["0", "1", "2", "1", "23", "31", "30", "25", "26", "26", "24", "23", "0", "27", "28", "23"], "time": [1087, 1653, 2221, 2325, 3453, 3775, 4260, 4357, 4485, 5116, 5261, 5377, 5528, 6172, 6287, 10468]}, "edge": {"target": [], "time": []}}}, "displayed_time": "14.88", "trialTime": 15999, "trial_type": "mouselab-mdp", "trial_index": 19, "time_elapsed": 287954, "internal_node_id": "0.0-6.0-1.0-4.0"}}, {"uniqueid": "w34470983:a24100349", "current_trial": 20, "dateTime": 1693834887663, "trialdata": {"revealed_states": [], "clicked_states": ["12", "22"], "num_clicks_accrued": [0, 0, 0, 0, 0, 0, 0, 0, 0, 0, 0, 0, 0], "stateRewards": ["", -2, 2, -2, -7, -50, -62, -45, 7, 36, -24, -72, -1, -1, 8, -1, -67, 20, -52, 2, 35, -50, 80, -1, 1, 6, -6, -70, 6, 88, 8, -47, 74, -19], "withholdReward": false, "trial_id": "mdp_trial_6", "block": "test", "trialIndex": 9, "score": 86.1, "costs": -1.9, "simulationMode": [null, null, null, null, null], "rewards": [-1, -1, 8, 2, 80], "path": ["0", "0", "12", "13", "14", "19", "22"], "rt": [5595, 378, 106, 42, 63], "actions": ["right", "right", "right", "down", "left"], "actionTimes": [7403, 8286, 8896, 9443, 10010], "queries": {"click": {"state": {"target": ["12", "22"], "time": [2201, 3370]}, "edge": {"target": [], "time": []}}, "mouseover": {"state": {"target": ["12", "22", "32", "30", "31"], "time": [2063, 3156, 4540, 6396, 6423]}, "edge": {"target": [], "time": []}}, "mouseout": {"state": {"target": ["0", "0", "12", "22", "32", "30", "31"], "time": [1351, 1991, 2501, 3611, 4837, 6408, 6445]}, "edge": {"target": [], "time": []}}}, "displayed_time": "15.81", "trialTime": 17846, "trial_type": "mouselab-mdp", "trial_index": 20, "time_elapsed": 305918, "internal_node_id": "0.0-6.0-1.0-5.0"}}, {"uniqueid": "w34470983:a24100349", "current_trial": 21, "dateTime": 1693834908083, "trialdata": {"revealed_states": [], "clicked_states": ["31", "33", "29", "21"], "num_clicks_accrued": [0, 0, 0, 0, 0, 0, 0, 0, 0, 0, 0, 0, 0], "stateRewards": ["", -2, -3, -5, 8, 27, 11, 43, -6, -24, -87, 69, -2, 1, 1, 9, 19, 48, -37, 9, -14, 45, 62, 1, 2, 1, 16, -81, -41, 22, 4, -6, -63, 47], "withholdReward": false, "trial_id": "mdp_trial_7", "block": "test", "trialIndex": 10, "score": 46.4, "costs": -8.6, "simulationMode": [null, null, null, null, null], "rewards": [1, 2, 1, 4, 47], "path": ["0", "0", "23", "24", "25", "30", "33"], "rt": [14782, 420, 172, 86, 107], "actions": ["left", "left", "left", "down", "left"], "actionTimes": [15478, 16404, 17077, 17665, 18275], "queries": {"click": {"state": {"target": ["31", "33", "29", "21"], "time": [1924, 5205, 8620, 12124]}, "edge": {"target": [], "time": []}}, "mouseover": {"state": {"target": ["23", "24", "25", "30", "31", "30", "33", "33", "29", "21"], "time": [865, 1013, 1213, 1523, 1810, 2293, 2391, 4328, 7366, 12033]}, "edge": {"target": [], "time": []}}, "mouseout": {"state": {"target": ["0", "23", "24", "25", "30", "31", "30", "33", "33", "29", "21"], "time": [837, 964, 1185, 1481, 1717, 2226, 2354, 3101, 5406, 8871, 12421]}, "edge": {"target": [], "time": []}}}, "displayed_time": "18.78", "trialTime": 20292, "trial_type": "mouselab-mdp", "trial_index": 21, "time_elapsed": 326338, "internal_node_id": "0.0-6.0-1.0-6.0"}}, {"uniqueid": "w34470983:a24100349", "current_trial": 22, "dateTime": 1693834931801, "trialdata": {"revealed_states": [], "clicked_states": ["6", "11", "10", "9", "7"], "num_clicks_accrued": [0, 0, 0, 0, 0, 0, 0, 0, 0, 0, 0, 0, 0], "stateRewards": ["", -2, -4, -6, 12, -58, -70, -80, 2, 16, -88, -62, 1, 2, -5, 11, 77, -35, -44, -5, 18, -83, 87, 1, -3, -5, 13, -44, -21, -86, 10, -52, 8, 29], "withholdReward": false, "trial_id": "mdp_trial_8", "block": "test", "trialIndex": 11, "score": -4.75, "costs": -10.75, "simulationMode": [null, null, null, null, null], "rewards": [-2, -4, -6, 2, 16], "path": ["0", "0", "1", "2", "3", "8", "9"], "rt": [17254, 253, 1, 813, 485], "actions": ["up", "up", "up", "left", "up"], "actionTimes": [18382, 19139, 19645, 20967, 21955], "queries": {"click": {"state": {"target": ["6", "11", "10", "9", "7"], "time": [1924, 5163, 8508, 11763, 15155]}, "edge": {"target": [], "time": []}}, "mouseover": {"state": {"target": ["1", "2", "4", "6", "4", "4", "3", "8", "11", "11", "10", "8", "9", "9", "11", "28", "2", "7"], "time": [1391, 1449, 1561, 1753, 2356, 2405, 2435, 2538, 2866, 3758, 8351, 9783, 9808, 10111, 12083, 12295, 14595, 15020]}, "edge": {"target": [], "time": []}}, "mouseout": {"state": {"target": ["0", "1", "2", "4", "6", "4", "4", "3", "8", "11", "11", "10", "10", "8", "9", "9", "11", "28", "2", "7", "12"], "time": [1257, 1417, 1502, 1719, 2296, 2399, 2411, 2489, 2684, 3479, 5402, 8770, 9765, 9795, 9826, 12034, 12101, 13309, 14850, 15445, 22847]}, "edge": {"target": [], "time": []}}}, "displayed_time": "22.46", "trialTime": 23594, "trial_type": "mouselab-mdp", "trial_index": 22, "time_elapsed": 350055, "internal_node_id": "0.0-6.0-1.0-7.0"}}, {"uniqueid": "w34470983:a24100349", "current_trial": 23, "dateTime": 1693834955918, "trialdata": {"revealed_states": [], "clicked_states": ["20", "33", "29", "9", "5"], "num_clicks_accrued": [0, 0, 0, 0, 0, 0, 0, 0, 0, 0, 0, 0, 0], "stateRewards": ["", 1, 1, -5, 10, -31, 73, 14, -8, -23, 63, -70, -1, 2, 8, 7, 25, -59, 27, -10, -40, -71, -15, -2, 3, -8, -5, -19, 77, -34, 7, 67, 63, 19], "withholdReward": false, "trial_id": "mdp_trial_9", "block": "test", "trialIndex": 12, "score": 54.25, "costs": -10.75, "simulationMode": [null, null, null, null, null], "rewards": [-2, 3, -8, -5, 77], "path": ["0", "0", "23", "24", "25", "26", "28"], "rt": [16789, 1, 99, 339, 357], "actions": ["left", "left", "left", "up", "right"], "actionTimes": [18184, 18691, 19298, 20139, 21001], "queries": {"click": {"state": {"target": ["20", "33", "29", "9", "5"], "time": [2189, 5325, 8556, 11652, 14852]}, "edge": {"target": [], "time": []}}, "mouseover": {"state": {"target": ["20", "19", "33", "29", "27", "11", "9", "5", "3", "10"], "time": [1996, 2439, 3101, 5680, 8895, 9047, 9387, 14762, 15157, 15254]}, "edge": {"target": [], "time": []}}, "mouseout": {"state": {"target": ["0", "20", "20", "19", "33", "29", "29", "27", "11", "9", "5", "3", "10"], "time": [1614, 2290, 2421, 2451, 5528, 8658, 8835, 8950, 9169, 12548, 15091, 15200, 15260]}, "edge": {"target": [], "time": []}}}, "displayed_time": "21.50", "trialTime": 23984, "trial_type": "mouselab-mdp", "trial_index": 23, "time_elapsed": 374172, "internal_node_id": "0.0-6.0-1.0-8.0"}}, {"uniqueid": "w34470983:a24100349", "current_trial": 24, "dateTime": 1693834978501, "trialdata": {"revealed_states": [], "clicked_states": ["22", "33", "28", "23", "25"], "num_clicks_accrued": [0, 0, 0, 0, 0, 0, 0, 0, 0, 0, 0, 0, 0], "stateRewards": ["", -1, 3, 1, -11, -22, -36, 19, -5, -70, -52, 50, -2, -4, 4, -2, -41, -83, 29, -2, 22, 10, -6, -2, 3, -2, 14, 54, 44, 77, -9, -65, -37, -40], "withholdReward": false, "trial_id": "mdp_trial_10", "block": "test", "trialIndex": 13, "score": -37.15, "costs": -7.1499999999999995, "simulationMode": [null, null, null, null, null], "rewards": [-1, 3, 1, -11, -22], "path": ["0", "0", "1", "2", "3", "4", "5"], "rt": [16059, 379, 319, 335, 128], "actions": ["up", "up", "up", "right", "up"], "actionTimes": [17177, 18059, 18879, 19720, 20350], "queries": {"click": {"state": {"target": ["22", "33", "28", "23", "25"], "time": [2136, 6265, 10104, 13528, 15472]}, "edge": {"target": [], "time": []}}, "mouseover": {"state": {"target": ["12", "13", "19", "22", "13", "18", "12", "31", "30", "33", "31", "24", "28", "24", "23", "31", "25", "31"], "time": [1508, 1624, 1790, 1950, 2867, 3031, 3656, 5670, 5908, 6094, 9614, 9851, 9998, 10307, 13398, 15100, 15254, 15695]}, "edge": {"target": [], "time": []}}, "mouseout": {"state": {"target": ["0", "12", "13", "19", "22", "13", "18", "12", "31", "30", "33", "31", "24", "28", "24", "23", "31", "25", "31"], "time": [1422, 1574, 1678, 1918, 2388, 2893, 3554, 3850, 5806, 6014, 6496, 9814, 9913, 10282, 10331, 13796, 15158, 15665, 15743]}, "edge": {"target": [], "time": []}}}, "displayed_time": "20.85", "trialTime": 22451, "trial_type": "mouselab-mdp", "trial_index": 24, "time_elapsed": 396756, "internal_node_id": "0.0-6.0-1.0-9.0"}}, {"uniqueid": "w34470983:a24100349", "current_trial": 25, "dateTime": 1693834994615, "trialdata": {"revealed_states": [], "clicked_states": ["14", "25", "3", "16"], "num_clicks_accrued": [0, 0, 0, 0, 0, 0, 0, 0, 0, 0, 0, 0, 0], "stateRewards": ["", 1, -4, 6, -3, 40, 76, -51, 5, -24, -63, 44, -2, -2, 8, 1, 76, -85, -58, 10, 59, 20, 11, -2, 3, -3, 3, -82, -10, 54, -7, -57, -6, -32], "withholdReward": false, "trial_id": "mdp_trial_11", "block": "test", "trialIndex": 14, "score": 76, "costs": -5, "simulationMode": [null, null, null, null, null], "rewards": [-2, -2, 8, 1, 76], "path": ["0", "0", "12", "13", "14", "15", "16"], "rt": [10041, 148, 89, 104, 86], "actions": ["right", "right", "right", "up", "up"], "actionTimes": [11248, 11899, 12488, 13098, 13686], "queries": {"click": {"state": {"target": ["14", "25", "3", "16"], "time": [2641, 3736, 4824, 7240]}, "edge": {"target": [], "time": []}}, "mouseover": {"state": {"target": ["0", "12", "12", "13", "14", "19", "24", "25", "28", "2", "3", "2", "1", "0", "0", "15", "16", "17", "21", "21"], "time": [1462, 1500, 1816, 2238, 2383, 2872, 3388, 3527, 4122, 4492, 4607, 5050, 5099, 5172, 6134, 6662, 6966, 7417, 7963, 10663]}, "edge": {"target": [], "time": []}}, "mouseout": {"state": {"target": ["0", "0", "12", "12", "13", "14", "19", "24", "25", "28", "2", "3", "2", "1", "0", "0", "15", "16", "17", "21", "21"], "time": [984, 1470, 1654, 2186, 2307, 2841, 2938, 3418, 4079, 4146, 4559, 5026, 5074, 5123, 5202, 6150, 6870, 7386, 7423, 8303, 14942]}, "edge": {"target": [], "time": []}}}, "displayed_time": "15.21", "trialTime": 15997, "trial_type": "mouselab-mdp", "trial_index": 25, "time_elapsed": 412870, "internal_node_id": "0.0-6.0-1.0-10.0"}}, {"uniqueid": "w34470983:a24100349", "current_trial": 26, "dateTime": 1693835013438, "trialdata": {"revealed_states": [], "clicked_states": ["14", "3", "11", "6", "7"], "num_clicks_accrued": [0, 0, 0, 0, 0, 0, 0, 0, 0, 0, 0, 0, 0], "stateRewards": ["", 1, 4, 7, -16, -84, -6, -46, -12, -7, -49, -26, -1, 2, -4, 2, 22, 37, -64, 1, 88, -13, -10, 1, -4, -2, 5, 2, -10, -34, 9, 66, 55, 38], "withholdReward": false, "trial_id": "mdp_trial_12", "block": "test", "trialIndex": 15, "score": -96.35, "costs": -8.35, "simulationMode": [null, null, null, null, null], "rewards": [1, 4, 7, -16, -84], "path": ["0", "0", "1", "2", "3", "4", "5"], "rt": [13573, 45, 45, 319, 83], "actions": ["up", "up", "up", "right", "up"], "actionTimes": [14773, 15320, 15866, 16686, 17275], "queries": {"click": {"state": {"target": ["14", "3", "11", "6", "7"], "time": [2236, 3300, 4564, 7931, 11405]}, "edge": {"target": [], "time": []}}, "mouseover": {"state": {"target": ["0", "14", "22", "12", "2", "3", "3", "2", "28", "10", "8", "8", "11", "10", "2", "7", "6", "6", "7"], "time": [1396, 2065, 2586, 2780, 2828, 2883, 3096, 3563, 3957, 4006, 4018, 4219, 4346, 5062, 5165, 5219, 5359, 7770, 11218]}, "edge": {"target": [], "time": []}}, "mouseout": {"state": {"target": ["0", "14", "22", "12", "2", "3", "3", "2", "28", "10", "8", "8", "11", "10", "2", "7", "6", "6", "7"], "time": [1473, 2453, 2744, 2798, 2853, 2938, 3526, 3575, 3975, 4012, 4054, 4255, 4770, 5141, 5207, 5262, 6299, 8120, 11591]}, "edge": {"target": [], "time": []}}}, "displayed_time": "17.78", "trialTime": 18703, "trial_type": "mouselab-mdp", "trial_index": 26, "time_elapsed": 431693, "internal_node_id": "0.0-6.0-1.0-11.0"}}, {"uniqueid": "w34470983:a24100349", "current_trial": 27, "dateTime": 1693835030035, "trialdata": {"revealed_states": [], "clicked_states": ["3", "11"], "num_clicks_accrued": [0, 0, 0, 0, 0, 0, 0, 0, 0, 0, 0, 0, 0], "stateRewards": ["", -2, 1, -7, -8, -37, -76, -87, 11, 30, -63, 80, -1, 4, 2, -1, 42, 17, 52, -3, -75, -80, -68, 2, -3, -5, -15, -48, 82, 24, -7, 5, -22, -71], "withholdReward": false, "trial_id": "mdp_trial_13", "block": "test", "trialIndex": 16, "score": 79.9, "costs": -3.0999999999999996, "simulationMode": [null, null, null, null, null], "rewards": [-2, 1, -7, 11, 80], "path": ["0", "0", "1", "2", "3", "8", "11"], "rt": [5823, 41, 20, 459, 188], "actions": ["up", "up", "up", "left", "left"], "actionTimes": [7274, 7821, 8346, 9313, 10007], "queries": {"click": {"state": {"target": ["3", "11"], "time": [2285, 3341]}, "edge": {"target": [], "time": []}}, "mouseover": {"state": {"target": ["1", "2", "3", "11", "10"], "time": [1883, 1963, 2163, 3228, 4230]}, "edge": {"target": [], "time": []}}, "mouseout": {"state": {"target": ["1", "2", "3", "11", "10", "0"], "time": [1936, 2051, 2725, 3629, 4472, 16219]}, "edge": {"target": [], "time": []}}}, "displayed_time": "15.45", "trialTime": 16477, "trial_type": "mouselab-mdp", "trial_index": 27, "time_elapsed": 448290, "internal_node_id": "0.0-6.0-1.0-12.0"}}, {"uniqueid": "w34470983:a24100349", "current_trial": 28, "dateTime": 1693835078455, "trialdata": {"revealed_states": [], "clicked_states": ["25", "14", "3", "16", "27", "6", "26", "24", "23", "29", "28"], "num_clicks_accrued": [0, 0, 0, 0, 0, 0, 0, 0, 0, 0, 0, 0, 0], "stateRewards": ["", -2, 2, 2, -6, 9, 37, 50, -13, -7, -18, -75, -2, -4, 4, 7, 23, -57, -66, -7, -81, -48, -76, 1, 1, -8, 1, 51, -2, 70, 14, 59, 71, -37], "withholdReward": false, "trial_id": "mdp_trial_14", "block": "test", "trialIndex": 17, "score": 49.75, "costs": -15.250000000000002, "simulationMode": [null, null, null, null, null], "rewards": [1, 1, -8, 1, 70], "path": ["0", "0", "23", "24", "25", "26", "29"], "rt": [28617, 106, 299, 44, 46], "actions": ["left", "left", "left", "up", "left"], "actionTimes": [29655, 30265, 31064, 31610, 32158], "queries": {"click": {"state": {"target": ["25", "14", "3", "16", "27", "6", "26", "24", "23", "29", "28"], "time": [2286, 4174, 5350, 7198, 11182, 14662, 18006, 19006, 19774, 22430, 25534]}, "edge": {"target": [], "time": []}}, "mouseover": {"state": {"target": ["31", "30", "25", "26", "24", "24", "25", "31", "22", "13", "14", "22", "12", "1", "2", "3", "2", "1", "22", "15", "16", "17", "20", "21", "21", "24", "28", "27", "26", "24", "31", "1", "7", "6", "0", "24", "26", "29", "26", "25", "25", "24", "23", "24", "26", "29", "26", "28", "28", "32"], "time": [1236, 1340, 1372, 1724, 1815, 2015, 2124, 2665, 3516, 3676, 3884, 4528, 4686, 4807, 4958, 5165, 5590, 5632, 6796, 6884, 7084, 7604, 7792, 7950, 10532, 10820, 10936, 11060, 11372, 11409, 11433, 13647, 13927, 14455, 15274, 15887, 16056, 16384, 17828, 18314, 18599, 18775, 19527, 22034, 22172, 22264, 22701, 22895, 24284, 26135]}, "edge": {"target": [], "time": []}}, "mouseout": {"state": {"target": ["0", "31", "30", "25", "26", "24", "24", "25", "31", "22", "13", "14", "22", "12", "1", "2", "3", "2", "1", "22", "15", "16", "17", "20", "21", "21", "24", "28", "27", "26", "24", "31", "1", "7", "6", "0", "24", "26", "29", "26", "25", "25", "24", "23", "24", "24", "26", "29", "26", "28", "28", "32"], "time": [1142, 1294, 1348, 1420, 1756, 1858, 2060, 2568, 2692, 3524, 3828, 4431, 4576, 4704, 4880, 5013, 5559, 5614, 5644, 6820, 7021, 7392, 7671, 7853, 8302, 10660, 10868, 10966, 11360, 11384, 11415, 11439, 13721, 14012, 15098, 15280, 15917, 16244, 16839, 18265, 18320, 18726, 19406, 20110, 21948, 22094, 22180, 22677, 22725, 23653, 25917, 26390]}, "edge": {"target": [], "time": []}}}, "displayed_time": "32.66", "trialTime": 48290, "trial_type": "mouselab-mdp", "trial_index": 28, "time_elapsed": 496710, "internal_node_id": "0.0-6.0-1.0-13.0"}}, {"uniqueid": "w34470983:a24100349", "current_trial": 29, "dateTime": 1693835112108, "trialdata": {"revealed_states": [], "clicked_states": ["21", "22", "14", "13", "12", "19", "23", "24", "25", "30", "31", "1", "2", "3", "10", "8"], "num_clicks_accrued": [0, 0, 0, 0, 0, 0, 0, 0, 0, 0, 0, 0, 0], "stateRewards": ["", 2, 3, 3, 10, 19, -21, 6, 9, 54, 68, 16, 2, 2, -6, -8, 40, -2, -75, -2, -42, 55, 59, -1, 2, 4, -14, 11, -34, -30, -6, 61, -53, 13], "withholdReward": false, "trial_id": "mdp_trial_15", "block": "test", "trialIndex": 18, "score": 68.6, "costs": -16.4, "simulationMode": [null, null, null, null, null], "rewards": [2, 3, 3, 9, 68], "path": ["0", "0", "1", "2", "3", "8", "10"], "rt": [27755, 401, 64, 20, 44], "actions": ["up", "up", "up", "left", "down"], "actionTimes": [29285, 30190, 30757, 31283, 31829], "queries": {"click": {"state": {"target": ["21", "22", "14", "13", "12", "19", "23", "24", "25", "30", "31", "1", "2", "3", "10", "8"], "time": [3285, 7157, 11349, 12125, 12653, 13348, 15765, 16164, 16662, 17245, 18220, 22237, 22966, 24141, 24925, 28173]}, "edge": {"target": [], "time": []}}, "mouseover": {"state": {"target": ["12", "12", "12", "13", "14", "19", "21", "22", "19", "14", "13", "13", "14", "13", "12", "19", "14", "14", "23", "24", "25", "30", "31", "33", "32", "33", "26", "33", "25", "24", "23", "1", "2", "3", "10", "8", "11", "8"], "time": [1707, 1795, 2122, 2323, 2475, 2739, 3131, 3702, 7392, 10691, 10739, 11003, 11163, 11700, 12446, 13168, 14707, 15155, 15602, 15990, 16396, 17070, 18095, 18520, 19072, 19855, 20365, 21275, 21715, 21835, 21875, 22045, 22822, 24019, 24825, 25255, 25844, 28011]}, "edge": {"target": [], "time": []}}, "mouseout": {"state": {"target": ["29", "26", "0", "12", "12", "12", "13", "14", "19", "21", "22", "22", "19", "14", "13", "13", "14", "13", "12", "19", "14", "14", "23", "24", "25", "30", "30", "31", "30", "33", "32", "33", "26", "33", "25", "24", "23", "1", "2", "3", "10", "8", "11", "8"], "time": [1082, 1098, 1691, 1715, 1834, 2267, 2451, 2699, 3019, 3387, 7212, 7373, 7398, 10723, 10763, 11091, 11664, 12355, 12956, 13551, 14746, 15163, 15960, 16319, 16961, 17331, 17598, 18375, 18472, 18823, 19637, 19892, 21093, 21330, 21787, 21858, 21890, 22640, 23981, 24479, 25183, 25692, 25947, 28550]}, "edge": {"target": [], "time": []}}}, "displayed_time": "32.33", "trialTime": 33510, "trial_type": "mouselab-mdp", "trial_index": 29, "time_elapsed": 530363, "internal_node_id": "0.0-6.0-1.0-14.0"}}, {"uniqueid": "w34470983:a24100349", "current_trial": 30, "dateTime": 1693835143030, "trialdata": {"revealed_states": [], "clicked_states": ["1", "23", "12", "8", "10", "9", "7", "6", "5", "11"], "num_clicks_accrued": [0, 0, 0, 0, 0, 0, 0, 0, 0, 0, 0, 0, 0], "stateRewards": ["", -2, -3, 1, -14, 48, -49, 67, -1, -35, -48, 3, -2, 1, -4, -5, 86, -84, 39, 1, 48, 41, -42, -1, -4, 2, -7, 18, -86, 17, 7, -9, 57, -69], "withholdReward": false, "trial_id": "mdp_trial_16", "block": "test", "trialIndex": 19, "score": 35.3, "costs": -13.700000000000001, "simulationMode": [null, null, null, null, null], "rewards": [-2, -3, 1, -14, 67], "path": ["0", "0", "1", "2", "3", "4", "7"], "rt": [25018, 443, 106, 46, 68], "actions": ["up", "up", "up", "right", "down"], "actionTimes": [26331, 27276, 27885, 28432, 29000], "queries": {"click": {"state": {"target": ["1", "23", "12", "8", "10", "9", "7", "6", "5", "11"], "time": [2214, 2750, 3271, 5238, 6342, 9878, 13150, 16550, 19750, 23038]}, "edge": {"target": [], "time": []}}, "mouseover": {"state": {"target": ["1", "2", "2", "1", "23", "0", "12", "13", "0", "2", "8", "2", "10", "3", "7", "7", "2", "3", "9", "11", "10", "2", "7", "7", "6", "4", "5", "4", "18", "10", "11"], "time": [1612, 1717, 1972, 2020, 2609, 2901, 3010, 3538, 4868, 4964, 5068, 5880, 6153, 6991, 7470, 7749, 7919, 8040, 8380, 10152, 12494, 12537, 12597, 12972, 16460, 19404, 19624, 20055, 20109, 22445, 22796]}, "edge": {"target": [], "time": []}}, "mouseout": {"state": {"target": ["10", "0", "1", "2", "2", "1", "23", "0", "12", "13", "0", "1", "2", "8", "2", "10", "8", "3", "7", "7", "2", "3", "9", "11", "10", "2", "7", "7", "7", "6", "4", "5", "4", "18", "10", "11", "11"], "time": [825, 1110, 1668, 1860, 2004, 2518, 2876, 2961, 3441, 3720, 4884, 4924, 4980, 5631, 5892, 6632, 6912, 7397, 7524, 7840, 7986, 8046, 10030, 10231, 12500, 12573, 12634, 13206, 13325, 16893, 19524, 20036, 20073, 20158, 22512, 23116, 23265]}, "edge": {"target": [], "time": []}}}, "displayed_time": "29.50", "trialTime": 30786, "trial_type": "mouselab-mdp", "trial_index": 30, "time_elapsed": 561285, "internal_node_id": "0.0-6.0-1.0-15.0"}}, {"uniqueid": "w34470983:a24100349", "current_trial": 31, "dateTime": 1693835159122, "trialdata": {"revealed_states": [], "clicked_states": ["30", "19", "15", "18"], "num_clicks_accrued": [0, 0, 0, 0, 0, 0, 0, 0, 0, 0, 0, 0, 0], "stateRewards": ["", -2, -4, 4, -11, -63, -60, -7, 2, -14, 81, -43, -1, -1, -5, 7, 10, 69, 40, 8, -83, 52, 60, 1, 2, 5, -5, 16, 64, 14, -3, 29, 7, -51], "withholdReward": false, "trial_id": "mdp_trial_17", "block": "test", "trialIndex": 20, "score": 33.2, "costs": -6.800000000000001, "simulationMode": [null, null, null, null, null], "rewards": [-1, -1, -5, 7, 40], "path": ["0", "0", "12", "13", "14", "15", "18"], "rt": [7400, 18, 17, 21, 67], "actions": ["right", "right", "right", "up", "left"], "actionTimes": [8875, 9399, 9926, 10451, 11019], "queries": {"click": {"state": {"target": ["30", "19", "15", "18"], "time": [2523, 3867, 4579, 5083]}, "edge": {"target": [], "time": []}}, "mouseover": {"state": {"target": ["31", "30", "31", "22", "19", "14", "15", "18", "16", "17", "20"], "time": [2033, 2329, 3427, 3524, 3561, 4150, 4356, 4926, 5405, 5855, 7790]}, "edge": {"target": [], "time": []}}, "mouseout": {"state": {"target": ["10", "0", "31", "30", "30", "31", "22", "19", "14", "15", "18", "16", "17", "20", "20"], "time": [1025, 1777, 2252, 3094, 3409, 3445, 3549, 4119, 4234, 4853, 5302, 5691, 7572, 8553, 12547]}, "edge": {"target": [], "time": []}}}, "displayed_time": "15.48", "trialTime": 15955, "trial_type": "mouselab-mdp", "trial_index": 31, "time_elapsed": 577377, "internal_node_id": "0.0-6.0-1.0-16.0"}}, {"uniqueid": "w34470983:a24100349", "current_trial": 32, "dateTime": 1693835179836, "trialdata": {"revealed_states": [], "clicked_states": ["23", "12", "1", "21", "22", "20"], "num_clicks_accrued": [0, 0, 0, 0, 0, 0, 0, 0, 0, 0, 0, 0, 0], "stateRewards": ["", -1, -2, 8, -6, -79, -6, 87, 9, -5, -66, -38, 2, 2, 5, -6, -82, 74, 85, -8, 67, -30, -15, 1, -2, -2, -2, 87, 64, 49, 7, 2, -38, -9], "withholdReward": false, "trial_id": "mdp_trial_18", "block": "test", "trialIndex": 21, "score": 62.3, "costs": -5.699999999999999, "simulationMode": [null, null, null, null, null], "rewards": [2, 2, 5, -8, 67], "path": ["0", "0", "12", "13", "14", "19", "20"], "rt": [14895, 18, 16, 77, 20], "actions": ["right", "right", "right", "down", "right"], "actionTimes": [16373, 16899, 17424, 18013, 18537], "queries": {"click": {"state": {"target": ["23", "12", "1", "21", "22", "20"], "time": [2102, 3158, 3576, 6374, 9446, 12630]}, "edge": {"target": [], "time": []}}, "mouseover": {"state": {"target": ["0", "23", "31", "12", "1", "0", "21", "22", "22", "20"], "time": [1606, 1956, 2445, 3032, 3402, 3790, 6100, 6830, 9063, 11399]}, "edge": {"target": [], "time": []}}, "mouseout": {"state": {"target": ["21", "22", "12", "0", "23", "31", "12", "1", "0", "21", "22", "22", "20"], "time": [948, 1004, 1172, 1732, 2358, 2473, 3296, 3766, 3799, 6545, 6958, 9597, 12831]}, "edge": {"target": [], "time": []}}}, "displayed_time": "19.04", "trialTime": 20576, "trial_type": "mouselab-mdp", "trial_index": 32, "time_elapsed": 598091, "internal_node_id": "0.0-6.0-1.0-17.0"}}, {"uniqueid": "w34470983:a24100349", "current_trial": 33, "dateTime": 1693835206893, "trialdata": {"revealed_states": [], "clicked_states": ["12", "1", "23", "10", "11", "9", "7", "6"], "num_clicks_accrued": [0, 0, 0, 0, 0, 0, 0, 0, 0, 0, 0, 0, 0], "stateRewards": ["", 2, -3, 5, 11, -79, 54, 11, -9, -78, 33, 22, -2, -1, 2, 14, 43, 34, 1, 10, 49, -65, 39, -1, 1, -1, 3, -16, -2, 11, 2, 12, 48, -65], "withholdReward": false, "trial_id": "mdp_trial_19", "block": "test", "trialIndex": 22, "score": 59, "costs": -10, "simulationMode": [null, null, null, null, null], "rewards": [2, -3, 5, 11, 54], "path": ["0", "0", "1", "2", "3", "4", "6"], "rt": [20793, 23, 2, 352, 211], "actions": ["up", "up", "up", "right", "right"], "actionTimes": [22121, 22647, 23153, 24013, 24727], "queries": {"click": {"state": {"target": ["12", "1", "23", "10", "11", "9", "7", "6"], "time": [2442, 3155, 3555, 4970, 8314, 11562, 15090, 18354]}, "edge": {"target": [], "time": []}}, "mouseover": {"state": {"target": ["12", "1", "23", "10", "11", "11", "9", "6", "7", "4", "5", "5", "6", "5"], "time": [2362, 3017, 3417, 4808, 5220, 8088, 10529, 11888, 14944, 15323, 15347, 15699, 17998, 20474]}, "edge": {"target": [], "time": []}}, "mouseout": {"state": {"target": ["20", "19", "0", "12", "1", "23", "23", "23", "10", "11", "11", "11", "9", "6", "7", "4", "5", "5", "6", "5", "4", "0"], "time": [942, 967, 1424, 2616, 3338, 3621, 3763, 4485, 5034, 5741, 8377, 8684, 11846, 11900, 15162, 15328, 15389, 15796, 18408, 25880, 25904, 25960]}, "edge": {"target": [], "time": []}}}, "displayed_time": "25.23", "trialTime": 26933, "trial_type": "mouselab-mdp", "trial_index": 33, "time_elapsed": 625148, "internal_node_id": "0.0-6.0-1.0-18.0"}}, {"uniqueid": "w34470983:a24100349", "current_trial": 34, "dateTime": 1693835225696, "trialdata": {"revealed_states": [], "clicked_states": ["1", "23", "12", "10", "20", "21"], "num_clicks_accrued": [0, 0, 0, 0, 0, 0, 0, 0, 0, 0, 0, 0, 0], "stateRewards": ["", 2, -4, -4, 13, -80, 62, 13, -11, 57, -13, -44, 1, 4, 3, -4, -29, -88, 15, 16, -58, 68, -45, -1, -3, -1, -9, -44, -86, -19, -7, -36, 59, 66], "withholdReward": false, "trial_id": "mdp_trial_20", "block": "test", "trialIndex": 23, "score": 86.3, "costs": -5.699999999999999, "simulationMode": [null, null, null, null, null], "rewards": [1, 4, 3, 16, 68], "path": ["0", "0", "12", "13", "14", "19", "21"], "rt": [12485, 18, 585, 87, 108], "actions": ["right", "right", "right", "down", "down"], "actionTimes": [13488, 14012, 15107, 15695, 16305], "queries": {"click": {"state": {"target": ["1", "23", "12", "10", "20", "21"], "time": [1473, 1801, 2202, 3385, 6745, 9914]}, "edge": {"target": [], "time": []}}, "mouseover": {"state": {"target": ["1", "23", "0", "12", "0", "10", "10", "11", "28", "19", "20", "20", "21", "21", "22"], "time": [1359, 1706, 1985, 2052, 2799, 3034, 3229, 4199, 4685, 4764, 4885, 6599, 7168, 9315, 11232]}, "edge": {"target": [], "time": []}}, "mouseout": {"state": {"target": ["23", "0", "1", "23", "0", "12", "12", "0", "10", "10", "11", "28", "12", "19", "20", "20", "21", "21", "22"], "time": [615, 1199, 1609, 1883, 2021, 2229, 2435, 2807, 3132, 3556, 4315, 4691, 4746, 4776, 5098, 7003, 7227, 10097, 13890]}, "edge": {"target": [], "time": []}}}, "displayed_time": "16.81", "trialTime": 18679, "trial_type": "mouselab-mdp", "trial_index": 34, "time_elapsed": 643951, "internal_node_id": "0.0-6.0-1.0-19.0"}}, {"uniqueid": "w34470983:a24100349", "current_trial": 35, "dateTime": 1693835249834, "trialdata": {"revealed_states": [], "clicked_states": ["23", "1", "12", "32", "11", "6", "16", "21"], "num_clicks_accrued": [0, 0, 0, 0, 0, 0, 0, 0, 0, 0, 0, 0, 0], "stateRewards": ["", 2, -2, -3, 10, -4, -1, -11, -8, -9, -36, -78, 2, 1, 7, -7, 44, -1, -31, -1, 26, 47, 83, 2, -4, -4, -6, -52, -76, -81, -1, -59, 45, 67], "withholdReward": false, "trial_id": "mdp_trial_21", "block": "test", "trialIndex": 24, "score": 46, "costs": -10, "simulationMode": [null, null, null, null, null], "rewards": [2, 1, 7, -1, 47], "path": ["0", "0", "12", "13", "14", "19", "21"], "rt": [18658, 233, 41, 19, 24], "actions": ["right", "right", "right", "down", "down"], "actionTimes": [19811, 20546, 21093, 21618, 22144], "queries": {"click": {"state": {"target": ["23", "1", "12", "32", "11", "6", "16", "21"], "time": [1599, 1992, 2783, 3983, 7199, 10207, 13247, 16503]}, "edge": {"target": [], "time": []}}, "mouseover": {"state": {"target": ["23", "23", "1", "12", "12", "31", "32", "33", "29", "27", "11", "11", "8", "3", "4", "6", "6", "16", "16", "15", "14", "21"], "time": [1253, 1485, 1799, 2262, 2654, 3625, 3807, 4426, 4626, 4736, 4857, 5118, 7448, 7490, 7521, 7575, 7921, 10761, 11997, 13534, 13576, 15409]}, "edge": {"target": [], "time": []}}, "mouseout": {"state": {"target": ["0", "23", "23", "1", "12", "12", "31", "32", "33", "29", "27", "11", "11", "8", "3", "4", "6", "6", "16", "16", "15", "14", "21", "21"], "time": [1213, 1325, 1714, 2199, 2302, 2946, 3686, 4202, 4475, 4663, 4802, 4905, 7430, 7472, 7515, 7551, 7727, 10567, 11022, 13504, 13558, 13601, 16559, 16768]}, "edge": {"target": [], "time": []}}}, "displayed_time": "22.65", "trialTime": 24015, "trial_type": "mouselab-mdp", "trial_index": 35, "time_elapsed": 668089, "internal_node_id": "0.0-6.0-1.0-20.0"}}, {"uniqueid": "w34470983:a24100349", "current_trial": 36, "dateTime": 1693835265758, "trialdata": {"revealed_states": [], "clicked_states": ["23", "1", "12", "33", "31"], "num_clicks_accrued": [0, 0, 0, 0, 0, 0, 0, 0, 0, 0, 0, 0, 0], "stateRewards": ["", 2, 4, 4, -8, -36, -33, 38, 16, -51, 57, 57, 1, 3, 4, -6, 45, 68, 87, 1, 63, 24, -55, -2, 2, -6, -13, -63, -50, 8, 2, 80, 6, 60], "withholdReward": false, "trial_id": "mdp_trial_22", "block": "test", "trialIndex": 25, "score": 72.45, "costs": -3.55, "simulationMode": [null, null, null, null, null], "rewards": [-2, 2, -6, 2, 80], "path": ["0", "0", "23", "24", "25", "30", "31"], "rt": [9299, 2, 18, 15, 25], "actions": ["left", "left", "left", "down", "right"], "actionTimes": [10546, 11051, 11576, 12102, 12627], "queries": {"click": {"state": {"target": ["23", "1", "12", "33", "31"], "time": [2047, 2487, 2935, 3904, 7159]}, "edge": {"target": [], "time": []}}, "mouseover": {"state": {"target": ["23", "1", "12", "32", "33", "29", "31"], "time": [1831, 2310, 2740, 3487, 3803, 4307, 6869]}, "edge": {"target": [], "time": []}}, "mouseout": {"state": {"target": ["0", "23", "1", "12", "12", "32", "33", "29", "33", "31"], "time": [1421, 2201, 2674, 3000, 3129, 3682, 4118, 4810, 6351, 7425]}, "edge": {"target": [], "time": []}}}, "displayed_time": "15.25", "trialTime": 15778, "trial_type": "mouselab-mdp", "trial_index": 36, "time_elapsed": 684013, "internal_node_id": "0.0-6.0-1.0-21.0"}}, {"uniqueid": "w34470983:a24100349", "current_trial": 37, "dateTime": 1693835292543, "trialdata": {"revealed_states": [], "clicked_states": ["23", "1", "12", "20", "31", "28", "17", "6"], "num_clicks_accrued": [0, 0, 0, 0, 0, 0, 0, 0, 0, 0, 0, 0, 0], "stateRewards": ["", -2, 2, 5, -14, -56, 64, 84, -5, 52, 39, 85, -2, 1, 7, 8, 21, 29, -78, -9, -10, -69, 10, -2, -1, -7, 15, 72, 20, 41, -2, 52, 80, 22], "withholdReward": false, "trial_id": "mdp_trial_23", "block": "test", "trialIndex": 26, "score": 45, "costs": -10, "simulationMode": [null, null, null, null, null], "rewards": [-2, 2, 5, -14, 64], "path": ["0", "0", "1", "2", "3", "4", "6"], "rt": [21268, 352, 170, 42, 127], "actions": ["up", "up", "up", "right", "right"], "actionTimes": [22112, 22973, 23647, 24192, 24823], "queries": {"click": {"state": {"target": ["23", "1", "12", "20", "31", "28", "17", "6"], "time": [1394, 1802, 2382, 4506, 8002, 11371, 14994, 18834]}, "edge": {"target": [], "time": []}}, "mouseover": {"state": {"target": ["23", "23", "1", "12", "21", "20", "21", "31", "23", "28", "22", "14", "17", "14", "12", "6", "12", "31"], "time": [1040, 1216, 1668, 2281, 4176, 4360, 4830, 7888, 10740, 11320, 14538, 14592, 14866, 15187, 18248, 18712, 19083, 19593]}, "edge": {"target": [], "time": []}}, "mouseout": {"state": {"target": ["0", "23", "23", "1", "12", "21", "20", "21", "31", "23", "28", "22", "14", "17", "14", "12", "6", "12", "31"], "time": [1016, 1098, 1480, 1979, 2572, 4288, 4745, 4872, 8209, 10792, 11638, 14552, 14744, 15157, 15212, 18257, 19004, 19089, 21904]}, "edge": {"target": [], "time": []}}}, "displayed_time": "25.33", "trialTime": 26630, "trial_type": "mouselab-mdp", "trial_index": 37, "time_elapsed": 710798, "internal_node_id": "0.0-6.0-1.0-22.0"}}, {"uniqueid": "w34470983:a24100349", "current_trial": 38, "dateTime": 1693835309056, "trialdata": {"revealed_states": [], "clicked_states": ["23", "1", "12", "31"], "num_clicks_accrued": [0, 0, 0, 0, 0, 0, 0, 0, 0, 0, 0, 0, 0], "stateRewards": ["", 1, 1, -3, 2, 22, -25, -11, -5, 50, 49, 3, 1, -1, 8, 14, -85, -30, 57, -6, -39, -16, 59, -2, -1, 5, 5, 59, -16, 8, 4, 67, 56, -9], "withholdReward": false, "trial_id": "mdp_trial_24", "block": "test", "trialIndex": 27, "score": 71.6, "costs": -1.4, "simulationMode": [null, null, null, null, null], "rewards": [-2, -1, 5, 4, 67], "path": ["0", "0", "23", "24", "25", "30", "31"], "rt": [6450, 46, 17, 38, 4], "actions": ["left", "left", "left", "down", "right"], "actionTimes": [7454, 8001, 8526, 9073, 9579], "queries": {"click": {"state": {"target": ["23", "1", "12", "31"], "time": [1754, 2133, 2589, 3932]}, "edge": {"target": [], "time": []}}, "mouseover": {"state": {"target": ["23", "1", "12", "31", "32", "33"], "time": [1600, 2019, 2396, 3808, 4276, 4805]}, "edge": {"target": [], "time": []}}, "mouseout": {"state": {"target": ["0", "0", "23", "1", "12", "31", "32", "33", "32"], "time": [512, 1128, 1910, 2347, 2984, 4173, 4659, 8275, 9908]}, "edge": {"target": [], "time": []}}}, "displayed_time": "15.00", "trialTime": 16383, "trial_type": "mouselab-mdp", "trial_index": 38, "time_elapsed": 727311, "internal_node_id": "0.0-6.0-1.0-23.0"}}, {"uniqueid": "w34470983:a24100349", "current_trial": 39, "dateTime": 1693835324876, "trialdata": {"revealed_states": [], "clicked_states": ["23", "1", "12", "11", "6"], "num_clicks_accrued": [0, 0, 0, 0, 0, 0, 0, 0, 0, 0, 0, 0, 0], "stateRewards": ["", -2, 2, -4, -4, -59, 88, 62, -3, 69, -15, -34, 1, -2, -5, 7, -54, -20, 78, -16, -74, -53, -21, 2, -4, 2, 13, -8, -44, 26, 9, 72, 4, 17], "withholdReward": false, "trial_id": "mdp_trial_25", "block": "test", "trialIndex": 28, "score": 76.45, "costs": -3.55, "simulationMode": [null, null, null, null, null], "rewards": [-2, 2, -4, -4, 88], "path": ["0", "0", "1", "2", "3", "4", "6"], "rt": [9675, 171, 107, 62, 66], "actions": ["up", "up", "up", "right", "right"], "actionTimes": [10402, 11075, 11684, 12252, 12820], "queries": {"click": {"state": {"target": ["23", "1", "12", "11", "6"], "time": [1279, 1951, 2615, 3480, 6663]}, "edge": {"target": [], "time": []}}, "mouseover": {"state": {"target": ["23", "1", "12", "10", "11", "10", "2", "7", "6", "18"], "time": [951, 1777, 2213, 3118, 3269, 3840, 4192, 4240, 6485, 7080]}, "edge": {"target": [], "time": []}}, "mouseout": {"state": {"target": ["0", "23", "1", "12", "10", "11", "10", "2", "7", "6", "18"], "time": [893, 1643, 2171, 2851, 3160, 3718, 4167, 4216, 4258, 6904, 7098]}, "edge": {"target": [], "time": []}}}, "displayed_time": "14.73", "trialTime": 15656, "trial_type": "mouselab-mdp", "trial_index": 39, "time_elapsed": 743130, "internal_node_id": "0.0-6.0-1.0-24.0"}}, {"uniqueid": "w34470983:a24100349", "current_trial": 40, "dateTime": 1693835342732, "trialdata": {"revealed_states": [], "clicked_states": ["1", "12", "23", "21", "16", "17"], "num_clicks_accrued": [0, 0, 0, 0, 0, 0, 0, 0, 0, 0, 0, 0, 0], "stateRewards": ["", 1, 2, 7, 13, 88, -71, 27, 3, 60, 5, -53, -2, 2, -6, -1, -30, 79, 47, -4, -14, 46, 68, 1, 1, 8, 10, -14, 86, 48, -11, -67, -44, 5], "withholdReward": false, "trial_id": "mdp_trial_26", "block": "test", "trialIndex": 29, "score": 66.3, "costs": -5.699999999999999, "simulationMode": [null, null, null, null, null], "rewards": [-2, 2, -6, -1, 79], "path": ["0", "0", "12", "13", "14", "15", "17"], "rt": [12488, 39, 89, 83, 41], "actions": ["right", "right", "right", "up", "right"], "actionTimes": [13690, 14236, 14825, 15414, 15960], "queries": {"click": {"state": {"target": ["1", "12", "23", "21", "16", "17"], "time": [1566, 2041, 2582, 3830, 7110, 10406]}, "edge": {"target": [], "time": []}}, "mouseover": {"state": {"target": ["1", "12", "0", "23", "19", "21", "17", "16", "15", "17"], "time": [1416, 1871, 2284, 2401, 3322, 3708, 4766, 4954, 7357, 10252]}, "edge": {"target": [], "time": []}}, "mouseout": {"state": {"target": ["23", "1", "12", "12", "0", "23", "19", "21", "17", "16", "15", "17", "20", "21"], "time": [924, 1768, 2048, 2230, 2366, 2958, 3510, 3932, 4800, 7332, 7369, 10621, 16884, 16932]}, "edge": {"target": [], "time": []}}}, "displayed_time": "16.46", "trialTime": 17703, "trial_type": "mouselab-mdp", "trial_index": 40, "time_elapsed": 760986, "internal_node_id": "0.0-6.0-1.0-25.0"}}, {"uniqueid": "w34470983:a24100349", "current_trial": 41, "dateTime": 1693835361409, "trialdata": {"revealed_states": [], "clicked_states": ["23", "1", "12", "31", "28", "33"], "num_clicks_accrued": [0, 0, 0, 0, 0, 0, 0, 0, 0, 0, 0, 0, 0], "stateRewards": ["", 2, -3, -8, 14, -7, -51, 73, 2, 36, 36, -43, -1, 3, -4, 1, 6, 87, -65, 15, 61, -42, -83, -1, 3, -2, -7, 30, -48, 35, 13, 26, 60, 78], "withholdReward": false, "trial_id": "mdp_trial_27", "block": "test", "trialIndex": 30, "score": 85.3, "costs": -5.699999999999999, "simulationMode": [null, null, null, null, null], "rewards": [-1, 3, -2, 13, 78], "path": ["0", "0", "23", "24", "25", "30", "33"], "rt": [12721, 149, 146, 85, 106], "actions": ["left", "left", "left", "down", "left"], "actionTimes": [13776, 14427, 15079, 15667, 16277], "queries": {"click": {"state": {"target": ["23", "1", "12", "31", "28", "33"], "time": [1552, 1935, 2323, 3615, 6736, 10055]}, "edge": {"target": [], "time": []}}, "mouseover": {"state": {"target": ["23", "1", "12", "31", "31", "31", "30", "25", "28", "24", "32", "33", "32"], "time": [1405, 1759, 2167, 3009, 3215, 3485, 3846, 4374, 4550, 7038, 9709, 9885, 10296]}, "edge": {"target": [], "time": []}}, "mouseout": {"state": {"target": ["0", "23", "1", "12", "31", "31", "31", "30", "25", "28", "28", "24", "31", "32", "33", "32"], "time": [1181, 1674, 2079, 2551, 3088, 3326, 3791, 3888, 4416, 6829, 7026, 7074, 7135, 9797, 10254, 10320]}, "edge": {"target": [], "time": []}}}, "displayed_time": "16.78", "trialTime": 18525, "trial_type": "mouselab-mdp", "trial_index": 41, "time_elapsed": 779663, "internal_node_id": "0.0-6.0-1.0-26.0"}}, {"uniqueid": "w34470983:a24100349", "current_trial": 42, "dateTime": 1693835387626, "trialdata": {"revealed_states": [], "clicked_states": ["23", "1", "12", "10", "5", "6", "7", "11", "9"], "num_clicks_accrued": [0, 0, 0, 0, 0, 0, 0, 0, 0, 0, 0, 0, 0], "stateRewards": ["", -2, -4, -2, 10, -8, -15, -47, 7, -84, 53, 5, -1, 2, -7, 3, 83, 31, 47, -1, 30, -8, 69, 2, -4, -1, 8, -7, 12, -8, -8, -13, 30, -84], "withholdReward": false, "trial_id": "mdp_trial_28", "block": "test", "trialIndex": 31, "score": 39.85, "costs": -12.15, "simulationMode": [null, null, null, null, null], "rewards": [-2, -4, -2, 7, 53], "path": ["0", "0", "1", "2", "3", "8", "10"], "rt": [21463, 102, 23, 62, 3], "actions": ["up", "up", "up", "left", "down"], "actionTimes": [22532, 23141, 23667, 24234, 24743], "queries": {"click": {"state": {"target": ["23", "1", "12", "10", "5", "6", "7", "11", "9"], "time": [1392, 1713, 2059, 3160, 6672, 9944, 13240, 16352, 19481]}, "edge": {"target": [], "time": []}}, "mouseover": {"state": {"target": ["23", "1", "12", "10", "10", "4", "5", "4", "4", "4", "6", "11", "2", "7", "7", "2", "10", "11", "9"], "time": [1270, 1623, 1900, 2520, 2988, 3698, 3929, 6987, 7618, 7866, 9806, 10519, 12035, 12072, 13126, 15185, 15306, 15877, 19319]}, "edge": {"target": [], "time": []}}, "mouseout": {"state": {"target": ["12", "0", "23", "1", "12", "1", "10", "10", "4", "5", "5", "4", "4", "4", "6", "11", "2", "7", "7", "2", "10", "11", "11", "9", "23"], "time": [590, 1174, 1471, 1856, 2392, 2439, 2770, 3401, 3795, 6775, 6945, 7017, 7641, 8255, 10296, 11957, 12060, 12139, 13480, 15233, 15324, 16592, 18783, 19711, 25278]}, "edge": {"target": [], "time": []}}}, "displayed_time": "25.25", "trialTime": 26063, "trial_type": "mouselab-mdp", "trial_index": 42, "time_elapsed": 805881, "internal_node_id": "0.0-6.0-1.0-27.0"}}, {"uniqueid": "w34470983:a24100349", "current_trial": 43, "dateTime": 1693835413234, "trialdata": {"revealed_states": [], "clicked_states": ["1", "12", "23", "22", "18", "17", "20", "21"], "num_clicks_accrued": [0, 0, 0, 0, 0, 0, 0, 0, 0, 0, 0, 0, 0], "stateRewards": ["", -1, -1, 4, -16, -75, 81, -51, -7, -84, 73, -30, -2, 1, -3, -16, -77, 33, 14, 1, 45, 87, -66, 2, 2, -5, -7, -19, -17, 79, -3, 8, 49, 47], "withholdReward": false, "trial_id": "mdp_trial_29", "block": "test", "trialIndex": 32, "score": 74, "costs": -10, "simulationMode": [null, null, null, null, null], "rewards": [-2, 1, -3, 1, 87], "path": ["0", "0", "12", "13", "14", "19", "21"], "rt": [20103, 438, 107, 82, 173], "actions": ["right", "right", "right", "down", "down"], "actionTimes": [21211, 22158, 22767, 23355, 24028], "queries": {"click": {"state": {"target": ["1", "12", "23", "22", "18", "17", "20", "21"], "time": [2186, 2539, 2987, 4410, 7530, 11210, 14426, 17914]}, "edge": {"target": [], "time": []}}, "mouseover": {"state": {"target": ["10", "1", "1", "12", "23", "22", "13", "18", "15", "17", "20", "21", "20"], "time": [1640, 1864, 2040, 2526, 2849, 3764, 4638, 7249, 7787, 11049, 14304, 17776, 20968]}, "edge": {"target": [], "time": []}}, "mouseout": {"state": {"target": ["0", "10", "1", "1", "12", "23", "22", "13", "18", "15", "17", "20", "21", "20", "21"], "time": [1344, 1809, 1904, 2302, 2609, 3173, 4613, 4662, 7769, 7794, 11375, 14698, 18163, 21519, 24808]}, "edge": {"target": [], "time": []}}}, "displayed_time": "24.53", "trialTime": 25457, "trial_type": "mouselab-mdp", "trial_index": 43, "time_elapsed": 831488, "internal_node_id": "0.0-6.0-1.0-28.0"}}, {"uniqueid": "w34470983:a24100349", "current_trial": 44, "dateTime": 1693835474300, "trialdata": {"revealed_states": [], "clicked_states": ["23", "1", "12", "22", "21", "16", "18", "7", "17", "20", "6", "5", "10", "11", "9", "29", "27", "28", "31"], "num_clicks_accrued": [0, 0, 0, 0, 0, 0, 0, 0, 0, 0, 0, 0, 0], "stateRewards": ["", 2, -1, -3, 16, -3, -16, -62, -1, 13, -26, 43, -1, 4, 3, -9, -54, -37, -3, -12, -71, -68, -57, 1, -3, 2, -9, 2, -2, -9, -11, 84, -52, 55], "withholdReward": false, "trial_id": "mdp_trial_30", "block": "test", "trialIndex": 33, "score": 39.35000000000001, "costs": -33.64999999999999, "simulationMode": [null, null, null, null, null], "rewards": [1, -3, 2, -11, 84], "path": ["0", "0", "23", "24", "25", "30", "31"], "rt": [55608, 398, 105, 45, 45], "actions": ["left", "left", "left", "down", "right"], "actionTimes": [56316, 57219, 57829, 58376, 58922], "queries": {"click": {"state": {"target": ["23", "1", "12", "22", "21", "16", "18", "7", "17", "20", "6", "5", "10", "11", "9", "29", "27", "28", "31"], "time": [1024, 1361, 1727, 3089, 6376, 9896, 12968, 16664, 19848, 23000, 26432, 29536, 32816, 36064, 39464, 43136, 46219, 49384, 52680]}, "edge": {"target": [], "time": []}}, "mouseover": {"state": {"target": ["23", "1", "12", "13", "22", "21", "21", "19", "14", "15", "16", "18", "15", "17", "7", "18", "15", "17", "20", "15", "6", "4", "5", "4", "2", "10", "11", "9", "26", "29", "27", "28", "23", "31", "32"], "time": [862, 1275, 1551, 2555, 2934, 3307, 6270, 8908, 9035, 9366, 9655, 12560, 13258, 13307, 16574, 19168, 19199, 19742, 22934, 26078, 26286, 28337, 28428, 29890, 32614, 32670, 35950, 39302, 42726, 42990, 44058, 49182, 49689, 52486, 54847]}, "edge": {"target": [], "time": []}}, "mouseout": {"state": {"target": ["0", "23", "1", "12", "13", "22", "21", "21", "19", "14", "15", "16", "18", "15", "17", "7", "18", "15", "17", "20", "15", "6", "4", "5", "4", "2", "10", "11", "9", "26", "29", "27", "28", "28", "23", "31", "32"], "time": [774, 1154, 1513, 1963, 2713, 3259, 3314, 8841, 8968, 9222, 9534, 12251, 13228, 13289, 13328, 16960, 19193, 19217, 20060, 23313, 26102, 26777, 28355, 29848, 29921, 32622, 33088, 36274, 39696, 42814, 43330, 46753, 49481, 49665, 49696, 53130, 56102]}, "edge": {"target": [], "time": []}}}, "displayed_time": "59.42", "trialTime": 60897, "trial_type": "mouselab-mdp", "trial_index": 44, "time_elapsed": 892554, "internal_node_id": "0.0-6.0-1.0-29.0"}}, {"uniqueid": "w34470983:a24100349", "current_trial": 45, "dateTime": 1693835498606, "trialdata": {"revealed_states": [], "clicked_states": ["23", "1", "12", "32", "11", "5", "17", "22"], "num_clicks_accrued": [0, 0, 0, 0, 0, 0, 0, 0, 0, 0, 0, 0, 0], "stateRewards": ["", 2, 4, 7, -6, -76, -81, 2, 5, -66, -3, 36, -2, -4, 6, -2, -69, 4, -49, -6, 67, 38, -67, 2, 1, 1, 6, -68, -21, 52, -16, -16, 6, -70], "withholdReward": false, "trial_id": "mdp_trial_31", "block": "test", "trialIndex": 34, "score": 44, "costs": -10, "simulationMode": [null, null, null, null, null], "rewards": [2, 4, 7, 5, 36], "path": ["0", "0", "1", "2", "3", "8", "11"], "rt": [18893, 296, 84, 83, 188], "actions": ["up", "up", "up", "left", "left"], "actionTimes": [20059, 20859, 21447, 22035, 22729], "queries": {"click": {"state": {"target": ["23", "1", "12", "32", "11", "5", "17", "22"], "time": [1465, 1825, 2189, 2915, 6025, 9953, 13506, 16865]}, "edge": {"target": [], "time": []}}, "mouseover": {"state": {"target": ["23", "1", "1", "12", "32", "33", "29", "27", "11", "27", "26", "28", "10", "4", "5", "4", "2", "24", "30", "33", "13", "15", "17", "14", "22", "22"], "time": [1343, 1685, 1758, 2048, 2796, 3179, 3681, 3760, 3833, 6229, 9247, 9282, 9399, 9495, 9743, 10186, 10241, 10392, 10544, 10756, 13087, 13287, 13392, 13729, 13768, 16575]}, "edge": {"target": [], "time": []}}, "mouseout": {"state": {"target": ["0", "23", "1", "1", "12", "32", "33", "29", "27", "11", "27", "26", "28", "10", "4", "5", "5", "4", "2", "24", "30", "33", "13", "15", "17", "14", "22", "22"], "time": [1263, 1600, 1715, 1992, 2409, 3028, 3444, 3736, 3796, 6169, 6296, 9257, 9335, 9431, 9536, 10015, 10156, 10210, 10248, 10435, 10556, 10822, 13177, 13298, 13705, 13754, 13796, 17018]}, "edge": {"target": [], "time": []}}}, "displayed_time": "23.23", "trialTime": 24116, "trial_type": "mouselab-mdp", "trial_index": 45, "time_elapsed": 916860, "internal_node_id": "0.0-6.0-1.0-30.0"}}, {"uniqueid": "w34470983:a24100349", "current_trial": 46, "dateTime": 1693835514783, "trialdata": {"revealed_states": [], "clicked_states": ["23", "1", "12", "33"], "num_clicks_accrued": [0, 0, 0, 0, 0, 0, 0, 0, 0, 0, 0, 0, 0], "stateRewards": ["", -2, 3, -5, -7, 66, 43, -60, -4, -70, -75, 4, -1, 2, 2, -13, 54, 11, -40, -1, 77, 32, 15, -2, 3, -8, -9, -35, 83, -27, 6, -74, -34, 44], "withholdReward": false, "trial_id": "mdp_trial_32", "block": "test", "trialIndex": 35, "score": 41.6, "costs": -1.4, "simulationMode": [null, null, null, null, null], "rewards": [-2, 3, -8, 6, 44], "path": ["0", "0", "23", "24", "25", "30", "33"], "rt": [6869, 104, 212, 147, 87], "actions": ["left", "left", "left", "down", "left"], "actionTimes": [8107, 8717, 9432, 10083, 10672], "queries": {"click": {"state": {"target": ["23", "1", "12", "33"], "time": [2188, 2568, 3012, 4365]}, "edge": {"target": [], "time": []}}, "mouseover": {"state": {"target": ["31", "23", "1", "12", "32", "33", "32", "31", "24", "28"], "time": [1883, 2034, 2424, 2884, 4066, 4194, 4741, 5033, 5112, 5803]}, "edge": {"target": [], "time": []}}, "mouseout": {"state": {"target": ["0", "31", "23", "1", "1", "12", "32", "33", "32", "31", "24", "28", "24"], "time": [1459, 1907, 2332, 2646, 2836, 3201, 4138, 4675, 4755, 5053, 5337, 10997, 11194]}, "edge": {"target": [], "time": []}}}, "displayed_time": "15.24", "trialTime": 16008, "trial_type": "mouselab-mdp", "trial_index": 46, "time_elapsed": 933038, "internal_node_id": "0.0-6.0-1.0-31.0"}}, {"uniqueid": "w34470983:a24100349", "current_trial": 47, "dateTime": 1693835531191, "trialdata": {"revealed_states": [], "clicked_states": ["23", "1", "12", "31", "32", "33"], "num_clicks_accrued": [0, 0, 0, 0, 0, 0, 0, 0, 0, 0, 0, 0, 0], "stateRewards": ["", 1, -1, 4, 5, -32, 18, 20, 6, -88, -74, 9, -2, 1, -2, -14, 34, -77, -38, -1, 80, -36, 73, 2, 3, -8, 10, -48, -73, -71, -11, -22, 20, 54], "withholdReward": false, "trial_id": "mdp_trial_33", "block": "test", "trialIndex": 36, "score": 34.3, "costs": -5.699999999999999, "simulationMode": [null, null, null, null, null], "rewards": [2, 3, -8, -11, 54], "path": ["0", "0", "23", "24", "25", "30", "33"], "rt": [11720, 83, 129, 23, 3], "actions": ["left", "left", "left", "down", "left"], "actionTimes": [12457, 13045, 13676, 14201, 14709], "queries": {"click": {"state": {"target": ["23", "1", "12", "31", "32", "33"], "time": [1108, 1429, 1838, 2868, 5924, 9061]}, "edge": {"target": [], "time": []}}, "mouseover": {"state": {"target": ["23", "1", "12", "31", "30", "29", "33", "32", "33", "29", "25"], "time": [923, 1312, 1708, 2819, 3268, 3420, 4629, 5722, 6478, 10998, 12346]}, "edge": {"target": [], "time": []}}, "mouseout": {"state": {"target": ["0", "23", "1", "12", "31", "30", "29", "33", "32", "33", "29", "25"], "time": [866, 1223, 1645, 2024, 3110, 3286, 4495, 4773, 6144, 10300, 12283, 12371]}, "edge": {"target": [], "time": []}}}, "displayed_time": "15.22", "trialTime": 16240, "trial_type": "mouselab-mdp", "trial_index": 47, "time_elapsed": 949446, "internal_node_id": "0.0-6.0-1.0-32.0"}}, {"uniqueid": "w34470983:a24100349", "current_trial": 48, "dateTime": 1693835557156, "trialdata": {"revealed_states": [], "clicked_states": ["23", "1", "12", "21", "16", "18", "17", "20"], "num_clicks_accrued": [0, 0, 0, 0, 0, 0, 0, 0, 0, 0, 0, 0, 0], "stateRewards": ["", -2, -3, 4, 1, 33, -53, 15, 9, -12, 61, -6, -2, 4, 6, -11, 47, -43, -7, -11, 46, 23, -28, -1, -1, 3, -10, 11, 76, -76, 10, 18, -38, 87], "withholdReward": false, "trial_id": "mdp_trial_34", "block": "test", "trialIndex": 37, "score": 34, "costs": -10, "simulationMode": [null, null, null, null, null], "rewards": [-2, 4, 6, -11, 47], "path": ["0", "0", "12", "13", "14", "15", "16"], "rt": [20735, 318, 46, 46, 173], "actions": ["right", "right", "right", "up", "up"], "actionTimes": [21545, 22365, 22912, 23458, 24131], "queries": {"click": {"state": {"target": ["23", "1", "12", "21", "16", "18", "17", "20"], "time": [1461, 1791, 2151, 3493, 6934, 11062, 14158, 17318]}, "edge": {"target": [], "time": []}}, "mouseover": {"state": {"target": ["23", "23", "1", "12", "21", "20", "19", "13", "15", "16", "13", "18", "17", "20", "21"], "time": [939, 1308, 1670, 2052, 3272, 3813, 4376, 6356, 6588, 6796, 7199, 10932, 12671, 16916, 17654]}, "edge": {"target": [], "time": []}}, "mouseout": {"state": {"target": ["0", "23", "23", "1", "1", "12", "12", "21", "20", "19", "13", "15", "16", "13", "18", "17", "20", "21", "22"], "time": [916, 1059, 1574, 1876, 1959, 2246, 2326, 3734, 4250, 4396, 6436, 6692, 7108, 7224, 11314, 14462, 17534, 17662, 22557]}, "edge": {"target": [], "time": []}}}, "displayed_time": "24.63", "trialTime": 25790, "trial_type": "mouselab-mdp", "trial_index": 48, "time_elapsed": 975411, "internal_node_id": "0.0-6.0-1.0-33.0"}}, {"uniqueid": "w34470983:a24100349", "current_trial": 49, "dateTime": 1693835573587, "trialdata": {"revealed_states": [], "clicked_states": ["23", "1", "12", "6"], "num_clicks_accrued": [0, 0, 0, 0, 0, 0, 0, 0, 0, 0, 0, 0, 0], "stateRewards": ["", 1, 3, 3, -10, 52, 68, 59, 12, 7, 49, 21, -2, -3, -4, -2, -2, 63, 63, -4, 44, 43, -76, -2, -3, -6, 13, 48, 36, 12, -5, -36, -33, -11], "withholdReward": false, "trial_id": "mdp_trial_35", "block": "test", "trialIndex": 38, "score": 63.6, "costs": -1.4, "simulationMode": [null, null, null, null, null], "rewards": [1, 3, 3, -10, 68], "path": ["0", "0", "1", "2", "3", "4", "6"], "rt": [5821, 25, 3, 18, 565], "actions": ["up", "up", "up", "right", "right"], "actionTimes": [6938, 7465, 7970, 8494, 9569], "queries": {"click": {"state": {"target": ["23", "1", "12", "6"], "time": [1577, 1867, 2451, 3673]}, "edge": {"target": [], "time": []}}, "mouseover": {"state": {"target": ["23", "1", "12", "20", "16", "6", "5", "9", "11", "27", "11"], "time": [1399, 1777, 2340, 2888, 3216, 3599, 3937, 4241, 4472, 5552, 6583]}, "edge": {"target": [], "time": []}}, "mouseout": {"state": {"target": ["0", "23", "1", "12", "20", "16", "6", "5", "9", "11", "27", "11", "25", "25", "31"], "time": [1335, 1698, 2119, 2681, 2906, 3257, 3841, 4169, 4303, 4720, 5855, 9580, 10132, 10255, 10319]}, "edge": {"target": [], "time": []}}}, "displayed_time": "15.12", "trialTime": 16248, "trial_type": "mouselab-mdp", "trial_index": 49, "time_elapsed": 991842, "internal_node_id": "0.0-6.0-1.0-34.0"}}, {"uniqueid": "w34470983:a24100349", "current_trial": 50, "dateTime": 1693835589069, "trialdata": {"revealed_states": [], "clicked_states": ["23", "1", "12", "22", "21"], "num_clicks_accrued": [0, 0, 0, 0, 0, 0, 0, 0, 0, 0, 0, 0, 0], "stateRewards": ["", -2, 2, 8, -6, -25, 3, 87, 2, -62, -2, 74, -2, -1, 2, -1, 79, 49, -37, -14, 5, 67, -9, -1, 2, -2, 5, 15, 38, 32, -14, -38, -38, 30], "withholdReward": false, "trial_id": "mdp_trial_36", "block": "test", "trialIndex": 39, "score": 48.45, "costs": -3.55, "simulationMode": [null, null, null, null, null], "rewards": [-2, -1, 2, -14, 67], "path": ["0", "0", "12", "13", "14", "19", "21"], "rt": [8775, 295, 52, 170, 3], "actions": ["right", "right", "right", "down", "down"], "actionTimes": [9537, 10336, 10904, 11576, 12083], "queries": {"click": {"state": {"target": ["23", "1", "12", "22", "21"], "time": [1171, 1454, 1783, 2644, 6107]}, "edge": {"target": [], "time": []}}, "mouseover": {"state": {"target": ["23", "1", "12", "22", "21"], "time": [1041, 1320, 1662, 2569, 5945]}, "edge": {"target": [], "time": []}}, "mouseout": {"state": {"target": ["0", "23", "1", "12", "22", "21"], "time": [993, 1252, 1601, 1969, 2777, 6292]}, "edge": {"target": [], "time": []}}}, "displayed_time": "14.76", "trialTime": 15316, "trial_type": "mouselab-mdp", "trial_index": 50, "time_elapsed": 1007324, "internal_node_id": "0.0-6.0-1.0-35.0"}}, {"uniqueid": "w34470983:a24100349", "current_trial": 51, "dateTime": 1693835604973, "trialdata": {"revealed_states": [], "clicked_states": ["8", "26", "30", "19", "15", "12", "1", "23", "17"], "num_clicks_accrued": [0, 0, 0, 0, 0, 0, 0, 0, 0, 0, 0, 0, 0], "stateRewards": ["", 1, -1, 8, 4, 76, -33, -17, -3, -1, -54, -74, -2, 2, -5, 13, -51, 63, 83, 1, 84, 29, -36, 2, -1, 7, -12, -10, -44, -43, -14, 8, -69, 19], "withholdReward": false, "trial_id": "mdp_trial_37", "block": "test", "trialIndex": 40, "score": 61.85, "costs": -9.15, "simulationMode": [null, null, null, null, null], "rewards": [-2, 2, -5, 13, 63], "path": ["0", "0", "12", "13", "14", "15", "17"], "rt": [10158, 3, 3, 57, 44], "actions": ["right", "right", "right", "up", "right"], "actionTimes": [11368, 11872, 12382, 12945, 13491], "queries": {"click": {"state": {"target": ["8", "26", "30", "19", "15", "12", "1", "23", "17"], "time": [1749, 2949, 3688, 4495, 5013, 6501, 6886, 7290, 7997]}, "edge": {"target": [], "time": []}}, "mouseover": {"state": {"target": ["1", "10", "8", "24", "25", "26", "25", "30", "30", "31", "13", "19", "14", "15", "14", "22", "12", "1", "23", "13", "17", "15", "18"], "time": [1259, 1379, 1467, 2277, 2574, 2671, 3182, 3260, 3472, 3884, 4221, 4375, 4669, 4820, 5223, 5272, 6339, 6663, 7181, 7542, 7887, 8256, 8372]}, "edge": {"target": [], "time": []}}, "mouseout": {"state": {"target": ["0", "1", "10", "8", "24", "25", "26", "25", "30", "30", "31", "13", "19", "14", "15", "14", "22", "12", "1", "23", "13", "15", "17", "15", "18"], "time": [946, 1275, 1395, 1973, 2443, 2606, 3143, 3228, 3446, 3804, 3909, 4278, 4573, 4748, 5209, 5237, 5288, 6597, 7048, 7380, 7551, 7786, 8199, 8332, 13830]}, "edge": {"target": [], "time": []}}}, "displayed_time": "15.21", "trialTime": 15718, "trial_type": "mouselab-mdp", "trial_index": 51, "time_elapsed": 1023228, "internal_node_id": "0.0-6.0-1.0-36.0"}}, {"uniqueid": "w34470983:a24100349", "current_trial": 52, "dateTime": 1693835622768, "trialdata": {"revealed_states": [], "clicked_states": ["12", "1", "23", "15", "17", "16", "18"], "num_clicks_accrued": [0, 0, 0, 0, 0, 0, 0, 0, 0, 0, 0, 0, 0], "stateRewards": ["", 1, 1, -2, 7, -31, -6, 76, 1, -36, -16, -53, 2, 1, 7, 13, -47, -10, 47, -7, 72, 46, -56, -2, -2, -2, 11, -80, 44, 38, 16, 67, 85, -78], "withholdReward": false, "trial_id": "mdp_trial_38", "block": "test", "trialIndex": 41, "score": 62.75, "costs": -7.25, "simulationMode": [null, null, null, null, null], "rewards": [2, 1, 7, 13, 47], "path": ["0", "0", "12", "13", "14", "15", "18"], "rt": [12736, 377, 64, 35, 41], "actions": ["right", "right", "right", "up", "left"], "actionTimes": [13454, 14336, 14903, 15450, 15997], "queries": {"click": {"state": {"target": ["12", "1", "23", "15", "17", "16", "18"], "time": [1366, 1743, 2435, 3054, 4076, 7190, 10286]}, "edge": {"target": [], "time": []}}, "mouseover": {"state": {"target": ["12", "1", "23", "18", "15", "14", "19", "17", "16", "16", "18", "18", "12"], "time": [908, 1599, 2171, 2836, 2964, 3242, 3349, 3880, 4444, 5885, 7917, 9954, 10653]}, "edge": {"target": [], "time": []}}, "mouseout": {"state": {"target": ["0", "12", "1", "23", "18", "15", "14", "19", "17", "16", "16", "18", "18", "12"], "time": [572, 1460, 1889, 2590, 2892, 3216, 3292, 3783, 4183, 4981, 7462, 8183, 10462, 10741]}, "edge": {"target": [], "time": []}}}, "displayed_time": "16.51", "trialTime": 17595, "trial_type": "mouselab-mdp", "trial_index": 52, "time_elapsed": 1041023, "internal_node_id": "0.0-6.0-1.0-37.0"}}, {"uniqueid": "w34470983:a24100349", "current_trial": 53, "dateTime": 1693835639658, "trialdata": {"revealed_states": [], "clicked_states": ["12", "1", "23", "19", "15", "30", "26", "8", "4", "10", "9"], "num_clicks_accrued": [0, 0, 0, 0, 0, 0, 0, 0, 0, 0, 0, 0, 0], "stateRewards": ["", -1, 2, -2, 5, 80, -61, -27, 12, 44, -26, -75, -2, -4, 1, -16, 42, -49, -50, 4, -44, 2, 80, -2, -2, 5, -2, 59, 10, 24, 7, -48, -86, -44], "withholdReward": false, "trial_id": "mdp_trial_39", "block": "test", "trialIndex": 42, "score": 42.15, "costs": -12.850000000000001, "simulationMode": [null, null, null, null, null], "rewards": [-1, 2, -2, 12, 44], "path": ["0", "0", "1", "2", "3", "8", "9"], "rt": [12307, 81, 45, 68, 17], "actions": ["up", "up", "up", "left", "up"], "actionTimes": [13034, 13621, 14168, 14735, 15262], "queries": {"click": {"state": {"target": ["12", "1", "23", "19", "15", "30", "26", "8", "4", "10", "9"], "time": [1072, 1403, 1785, 2664, 3272, 4104, 4722, 5408, 5947, 6609, 9720]}, "edge": {"target": [], "time": []}}, "mouseover": {"state": {"target": ["12", "1", "23", "22", "19", "14", "15", "15", "14", "13", "31", "30", "25", "26", "11", "8", "3", "4", "3", "10", "11", "9", "11", "11"], "time": [854, 1260, 1690, 2118, 2422, 2872, 2928, 3120, 3602, 3645, 3849, 4017, 4338, 4547, 5131, 5282, 5586, 5815, 6223, 6471, 6825, 7233, 10050, 12847]}, "edge": {"target": [], "time": []}}, "mouseout": {"state": {"target": ["0", "12", "1", "23", "22", "19", "14", "15", "15", "15", "14", "13", "31", "30", "25", "26", "11", "8", "3", "4", "4", "3", "10", "11", "9", "11", "11", "23"], "time": [743, 1167, 1631, 1971, 2163, 2824, 2894, 2975, 3338, 3408, 3628, 3654, 3905, 4249, 4392, 4867, 5184, 5550, 5687, 6008, 6156, 6326, 6746, 7152, 9903, 10145, 15783, 16054]}, "edge": {"target": [], "time": []}}}, "displayed_time": "15.77", "trialTime": 16711, "trial_type": "mouselab-mdp", "trial_index": 53, "time_elapsed": 1057913, "internal_node_id": "0.0-6.0-1.0-38.0"}}, {"uniqueid": "w34470983:a24100349", "current_trial": 54, "dateTime": 1693835661570, "trialdata": {"revealed_states": [], "clicked_states": ["23", "1", "12", "30", "31", "32", "33", "26", "29"], "num_clicks_accrued": [0, 0, 0, 0, 0, 0, 0, 0, 0, 0, 0, 0, 0], "stateRewards": ["", -2, -3, -3, 9, 79, 67, 22, -15, -56, 27, -85, -2, 4, -4, -15, -20, -32, 60, 15, 71, 57, 17, 1, 2, -8, 15, -37, -81, 82, 15, 21, -3, 2], "withholdReward": false, "trial_id": "mdp_trial_40", "block": "test", "trialIndex": 43, "score": 81.05, "costs": -10.950000000000001, "simulationMode": [null, null, null, null, null], "rewards": [1, 2, -8, 15, 82], "path": ["0", "0", "23", "24", "25", "26", "29"], "rt": [17086, 83, 84, 105, 422], "actions": ["left", "left", "left", "up", "left"], "actionTimes": [17691, 18278, 18867, 19477, 20401], "queries": {"click": {"state": {"target": ["23", "1", "12", "30", "31", "32", "33", "26", "29"], "time": [1119, 1362, 1704, 2791, 3625, 6815, 9911, 13815, 14396]}, "edge": {"target": [], "time": []}}, "mouseover": {"state": {"target": ["23", "1", "12", "31", "30", "25", "26", "25", "31", "31", "32", "32", "33", "25", "26", "29", "27"], "time": [997, 1264, 1648, 2273, 2663, 2973, 3010, 3224, 3336, 3457, 3820, 6629, 7350, 13117, 13597, 14296, 14742]}, "edge": {"target": [], "time": []}}, "mouseout": {"state": {"target": ["0", "23", "1", "12", "31", "30", "25", "26", "25", "31", "31", "32", "32", "33", "33", "25", "26", "29", "27", "24"], "time": [925, 1168, 1498, 1942, 2474, 2943, 3002, 3209, 3254, 3351, 3762, 4786, 7007, 10238, 13053, 13134, 14076, 14513, 20093, 20160]}, "edge": {"target": [], "time": []}}}, "displayed_time": "20.91", "trialTime": 21725, "trial_type": "mouselab-mdp", "trial_index": 54, "time_elapsed": 1079825, "internal_node_id": "0.0-6.0-1.0-39.0"}}, {"uniqueid": "w34470983:a24100349", "current_trial": 55, "dateTime": 1693835692017, "trialdata": {"rt": 30444, "response": {"Q0": "$-2 to $2", "Q1": "$-16 to $16", "Q2": "$-88 to $88", "Q3": "The cost for clicking on nodes varied between nodes.", "Q4": "Slightly motivated"}, "question_order": [0, 1, 2, 3, 4], "trial_id": "final_quiz_control", "trial_type": "survey-multi-choice", "trial_index": 55, "time_elapsed": 1110271, "internal_node_id": "0.0-6.0-2.0"}}, {"uniqueid": "w34470983:a24100349", "current_trial": 56, "dateTime": 1693835853617, "trialdata": {"rt": 161596, "response": {"Q0": "Closed nodes always rewarded. Checked furthest, went to anything 50+. Started checking the 4th nodes at the end too.", "Q1": "Checked all 3 of the closest nodes every time as they always gave rewards. Checked the furthest nodes, and began going to any above 500 rather thatnc ontinuing to check. Began checking the 4th nodes too at the end.", "Q2": "Not too hard, it took a few tries to work out what was worth doing and what wasn't. "}, "trial_id": "self_report_control", "trial_type": "survey-text", "trial_index": 56, "time_elapsed": 1271871, "internal_node_id": "0.0-6.0-3.0"}}, {"uniqueid": "w34470983:a24100349", "current_trial": 57, "dateTime": 1693835877761, "trialdata": {"rt": 24142, "response": {"Q0": "Strongly agree", "Q1": "Strongly agree", "Q2": "Strongly disagree", "Q3": "Strongly disagree", "Q4": "Strongly agree", "Q5": "Strongly disagree", "Q6": "Strongly agree"}, "question_order": [0, 1, 2, 3, 4, 5, 6], "trial_id": "self_report_2", "trial_type": "survey-multi-choice", "trial_index": 57, "time_elapsed": 1296016, "internal_node_id": "0.0-6.0-4.0"}}, {"uniqueid": "w34470983:a24100349", "current_trial": 58, "dateTime": 1693835896313, "trialdata": {"rt": 18549, "response": {"gender": "male", "age": "22", "colorblind": "0", "effort": "0"}, "trial_type": "survey-html-form", "trial_index": 58, "time_elapsed": 1314568, "internal_node_id": "0.0-6.0-5.0"}}, {"uniqueid": "w34470983:a24100349", "current_trial": 59, "dateTime": 1693835925353, "trialdata": {"rt": 29037, "response": {"Q0": "Nope, everything was pretty well explained.", "Q1": "No.", "Q2": ""}, "trial_type": "survey-text", "trial_index": 59, "time_elapsed": 1343608, "internal_node_id": "0.0-6.0-6.0"}}, {"uniqueid": "w34470983:a24100349", "current_trial": 60, "dateTime": 1693835937417, "trialdata": {"rt": 12062, "stimulus": "<h1>Completion Code Instructions (1/2)</h1>\n<br><br><br><br>\nYou have reached the end of the experiment! The completion code consists of two parts: (1) a code with 2 characters (2) a code with 6 characters. On this page, you will receive the second part of the code. The first part of the completion code will be on the next page.\n<br><br>\nThe second part of your completion code is: <b>EWEK22</b>\n<br><br>\nPlease note this down. Then, press 'Next' in order to find the first part of your completion code. Once the data has been saved, you will receive this code either in this window or in the original browser window where you started the experiment.\n <br><br>\n<h2 style='color: red;'>Note: this is <strong>NOT</strong> the full completion code. Copy this down and click 'Next' to get the full completion code on the next page.</h2>", "response": 0, "trial_type": "html-button-response", "trial_index": 60, "time_elapsed": 1355672, "internal_node_id": "0.0-6.0-7.0"}}, {"uniqueid": "w34470983:a24100349", "current_trial": 61, "dateTime": 1693835938419, "trialdata": {"success": true, "trial_type": "fullscreen", "trial_index": 61, "time_elapsed": 1356674, "internal_node_id": "0.0-7.0"}}], "questiondata": {"params": {"CODE": "C6DMOQA6", "MIN_TIME": 14, "inspectCost": 1, "startTime": "Mon Sep 04 2023 14:36:21 GMT+0100 (British Summer Time)", "bonusRate": 0.002, "variance": "1_2_4_8_44", "branching": "31123"}}, "eventdata": [{"eventtype": "initialized", "value": null, "timestamp": 1693834580814, "interval": 0}, {"eventtype": "window_resize", "value": [1024, 767], "timestamp": 1693834580814, "interval": 0}, {"eventtype": "window_resize", "value": [1024, 767], "timestamp": 1693834581127, "interval": 313}, {"eventtype": "window_resize", "value": [2560, 1440], "timestamp": 1693834585359, "interval": 4232}, {"eventtype": "focus", "value": "off", "timestamp": 1693834718840, "interval": 133481}, {"eventtype": "focus", "value": "on", "timestamp": 1693834718840, "interval": 0}, {"eventtype": "window_resize", "value": [1024, 767], "timestamp": 1693834719045, "interval": 205}, {"eventtype": "window_resize", "value": [2560, 1440], "timestamp": 1693834720500, "interval": 1455}, {"eventtype": "window_resize", "value": [1024, 767], "timestamp": 1693835937635, "interval": 1217135}], "useragent": "Mozilla/5.0 (Windows NT 10.0; Win64; x64) AppleWebKit/537.36 (KHTML, like Gecko) Chrome/116.0.0.0 Safari/537.36", "mode": "live", "id": "w34470983:a24100349", "status": "user data saved", "Beginhit": "2023-09-04 13:36:19.271189", "Beginexp": "2023-09-04 13:36:25.586225", "Endhit": "2023-09-04 13:58:58.533726", "psiturkStatus": 3, "browser": "<redacted>", "platform": "windows", "language": "en-GB", "excludeReason": "invalidClickStrats"}