{"condition": 1, "counterbalance": 0, "assignmentId": "a17817859", "workerId": "w70722510", "hitId": "h67026518", "currenttrial": 56, "bonus": 0, "data": [{"uniqueid": "w70722510:a17817859", "current_trial": 0, "dateTime": 1691070512788, "trialdata": {"success": true, "trial_type": "fullscreen", "trial_index": 0, "time_elapsed": 3239, "internal_node_id": "0.0-0.0"}}, {"uniqueid": "w70722510:a17817859", "current_trial": 1, "dateTime": 1691070525885, "trialdata": {"view_history": [{"page_index": 0, "viewing_time": 13094}], "rt": 13095, "trial_id": "exp_instructions_misaligned", "trial_type": "instructions", "trial_index": 1, "time_elapsed": 16336, "internal_node_id": "0.0-1.0"}}, {"uniqueid": "w70722510:a17817859", "current_trial": 2, "dateTime": 1691070528174, "trialdata": {"success": true, "trial_type": "fullscreen", "trial_index": 2, "time_elapsed": 18625, "internal_node_id": "0.0-2.0-0.0"}}, {"uniqueid": "w70722510:a17817859", "current_trial": 3, "dateTime": 1691070661097, "trialdata": {"view_history": [{"page_index": 0, "viewing_time": 38186}, {"page_index": 1, "viewing_time": 46298}, {"page_index": 2, "viewing_time": 20605}, {"page_index": 3, "viewing_time": 27832}], "rt": 132922, "trial_id": "mouselab_instructions_1_misaligned", "trial_type": "instructions", "trial_index": 3, "time_elapsed": 151548, "internal_node_id": "0.0-2.0-1.0"}}, {"uniqueid": "w70722510:a17817859", "current_trial": 4, "dateTime": 1691070680376, "trialdata": {"revealed_states": [], "clicked_states": ["29", "5", "17"], "num_clicks_accrued": [0, 0, 0, 0, 0, 0, 0, 0, 0, 0, 0, 0, 0], "stateRewards": ["", -10, -10, -10, 10, -10, 10, -10, -10, -10, -10, -10, -10, 10, 10, 10, 10, 10, -10, 10, 10, 10, 10, 10, -10, -10, 10, 10, 10, -10, 10, 10, -10, -10], "withholdReward": false, "trial_id": "practice_1", "block": "test", "trialIndex": 0, "score": 32, "costs": -1.5, "simulationMode": [null, null, null, null, null], "rewards": [-10, 10, 10, 10, 10], "path": ["0", "0", "12", "13", "14", "15", "17"], "rt": [11288, 278, 101, 50, 630], "actions": ["right", "right", "right", "up", "right"], "actionTimes": [13842, 14617, 15216, 15763, 16892], "queries": {"click": {"state": {"target": ["29", "5", "17"], "time": [6653, 8284, 9606]}, "edge": {"target": [], "time": []}}, "mouseover": {"state": {"target": ["23", "24", "29", "26", "28", "10", "2", "4", "5", "6", "17"], "time": [3477, 3504, 3553, 7560, 7587, 7636, 7657, 7705, 8078, 9122, 9414]}, "edge": {"target": [], "time": []}}, "mouseout": {"state": {"target": ["12", "0", "23", "24", "29", "26", "28", "10", "2", "4", "5", "6", "17"], "time": [615, 1150, 3490, 3511, 7539, 7581, 7608, 7643, 7671, 7803, 9101, 9136, 9942]}, "edge": {"target": [], "time": []}}}, "displayed_time": "17.39", "trialTime": 19037, "trial_type": "mouselab-mdp", "trial_index": 4, "time_elapsed": 170827, "internal_node_id": "0.0-2.0-2.0-0.0"}}, {"uniqueid": "w70722510:a17817859", "current_trial": 5, "dateTime": 1691070693492, "trialdata": {"revealed_states": [], "clicked_states": ["14", "21"], "num_clicks_accrued": [0, 0, 0, 0, 0, 0, 0, 0, 0, 0, 0, 0, 0], "stateRewards": ["", 10, -10, 10, 10, -10, -10, -10, 10, -10, 10, -10, -10, 10, 10, -10, -10, -10, -10, -10, 10, 10, 10, -10, 10, -10, -10, -10, -10, 10, -10, -10, 10, 10], "withholdReward": false, "trial_id": "practice_2", "block": "test", "trialIndex": 1, "score": 12.5, "costs": -1, "simulationMode": [null, null, null, null, null], "rewards": [-10, 10, 10, -10, 10], "path": ["0", "0", "12", "13", "14", "19", "21"], "rt": [5621, 72, 482, 81, 70], "actions": ["right", "right", "right", "down", "down"], "actionTimes": [8210, 8781, 9759, 10339, 10910], "queries": {"click": {"state": {"target": ["14", "21"], "time": [3116, 4559]}, "edge": {"target": [], "time": []}}, "mouseover": {"state": {"target": ["12", "13", "14", "20", "21", "20", "17"], "time": [2715, 2756, 3000, 3847, 4278, 5416, 5590]}, "edge": {"target": [], "time": []}}, "mouseout": {"state": {"target": ["18", "23", "0", "12", "13", "14", "20", "21", "20", "17"], "time": [1819, 2083, 2687, 2743, 2784, 3298, 4077, 4764, 5444, 7097]}, "edge": {"target": [], "time": []}}}, "displayed_time": "11.42", "trialTime": 13017, "trial_type": "mouselab-mdp", "trial_index": 5, "time_elapsed": 183943, "internal_node_id": "0.0-2.0-2.0-1.0"}}, {"uniqueid": "w70722510:a17817859", "current_trial": 6, "dateTime": 1691070705106, "trialdata": {"view_history": [{"page_index": 0, "viewing_time": 9415}, {"page_index": 1, "viewing_time": 2197}], "rt": 11612, "trial_id": "mouselab_instructions_2_misaligned", "trial_type": "instructions", "trial_index": 6, "time_elapsed": 195557, "internal_node_id": "0.0-2.0-3.0"}}, {"uniqueid": "w70722510:a17817859", "current_trial": 7, "dateTime": 1691070727263, "trialdata": {"rt": 22155, "response": {"Q0": "The cost for clicking on nodes may vary between nodes.", "Q1": "The better I perform the higher my bonus will be.", "Q2": "No, the amount of cash at each node of the web may be different each time.", "Q3": "To get the highest total score.", "Q4": "Only before moving the spider.", "Q5": "3 seconds"}, "question_order": [0, 1, 2, 3, 4, 5], "correct": {"Q0": "The cost for clicking on nodes may vary between nodes.", "Q1": "The better I perform the higher my bonus will be.", "Q2": "No, the amount of cash at each node of the web may be different each time.", "Q3": "To get the highest total score.", "Q4": "Only before moving the spider.", "Q5": "3 seconds"}, "trial_id": "mouselab_quiz_misaligned", "trial_type": "survey-multi-choice", "trial_index": 7, "time_elapsed": 217714, "internal_node_id": "0.0-2.0-4.0"}}, {"uniqueid": "w70722510:a17817859", "current_trial": 8, "dateTime": 1691070731876, "trialdata": {"rt": 4610, "stimulus": "\n<h1> Get ready to start the game! </h1>\n\nThank you for reading the instructions. Get ready start with the 40 rounds of this game.\n<br><br>\nIf you need to take a break, feel free to take one after the end of a round, before continuing to the next one.\n<br><br>\nRemember, the more money the spider gets, the bigger your bonus will be!\n<br><br>\n<div style='text-align: center;'>Press <code>space</code> to begin.</div>\n\n<br><br>\n(If, at any point, the <code>space</code> key does not take you to the next page, click once on the text and try again.)", "response": " ", "trial_id": "mdp_ready", "trial_type": "html-keyboard-response", "trial_index": 8, "time_elapsed": 222327, "internal_node_id": "0.0-4.0-0.0"}}, {"uniqueid": "w70722510:a17817859", "current_trial": 9, "dateTime": 1691070748211, "trialdata": {"revealed_states": [], "clicked_states": ["17", "9", "21"], "num_clicks_accrued": [0, 0, 0, 0, 0, 0, 0, 0, 0, 0, 0, 0, 0], "stateRewards": ["", -2, -3, 1, -14, 48, -49, 67, -1, -35, -48, 3, -2, 1, -4, -5, 86, -84, 39, 1, 48, 41, -42, -1, -4, 2, -7, 18, -86, 17, 7, -9, 57, -69], "withholdReward": false, "trial_id": "mdp_trial_1", "block": "test", "trialIndex": 2, "score": 30.55, "costs": -6.449999999999999, "simulationMode": [null, null, null, null, null], "rewards": [-2, 1, -4, 1, 41], "path": ["0", "0", "12", "13", "14", "19", "21"], "rt": [10654, 131, 66, 456, 105], "actions": ["right", "right", "right", "down", "down"], "actionTimes": [11989, 12619, 13185, 14137, 14745], "queries": {"click": {"state": {"target": ["17", "9", "21"], "time": [3210, 6325, 9163]}, "edge": {"target": [], "time": []}}, "mouseover": {"state": {"target": ["18", "15", "17", "17", "14", "18", "2", "3", "9", "9", "4", "7", "18", "14", "20", "21", "21", "31", "25", "29"], "time": [2750, 2771, 2806, 3105, 3570, 3618, 3674, 3723, 3896, 4598, 6917, 6958, 7146, 7701, 7910, 8118, 8966, 9917, 10111, 10292]}, "edge": {"target": [], "time": []}}, "mouseout": {"state": {"target": ["6", "18", "15", "17", "17", "14", "18", "2", "3", "9", "9", "4", "7", "18", "14", "20", "21", "21", "21", "31", "25"], "time": [889, 2757, 2792, 2959, 3466, 3598, 3625, 3695, 3750, 4396, 6618, 6931, 7049, 7167, 7750, 8043, 8722, 9514, 9694, 10014, 10153]}, "edge": {"target": [], "time": []}}}, "displayed_time": "15.34", "trialTime": 16232, "trial_type": "mouselab-mdp", "trial_index": 9, "time_elapsed": 238662, "internal_node_id": "0.0-4.0-1.0-0.0"}}, {"uniqueid": "w70722510:a17817859", "current_trial": 10, "dateTime": 1691070764790, "trialdata": {"revealed_states": [], "clicked_states": ["21", "9", "33"], "num_clicks_accrued": [0, 0, 0, 0, 0, 0, 0, 0, 0, 0, 0, 0, 0], "stateRewards": ["", 2, -1, -3, 16, -3, -16, -62, -1, 13, -26, 43, -1, 4, 3, -9, -54, -37, -3, -12, -71, -68, -57, 1, -3, 2, -9, 2, -2, -9, -11, 84, -52, 55], "withholdReward": false, "trial_id": "mdp_trial_2", "block": "test", "trialIndex": 3, "score": 37.55, "costs": -6.449999999999999, "simulationMode": [null, null, null, null, null, null], "rewards": [1, -3, 2, -11, 55], "path": ["0", "0", "23", "24", "25", "30", "33"], "rt": [9564, 518, 74, 10, 752, 129], "actions": ["left", "left", "left", "left", "down", "left"], "actionTimes": [11132, 11651, 12242, 12766, 14022, 14649], "queries": {"click": {"state": {"target": ["21", "9", "33"], "time": [2304, 6330, 9636]}, "edge": {"target": [], "time": []}}, "mouseover": {"state": {"target": ["12", "19", "21", "17", "16", "6", "5", "9", "9", "3", "2", "13", "12", "0", "23", "24", "25", "33", "30", "30", "33", "30", "31"], "time": [1853, 1915, 1978, 3270, 4394, 4464, 4686, 6012, 6228, 6741, 6860, 7117, 7436, 7512, 7547, 7596, 7651, 8728, 9096, 9297, 9373, 9804, 9853]}, "edge": {"target": [], "time": []}}, "mouseout": {"state": {"target": ["29", "26", "28", "23", "0", "12", "19", "21", "17", "16", "6", "5", "9", "9", "3", "2", "13", "12", "0", "23", "24", "25", "33", "30", "30", "33", "30"], "time": [1089, 1130, 1151, 1185, 1839, 1873, 1950, 2464, 4367, 4422, 4575, 5950, 6047, 6582, 6818, 6908, 7152, 7484, 7533, 7575, 7630, 7686, 9068, 9200, 9346, 9783, 9832]}, "edge": {"target": [], "time": []}}}, "displayed_time": "15.57", "trialTime": 16482, "trial_type": "mouselab-mdp", "trial_index": 10, "time_elapsed": 255241, "internal_node_id": "0.0-4.0-1.0-1.0"}}, {"uniqueid": "w70722510:a17817859", "current_trial": 11, "dateTime": 1691070780721, "trialdata": {"revealed_states": [], "clicked_states": ["29"], "num_clicks_accrued": [0, 0, 0, 0, 0, 0, 0, 0, 0, 0, 0, 0, 0], "stateRewards": ["", 2, 2, 3, -15, 23, -14, 73, -7, -32, -20, -6, 1, 1, -5, -12, 73, 6, -84, 11, -81, -57, 13, -2, -1, -4, -8, -52, -58, 49, 13, 5, -41, -41], "withholdReward": false, "trial_id": "mdp_trial_3", "block": "test", "trialIndex": 4, "score": 31.85, "costs": -2.15, "simulationMode": [null, null, null, null, null], "rewards": [-2, -1, -4, -8, 49], "path": ["0", "0", "23", "24", "25", "26", "29"], "rt": [5094, 138, 83, 337, 110], "actions": ["left", "left", "left", "up", "left"], "actionTimes": [6545, 7179, 7763, 8600, 9207], "queries": {"click": {"state": {"target": ["29"], "time": [2183]}, "edge": {"target": [], "time": []}}, "mouseover": {"state": {"target": ["23", "29", "26", "28", "28", "2", "3", "9"], "time": [1714, 2013, 2492, 2617, 2929, 3047, 3207, 3644]}, "edge": {"target": [], "time": []}}, "mouseout": {"state": {"target": ["31", "23", "23", "29", "26", "28", "28", "2", "3"], "time": [895, 1089, 1728, 2457, 2547, 2763, 2964, 3116, 3349]}, "edge": {"target": [], "time": []}}}, "displayed_time": "15.45", "trialTime": 15830, "trial_type": "mouselab-mdp", "trial_index": 11, "time_elapsed": 271172, "internal_node_id": "0.0-4.0-1.0-2.0"}}, {"uniqueid": "w70722510:a17817859", "current_trial": 12, "dateTime": 1691070797943, "trialdata": {"revealed_states": [], "clicked_states": ["17"], "num_clicks_accrued": [0, 0, 0, 0, 0, 0, 0, 0, 0, 0, 0, 0, 0], "stateRewards": ["", 2, -3, -8, 14, -7, -51, 73, 2, 36, 36, -43, -1, 3, -4, 1, 6, 87, -65, 15, 61, -42, -83, -1, 3, -2, -7, 30, -48, 35, 13, 26, 60, 78], "withholdReward": false, "trial_id": "mdp_trial_4", "block": "test", "trialIndex": 5, "score": 83.85, "costs": -2.15, "simulationMode": [null, null, null, null, null], "rewards": [-1, 3, -4, 1, 87], "path": ["0", "0", "12", "13", "14", "15", "17"], "rt": [8208, 746, 588, 596, 739], "actions": ["right", "right", "right", "up", "right"], "actionTimes": [9719, 10965, 12050, 13148, 14389], "queries": {"click": {"state": {"target": ["17"], "time": [4111]}, "edge": {"target": [], "time": []}}, "mouseover": {"state": {"target": ["12", "13", "17", "7", "2", "26", "29", "29"], "time": [1829, 1878, 4017, 4900, 4941, 5288, 5447, 7961]}, "edge": {"target": [], "time": []}}, "mouseout": {"state": {"target": ["9", "4", "7", "0", "0", "12", "13", "17", "7", "2", "26", "29", "29"], "time": [885, 954, 996, 1072, 1795, 1857, 1906, 4392, 4927, 4954, 5322, 6427, 8031]}, "edge": {"target": [], "time": []}}}, "displayed_time": "15.51", "trialTime": 17119, "trial_type": "mouselab-mdp", "trial_index": 12, "time_elapsed": 288393, "internal_node_id": "0.0-4.0-1.0-3.0"}}, {"uniqueid": "w70722510:a17817859", "current_trial": 13, "dateTime": 1691070814971, "trialdata": {"revealed_states": [], "clicked_states": ["11", "31", "20"], "num_clicks_accrued": [0, 0, 0, 0, 0, 0, 0, 0, 0, 0, 0, 0, 0], "stateRewards": ["", -2, 1, -5, 2, -68, 80, 33, 10, 67, -59, 20, -1, -3, 3, 14, 74, -2, 24, -16, 63, 80, 46, -1, 4, 6, 12, 83, -38, -43, -4, 43, 14, -79], "withholdReward": false, "trial_id": "mdp_trial_5", "block": "test", "trialIndex": 6, "score": 39.55, "costs": -6.449999999999999, "simulationMode": [null, null, null, null, null], "rewards": [-1, -3, 3, -16, 63], "path": ["0", "0", "12", "13", "14", "19", "20"], "rt": [11723, 147, 206, 57, 8], "actions": ["right", "right", "right", "down", "right"], "actionTimes": [13141, 13785, 14490, 15049, 15555], "queries": {"click": {"state": {"target": ["11", "31", "20"], "time": [2834, 6646, 9927]}, "edge": {"target": [], "time": []}}, "mouseover": {"state": {"target": ["10", "11", "10", "2", "1", "23", "24", "31", "21", "20"], "time": [1797, 2107, 3749, 3797, 4742, 5443, 6013, 6242, 8457, 8714]}, "edge": {"target": [], "time": []}}, "mouseout": {"state": {"target": ["26", "28", "1", "10", "11", "10", "2", "1", "23", "24", "31", "31", "21", "20"], "time": [936, 964, 1054, 1846, 3707, 3770, 3811, 5291, 5971, 6145, 6755, 7068, 8603, 10290]}, "edge": {"target": [], "time": []}}}, "displayed_time": "16.06", "trialTime": 16928, "trial_type": "mouselab-mdp", "trial_index": 13, "time_elapsed": 305422, "internal_node_id": "0.0-4.0-1.0-4.0"}}, {"uniqueid": "w70722510:a17817859", "current_trial": 14, "dateTime": 1691070833235, "trialdata": {"revealed_states": [], "clicked_states": ["29", "5", "17"], "num_clicks_accrued": [0, 0, 0, 0, 0, 0, 0, 0, 0, 0, 0, 0, 0], "stateRewards": ["", 1, -4, -6, -1, -21, 17, -72, 10, 77, 67, -46, -1, 4, -2, 14, -66, -49, -45, -15, -52, 23, -67, 2, -2, -2, 15, -3, 45, -64, 5, -44, 83, 61], "withholdReward": false, "trial_id": "mdp_trial_6", "block": "test", "trialIndex": 7, "score": 2.5500000000000007, "costs": -6.449999999999999, "simulationMode": [null, null, null, null, null], "rewards": [-1, 4, -2, -15, 23], "path": ["0", "0", "12", "13", "14", "19", "21"], "rt": [12229, 21, 127, 459, 177], "actions": ["right", "right", "right", "down", "down"], "actionTimes": [13774, 14293, 14934, 15891, 16567], "queries": {"click": {"state": {"target": ["29", "5", "17"], "time": [2289, 6011, 9857]}, "edge": {"target": [], "time": []}}, "mouseover": {"state": {"target": ["23", "24", "29", "26", "28", "7", "6", "5", "16", "17"], "time": [1793, 1820, 2112, 2487, 2522, 2751, 2959, 5668, 9223, 9751]}, "edge": {"target": [], "time": []}}, "mouseout": {"state": {"target": ["20", "19", "12", "0", "23", "24", "29", "26", "28", "7", "6", "5", "16", "17"], "time": [938, 952, 1167, 1779, 1813, 1827, 2466, 2515, 2542, 2765, 3063, 6216, 9695, 10251]}, "edge": {"target": [], "time": []}}}, "displayed_time": "17.06", "trialTime": 18160, "trial_type": "mouselab-mdp", "trial_index": 14, "time_elapsed": 323686, "internal_node_id": "0.0-4.0-1.0-5.0"}}, {"uniqueid": "w70722510:a17817859", "current_trial": 15, "dateTime": 1691070849351, "trialdata": {"revealed_states": [], "clicked_states": ["33", "5"], "num_clicks_accrued": [0, 0, 0, 0, 0, 0, 0, 0, 0, 0, 0, 0, 0], "stateRewards": ["", -1, -3, 1, 13, -64, -29, 12, -4, -33, 50, 56, 2, -3, 4, 11, -64, -58, -55, 12, 47, 38, -25, -2, 2, 5, -15, 85, 7, 84, 10, 8, 57, 26], "withholdReward": false, "trial_id": "mdp_trial_7", "block": "test", "trialIndex": 8, "score": 36.7, "costs": -4.3, "simulationMode": [null, null, null, null, null], "rewards": [-2, 2, 5, 10, 26], "path": ["0", "0", "23", "24", "25", "30", "33"], "rt": [7756, 168, 88, 169, 373], "actions": ["left", "left", "left", "down", "left"], "actionTimes": [9136, 9801, 10388, 11067, 11937], "queries": {"click": {"state": {"target": ["33", "5"], "time": [2209, 5997]}, "edge": {"target": [], "time": []}}, "mouseover": {"state": {"target": ["23", "24", "25", "33", "30", "23", "0", "12", "18", "6", "4", "5"], "time": [1584, 1618, 1646, 1910, 2487, 2549, 2563, 2584, 3028, 3799, 3862, 4063]}, "edge": {"target": [], "time": []}}, "mouseout": {"state": {"target": ["17", "15", "0", "23", "24", "25", "33", "30", "23", "0", "12", "18", "6", "4", "5", "18", "13", "22"], "time": [945, 959, 1563, 1605, 1632, 1688, 2459, 2501, 2556, 2577, 2917, 3049, 3834, 3931, 6389, 15368, 15389, 15410]}, "edge": {"target": [], "time": []}}}, "displayed_time": "15.38", "trialTime": 16019, "trial_type": "mouselab-mdp", "trial_index": 15, "time_elapsed": 339801, "internal_node_id": "0.0-4.0-1.0-6.0"}}, {"uniqueid": "w70722510:a17817859", "current_trial": 16, "dateTime": 1691070865067, "trialdata": {"revealed_states": [], "clicked_states": ["27"], "num_clicks_accrued": [0, 0, 0, 0, 0, 0, 0, 0, 0, 0, 0, 0, 0], "stateRewards": ["", 2, -1, 5, 8, 75, -35, -77, 1, -9, -81, -58, 1, 2, -7, 5, 77, -16, 19, 16, -10, -18, 40, -2, 3, 7, -5, 64, 1, -62, 10, 27, 10, 65], "withholdReward": false, "trial_id": "mdp_trial_8", "block": "test", "trialIndex": 9, "score": 64.85, "costs": -2.15, "simulationMode": [null, null, null, null, null], "rewards": [-2, 3, 7, -5, 64], "path": ["0", "0", "23", "24", "25", "26", "27"], "rt": [4695, 162, 126, 10, 401], "actions": ["left", "left", "left", "up", "up"], "actionTimes": [5773, 6435, 7058, 7566, 8472], "queries": {"click": {"state": {"target": ["27"], "time": [2024]}, "edge": {"target": [], "time": []}}, "mouseover": {"state": {"target": ["27", "27", "10", "2", "7", "15"], "time": [1591, 1827, 2306, 2341, 2591, 5251]}, "edge": {"target": [], "time": []}}, "mouseout": {"state": {"target": ["22", "19", "22", "0", "27", "27", "10", "2", "7", "15"], "time": [528, 674, 750, 1181, 1632, 2257, 2327, 2375, 2625, 5292]}, "edge": {"target": [], "time": []}}}, "displayed_time": "15.08", "trialTime": 15617, "trial_type": "mouselab-mdp", "trial_index": 16, "time_elapsed": 355518, "internal_node_id": "0.0-4.0-1.0-7.0"}}, {"uniqueid": "w70722510:a17817859", "current_trial": 17, "dateTime": 1691070881519, "trialdata": {"revealed_states": [], "clicked_states": ["21"], "num_clicks_accrued": [0, 0, 0, 0, 0, 0, 0, 0, 0, 0, 0, 0, 0], "stateRewards": ["", 2, -1, 8, -2, -16, 69, -39, -7, -13, -27, -86, 2, -2, 2, 13, -34, -16, -20, -5, 19, 81, 32, -2, -1, 2, -14, 20, 80, 58, 4, 70, 12, 73], "withholdReward": false, "trial_id": "mdp_trial_9", "block": "test", "trialIndex": 10, "score": 75.85, "costs": -2.15, "simulationMode": [null, null, null, null, null], "rewards": [2, -2, 2, -5, 81], "path": ["0", "0", "12", "13", "14", "19", "21"], "rt": [4431, 86, 62, 33, 85], "actions": ["right", "right", "right", "down", "down"], "actionTimes": [6392, 6979, 7539, 8072, 8659], "queries": {"click": {"state": {"target": ["21"], "time": [2661]}, "edge": {"target": [], "time": []}}, "mouseover": {"state": {"target": ["22", "19", "21", "20", "13", "2", "3", "9"], "time": [2295, 2343, 2503, 3045, 3094, 3489, 3531, 3739]}, "edge": {"target": [], "time": []}}, "mouseout": {"state": {"target": ["13", "12", "0", "22", "19", "21", "20", "13", "2", "3", "9"], "time": [968, 1642, 2205, 2323, 2462, 2738, 3066, 3107, 3510, 3698, 3802]}, "edge": {"target": [], "time": []}}}, "displayed_time": "15.96", "trialTime": 16351, "trial_type": "mouselab-mdp", "trial_index": 17, "time_elapsed": 371970, "internal_node_id": "0.0-4.0-1.0-8.0"}}, {"uniqueid": "w70722510:a17817859", "current_trial": 18, "dateTime": 1691070897953, "trialdata": {"revealed_states": [], "clicked_states": ["29"], "num_clicks_accrued": [0, 0, 0, 0, 0, 0, 0, 0, 0, 0, 0, 0, 0], "stateRewards": ["", 2, -2, 7, -11, -76, -65, -23, 16, -58, 30, 81, 1, 2, 7, 14, 9, 55, -2, 6, 11, -15, 31, -1, -1, -3, 2, 15, 2, 46, 15, 18, 45, -34], "withholdReward": false, "trial_id": "mdp_trial_10", "block": "test", "trialIndex": 11, "score": 40.85, "costs": -2.15, "simulationMode": [null, null, null, null, null], "rewards": [-1, -1, -3, 2, 46], "path": ["0", "0", "23", "24", "25", "26", "29"], "rt": [4407, 55, 75, 5, 2263], "actions": ["left", "left", "left", "up", "left"], "actionTimes": [5749, 6302, 6877, 7384, 10155], "queries": {"click": {"state": {"target": ["29"], "time": [1937]}, "edge": {"target": [], "time": []}}, "mouseover": {"state": {"target": ["28", "27", "29"], "time": [1468, 1495, 1669]}, "edge": {"target": [], "time": []}}, "mouseout": {"state": {"target": ["9", "9", "3", "1", "28", "27", "29", "6"], "time": [593, 738, 773, 1009, 1475, 1516, 3016, 9426]}, "edge": {"target": [], "time": []}}}, "displayed_time": "15.34", "trialTime": 16325, "trial_type": "mouselab-mdp", "trial_index": 18, "time_elapsed": 388404, "internal_node_id": "0.0-4.0-1.0-9.0"}}, {"uniqueid": "w70722510:a17817859", "current_trial": 19, "dateTime": 1691070916615, "trialdata": {"revealed_states": [], "clicked_states": ["6", "32", "11"], "num_clicks_accrued": [0, 0, 0, 0, 0, 0, 0, 0, 0, 0, 0, 0, 0], "stateRewards": ["", 2, 4, 7, -6, -76, -81, 2, 5, -66, -3, 36, -2, -4, 6, -2, -69, 4, -49, -6, 67, 38, -67, 2, 1, 1, 6, -68, -21, 52, -16, -16, 6, -70], "withholdReward": false, "trial_id": "mdp_trial_11", "block": "test", "trialIndex": 12, "score": 8.55, "costs": -6.449999999999999, "simulationMode": [null, null, null, null, null], "rewards": [2, 4, 7, 5, -3], "path": ["0", "0", "1", "2", "3", "8", "10"], "rt": [12929, 438, 199, 62, 39], "actions": ["up", "up", "up", "left", "down"], "actionTimes": [13978, 14915, 15614, 16178, 16718], "queries": {"click": {"state": {"target": ["6", "32", "11"], "time": [1632, 5803, 9240]}, "edge": {"target": [], "time": []}}, "mouseover": {"state": {"target": ["1", "7", "6", "16", "7", "2", "28", "25", "30", "32", "1", "10", "11", "8", "9"], "time": [1276, 1324, 1515, 2137, 4775, 4796, 4928, 5331, 5428, 5603, 6387, 6831, 8553, 11748, 12595]}, "edge": {"target": [], "time": []}}, "mouseout": {"state": {"target": ["6", "4", "7", "0", "1", "7", "6", "16", "7", "2", "28", "25", "30", "32", "1", "10", "11", "8"], "time": [366, 581, 673, 900, 1282, 1338, 1852, 4720, 4789, 4810, 4998, 5381, 5498, 6011, 6428, 7032, 9734, 11893]}, "edge": {"target": [], "time": []}}}, "displayed_time": "17.21", "trialTime": 18545, "trial_type": "mouselab-mdp", "trial_index": 19, "time_elapsed": 407065, "internal_node_id": "0.0-4.0-1.0-10.0"}}, {"uniqueid": "w70722510:a17817859", "current_trial": 20, "dateTime": 1691070934335, "trialdata": {"revealed_states": [], "clicked_states": ["32", "5", "17"], "num_clicks_accrued": [0, 0, 0, 0, 0, 0, 0, 0, 0, 0, 0, 0, 0], "stateRewards": ["", -1, -4, 8, 8, -68, 47, 24, -7, -61, 49, -69, -1, -1, 8, -7, 42, 1, -45, -11, 10, -63, -6, 1, 4, 6, -16, 79, -37, -58, -12, 81, 18, -53], "withholdReward": false, "trial_id": "mdp_trial_12", "block": "test", "trialIndex": 13, "score": -1.4499999999999993, "costs": -6.449999999999999, "simulationMode": [null, null, null, null, null, null], "rewards": [-1, -1, 8, -11, 10], "path": ["0", "0", "12", "13", "14", "19", "20"], "rt": [11504, 610, 51, 103, 2, 595], "actions": ["right", "right", "right", "right", "down", "right"], "actionTimes": [13223, 13834, 14385, 14986, 15488, 16596], "queries": {"click": {"state": {"target": ["32", "5", "17"], "time": [3422, 7013, 10598]}, "edge": {"target": [], "time": []}}, "mouseover": {"state": {"target": ["0", "32", "22", "19", "17", "16", "5", "17"], "time": [2868, 3299, 5459, 5792, 6176, 6466, 6903, 10521]}, "edge": {"target": [], "time": []}}, "mouseout": {"state": {"target": ["9", "6", "18", "0", "0", "32", "22", "19", "17", "16", "5", "17"], "time": [937, 993, 1069, 1986, 2882, 3646, 5576, 5965, 6347, 6472, 7243, 10682]}, "edge": {"target": [], "time": []}}}, "displayed_time": "17.10", "trialTime": 17616, "trial_type": "mouselab-mdp", "trial_index": 20, "time_elapsed": 424786, "internal_node_id": "0.0-4.0-1.0-11.0"}}, {"uniqueid": "w70722510:a17817859", "current_trial": 21, "dateTime": 1691071019261, "trialdata": {"revealed_states": [], "clicked_states": ["29"], "num_clicks_accrued": [0, 0, 0, 0, 0, 0, 0, 0, 0, 0, 0, 0, 0], "stateRewards": ["", 1, -3, 4, 13, -72, 52, 5, 5, -58, 5, 14, 2, 1, 3, -14, -86, -4, 73, 6, -58, -50, 49, 2, -3, -4, 2, 33, -41, 42, -11, 81, 45, 53], "withholdReward": false, "trial_id": "mdp_trial_13", "block": "test", "trialIndex": 14, "score": 36.85, "costs": -2.15, "simulationMode": [null, null, null, null, null], "rewards": [2, -3, -4, 2, 42], "path": ["0", "0", "23", "24", "25", "26", "29"], "rt": [5161, 199, 100, 80, 1], "actions": ["left", "left", "left", "up", "left"], "actionTimes": [7063, 7759, 8362, 8938, 9436], "queries": {"click": {"state": {"target": ["29"], "time": [3253]}, "edge": {"target": [], "time": []}}, "mouseover": {"state": {"target": ["0", "0", "23", "24", "25", "29", "26", "28"], "time": [2141, 2670, 2747, 2802, 2948, 3129, 4906, 4955]}, "edge": {"target": [], "time": []}}, "mouseout": {"state": {"target": ["14", "13", "12", "0", "0", "23", "24", "25", "29", "26", "28", "25", "24"], "time": [1253, 1420, 1559, 2462, 2726, 2781, 2809, 2997, 4871, 4934, 4990, 84752, 84780]}, "edge": {"target": [], "time": []}}}, "displayed_time": "15.90", "trialTime": 84817, "trial_type": "mouselab-mdp", "trial_index": 21, "time_elapsed": 509712, "internal_node_id": "0.0-4.0-1.0-12.0"}}, {"uniqueid": "w70722510:a17817859", "current_trial": 22, "dateTime": 1691071039514, "trialdata": {"revealed_states": [], "clicked_states": ["20"], "num_clicks_accrued": [0, 0, 0, 0, 0, 0, 0, 0, 0, 0, 0, 0, 0], "stateRewards": ["", -2, -4, 2, 10, -17, 18, 73, 11, -32, 23, -13, -2, -4, 7, 12, -25, 66, -23, 15, 40, -76, -9, 1, 2, -7, -5, -20, 24, 3, -5, 16, -73, 70], "withholdReward": false, "trial_id": "mdp_trial_14", "block": "test", "trialIndex": 15, "score": 53.85, "costs": -2.15, "simulationMode": [null, null, null, null, null], "rewards": [-2, -4, 7, 15, 40], "path": ["0", "0", "12", "13", "14", "19", "20"], "rt": [4809, 236, 61, 390, 271], "actions": ["right", "right", "right", "down", "right"], "actionTimes": [5527, 6265, 6833, 7724, 8494], "queries": {"click": {"state": {"target": ["20"], "time": [1392]}, "edge": {"target": [], "time": []}}, "mouseover": {"state": {"target": ["12", "22", "19", "20", "15", "4", "3"], "time": [868, 931, 993, 1334, 2625, 4208, 4410]}, "edge": {"target": [], "time": []}}, "mouseout": {"state": {"target": ["12", "12", "0", "12", "22", "19", "20", "15", "4", "3"], "time": [312, 437, 841, 882, 958, 1014, 1708, 3917, 4285, 4460]}, "edge": {"target": [], "time": []}}}, "displayed_time": "14.72", "trialTime": 20110, "trial_type": "mouselab-mdp", "trial_index": 22, "time_elapsed": 529965, "internal_node_id": "0.0-4.0-1.0-13.0"}}, {"uniqueid": "w70722510:a17817859", "current_trial": 23, "dateTime": 1691071084275, "trialdata": {"revealed_states": [], "clicked_states": ["29", "5", "21", "17"], "num_clicks_accrued": [0, 0, 0, 0, 0, 0, 0, 0, 0, 0, 0, 0, 0], "stateRewards": ["", 1, 1, -5, 8, -6, 45, 16, -6, -7, -22, -38, -1, -4, 8, -11, -16, 21, -45, -15, -59, -32, 42, -1, 3, 6, 11, -7, 34, -27, -8, 85, 43, -9], "withholdReward": false, "trial_id": "mdp_trial_15", "block": "test", "trialIndex": 16, "score": 4.399999999999999, "costs": -8.6, "simulationMode": [null, null, null, null, null], "rewards": [-1, -4, 8, -11, 21], "path": ["0", "0", "12", "13", "14", "15", "17"], "rt": [15423, 260, 41, 416, 29], "actions": ["right", "right", "right", "up", "right"], "actionTimes": [40859, 41634, 42178, 43095, 43625], "queries": {"click": {"state": {"target": ["29", "5", "21", "17"], "time": [26392, 30339, 34019, 38080]}, "edge": {"target": [], "time": []}}, "mouseover": {"state": {"target": ["12", "0", "23", "28", "26", "29", "26", "28", "12", "13", "14", "17", "5", "17", "20", "21", "17"], "time": [25574, 25873, 25900, 26060, 26171, 26227, 26582, 26602, 26657, 26678, 27026, 29824, 30206, 33470, 33574, 33928, 38019]}, "edge": {"target": [], "time": []}}, "mouseout": {"state": {"target": ["3", "4", "12", "0", "0", "0", "12", "0", "23", "28", "26", "29", "26", "28", "12", "13", "14", "17", "5", "17", "20", "21", "17"], "time": [24748, 24775, 24852, 25012, 25143, 25560, 25859, 25880, 25921, 26116, 26206, 26567, 26595, 26609, 26671, 26706, 29783, 29838, 30567, 33491, 33658, 34310, 38338]}, "edge": {"target": [], "time": []}}}, "displayed_time": "44.13", "trialTime": 44640, "trial_type": "mouselab-mdp", "trial_index": 23, "time_elapsed": 574726, "internal_node_id": "0.0-4.0-1.0-14.0"}}, {"uniqueid": "w70722510:a17817859", "current_trial": 24, "dateTime": 1691071107798, "trialdata": {"revealed_states": [], "clicked_states": ["33", "5", "17", "16", "18"], "num_clicks_accrued": [0, 0, 0, 0, 0, 0, 0, 0, 0, 0, 0, 0, 0], "stateRewards": ["", 1, -4, -6, 11, -20, 8, -30, 1, -38, 88, 42, 2, 3, 5, -12, -8, -74, 30, -8, 67, -19, 42, 2, -1, 4, 13, 50, -68, 2, -8, -15, 87, -46], "withholdReward": false, "trial_id": "mdp_trial_16", "block": "test", "trialIndex": 17, "score": 17.25, "costs": -10.75, "simulationMode": [null, null, null, null, null], "rewards": [2, 3, 5, -12, 30], "path": ["0", "0", "12", "13", "14", "15", "18"], "rt": [18216, 77, 122, 444, 72], "actions": ["right", "right", "right", "up", "left"], "actionTimes": [19509, 20083, 20704, 21644, 22217], "queries": {"click": {"state": {"target": ["33", "5", "17", "16", "18"], "time": [1737, 5203, 9228, 12340, 15845]}, "edge": {"target": [], "time": []}}, "mouseover": {"state": {"target": ["0", "31", "30", "33", "30", "31", "0", "7", "5", "16", "17", "16", "18", "15", "17"], "time": [1436, 1491, 1519, 1561, 1936, 1971, 2095, 2741, 5096, 8811, 8977, 12019, 15436, 16067, 16123]}, "edge": {"target": [], "time": []}}, "mouseout": {"state": {"target": ["17", "0", "31", "30", "33", "30", "31", "0", "7", "5", "16", "17", "16", "16", "18", "18", "15"], "time": [831, 1443, 1505, 1540, 1915, 1957, 1985, 2116, 3672, 5443, 8838, 9484, 12547, 14824, 15849, 16033, 16095]}, "edge": {"target": [], "time": []}}}, "displayed_time": "22.71", "trialTime": 23406, "trial_type": "mouselab-mdp", "trial_index": 24, "time_elapsed": 598249, "internal_node_id": "0.0-4.0-1.0-15.0"}}, {"uniqueid": "w70722510:a17817859", "current_trial": 25, "dateTime": 1691071123709, "trialdata": {"revealed_states": [], "clicked_states": ["29", "16", "22"], "num_clicks_accrued": [0, 0, 0, 0, 0, 0, 0, 0, 0, 0, 0, 0, 0], "stateRewards": ["", 1, 1, -6, -2, 7, 77, 3, 16, -16, 66, 31, -1, 3, -8, -6, 33, -50, -48, 7, -60, -66, 36, 2, -3, 3, -7, -12, -61, -79, -4, 8, 74, -70], "withholdReward": false, "trial_id": "mdp_trial_17", "block": "test", "trialIndex": 18, "score": 30.55, "costs": -6.449999999999999, "simulationMode": [null, null, null, null, null], "rewards": [-1, 3, -8, 7, 36], "path": ["0", "0", "12", "13", "14", "19", "22"], "rt": [11247, 77, 98, 88, 400], "actions": ["right", "right", "right", "down", "left"], "actionTimes": [12178, 12757, 13354, 13941, 14836], "queries": {"click": {"state": {"target": ["29", "16", "22"], "time": [1850, 5918, 9229]}, "edge": {"target": [], "time": []}}, "mouseover": {"state": {"target": ["23", "24", "25", "29", "26", "2", "7", "6", "5", "16", "16", "22", "19", "20", "17"], "time": [1200, 1235, 1499, 1742, 2096, 2179, 4943, 5047, 5242, 5707, 5818, 8735, 9512, 9575, 10651]}, "edge": {"target": [], "time": []}}, "mouseout": {"state": {"target": ["17", "14", "13", "0", "23", "24", "25", "29", "26", "2", "7", "6", "5", "16", "16", "22", "19", "20", "17", "14", "22"], "time": [422, 477, 512, 1179, 1221, 1283, 1533, 2068, 2110, 2193, 4978, 5075, 5450, 5735, 6103, 9484, 9547, 9617, 15596, 15630, 15672]}, "edge": {"target": [], "time": []}}}, "displayed_time": "15.33", "trialTime": 15797, "trial_type": "mouselab-mdp", "trial_index": 25, "time_elapsed": 614160, "internal_node_id": "0.0-4.0-1.0-16.0"}}, {"uniqueid": "w70722510:a17817859", "current_trial": 26, "dateTime": 1691071139591, "trialdata": {"revealed_states": [], "clicked_states": ["27", "28"], "num_clicks_accrued": [0, 0, 0, 0, 0, 0, 0, 0, 0, 0, 0, 0, 0], "stateRewards": ["", -2, 2, 8, -6, -25, 3, 87, 2, -62, -2, 74, -2, -1, 2, -1, 79, 49, -37, -14, 5, 67, -9, -1, 2, -2, 5, 15, 38, 32, -14, -38, -38, 30], "withholdReward": false, "trial_id": "mdp_trial_18", "block": "test", "trialIndex": 19, "score": 37.7, "costs": -4.3, "simulationMode": [null, null, null, null, null], "rewards": [-1, 2, -2, 5, 38], "path": ["0", "0", "23", "24", "25", "26", "28"], "rt": [7690, 16, 50, 1, 403], "actions": ["left", "left", "left", "up", "right"], "actionTimes": [9077, 9596, 10151, 10649, 11566], "queries": {"click": {"state": {"target": ["27", "28"], "time": [1890, 5075]}, "edge": {"target": [], "time": []}}, "mouseover": {"state": {"target": ["28", "27", "1", "1", "28", "1", "26", "29"], "time": [1606, 1828, 2141, 3648, 3891, 5321, 6370, 6418]}, "edge": {"target": [], "time": []}}, "mouseout": {"state": {"target": ["0", "28", "27", "1", "1", "28", "1", "28", "26", "29", "26"], "time": [759, 1613, 2037, 2204, 3669, 5238, 6314, 6356, 6391, 12537, 12585]}, "edge": {"target": [], "time": []}}}, "displayed_time": "15.39", "trialTime": 15773, "trial_type": "mouselab-mdp", "trial_index": 26, "time_elapsed": 630042, "internal_node_id": "0.0-4.0-1.0-17.0"}}, {"uniqueid": "w70722510:a17817859", "current_trial": 27, "dateTime": 1691071155861, "trialdata": {"revealed_states": [], "clicked_states": ["33", "5", "21"], "num_clicks_accrued": [0, 0, 0, 0, 0, 0, 0, 0, 0, 0, 0, 0, 0], "stateRewards": ["", -1, -3, 1, -4, -48, -63, -49, -2, -84, -19, 65, 2, -2, -2, -12, -4, 59, 9, 6, 75, 69, -13, -1, -3, -3, -2, -37, -68, -36, 13, 32, 18, -14], "withholdReward": false, "trial_id": "mdp_trial_19", "block": "test", "trialIndex": 20, "score": 66.55, "costs": -6.449999999999999, "simulationMode": [null, null, null, null, null], "rewards": [2, -2, -2, 6, 69], "path": ["0", "0", "12", "13", "14", "19", "21"], "rt": [11578, 12, 412, 67, 69], "actions": ["right", "right", "right", "down", "down"], "actionTimes": [12506, 13019, 13947, 14511, 15076], "queries": {"click": {"state": {"target": ["33", "5", "21"], "time": [1874, 5328, 9068]}, "edge": {"target": [], "time": []}}, "mouseover": {"state": {"target": ["0", "23", "24", "25", "33", "30", "31", "6", "5", "16", "17", "19", "21"], "time": [1271, 1298, 1326, 1361, 1584, 2125, 2154, 3229, 5048, 8527, 8583, 8847, 8909]}, "edge": {"target": [], "time": []}}, "mouseout": {"state": {"target": ["0", "23", "24", "25", "33", "30", "31", "6", "5", "16", "17", "19", "21"], "time": [1277, 1320, 1347, 1388, 1965, 2139, 2166, 4243, 7617, 8541, 8624, 8881, 9155]}, "edge": {"target": [], "time": []}}}, "displayed_time": "15.58", "trialTime": 16159, "trial_type": "mouselab-mdp", "trial_index": 27, "time_elapsed": 646312, "internal_node_id": "0.0-4.0-1.0-18.0"}}, {"uniqueid": "w70722510:a17817859", "current_trial": 28, "dateTime": 1691071175870, "trialdata": {"revealed_states": [], "clicked_states": ["27", "5", "21"], "num_clicks_accrued": [0, 0, 0, 0, 0, 0, 0, 0, 0, 0, 0, 0, 0], "stateRewards": ["", 1, 1, -2, 7, -31, -6, 76, 1, -36, -16, -53, 2, 1, 7, 13, -47, -10, 47, -7, 72, 46, -56, -2, -2, -2, 11, -80, 44, 38, 16, 67, 85, -78], "withholdReward": false, "trial_id": "mdp_trial_20", "block": "test", "trialIndex": 21, "score": 42.55, "costs": -6.449999999999999, "simulationMode": [null, null, null, null, null], "rewards": [2, 1, 7, -7, 46], "path": ["0", "0", "12", "13", "14", "19", "21"], "rt": [13786, 102, 382, 80, 26], "actions": ["right", "right", "right", "down", "down"], "actionTimes": [16015, 16620, 17504, 18084, 18606], "queries": {"click": {"state": {"target": ["27", "5", "21"], "time": [4502, 8688, 12415]}, "edge": {"target": [], "time": []}}, "mouseover": {"state": {"target": ["0", "23", "26", "27", "10", "15", "17", "15", "5", "16", "15", "14", "19", "21"], "time": [2392, 2454, 2767, 3059, 4774, 7698, 7809, 8066, 8392, 11816, 11885, 11989, 12058, 12288]}, "edge": {"target": [], "time": []}}, "mouseout": {"state": {"target": ["19", "22", "0", "0", "23", "26", "27", "10", "15", "17", "15", "5", "16", "15", "14", "19", "21"], "time": [1496, 1503, 1787, 2434, 2718, 2795, 4698, 4795, 7726, 8038, 8086, 8961, 11864, 11933, 12024, 12184, 12676]}, "edge": {"target": [], "time": []}}}, "displayed_time": "19.11", "trialTime": 19901, "trial_type": "mouselab-mdp", "trial_index": 28, "time_elapsed": 666321, "internal_node_id": "0.0-4.0-1.0-19.0"}}, {"uniqueid": "w70722510:a17817859", "current_trial": 29, "dateTime": 1691071570692, "trialdata": {"revealed_states": [], "clicked_states": ["29", "17", "5", "6"], "num_clicks_accrued": [0, 0, 0, 0, 0, 0, 0, 0, 0, 0, 0, 0, 0], "stateRewards": ["", 2, -4, -4, 13, -80, 62, 13, -11, 57, -13, -44, 1, 4, 3, -4, -29, -88, 15, 16, -58, 68, -45, -1, -3, -1, -9, -44, -86, -19, -7, -36, 59, 66], "withholdReward": false, "trial_id": "mdp_trial_21", "block": "test", "trialIndex": 22, "score": 60.4, "costs": -8.6, "simulationMode": [null, null, null, null, null], "rewards": [2, -4, -4, 13, 62], "path": ["0", "0", "1", "2", "3", "4", "6"], "rt": [14723, 176, 421, 205, 174], "actions": ["up", "up", "up", "right", "right"], "actionTimes": [390333, 391012, 391937, 392645, 393322], "queries": {"click": {"state": {"target": ["29", "17", "5", "6"], "time": [377130, 380335, 383754, 387306]}, "edge": {"target": [], "time": []}}, "mouseover": {"state": {"target": ["23", "24", "25", "29", "26", "28", "1", "17", "17", "15", "6", "5", "6"], "time": [376662, 376689, 376835, 376905, 377328, 377349, 377384, 379557, 380266, 381272, 381856, 383682, 386849]}, "edge": {"target": [], "time": []}}, "mouseout": {"state": {"target": ["12", "0", "23", "24", "25", "29", "26", "28", "1", "17", "17", "15", "6", "5", "6"], "time": [375512, 376245, 376682, 376731, 376863, 377321, 377342, 377356, 377390, 379578, 381252, 381307, 383453, 383967, 387508]}, "edge": {"target": [], "time": []}}}, "displayed_time": "393.83", "trialTime": 394709, "trial_type": "mouselab-mdp", "trial_index": 29, "time_elapsed": 1061142, "internal_node_id": "0.0-4.0-1.0-20.0"}}, {"uniqueid": "w70722510:a17817859", "current_trial": 30, "dateTime": 1691071614855, "trialdata": {"revealed_states": [], "clicked_states": ["33", "9", "27"], "num_clicks_accrued": [0, 0, 0, 0, 0, 0, 0, 0, 0, 0, 0, 0, 0], "stateRewards": ["", -2, -4, -2, -13, -15, 87, -19, -6, -80, 30, 12, 1, 1, -8, 2, 55, 56, 15, 11, -68, -7, 55, -2, 3, -3, -3, 48, 62, 4, 1, -3, 69, -33], "withholdReward": false, "trial_id": "mdp_trial_22", "block": "test", "trialIndex": 23, "score": 36.55, "costs": -6.449999999999999, "simulationMode": [null, null, null, null, null], "rewards": [-2, 3, -3, -3, 48], "path": ["0", "0", "23", "24", "25", "26", "27"], "rt": [11198, 101, 108, 204, 143], "actions": ["left", "left", "left", "up", "up"], "actionTimes": [12101, 12707, 13318, 14025, 14672], "queries": {"click": {"state": {"target": ["33", "9", "27"], "time": [1519, 4965, 8294]}, "edge": {"target": [], "time": []}}, "mouseover": {"state": {"target": ["0", "31", "32", "33", "30", "31", "22", "19", "19", "14", "18", "2", "9", "4", "3", "8", "11", "27", "11"], "time": [973, 1056, 1327, 1473, 1772, 1799, 2126, 2265, 2584, 4557, 4612, 4660, 4883, 5258, 7702, 7959, 8056, 8188, 9702]}, "edge": {"target": [], "time": []}}, "mouseout": {"state": {"target": ["16", "0", "31", "32", "33", "30", "31", "22", "19", "19", "14", "18", "2", "9", "4", "3", "8", "11", "27", "11", "28", "24", "31"], "time": [535, 995, 1084, 1390, 1758, 1785, 1808, 2181, 2313, 3008, 4591, 4619, 4681, 5181, 7667, 7883, 8029, 8105, 8556, 43813, 43855, 43875, 43910]}, "edge": {"target": [], "time": []}}}, "displayed_time": "15.18", "trialTime": 44045, "trial_type": "mouselab-mdp", "trial_index": 30, "time_elapsed": 1105306, "internal_node_id": "0.0-4.0-1.0-21.0"}}, {"uniqueid": "w70722510:a17817859", "current_trial": 31, "dateTime": 1691071640580, "trialdata": {"revealed_states": [], "clicked_states": ["29", "5"], "num_clicks_accrued": [0, 0, 0, 0, 0, 0, 0, 0, 0, 0, 0, 0, 0], "stateRewards": ["", 2, 3, 8, 11, 25, -80, 6, -4, -56, 84, -23, -2, -4, -3, 4, -51, -9, -61, -15, -64, 67, -35, 1, -1, -7, -6, 83, 59, -15, 12, -79, 56, 41], "withholdReward": false, "trial_id": "mdp_trial_23", "block": "test", "trialIndex": 24, "score": 44.7, "costs": -4.3, "simulationMode": [null, null, null, null, null], "rewards": [2, 3, 8, 11, 25], "path": ["0", "0", "1", "2", "3", "4", "5"], "rt": [11114, 170, 85, 439, 192], "actions": ["up", "up", "up", "right", "up"], "actionTimes": [21527, 22200, 22784, 23726, 24424], "queries": {"click": {"state": {"target": ["29", "5"], "time": [11202, 14741]}, "edge": {"target": [], "time": []}}, "mouseover": {"state": {"target": ["0", "23", "24", "25", "29", "26", "7", "6", "5", "17", "16", "8", "9"], "time": [10814, 10849, 10869, 10904, 11092, 11419, 11495, 13495, 14683, 15106, 16758, 18057, 19440]}, "edge": {"target": [], "time": []}}, "mouseout": {"state": {"target": ["15", "17", "15", "18", "12", "12", "0", "23", "24", "25", "29", "26", "7", "6", "5", "17", "16", "8", "9"], "time": [1161, 1210, 1349, 1383, 1571, 10182, 10836, 10863, 10890, 10946, 11405, 11432, 11502, 13779, 14960, 16682, 16946, 18912, 25467]}, "edge": {"target": [], "time": []}}}, "displayed_time": "24.93", "trialTime": 25591, "trial_type": "mouselab-mdp", "trial_index": 31, "time_elapsed": 1131031, "internal_node_id": "0.0-4.0-1.0-22.0"}}, {"uniqueid": "w70722510:a17817859", "current_trial": 32, "dateTime": 1691071667653, "trialdata": {"revealed_states": [], "clicked_states": ["32", "17", "20", "22"], "num_clicks_accrued": [0, 0, 0, 0, 0, 0, 0, 0, 0, 0, 0, 0, 0], "stateRewards": ["", -1, 2, -2, 13, -56, -28, 10, 14, 53, -80, -29, 1, -3, -3, -14, 14, 9, -40, -9, 18, 18, 48, 1, 1, 1, -9, 64, -39, -9, 7, -52, -78, 7], "withholdReward": false, "trial_id": "mdp_trial_24", "block": "test", "trialIndex": 25, "score": 25.4, "costs": -8.6, "simulationMode": [null, null, null, null, null], "rewards": [1, -3, -3, -9, 48], "path": ["0", "0", "12", "13", "14", "19", "22"], "rt": [14839, 144, 73, 57, 1097], "actions": ["right", "right", "right", "down", "left"], "actionTimes": [16573, 17222, 17804, 18365, 19968], "queries": {"click": {"state": {"target": ["32", "17", "20", "22"], "time": [2276, 5862, 9684, 13526]}, "edge": {"target": [], "time": []}}, "mouseover": {"state": {"target": ["0", "32", "22", "22", "19", "14", "17", "20", "20", "21", "22"], "time": [1842, 2182, 2814, 5356, 5467, 5564, 5780, 9335, 9571, 13210, 13411]}, "edge": {"target": [], "time": []}}, "mouseout": {"state": {"target": ["3", "10", "23", "0", "0", "0", "32", "22", "22", "19", "14", "17", "17", "20", "20", "20", "21", "22"], "time": [578, 612, 661, 1473, 1592, 1876, 2501, 5057, 5397, 5509, 5661, 6182, 9245, 9453, 9994, 13078, 13244, 13751]}, "edge": {"target": [], "time": []}}}, "displayed_time": "20.48", "trialTime": 26942, "trial_type": "mouselab-mdp", "trial_index": 32, "time_elapsed": 1158104, "internal_node_id": "0.0-4.0-1.0-23.0"}}, {"uniqueid": "w70722510:a17817859", "current_trial": 33, "dateTime": 1691071687495, "trialdata": {"revealed_states": [], "clicked_states": ["29"], "num_clicks_accrued": [0, 0, 0, 0, 0, 0, 0, 0, 0, 0, 0, 0, 0], "stateRewards": ["", 1, 2, 7, 13, 88, -71, 27, 3, 60, 5, -53, -2, 2, -6, -1, -30, 79, 47, -4, -14, 46, 68, 1, 1, 8, 10, -14, 86, 48, -11, -67, -44, 5], "withholdReward": false, "trial_id": "mdp_trial_25", "block": "test", "trialIndex": 26, "score": 65.85, "costs": -2.15, "simulationMode": [null, null, null, null, null], "rewards": [1, 1, 8, 10, 48], "path": ["0", "0", "23", "24", "25", "26", "29"], "rt": [5000, 224, 170, 40, 374], "actions": ["left", "left", "left", "up", "left"], "actionTimes": [6415, 7137, 7811, 8355, 9231], "queries": {"click": {"state": {"target": ["29"], "time": [2575]}, "edge": {"target": [], "time": []}}, "mouseover": {"state": {"target": ["12", "12", "28", "26", "29", "26", "1", "2", "10", "27"], "time": [1634, 1870, 1940, 1954, 2488, 2919, 3558, 3683, 5551, 5669]}, "edge": {"target": [], "time": []}}, "mouseout": {"state": {"target": ["22", "12", "0", "12", "12", "28", "26", "29", "26", "1", "2", "10", "27"], "time": [1079, 1183, 1600, 1656, 1884, 1947, 2148, 2885, 2947, 3634, 5523, 5585, 5857]}, "edge": {"target": [], "time": []}}}, "displayed_time": "15.42", "trialTime": 19709, "trial_type": "mouselab-mdp", "trial_index": 33, "time_elapsed": 1177946, "internal_node_id": "0.0-4.0-1.0-24.0"}}, {"uniqueid": "w70722510:a17817859", "current_trial": 34, "dateTime": 1691071707170, "trialdata": {"revealed_states": [], "clicked_states": ["11", "17"], "num_clicks_accrued": [0, 0, 0, 0, 0, 0, 0, 0, 0, 0, 0, 0, 0], "stateRewards": ["", 2, -1, 4, -9, -43, 7, 54, -13, 38, -40, -83, -1, 2, -8, -10, 34, -33, 11, -14, -79, 65, 26, 1, 2, 4, 10, 21, 1, 86, 4, -53, 28, -29], "withholdReward": false, "trial_id": "mdp_trial_26", "block": "test", "trialIndex": 27, "score": -104.3, "costs": -4.3, "simulationMode": [null, null, null, null, null], "rewards": [-1, 2, -8, -14, -79], "path": ["0", "0", "12", "13", "14", "19", "20"], "rt": [13561, 182, 46, 23, 544], "actions": ["right", "right", "right", "down", "right"], "actionTimes": [14967, 15657, 16201, 16727, 17776], "queries": {"click": {"state": {"target": ["11", "17"], "time": [1997, 7418]}, "edge": {"target": [], "time": []}}, "mouseover": {"state": {"target": ["11", "8", "3", "4", "6", "17", "16", "16", "18", "12"], "time": [1912, 2190, 2218, 2252, 2301, 6051, 10912, 14078, 14363, 14460]}, "edge": {"target": [], "time": []}}, "mouseout": {"state": {"target": ["10", "0", "11", "8", "3", "4", "6", "17", "17", "16", "16", "18"], "time": [780, 988, 2071, 2217, 2238, 2273, 2391, 7793, 10620, 13870, 14335, 14370]}, "edge": {"target": [], "time": []}}}, "displayed_time": "18.28", "trialTime": 19544, "trial_type": "mouselab-mdp", "trial_index": 34, "time_elapsed": 1197621, "internal_node_id": "0.0-4.0-1.0-25.0"}}, {"uniqueid": "w70722510:a17817859", "current_trial": 35, "dateTime": 1691071724383, "trialdata": {"revealed_states": [], "clicked_states": ["27"], "num_clicks_accrued": [0, 0, 0, 0, 0, 0, 0, 0, 0, 0, 0, 0, 0], "stateRewards": ["", -1, 1, 6, -6, 70, 66, 67, -16, -75, -35, 37, -1, 4, 4, -6, 47, -9, 63, 15, 21, -63, 13, 1, 3, -6, 10, 79, -29, 18, -15, 9, -67, -19], "withholdReward": false, "trial_id": "mdp_trial_27", "block": "test", "trialIndex": 28, "score": 84.85, "costs": -2.15, "simulationMode": [null, null, null, null, null], "rewards": [1, 3, -6, 10, 79], "path": ["0", "0", "23", "24", "25", "26", "27"], "rt": [3973, 292, 110, 337, 280], "actions": ["left", "left", "left", "up", "up"], "actionTimes": [5415, 6213, 6829, 7673, 8456], "queries": {"click": {"state": {"target": ["27"], "time": [1882]}, "edge": {"target": [], "time": []}}, "mouseover": {"state": {"target": ["27", "10", "2"], "time": [1690, 2176, 2218]}, "edge": {"target": [], "time": []}}, "mouseout": {"state": {"target": ["12", "27", "27", "10"], "time": [884, 1956, 2114, 2197]}, "edge": {"target": [], "time": []}}}, "displayed_time": "15.44", "trialTime": 17084, "trial_type": "mouselab-mdp", "trial_index": 35, "time_elapsed": 1214834, "internal_node_id": "0.0-4.0-1.0-26.0"}}, {"uniqueid": "w70722510:a17817859", "current_trial": 36, "dateTime": 1691071757835, "trialdata": {"revealed_states": [], "clicked_states": ["29", "33", "31", "22", "16", "5"], "num_clicks_accrued": [0, 0, 0, 0, 0, 0, 0, 0, 0, 0, 0, 0, 0], "stateRewards": ["", -1, 3, 1, -7, 56, 76, 57, 3, 11, -9, 14, 1, -2, 2, 8, -77, -3, 79, -5, 88, 24, -66, -2, -1, 7, -7, -30, 14, -76, 11, -36, 28, -6], "withholdReward": false, "trial_id": "mdp_trial_28", "block": "test", "trialIndex": 29, "score": 39.1, "costs": -12.9, "simulationMode": [null, null, null, null, null], "rewards": [-1, 3, 1, -7, 56], "path": ["0", "0", "1", "2", "3", "4", "5"], "rt": [21695, 125, 228, 131, 29], "actions": ["up", "up", "up", "right", "up"], "actionTimes": [28223, 28853, 29588, 30227, 30764], "queries": {"click": {"state": {"target": ["29", "33", "31", "22", "16", "5"], "time": [7498, 10948, 14163, 17576, 21091, 24672]}, "edge": {"target": [], "time": []}}, "mouseover": {"state": {"target": ["28", "26", "29", "26", "28", "1", "15", "6", "4", "28", "25", "33", "30", "31", "31", "22", "19", "14", "15", "16", "6", "5"], "time": [7047, 7074, 7402, 7734, 7762, 7817, 8151, 9887, 10596, 10672, 10700, 10783, 11158, 11178, 14019, 17498, 17949, 20776, 20817, 20922, 24429, 24568]}, "edge": {"target": [], "time": []}}, "mouseout": {"state": {"target": ["2", "1", "28", "26", "29", "26", "28", "1", "15", "6", "4", "28", "25", "33", "30", "31", "31", "31", "22", "19", "14", "15", "16", "6", "5"], "time": [6067, 6303, 7067, 7103, 7588, 7755, 7776, 7845, 9491, 10248, 10602, 10679, 10727, 11028, 11172, 11185, 14225, 17116, 17908, 20762, 20796, 20873, 21282, 24456, 24880]}, "edge": {"target": [], "time": []}}}, "displayed_time": "31.27", "trialTime": 33317, "trial_type": "mouselab-mdp", "trial_index": 36, "time_elapsed": 1248286, "internal_node_id": "0.0-4.0-1.0-27.0"}}, {"uniqueid": "w70722510:a17817859", "current_trial": 37, "dateTime": 1691071782650, "trialdata": {"revealed_states": [], "clicked_states": ["9", "7", "18", "27", "33"], "num_clicks_accrued": [0, 0, 0, 0, 0, 0, 0, 0, 0, 0, 0, 0, 0], "stateRewards": ["", 1, 4, 5, 8, -55, -11, 8, 16, -37, 77, -22, -2, 3, -8, -10, 45, 87, -67, 4, 17, -33, -22, -1, -3, 7, 6, -39, -85, 75, -1, 7, -48, 45], "withholdReward": false, "trial_id": "mdp_trial_29", "block": "test", "trialIndex": 30, "score": 36.25, "costs": -10.75, "simulationMode": [null, null, null, null, null], "rewards": [-1, -3, 7, -1, 45], "path": ["0", "0", "23", "24", "25", "30", "33"], "rt": [19322, 227, 267, 291, 401], "actions": ["left", "left", "left", "down", "left"], "actionTimes": [20363, 21097, 21873, 22662, 23571], "queries": {"click": {"state": {"target": ["9", "7", "18", "27", "33"], "time": [1670, 6010, 9471, 13492, 17313]}, "edge": {"target": [], "time": []}}, "mouseover": {"state": {"target": ["10", "9", "4", "6", "18", "7", "15", "17", "15", "18", "15", "14", "13", "22", "25", "26", "27", "10", "28", "26", "30", "33"], "time": [1259, 1592, 2002, 5162, 5539, 5856, 6307, 6342, 8085, 9287, 9759, 10078, 12606, 12675, 12974, 13252, 13411, 13856, 16558, 16821, 17016, 17238]}, "edge": {"target": [], "time": []}}, "mouseout": {"state": {"target": ["6", "4", "2", "1", "0", "0", "10", "9", "4", "6", "18", "7", "15", "17", "15", "18", "15", "14", "13", "22", "25", "26", "27", "10", "28", "26", "30", "33"], "time": [537, 557, 599, 627, 675, 1169, 1266, 1954, 2023, 5377, 5578, 6238, 6314, 7391, 8654, 9724, 9794, 10099, 12655, 12696, 13203, 13286, 13766, 14884, 16793, 16856, 17050, 17543]}, "edge": {"target": [], "time": []}}}, "displayed_time": "24.08", "trialTime": 24685, "trial_type": "mouselab-mdp", "trial_index": 37, "time_elapsed": 1273101, "internal_node_id": "0.0-4.0-1.0-28.0"}}, {"uniqueid": "w70722510:a17817859", "current_trial": 38, "dateTime": 1691071798841, "trialdata": {"revealed_states": [], "clicked_states": ["9", "21", "29"], "num_clicks_accrued": [0, 0, 0, 0, 0, 0, 0, 0, 0, 0, 0, 0, 0], "stateRewards": ["", 2, -3, -4, -1, 25, -16, 16, 10, -71, -20, -55, 1, 3, -4, -9, 1, 32, 11, -6, 32, -50, -41, -1, 4, 4, -8, 7, -81, 70, 2, -52, 45, -10], "withholdReward": false, "trial_id": "mdp_trial_30", "block": "test", "trialIndex": 31, "score": 62.55, "costs": -6.449999999999999, "simulationMode": [null, null, null, null, null], "rewards": [-1, 4, 4, -8, 70], "path": ["0", "0", "23", "24", "25", "26", "29"], "rt": [11230, 77, 150, 101, 10], "actions": ["left", "left", "left", "up", "left"], "actionTimes": [12416, 13002, 13658, 14262, 14775], "queries": {"click": {"state": {"target": ["9", "21", "29"], "time": [1842, 5219, 8647]}, "edge": {"target": [], "time": []}}, "mouseover": {"state": {"target": ["10", "8", "9", "4", "6", "16", "16", "15", "14", "19", "21", "20", "19", "22", "23", "24", "25", "29", "26", "28", "28", "26", "28"], "time": [1494, 1577, 1751, 2098, 2133, 2195, 3120, 4870, 4911, 4966, 5119, 8175, 8195, 8223, 8272, 8286, 8299, 8577, 8917, 8953, 11800, 11813, 11924]}, "edge": {"target": [], "time": []}}, "mouseout": {"state": {"target": ["0", "10", "8", "9", "4", "6", "16", "16", "15", "14", "19", "21", "20", "19", "22", "23", "24", "25", "29", "26", "28", "28", "26", "28"], "time": [1397, 1522, 1675, 2049, 2119, 2154, 2237, 3230, 4897, 4945, 5043, 5404, 8181, 8216, 8237, 8279, 8292, 8313, 8904, 8947, 8975, 11806, 11911, 11945]}, "edge": {"target": [], "time": []}}}, "displayed_time": "15.28", "trialTime": 16063, "trial_type": "mouselab-mdp", "trial_index": 38, "time_elapsed": 1289292, "internal_node_id": "0.0-4.0-1.0-29.0"}}, {"uniqueid": "w70722510:a17817859", "current_trial": 39, "dateTime": 1691071814258, "trialdata": {"revealed_states": [], "clicked_states": ["32"], "num_clicks_accrued": [0, 0, 0, 0, 0, 0, 0, 0, 0, 0, 0, 0, 0], "stateRewards": ["", -1, 4, -6, -5, -22, -38, -38, -2, -56, 88, 14, -1, -1, -7, -6, 61, -60, 21, 11, 57, 31, -30, -2, -2, 6, -9, -44, -70, -44, -15, 34, 16, -78], "withholdReward": false, "trial_id": "mdp_trial_31", "block": "test", "trialIndex": 32, "score": -93.15, "costs": -2.15, "simulationMode": [null, null, null, null, null], "rewards": [-2, -2, 6, -15, -78], "path": ["0", "0", "23", "24", "25", "30", "33"], "rt": [9043, 67, 107, 444, 69], "actions": ["left", "left", "left", "down", "left"], "actionTimes": [9674, 10247, 10856, 11805, 12381], "queries": {"click": {"state": {"target": ["32"], "time": [1351]}, "edge": {"target": [], "time": []}}, "mouseover": {"state": {"target": ["31", "32", "24", "26", "29", "10", "2", "7", "6", "6", "4", "10", "26", "25", "30", "33", "30", "23", "23", "31", "30", "31"], "time": [1069, 1235, 4937, 4985, 5006, 5624, 5645, 5673, 5896, 7763, 7791, 7825, 7888, 7936, 8069, 8110, 8381, 8423, 8694, 8798, 8888, 9027]}, "edge": {"target": [], "time": []}}, "mouseout": {"state": {"target": ["0", "31", "32", "24", "26", "29", "10", "2", "7", "6", "6", "4", "10", "26", "25", "30", "33", "30", "23", "23", "31", "30"], "time": [992, 1110, 1562, 4957, 4992, 5027, 5631, 5660, 5728, 5923, 7782, 7798, 7832, 7909, 7978, 8075, 8360, 8388, 8430, 8714, 8860, 8992]}, "edge": {"target": [], "time": []}}}, "displayed_time": "14.63", "trialTime": 15291, "trial_type": "mouselab-mdp", "trial_index": 39, "time_elapsed": 1304709, "internal_node_id": "0.0-4.0-1.0-30.0"}}, {"uniqueid": "w70722510:a17817859", "current_trial": 40, "dateTime": 1691071829777, "trialdata": {"revealed_states": [], "clicked_states": ["17", "11"], "num_clicks_accrued": [0, 0, 0, 0, 0, 0, 0, 0, 0, 0, 0, 0, 0], "stateRewards": ["", -1, 2, 6, 11, 21, -21, -21, -6, 48, -71, 88, -1, -3, 3, 7, 64, 2, 9, -4, 37, -67, 72, 2, 2, -8, -8, -10, 71, -40, -3, 73, 80, 47], "withholdReward": false, "trial_id": "mdp_trial_32", "block": "test", "trialIndex": 33, "score": 84.7, "costs": -4.3, "simulationMode": [null, null, null, null, null], "rewards": [-1, 2, 6, -6, 88], "path": ["0", "0", "1", "2", "3", "8", "11"], "rt": [7625, 28, 49, 356, 37], "actions": ["up", "up", "up", "left", "left"], "actionTimes": [8726, 9258, 9821, 10690, 11232], "queries": {"click": {"state": {"target": ["17", "11"], "time": [1653, 5133]}, "edge": {"target": [], "time": []}}, "mouseover": {"state": {"target": ["12", "13", "17", "15", "6", "4", "11", "8", "3", "3"], "time": [1334, 1375, 1452, 2077, 2966, 4771, 5070, 5417, 5500, 6202]}, "edge": {"target": [], "time": []}}, "mouseout": {"state": {"target": ["31", "12", "0", "12", "13", "17", "15", "6", "4", "11", "8", "3", "3", "4", "3", "2", "1", "0"], "time": [584, 875, 1299, 1361, 1382, 1739, 2091, 3292, 4799, 5375, 5465, 5681, 13139, 13514, 13604, 13681, 14063, 14466]}, "edge": {"target": [], "time": []}}}, "displayed_time": "15.10", "trialTime": 15395, "trial_type": "mouselab-mdp", "trial_index": 40, "time_elapsed": 1320228, "internal_node_id": "0.0-4.0-1.0-31.0"}}, {"uniqueid": "w70722510:a17817859", "current_trial": 41, "dateTime": 1691071845881, "trialdata": {"revealed_states": [], "clicked_states": ["29", "27"], "num_clicks_accrued": [0, 0, 0, 0, 0, 0, 0, 0, 0, 0, 0, 0, 0], "stateRewards": ["", 2, -1, 3, -12, -83, 6, -33, 9, 28, 24, -50, -2, -1, -2, -5, -87, 37, 82, 12, 80, -5, 10, -2, -3, -6, 9, 22, -1, 16, 9, 77, -62, 58], "withholdReward": false, "trial_id": "mdp_trial_33", "block": "test", "trialIndex": 34, "score": 15.7, "costs": -4.3, "simulationMode": [null, null, null, null, null], "rewards": [-2, -3, -6, 9, 22], "path": ["0", "0", "23", "24", "25", "26", "27"], "rt": [6907, 124, 28, 40, 42], "actions": ["left", "left", "left", "up", "up"], "actionTimes": [8340, 8971, 9505, 10053, 10604], "queries": {"click": {"state": {"target": ["29", "27"], "time": [1939, 5184]}, "edge": {"target": [], "time": []}}, "mouseover": {"state": {"target": ["23", "24", "29", "26", "28", "1", "1", "28", "26", "27", "1"], "time": [1623, 1658, 1880, 2123, 2158, 2206, 2950, 3033, 3151, 3220, 5998]}, "edge": {"target": [], "time": []}}, "mouseout": {"state": {"target": ["0", "0", "23", "24", "29", "26", "28", "1", "1", "28", "26", "27", "1"], "time": [956, 1602, 1644, 1679, 2097, 2144, 2172, 2220, 2977, 3081, 3158, 5373, 6046]}, "edge": {"target": [], "time": []}}}, "displayed_time": "15.43", "trialTime": 15976, "trial_type": "mouselab-mdp", "trial_index": 41, "time_elapsed": 1336332, "internal_node_id": "0.0-4.0-1.0-32.0"}}, {"uniqueid": "w70722510:a17817859", "current_trial": 42, "dateTime": 1691071876494, "trialdata": {"revealed_states": [], "clicked_states": ["18", "21", "20", "16", "6", "7"], "num_clicks_accrued": [0, 0, 0, 0, 0, 0, 0, 0, 0, 0, 0, 0, 0], "stateRewards": ["", 2, 3, -1, 16, -78, -11, 46, 2, -20, 79, -67, 2, 3, 2, 11, -83, -42, -58, -11, -67, -22, 55, 2, -1, -1, -16, -83, -82, 23, -11, -29, 13, 13], "withholdReward": false, "trial_id": "mdp_trial_34", "block": "test", "trialIndex": 35, "score": 53.1, "costs": -12.9, "simulationMode": [null, null, null, null, null], "rewards": [2, 3, -1, 16, 46], "path": ["0", "0", "1", "2", "3", "4", "7"], "rt": [24761, 25, 88, 23, 300], "actions": ["up", "up", "up", "right", "down"], "actionTimes": [26670, 27201, 27798, 28323, 29128], "queries": {"click": {"state": {"target": ["18", "21", "20", "16", "6", "7"], "time": [4346, 8144, 12226, 15678, 19270, 22711]}, "edge": {"target": [], "time": []}}, "mouseover": {"state": {"target": ["23", "24", "25", "33", "30", "31", "22", "19", "20", "15", "18", "15", "17", "17", "21", "21", "20", "14", "18", "2", "8", "11", "8", "3", "15", "14", "20", "16", "6", "4", "5", "6", "7", "7", "16", "5"], "time": [2315, 2356, 2418, 2675, 3321, 3342, 3404, 3418, 3446, 3856, 4092, 4544, 4585, 5418, 7731, 8037, 11279, 11404, 11439, 11474, 11501, 11557, 11814, 11828, 11939, 11973, 12154, 15536, 18800, 18820, 18987, 19168, 22382, 22682, 23265, 24820]}, "edge": {"target": [], "time": []}}, "mouseout": {"state": {"target": ["0", "23", "24", "25", "33", "30", "31", "22", "19", "20", "15", "18", "15", "17", "17", "21", "21", "20", "14", "18", "2", "8", "11", "8", "3", "15", "14", "20", "20", "16", "6", "4", "5", "6", "7", "7", "16", "6"], "time": [2301, 2342, 2391, 2606, 3300, 3335, 3349, 3411, 3432, 3467, 3918, 4514, 4571, 4620, 5516, 7849, 8404, 11376, 11418, 11446, 11487, 11530, 11564, 11821, 11841, 11946, 12022, 12332, 12598, 15904, 18814, 18834, 19112, 19522, 22515, 22959, 23313, 24209]}, "edge": {"target": [], "time": []}}}, "displayed_time": "29.63", "trialTime": 30468, "trial_type": "mouselab-mdp", "trial_index": 42, "time_elapsed": 1366944, "internal_node_id": "0.0-4.0-1.0-33.0"}}, {"uniqueid": "w70722510:a17817859", "current_trial": 43, "dateTime": 1691071893221, "trialdata": {"revealed_states": [], "clicked_states": ["28", "5"], "num_clicks_accrued": [0, 0, 0, 0, 0, 0, 0, 0, 0, 0, 0, 0, 0], "stateRewards": ["", 1, -1, 8, 4, 76, -33, -17, -3, -1, -54, -74, -2, 2, -5, 13, -51, 63, 83, 1, 84, 29, -36, 2, -1, 7, -12, -10, -44, -43, -14, 8, -69, 19], "withholdReward": false, "trial_id": "mdp_trial_35", "block": "test", "trialIndex": 36, "score": 83.7, "costs": -4.3, "simulationMode": [null, null, null, null, null], "rewards": [1, -1, 8, 4, 76], "path": ["0", "0", "1", "2", "3", "4", "5"], "rt": [7963, 191, 150, 132, 87], "actions": ["up", "up", "up", "right", "up"], "actionTimes": [10180, 10875, 11529, 12163, 12757], "queries": {"click": {"state": {"target": ["28", "5"], "time": [2972, 6480]}, "edge": {"target": [], "time": []}}, "mouseover": {"state": {"target": ["23", "24", "28", "1", "18", "6", "5", "21", "22", "13"], "time": [2371, 2406, 2843, 4170, 4225, 4982, 6408, 9281, 9697, 9753]}, "edge": {"target": [], "time": []}}, "mouseout": {"state": {"target": ["5", "3", "2", "1", "23", "0", "0", "23", "24", "28", "1", "18", "6", "5", "21", "22"], "time": [669, 718, 760, 1093, 1607, 1662, 2350, 2392, 2768, 4128, 4183, 4441, 5010, 6699, 9649, 9718]}, "edge": {"target": [], "time": []}}}, "displayed_time": "16.22", "trialTime": 16586, "trial_type": "mouselab-mdp", "trial_index": 43, "time_elapsed": 1383672, "internal_node_id": "0.0-4.0-1.0-34.0"}}, {"uniqueid": "w70722510:a17817859", "current_trial": 44, "dateTime": 1691071908912, "trialdata": {"revealed_states": [], "clicked_states": ["29", "32"], "num_clicks_accrued": [0, 0, 0, 0, 0, 0, 0, 0, 0, 0, 0, 0, 0], "stateRewards": ["", 1, -2, -8, -3, 31, -84, -55, -14, 15, -58, 17, -2, -3, 7, 7, -12, 48, 67, 4, -44, -68, 46, 2, 3, -5, -7, 76, 27, 5, 11, 57, 52, 59], "withholdReward": false, "trial_id": "mdp_trial_36", "block": "test", "trialIndex": 37, "score": 58.7, "costs": -4.3, "simulationMode": [null, null, null, null, null], "rewards": [2, 3, -5, 11, 52], "path": ["0", "0", "23", "24", "25", "30", "32"], "rt": [7879, 410, 418, 32, 431], "actions": ["left", "left", "left", "down", "down"], "actionTimes": [9087, 10000, 10925, 11462, 12403], "queries": {"click": {"state": {"target": ["29", "32"], "time": [2081, 5538]}, "edge": {"target": [], "time": []}}, "mouseover": {"state": {"target": ["23", "26", "29", "29", "26", "28", "1", "1", "23", "31", "32", "22", "19"], "time": [1513, 1742, 1811, 1964, 2365, 2395, 2443, 4714, 5117, 5186, 5443, 6082, 6109]}, "edge": {"target": [], "time": []}}, "mouseout": {"state": {"target": ["13", "12", "0", "23", "26", "29", "29", "26", "28", "1", "1", "23", "31", "32", "22", "19"], "time": [784, 978, 1485, 1527, 1783, 1839, 2305, 2381, 2408, 2464, 5047, 5151, 5242, 5721, 6096, 6137]}, "edge": {"target": [], "time": []}}}, "displayed_time": "15.21", "trialTime": 15544, "trial_type": "mouselab-mdp", "trial_index": 44, "time_elapsed": 1399362, "internal_node_id": "0.0-4.0-1.0-35.0"}}, {"uniqueid": "w70722510:a17817859", "current_trial": 45, "dateTime": 1691071924816, "trialdata": {"revealed_states": [], "clicked_states": ["27"], "num_clicks_accrued": [0, 0, 0, 0, 0, 0, 0, 0, 0, 0, 0, 0, 0], "stateRewards": ["", 1, 2, -8, 9, 18, -83, -11, 6, -64, -48, 17, -2, -2, -5, -3, -24, -3, -86, -2, 48, -41, -22, -2, 4, 7, 8, 81, 13, -48, 10, 61, 19, 57], "withholdReward": false, "trial_id": "mdp_trial_37", "block": "test", "trialIndex": 38, "score": 95.85, "costs": -2.15, "simulationMode": [null, null, null, null, null], "rewards": [-2, 4, 7, 8, 81], "path": ["0", "0", "23", "24", "25", "26", "27"], "rt": [4291, 85, 167, 198, 130], "actions": ["left", "left", "left", "up", "up"], "actionTimes": [5805, 6395, 7067, 7772, 8405], "queries": {"click": {"state": {"target": ["27"], "time": [2147]}, "edge": {"target": [], "time": []}}, "mouseover": {"state": {"target": ["28", "27", "1", "18", "1"], "time": [1864, 2038, 2461, 3253, 5343]}, "edge": {"target": [], "time": []}}, "mouseout": {"state": {"target": ["19", "12", "28", "27", "1", "18", "1"], "time": [1072, 1253, 1878, 2399, 2478, 4901, 14135]}, "edge": {"target": [], "time": []}}}, "displayed_time": "15.52", "trialTime": 15765, "trial_type": "mouselab-mdp", "trial_index": 45, "time_elapsed": 1415267, "internal_node_id": "0.0-4.0-1.0-36.0"}}, {"uniqueid": "w70722510:a17817859", "current_trial": 46, "dateTime": 1691071939931, "trialdata": {"revealed_states": [], "clicked_states": ["21", "9"], "num_clicks_accrued": [0, 0, 0, 0, 0, 0, 0, 0, 0, 0, 0, 0, 0], "stateRewards": ["", -1, 2, -2, 5, 80, -61, -27, 12, 44, -26, -75, -2, -4, 1, -16, 42, -49, -50, 4, -44, 2, 80, -2, -2, 5, -2, 59, 10, 24, 7, -48, -86, -44], "withholdReward": false, "trial_id": "mdp_trial_38", "block": "test", "trialIndex": 39, "score": 50.7, "costs": -4.3, "simulationMode": [null, null, null, null, null], "rewards": [-1, 2, -2, 12, 44], "path": ["0", "0", "1", "2", "3", "8", "9"], "rt": [8118, 94, 51, 300, 62], "actions": ["up", "up", "up", "left", "up"], "actionTimes": [8811, 9415, 9968, 10772, 11340], "queries": {"click": {"state": {"target": ["21", "9"], "time": [1561, 5238]}, "edge": {"target": [], "time": []}}, "mouseover": {"state": {"target": ["22", "21", "21", "20", "17", "16", "4", "3", "9", "5"], "time": [1076, 1111, 1465, 4430, 4666, 4840, 4916, 4944, 4993, 5527]}, "edge": {"target": [], "time": []}}, "mouseout": {"state": {"target": ["0", "22", "21", "21", "20", "17", "16", "4", "3", "9", "5"], "time": [1021, 1083, 1132, 1861, 4493, 4701, 4875, 4937, 4958, 5479, 5548]}, "edge": {"target": [], "time": []}}}, "displayed_time": "14.69", "trialTime": 14967, "trial_type": "mouselab-mdp", "trial_index": 46, "time_elapsed": 1430381, "internal_node_id": "0.0-4.0-1.0-37.0"}}, {"uniqueid": "w70722510:a17817859", "current_trial": 47, "dateTime": 1691071955791, "trialdata": {"revealed_states": [], "clicked_states": ["29"], "num_clicks_accrued": [0, 0, 0, 0, 0, 0, 0, 0, 0, 0, 0, 0, 0], "stateRewards": ["", 1, 2, -6, -13, -51, 22, -4, -12, -44, -12, 6, -2, -2, -2, -14, -46, -4, -77, -2, 36, -79, 41, 2, -4, 2, -6, -55, 59, 70, -5, 39, -19, 24], "withholdReward": false, "trial_id": "mdp_trial_39", "block": "test", "trialIndex": 40, "score": 61.85, "costs": -2.15, "simulationMode": [null, null, null, null, null], "rewards": [2, -4, 2, -6, 70], "path": ["0", "0", "23", "24", "25", "26", "29"], "rt": [4835, 78, 91, 100, 52], "actions": ["left", "left", "left", "up", "left"], "actionTimes": [6278, 6863, 7452, 8058, 8615], "queries": {"click": {"state": {"target": ["29"], "time": [2741]}, "edge": {"target": [], "time": []}}, "mouseover": {"state": {"target": ["0", "23", "25", "26", "29", "26", "28", "7"], "time": [1522, 1590, 1694, 2028, 2616, 3007, 3034, 5909]}, "edge": {"target": [], "time": []}}, "mouseout": {"state": {"target": ["12", "0", "23", "25", "26", "29", "26", "28"], "time": [1153, 1569, 1617, 1743, 2215, 2812, 3020, 3048]}, "edge": {"target": [], "time": []}}}, "displayed_time": "15.45", "trialTime": 15709, "trial_type": "mouselab-mdp", "trial_index": 47, "time_elapsed": 1446242, "internal_node_id": "0.0-4.0-1.0-38.0"}}, {"uniqueid": "w70722510:a17817859", "current_trial": 48, "dateTime": 1691071991952, "trialdata": {"revealed_states": [], "clicked_states": ["17", "33", "9", "7", "18", "21", "20", "27"], "num_clicks_accrued": [0, 0, 0, 0, 0, 0, 0, 0, 0, 0, 0, 0, 0], "stateRewards": ["", -1, 3, 1, -11, -22, -36, 19, -5, -70, -52, 50, -2, -4, 4, -2, -41, -83, 29, -2, 22, 10, -6, -2, 3, -2, 14, 54, 44, 77, -9, -65, -37, -40], "withholdReward": false, "trial_id": "mdp_trial_40", "block": "test", "trialIndex": 41, "score": 49.8, "costs": -17.2, "simulationMode": [null, null, null, null, null], "rewards": [-2, 3, -2, 14, 54], "path": ["0", "0", "23", "24", "25", "26", "27"], "rt": [30520, 287, 84, 160, 427], "actions": ["left", "left", "left", "up", "up"], "actionTimes": [31852, 32643, 33232, 33899, 34832], "queries": {"click": {"state": {"target": ["17", "33", "9", "7", "18", "21", "20", "27"], "time": [1941, 5920, 9679, 12973, 16265, 20038, 23354, 28307]}, "edge": {"target": [], "time": []}}, "mouseover": {"state": {"target": ["12", "13", "14", "17", "15", "14", "22", "33", "30", "31", "23", "0", "12", "13", "14", "13", "12", "27", "11", "9", "5", "4", "7", "15", "18", "14", "19", "21", "20", "14", "25", "25", "26", "26", "27"], "time": [1620, 1641, 1669, 1898, 5162, 5204, 5280, 5808, 6176, 6419, 6474, 6495, 6523, 6551, 6585, 8995, 9023, 9203, 9342, 9551, 9967, 12662, 12829, 13328, 15613, 19363, 19432, 19482, 23287, 27641, 27703, 27772, 27821, 28036, 28224]}, "edge": {"target": [], "time": []}}, "mouseout": {"state": {"target": ["7", "12", "13", "14", "17", "15", "14", "22", "33", "30", "31", "23", "0", "12", "13", "14", "13", "12", "27", "11", "9", "5", "4", "7", "15", "18", "14", "19", "21", "20", "14", "25", "25", "26", "26", "27", "24"], "time": [975, 1635, 1662, 1697, 2218, 5190, 5231, 5322, 6141, 6210, 6426, 6481, 6509, 6537, 6571, 6620, 9009, 9058, 9280, 9387, 9912, 10002, 12752, 13245, 15120, 16634, 19411, 19453, 20279, 23578, 27647, 27710, 27793, 27891, 28057, 28365, 35988]}, "edge": {"target": [], "time": []}}}, "displayed_time": "35.34", "trialTime": 35998, "trial_type": "mouselab-mdp", "trial_index": 48, "time_elapsed": 1482402, "internal_node_id": "0.0-4.0-1.0-39.0"}}, {"uniqueid": "w70722510:a17817859", "current_trial": 49, "dateTime": 1691072024924, "trialdata": {"rt": 32970, "response": {"Q0": "$-16 to 16", "Q1": "$-16 to $16", "Q2": "$-88 to $88", "Q3": "The cost for clicking on nodes varied between nodes.", "Q4": "Slightly motivated"}, "question_order": [0, 1, 2, 3, 4], "trial_id": "final_quiz_control", "trial_type": "survey-multi-choice", "trial_index": 49, "time_elapsed": 1515375, "internal_node_id": "0.0-4.0-2.0"}}, {"uniqueid": "w70722510:a17817859", "current_trial": 50, "dateTime": 1691072075316, "trialdata": {"rt": 50388, "response": {"Q0": "Wait until there was a positive node that would outweigh the debt I'd accrued by a fair amount.", "Q1": "Don't think so.", "Q2": "The randomness in rewards."}, "trial_id": "self_report_control", "trial_type": "survey-text", "trial_index": 50, "time_elapsed": 1565767, "internal_node_id": "0.0-4.0-3.0"}}, {"uniqueid": "w70722510:a17817859", "current_trial": 51, "dateTime": 1691072106989, "trialdata": {"rt": 31670, "response": {"Q0": "Neither disagree nor agree", "Q1": "Disagree", "Q2": "Agree", "Q3": "Agree", "Q4": "Disagree", "Q5": "Disagree", "Q6": "Agree"}, "question_order": [0, 1, 2, 3, 4, 5, 6], "trial_id": "self_report_2", "trial_type": "survey-multi-choice", "trial_index": 51, "time_elapsed": 1597439, "internal_node_id": "0.0-4.0-4.0"}}, {"uniqueid": "w70722510:a17817859", "current_trial": 52, "dateTime": 1691072116578, "trialdata": {"rt": 9586, "response": {"gender": "male", "age": "22", "colorblind": "0", "effort": "1"}, "trial_type": "survey-html-form", "trial_index": 52, "time_elapsed": 1607029, "internal_node_id": "0.0-4.0-5.0"}}, {"uniqueid": "w70722510:a17817859", "current_trial": 53, "dateTime": 1691072146634, "trialdata": {"rt": 30053, "response": {"Q0": "No.", "Q1": "No, first time.", "Q2": ""}, "trial_type": "survey-text", "trial_index": 53, "time_elapsed": 1637085, "internal_node_id": "0.0-4.0-6.0"}}, {"uniqueid": "w70722510:a17817859", "current_trial": 54, "dateTime": 1691072148996, "trialdata": {"rt": 2360, "stimulus": "Press 'Finish HIT' in order to reach the completion code. Once the data has been saved, you will receive the code either in this window or in the original browser window where you started the experiment.\n", "response": 0, "trial_type": "html-button-response", "trial_index": 54, "time_elapsed": 1639447, "internal_node_id": "0.0-5.0"}}, {"uniqueid": "w70722510:a17817859", "current_trial": 55, "dateTime": 1691072149999, "trialdata": {"success": true, "trial_type": "fullscreen", "trial_index": 55, "time_elapsed": 1640450, "internal_node_id": "0.0-6.0"}}], "questiondata": {"params": {"CODE": "C6DMOQA6", "MIN_TIME": 14, "inspectCost": 1, "startTime": "Thu Aug 03 2023 14:48:29 GMT+0100 (British Summer Time)", "bonusRate": 0.002, "variance": "1_2_4_8_44", "branching": "31123"}, "final_score": 1553.25}, "eventdata": [{"eventtype": "initialized", "value": null, "timestamp": 1691070508633, "interval": 0}, {"eventtype": "window_resize", "value": [1024, 767], "timestamp": 1691070508633, "interval": 0}, {"eventtype": "window_resize", "value": [1024, 767], "timestamp": 1691070508940, "interval": 307}, {"eventtype": "window_resize", "value": [1920, 1080], "timestamp": 1691070512011, "interval": 3071}, {"eventtype": "focus", "value": "off", "timestamp": 1691071004329, "interval": 492318}, {"eventtype": "focus", "value": "on", "timestamp": 1691071018189, "interval": 13860}, {"eventtype": "focus", "value": "off", "timestamp": 1691071236650, "interval": 218461}, {"eventtype": "focus", "value": "on", "timestamp": 1691071551238, "interval": 314588}, {"eventtype": "window_resize", "value": [1024, 767], "timestamp": 1691072149215, "interval": 597977}], "useragent": "Mozilla/5.0 (Windows NT 10.0; Win64; x64) AppleWebKit/537.36 (KHTML, like Gecko) Chrome/115.0.0.0 Safari/537.36", "mode": "live", "id": "w70722510:a17817859", "status": "user data saved", "Beginhit": "2023-08-03 13:49:03.548253", "Beginexp": "2023-08-03 13:49:08.948512", "Endhit": "2023-08-03 14:16:26.317278", "psiturkStatus": 3, "browser": "<redacted>", "platform": "windows", "language": "en-GB"}