{"condition": 0, "counterbalance": 0, "assignmentId": "a14002223", "workerId": "w90387194", "hitId": "h32392710", "currenttrial": 55, "bonus": 0, "data": [{"uniqueid": "w90387194:a14002223", "current_trial": 0, "dateTime": 1693481036420, "trialdata": {"success": true, "trial_type": "fullscreen", "trial_index": 0, "time_elapsed": 6485, "internal_node_id": "0.0-0.0"}}, {"uniqueid": "w90387194:a14002223", "current_trial": 1, "dateTime": 1693481055521, "trialdata": {"view_history": [{"page_index": 0, "viewing_time": 19093}], "rt": 19094, "trial_id": "exp_instructions_control", "trial_type": "instructions", "trial_index": 1, "time_elapsed": 25586, "internal_node_id": "0.0-1.0"}}, {"uniqueid": "w90387194:a14002223", "current_trial": 2, "dateTime": 1693481225559, "trialdata": {"view_history": [{"page_index": 0, "viewing_time": 42762}, {"page_index": 1, "viewing_time": 79207}, {"page_index": 2, "viewing_time": 19472}, {"page_index": 3, "viewing_time": 28591}], "rt": 170033, "trial_id": "mouselab_instructions_1_control", "trial_type": "instructions", "trial_index": 2, "time_elapsed": 195624, "internal_node_id": "0.0-2.0-1.0"}}, {"uniqueid": "w90387194:a14002223", "current_trial": 3, "dateTime": 1693481248660, "trialdata": {"revealed_states": [], "clicked_states": ["1", "2", "7"], "num_clicks_accrued": [0, 0, 0, 0, 0, 0, 0, 0, 0, 0, 0, 0, 0], "stateRewards": ["", 10, 10, 10, -10, -10, 10, -10, -10, 10, 10, 10, -10, 10, 10, 10, 10, 10, -10, -10, -10, 10, -10, 10, 10, -10, 10, -10, 10, 10, -10, -10, 10, 10], "withholdReward": false, "trial_id": "practice_1", "block": "test", "trialIndex": 0, "score": 12, "costs": -1.5, "simulationMode": [null, null, null, null, null], "rewards": [10, 10, 10, -10, -10], "path": ["0", "0", "1", "2", "3", "4", "5"], "rt": [9348, 832, 3005, 689, 262], "actions": ["up", "up", "up", "right", "up"], "actionTimes": [12066, 13417, 16939, 18136, 18906], "queries": {"click": {"state": {"target": ["1", "2", "7"], "time": [5888, 7163, 8981]}, "edge": {"target": [], "time": []}}, "mouseover": {"state": {"target": ["1", "1", "2", "7", "0"], "time": [5255, 5757, 6986, 8384, 10949]}, "edge": {"target": [], "time": []}}, "mouseout": {"state": {"target": ["0", "0", "1", "1", "2", "7", "0"], "time": [1541, 5156, 5504, 5971, 8252, 10850, 21339]}, "edge": {"target": [], "time": []}}}, "displayed_time": "19.43", "trialTime": 21918, "trial_type": "mouselab-mdp", "trial_index": 3, "time_elapsed": 218724, "internal_node_id": "0.0-2.0-2.0-0.0"}}, {"uniqueid": "w90387194:a14002223", "current_trial": 4, "dateTime": 1693481261973, "trialdata": {"revealed_states": [], "clicked_states": [], "num_clicks_accrued": [0, 0, 0, 0, 0, 0, 0, 0, 0, 0, 0, 0, 0], "stateRewards": ["", 10, 10, -10, -10, -10, -10, -10, -10, 10, -10, 10, -10, -10, 10, 10, 10, -10, 10, -10, 10, 10, -10, -10, 10, -10, 10, -10, 10, -10, -10, 10, 10, -10], "withholdReward": false, "trial_id": "practice_2", "block": "test", "trialIndex": 1, "score": -6.5, "costs": 0, "simulationMode": [null, null, null, null, null], "rewards": [-10, -10, 10, -10, 10], "path": ["0", "0", "12", "13", "14", "19", "21"], "rt": [1777, 561, 108, 60, 3590], "actions": ["right", "right", "right", "down", "down"], "actionTimes": [3766, 4848, 5478, 6079, 10193], "queries": {"click": {"state": {"target": [], "time": []}, "edge": {"target": [], "time": []}}, "mouseover": {"state": {"target": [], "time": []}, "edge": {"target": [], "time": []}}, "mouseout": {"state": {"target": ["0", "21"], "time": [2337, 11945]}, "edge": {"target": [], "time": []}}}, "displayed_time": "10.71", "trialTime": 12882, "trial_type": "mouselab-mdp", "trial_index": 4, "time_elapsed": 232037, "internal_node_id": "0.0-2.0-2.0-1.0"}}, {"uniqueid": "w90387194:a14002223", "current_trial": 5, "dateTime": 1693481293063, "trialdata": {"view_history": [{"page_index": 0, "viewing_time": 26763}, {"page_index": 1, "viewing_time": 4322}], "rt": 31086, "trial_id": "mouselab_instructions_2_control", "trial_type": "instructions", "trial_index": 5, "time_elapsed": 263128, "internal_node_id": "0.0-2.0-3.0"}}, {"uniqueid": "w90387194:a14002223", "current_trial": 6, "dateTime": 1693481329703, "trialdata": {"rt": 36630, "response": {"Q0": "The cost for clicking on nodes may vary between nodes.", "Q1": "The better I perform the higher my bonus will be.", "Q2": "No, the amount of cash at each node of the web may be different each time.", "Q3": "To get the highest total score.", "Q4": "Only before moving the spider.", "Q5": "3 seconds"}, "question_order": [0, 1, 2, 3, 4, 5], "correct": {"Q0": "The cost for clicking on nodes may vary between nodes.", "Q1": "The better I perform the higher my bonus will be.", "Q2": "No, the amount of cash at each node of the web may be different each time.", "Q3": "To get the highest total score.", "Q4": "Only before moving the spider.", "Q5": "3 seconds"}, "trial_id": "mouselab_quiz_control", "trial_type": "survey-multi-choice", "trial_index": 6, "time_elapsed": 299768, "internal_node_id": "0.0-2.0-4.0"}}, {"uniqueid": "w90387194:a14002223", "current_trial": 7, "dateTime": 1693481334091, "trialdata": {"rt": 4372, "response": {"Q0": "No"}, "question_order": [0], "trial_id": "repeat_check", "trial_type": "survey-multi-choice", "trial_index": 7, "time_elapsed": 304156, "internal_node_id": "0.0-4.0-0.0"}}, {"uniqueid": "w90387194:a14002223", "current_trial": 8, "dateTime": 1693481348460, "trialdata": {"rt": 14359, "stimulus": "\n<h1> Get ready to start the game! </h1>\n\nThank you for reading the instructions. Get ready start with the 40 rounds of this game.\n<br><br>\nIf you need to take a break, feel free to take one after the end of a round, before continuing to the next one.\n<br><br>\nRemember, the more money the spider gets, the bigger your bonus will be!\n<br><br>\n<div style='text-align: center;'>Press <code>space</code> to begin.</div>\n\n<br><br>\n(If, at any point, the <code>space</code> key does not take you to the next page, click once on the text and try again.)", "response": " ", "trial_id": "mdp_ready", "trial_type": "html-keyboard-response", "trial_index": 8, "time_elapsed": 318525, "internal_node_id": "0.0-6.0-0.0"}}, {"uniqueid": "w90387194:a14002223", "current_trial": 9, "dateTime": 1693481367952, "trialdata": {"revealed_states": [], "clicked_states": [], "num_clicks_accrued": [0, 0, 0, 0, 0, 0, 0, 0, 0, 0, 0, 0, 0], "stateRewards": ["", -2, -4, -8, 8, 63, -50, -19, -7, -17, -31, 31, 1, 3, -5, 12, -35, -63, -29, -4, -17, -75, -79, -2, -3, -2, 8, -3, -85, 10, -2, -82, -82, 56], "withholdReward": false, "trial_id": "mdp_trial_1", "block": "test", "trialIndex": 2, "score": -91, "costs": 0, "simulationMode": [null, null, null, null, null], "rewards": [-2, -3, -2, -2, -82], "path": ["0", "0", "23", "24", "25", "30", "32"], "rt": [2331, 493, 353, 93, 241], "actions": ["left", "left", "left", "down", "down"], "actionTimes": [5354, 6370, 7242, 7848, 8599], "queries": {"click": {"state": {"target": [], "time": []}, "edge": {"target": [], "time": []}}, "mouseover": {"state": {"target": ["0"], "time": [4325]}, "edge": {"target": [], "time": []}}, "mouseout": {"state": {"target": ["0"], "time": [1727]}, "edge": {"target": [], "time": []}}}, "displayed_time": "17.02", "trialTime": 19133, "trial_type": "mouselab-mdp", "trial_index": 9, "time_elapsed": 338016, "internal_node_id": "0.0-6.0-1.0-0.0"}}, {"uniqueid": "w90387194:a14002223", "current_trial": 10, "dateTime": 1693481387506, "trialdata": {"revealed_states": [], "clicked_states": ["17", "16", "18"], "num_clicks_accrued": [0, 0, 0, 0, 0, 0, 0, 0, 0, 0, 0, 0, 0], "stateRewards": ["", -1, 2, -6, 6, -82, -19, -39, -16, -83, 11, -33, -2, -2, 4, -6, -82, -1, -19, -6, -10, -67, -41, -2, 1, -7, 16, -23, -78, -52, 14, 31, -71, 74], "withholdReward": false, "trial_id": "mdp_trial_2", "block": "test", "trialIndex": 3, "score": -77.2, "costs": -4.199999999999999, "simulationMode": [null, null, null, null, null], "rewards": [-2, -2, 4, -6, -67], "path": ["0", "0", "12", "13", "14", "19", "21"], "rt": [9588, 104, 85, 67, 166], "actions": ["right", "right", "right", "down", "down"], "actionTimes": [11348, 11967, 12564, 13150, 13841], "queries": {"click": {"state": {"target": ["17", "16", "18"], "time": [4721, 6549, 8620]}, "edge": {"target": [], "time": []}}, "mouseover": {"state": {"target": ["12", "13", "14", "15", "17", "16", "18", "14"], "time": [2620, 2735, 2868, 4001, 4500, 5366, 7397, 10645]}, "edge": {"target": [], "time": []}}, "mouseout": {"state": {"target": ["0", "12", "13", "14", "15", "17", "16", "18", "14"], "time": [2569, 2702, 2819, 3802, 4467, 4808, 7163, 10561, 10679]}, "edge": {"target": [], "time": []}}}, "displayed_time": "15.77", "trialTime": 18915, "trial_type": "mouselab-mdp", "trial_index": 10, "time_elapsed": 357570, "internal_node_id": "0.0-6.0-1.0-1.0"}}, {"uniqueid": "w90387194:a14002223", "current_trial": 11, "dateTime": 1693481407012, "trialdata": {"revealed_states": [], "clicked_states": [], "num_clicks_accrued": [0, 0, 0, 0, 0, 0, 0, 0, 0, 0, 0, 0, 0], "stateRewards": ["", 1, -2, -3, 14, -42, -87, -37, -11, -50, 33, -44, -2, 4, -7, 13, 48, -75, -66, 12, 23, -2, 82, 1, -4, 3, 12, 51, -15, -26, -11, -52, -29, 82], "withholdReward": false, "trial_id": "mdp_trial_3", "block": "test", "trialIndex": 4, "score": 89, "costs": 0, "simulationMode": [null, null, null, null, null], "rewards": [-2, 4, -7, 12, 82], "path": ["0", "0", "12", "13", "14", "19", "22"], "rt": [903, 23, 54, 88, 145], "actions": ["right", "right", "right", "down", "left"], "actionTimes": [2823, 3357, 3939, 4555, 5211], "queries": {"click": {"state": {"target": [], "time": []}, "edge": {"target": [], "time": []}}, "mouseover": {"state": {"target": [], "time": []}, "edge": {"target": [], "time": []}}, "mouseout": {"state": {"target": ["14", "13", "12"], "time": [1248, 1282, 1331]}, "edge": {"target": [], "time": []}}}, "displayed_time": "15.92", "trialTime": 18988, "trial_type": "mouselab-mdp", "trial_index": 11, "time_elapsed": 377076, "internal_node_id": "0.0-6.0-1.0-2.0"}}, {"uniqueid": "w90387194:a14002223", "current_trial": 12, "dateTime": 1693481424602, "trialdata": {"revealed_states": [], "clicked_states": ["20", "22", "21"], "num_clicks_accrued": [0, 0, 0, 0, 0, 0, 0, 0, 0, 0, 0, 0, 0], "stateRewards": ["", -2, 2, 2, -6, 9, 37, 50, -13, -7, -18, -75, -2, -4, 4, 7, 23, -57, -66, -7, -81, -48, -76, 1, 1, -8, 1, 51, -2, 70, 14, 59, 71, -37], "withholdReward": false, "trial_id": "mdp_trial_4", "block": "test", "trialIndex": 5, "score": -22.2, "costs": -4.199999999999999, "simulationMode": [null, null, null, null, null], "rewards": [-2, 2, 2, -13, -7], "path": ["0", "0", "1", "2", "3", "8", "9"], "rt": [9962, 28, 88, 305, 24], "actions": ["up", "up", "up", "left", "up"], "actionTimes": [11193, 11743, 12349, 13166, 13702], "queries": {"click": {"state": {"target": ["20", "22", "21"], "time": [3073, 5983, 8120]}, "edge": {"target": [], "time": []}}, "mouseover": {"state": {"target": ["12", "19", "20", "21", "22", "21"], "time": [2452, 2551, 2668, 3432, 5698, 6380]}, "edge": {"target": [], "time": []}}, "mouseout": {"state": {"target": ["0", "12", "19", "20", "21", "22", "21"], "time": [2437, 2468, 2606, 3399, 5566, 6312, 10296]}, "edge": {"target": [], "time": []}}}, "displayed_time": "15.23", "trialTime": 16868, "trial_type": "mouselab-mdp", "trial_index": 12, "time_elapsed": 394667, "internal_node_id": "0.0-6.0-1.0-3.0"}}, {"uniqueid": "w90387194:a14002223", "current_trial": 13, "dateTime": 1693481442122, "trialdata": {"revealed_states": [], "clicked_states": [], "num_clicks_accrued": [0, 0, 0, 0, 0, 0, 0, 0, 0, 0, 0, 0, 0], "stateRewards": ["", -1, -4, -3, 1, -45, -67, -24, 14, 32, 22, 22, -1, 1, -5, -7, 72, 84, -79, -5, 19, -40, -2, -1, -2, 8, -3, 84, -25, -28, 11, 64, -66, 77], "withholdReward": false, "trial_id": "mdp_trial_5", "block": "test", "trialIndex": 6, "score": 28, "costs": 0, "simulationMode": [null, null, null, null, null], "rewards": [-1, -4, -3, 14, 22], "path": ["0", "0", "1", "2", "3", "8", "11"], "rt": [636, 198, 738, 55, 61], "actions": ["up", "up", "up", "left", "left"], "actionTimes": [2081, 2802, 4060, 4624, 5211], "queries": {"click": {"state": {"target": [], "time": []}, "edge": {"target": [], "time": []}}, "mouseover": {"state": {"target": [], "time": []}, "edge": {"target": [], "time": []}}, "mouseout": {"state": {"target": [], "time": []}, "edge": {"target": [], "time": []}}}, "displayed_time": "15.45", "trialTime": 16854, "trial_type": "mouselab-mdp", "trial_index": 13, "time_elapsed": 412187, "internal_node_id": "0.0-6.0-1.0-4.0"}}, {"uniqueid": "w90387194:a14002223", "current_trial": 14, "dateTime": 1693481459879, "trialdata": {"revealed_states": [], "clicked_states": [], "num_clicks_accrued": [0, 0, 0, 0, 0, 0, 0, 0, 0, 0, 0, 0, 0], "stateRewards": ["", 1, 1, -3, 2, 22, -25, -11, -5, 50, 49, 3, 1, -1, 8, 14, -85, -30, 57, -6, -39, -16, 59, -2, -1, 5, 5, 59, -16, 8, 4, 67, 56, -9], "withholdReward": false, "trial_id": "mdp_trial_6", "block": "test", "trialIndex": 7, "score": -10, "costs": 0, "simulationMode": [null, null, null, null, null], "rewards": [1, 1, -3, 2, -11], "path": ["0", "0", "1", "2", "3", "4", "7"], "rt": [1153, 19, 248, 587, 1471], "actions": ["up", "up", "up", "right", "down"], "actionTimes": [1850, 2390, 3156, 4259, 6242], "queries": {"click": {"state": {"target": [], "time": []}, "edge": {"target": [], "time": []}}, "mouseover": {"state": {"target": [], "time": []}, "edge": {"target": [], "time": []}}, "mouseout": {"state": {"target": [], "time": []}, "edge": {"target": [], "time": []}}}, "displayed_time": "14.70", "trialTime": 17064, "trial_type": "mouselab-mdp", "trial_index": 14, "time_elapsed": 429944, "internal_node_id": "0.0-6.0-1.0-5.0"}}, {"uniqueid": "w90387194:a14002223", "current_trial": 15, "dateTime": 1693481476861, "trialdata": {"revealed_states": [], "clicked_states": [], "num_clicks_accrued": [0, 0, 0, 0, 0, 0, 0, 0, 0, 0, 0, 0, 0], "stateRewards": ["", -1, -3, -6, -2, -7, 80, -45, -3, -38, -72, 76, 2, 1, 7, 4, -62, 14, -74, 14, -87, -21, -88, -2, 1, -7, -10, 66, 56, -76, 10, -29, -72, -70], "withholdReward": false, "trial_id": "mdp_trial_7", "block": "test", "trialIndex": 8, "score": -19, "costs": 0, "simulationMode": [null, null, null, null, null], "rewards": [-1, -3, -6, -2, -7], "path": ["0", "0", "1", "2", "3", "4", "5"], "rt": [846, 173, 120, 579, 104], "actions": ["up", "up", "up", "right", "up"], "actionTimes": [1964, 2646, 3276, 4368, 4994], "queries": {"click": {"state": {"target": [], "time": []}, "edge": {"target": [], "time": []}}, "mouseover": {"state": {"target": [], "time": []}, "edge": {"target": [], "time": []}}, "mouseout": {"state": {"target": [], "time": []}, "edge": {"target": [], "time": []}}}, "displayed_time": "15.12", "trialTime": 16196, "trial_type": "mouselab-mdp", "trial_index": 15, "time_elapsed": 446925, "internal_node_id": "0.0-6.0-1.0-6.0"}}, {"uniqueid": "w90387194:a14002223", "current_trial": 16, "dateTime": 1693481494006, "trialdata": {"revealed_states": [], "clicked_states": ["29", "33", "27"], "num_clicks_accrued": [0, 0, 0, 0, 0, 0, 0, 0, 0, 0, 0, 0, 0], "stateRewards": ["", -1, 2, 7, 8, 75, 67, -11, 6, 52, -17, 38, -1, 4, -8, 14, 74, -37, -17, -12, 52, 55, 71, -2, -1, -5, 2, 21, 6, -88, -14, 64, -61, -47], "withholdReward": false, "trial_id": "mdp_trial_8", "block": "test", "trialIndex": 9, "score": 10.8, "costs": -4.199999999999999, "simulationMode": [null, null, null, null, null, null], "rewards": [-2, -1, -5, 2, 21], "path": ["0", "0", "23", "24", "25", "26", "27"], "rt": [7245, 626, 915, 144, 76, 326], "actions": ["left", "left", "left", "left", "up", "up"], "actionTimes": [8504, 9135, 10584, 11244, 11842, 12677], "queries": {"click": {"state": {"target": ["29", "33", "27"], "time": [2031, 4230, 7980]}, "edge": {"target": [], "time": []}}, "mouseover": {"state": {"target": ["28", "26", "29", "33", "33", "26", "27", "27"], "time": [1673, 1725, 1824, 2989, 3338, 7535, 7601, 7828]}, "edge": {"target": [], "time": []}}, "mouseout": {"state": {"target": ["0", "28", "26", "29", "33", "33", "26", "27", "27"], "time": [1574, 1690, 1774, 2840, 3170, 7501, 7567, 7718, 8065]}, "edge": {"target": [], "time": []}}}, "displayed_time": "15.26", "trialTime": 16444, "trial_type": "mouselab-mdp", "trial_index": 16, "time_elapsed": 464070, "internal_node_id": "0.0-6.0-1.0-7.0"}}, {"uniqueid": "w90387194:a14002223", "current_trial": 17, "dateTime": 1693481514444, "trialdata": {"revealed_states": [], "clicked_states": ["27"], "num_clicks_accrued": [0, 0, 0, 0, 0, 0, 0, 0, 0, 0, 0, 0, 0], "stateRewards": ["", -1, -3, -7, -4, -85, -70, 79, 8, 84, -66, 42, 2, -2, -3, -16, -54, -66, 68, -3, 21, -14, 7, -2, -1, -3, -8, 75, 80, 86, -7, -84, 73, -16], "withholdReward": false, "trial_id": "mdp_trial_9", "block": "test", "trialIndex": 10, "score": 59.6, "costs": -1.4, "simulationMode": [null, null, null, null, null], "rewards": [-2, -1, -3, -8, 75], "path": ["0", "0", "23", "24", "25", "26", "27"], "rt": [3759, 285, 103, 7, 45], "actions": ["left", "left", "left", "up", "up"], "actionTimes": [7128, 7928, 8544, 9065, 9636], "queries": {"click": {"state": {"target": ["27"], "time": [4045]}, "edge": {"target": [], "time": []}}, "mouseover": {"state": {"target": ["28", "26", "27", "28"], "time": [3578, 3677, 3911, 4642]}, "edge": {"target": [], "time": []}}, "mouseout": {"state": {"target": ["27", "1", "17", "15", "18", "1", "0", "0", "28", "26", "27", "27", "28"], "time": [98, 312, 1612, 1644, 1661, 1729, 2729, 3010, 3659, 3710, 4137, 4359, 6208]}, "edge": {"target": [], "time": []}}}, "displayed_time": "17.37", "trialTime": 19771, "trial_type": "mouselab-mdp", "trial_index": 17, "time_elapsed": 484508, "internal_node_id": "0.0-6.0-1.0-8.0"}}, {"uniqueid": "w90387194:a14002223", "current_trial": 18, "dateTime": 1693481533173, "trialdata": {"revealed_states": [], "clicked_states": ["29", "33"], "num_clicks_accrued": [0, 0, 0, 0, 0, 0, 0, 0, 0, 0, 0, 0, 0], "stateRewards": ["", 1, 1, -2, 7, -31, -6, 76, 1, -36, -16, -53, 2, 1, 7, 13, -47, -10, 47, -7, 72, 46, -56, -2, -2, -2, 11, -80, 44, 38, 16, 67, 85, -78], "withholdReward": false, "trial_id": "mdp_trial_10", "block": "test", "trialIndex": 11, "score": 40.2, "costs": -2.8, "simulationMode": [null, null, null, null, null, null], "rewards": [-2, -2, -2, 11, 38], "path": ["0", "0", "23", "24", "25", "26", "29"], "rt": [4169, 322, 44, 48, 54, 22], "actions": ["left", "left", "left", "left", "up", "left"], "actionTimes": [6485, 6811, 7390, 7976, 8563, 9113], "queries": {"click": {"state": {"target": ["29", "33"], "time": [3725, 5545]}, "edge": {"target": [], "time": []}}, "mouseover": {"state": {"target": ["31", "25", "26", "29", "33"], "time": [2779, 3213, 3428, 3612, 4261]}, "edge": {"target": [], "time": []}}, "mouseout": {"state": {"target": ["28", "23", "0", "31", "25", "26", "29"], "time": [1147, 1245, 2746, 3140, 3313, 3462, 4060]}, "edge": {"target": [], "time": []}}}, "displayed_time": "16.32", "trialTime": 18006, "trial_type": "mouselab-mdp", "trial_index": 18, "time_elapsed": 503237, "internal_node_id": "0.0-6.0-1.0-9.0"}}, {"uniqueid": "w90387194:a14002223", "current_trial": 19, "dateTime": 1693481550730, "trialdata": {"revealed_states": [], "clicked_states": ["33"], "num_clicks_accrued": [0, 0, 0, 0, 0, 0, 0, 0, 0, 0, 0, 0, 0], "stateRewards": ["", -2, 2, 3, -7, -31, -33, 29, -8, -57, 50, -83, -1, -1, 5, 13, -23, -62, 25, 5, -66, -85, 14, 1, -2, -1, 16, 71, 33, -19, -14, 5, -43, 79], "withholdReward": false, "trial_id": "mdp_trial_11", "block": "test", "trialIndex": 12, "score": 61.6, "costs": -1.4, "simulationMode": [null, null, null, null, null], "rewards": [1, -2, -1, -14, 79], "path": ["0", "0", "23", "24", "25", "30", "33"], "rt": [4175, 277, 17, 27, 31], "actions": ["left", "left", "left", "down", "left"], "actionTimes": [5158, 5958, 6494, 7040, 7591], "queries": {"click": {"state": {"target": ["33"], "time": [2177]}, "edge": {"target": [], "time": []}}, "mouseover": {"state": {"target": ["26", "29", "33", "32", "32"], "time": [1347, 1380, 1948, 4095, 4360]}, "edge": {"target": [], "time": []}}, "mouseout": {"state": {"target": ["30", "31", "0", "26", "29", "33", "32"], "time": [50, 82, 1281, 1365, 1764, 3779, 4145]}, "edge": {"target": [], "time": []}}}, "displayed_time": "14.98", "trialTime": 16814, "trial_type": "mouselab-mdp", "trial_index": 19, "time_elapsed": 520794, "internal_node_id": "0.0-6.0-1.0-10.0"}}, {"uniqueid": "w90387194:a14002223", "current_trial": 20, "dateTime": 1693481579185, "trialdata": {"revealed_states": [], "clicked_states": ["32"], "num_clicks_accrued": [0, 0, 0, 0, 0, 0, 0, 0, 0, 0, 0, 0, 0], "stateRewards": ["", 2, -1, 5, 8, 75, -35, -77, 1, -9, -81, -58, 1, 2, -7, 5, 77, -16, 19, 16, -10, -18, 40, -2, 3, 7, -5, 64, 1, -62, 10, 27, 10, 65], "withholdReward": false, "trial_id": "mdp_trial_12", "block": "test", "trialIndex": 13, "score": 26.6, "costs": -1.4, "simulationMode": [null, null, null, null, null], "rewards": [-2, 3, 7, 10, 10], "path": ["0", "0", "23", "24", "25", "30", "32"], "rt": [3620, 248, 513, 542, 167], "actions": ["left", "left", "left", "down", "down"], "actionTimes": [16425, 17190, 18223, 19284, 19976], "queries": {"click": {"state": {"target": ["32"], "time": [13720]}, "edge": {"target": [], "time": []}}, "mouseover": {"state": {"target": ["12", "0", "32"], "time": [12977, 13193, 13609]}, "edge": {"target": [], "time": []}}, "mouseout": {"state": {"target": ["32", "0", "12", "0"], "time": [11943, 12418, 13077, 13211]}, "edge": {"target": [], "time": []}}}, "displayed_time": "26.81", "trialTime": 27745, "trial_type": "mouselab-mdp", "trial_index": 20, "time_elapsed": 549249, "internal_node_id": "0.0-6.0-1.0-11.0"}}, {"uniqueid": "w90387194:a14002223", "current_trial": 21, "dateTime": 1693481599663, "trialdata": {"revealed_states": [], "clicked_states": ["21"], "num_clicks_accrued": [0, 0, 0, 0, 0, 0, 0, 0, 0, 0, 0, 0, 0], "stateRewards": ["", 2, -3, -5, 5, 11, -9, -33, 6, 67, 6, -30, -1, -2, -6, 13, 55, 13, 72, -14, 75, 21, -66, -2, -4, 6, 15, -1, -35, 60, 2, 51, -73, 12], "withholdReward": false, "trial_id": "mdp_trial_13", "block": "test", "trialIndex": 14, "score": -3.3999999999999986, "costs": -1.4, "simulationMode": [null, null, null, null, null], "rewards": [-1, -2, -6, -14, 21], "path": ["0", "0", "12", "13", "14", "19", "21"], "rt": [3361, 28, 108, 745, 394], "actions": ["right", "right", "right", "down", "down"], "actionTimes": [5058, 5607, 6234, 7491, 8403], "queries": {"click": {"state": {"target": ["21"], "time": [2550]}, "edge": {"target": [], "time": []}}, "mouseover": {"state": {"target": ["12", "13", "19", "21", "20", "20"], "time": [1748, 1778, 2146, 2412, 4194, 4493]}, "edge": {"target": [], "time": []}}, "mouseout": {"state": {"target": ["32", "0", "12", "13", "19", "21", "20", "20", "19"], "time": [730, 1745, 1758, 1794, 2313, 2637, 4227, 18795, 18812]}, "edge": {"target": [], "time": []}}}, "displayed_time": "15.70", "trialTime": 19709, "trial_type": "mouselab-mdp", "trial_index": 21, "time_elapsed": 569727, "internal_node_id": "0.0-6.0-1.0-12.0"}}, {"uniqueid": "w90387194:a14002223", "current_trial": 22, "dateTime": 1693481616112, "trialdata": {"revealed_states": [], "clicked_states": ["28", "27", "29"], "num_clicks_accrued": [0, 0, 0, 0, 0, 0, 0, 0, 0, 0, 0, 0, 0], "stateRewards": ["", -1, 3, -5, -2, -13, -9, -34, -7, -81, 32, 35, -2, -2, 1, -14, -32, 81, 7, 4, 82, 56, -8, -1, 3, -8, 6, -24, -24, -53, 2, 38, 61, 54], "withholdReward": false, "trial_id": "mdp_trial_14", "block": "test", "trialIndex": 15, "score": 29.8, "costs": -4.199999999999999, "simulationMode": [null, null, null, null, null], "rewards": [-1, 3, -8, 2, 38], "path": ["0", "0", "23", "24", "25", "30", "31"], "rt": [7567, 271, 52, 126, 937], "actions": ["left", "left", "left", "down", "right"], "actionTimes": [8663, 9447, 10009, 10665, 12142], "queries": {"click": {"state": {"target": ["28", "27", "29"], "time": [1851, 4207, 6760]}, "edge": {"target": [], "time": []}}, "mouseover": {"state": {"target": ["23", "28", "27", "29"], "time": [1478, 1679, 3993, 6441]}, "edge": {"target": [], "time": []}}, "mouseout": {"state": {"target": ["0", "23", "28", "27", "29"], "time": [1428, 1528, 3942, 6340, 6817]}, "edge": {"target": [], "time": []}}}, "displayed_time": "15.10", "trialTime": 15994, "trial_type": "mouselab-mdp", "trial_index": 22, "time_elapsed": 586176, "internal_node_id": "0.0-6.0-1.0-13.0"}}, {"uniqueid": "w90387194:a14002223", "current_trial": 23, "dateTime": 1693481632850, "trialdata": {"revealed_states": [], "clicked_states": ["6"], "num_clicks_accrued": [0, 0, 0, 0, 0, 0, 0, 0, 0, 0, 0, 0, 0], "stateRewards": ["", -2, -3, -3, 9, 79, 67, 22, -15, -56, 27, -85, -2, 4, -4, -15, -20, -32, 60, 15, 71, 57, 17, 1, 2, -8, 15, -37, -81, 82, 15, 21, -3, 2], "withholdReward": false, "trial_id": "mdp_trial_15", "block": "test", "trialIndex": 16, "score": 66.6, "costs": -1.4, "simulationMode": [null, null, null, null, null], "rewards": [-2, -3, -3, 9, 67], "path": ["0", "0", "1", "2", "3", "4", "6"], "rt": [3230, 283, 628, 61, 329], "actions": ["up", "up", "up", "right", "right"], "actionTimes": [4296, 5094, 6235, 6802, 7638], "queries": {"click": {"state": {"target": ["6"], "time": [1790]}, "edge": {"target": [], "time": []}}, "mouseover": {"state": {"target": ["7", "6", "7"], "time": [1445, 1677, 2592]}, "edge": {"target": [], "time": []}}, "mouseout": {"state": {"target": ["29", "26", "28", "23", "0", "7", "6"], "time": [112, 161, 195, 261, 1312, 1479, 2545]}, "edge": {"target": [], "time": []}}}, "displayed_time": "15.07", "trialTime": 16030, "trial_type": "mouselab-mdp", "trial_index": 23, "time_elapsed": 602914, "internal_node_id": "0.0-6.0-1.0-14.0"}}, {"uniqueid": "w90387194:a14002223", "current_trial": 24, "dateTime": 1693481649753, "trialdata": {"revealed_states": [], "clicked_states": [], "num_clicks_accrued": [0, 0, 0, 0, 0, 0, 0, 0, 0, 0, 0, 0, 0], "stateRewards": ["", -1, 4, -3, 3, 57, -61, 5, -11, 23, -1, 34, -2, -4, -1, -13, 27, 38, -36, 4, -45, 21, 88, 1, -2, -1, 1, -69, -5, -78, -12, -9, 38, -54], "withholdReward": false, "trial_id": "mdp_trial_16", "block": "test", "trialIndex": 17, "score": -12, "costs": 0, "simulationMode": [null, null, null, null, null], "rewards": [-1, 4, -3, -11, -1], "path": ["0", "0", "1", "2", "3", "8", "10"], "rt": [1061, 359, 43, 27, 62], "actions": ["up", "up", "up", "left", "down"], "actionTimes": [2268, 3145, 3711, 4276, 4847], "queries": {"click": {"state": {"target": [], "time": []}, "edge": {"target": [], "time": []}}, "mouseover": {"state": {"target": [], "time": []}, "edge": {"target": [], "time": []}}, "mouseout": {"state": {"target": ["7", "1"], "time": [436, 500]}, "edge": {"target": [], "time": []}}}, "displayed_time": "15.21", "trialTime": 16223, "trial_type": "mouselab-mdp", "trial_index": 24, "time_elapsed": 619817, "internal_node_id": "0.0-6.0-1.0-15.0"}}, {"uniqueid": "w90387194:a14002223", "current_trial": 25, "dateTime": 1693481666363, "trialdata": {"revealed_states": [], "clicked_states": ["19", "21", "22", "20"], "num_clicks_accrued": [0, 0, 0, 0, 0, 0, 0, 0, 0, 0, 0, 0, 0], "stateRewards": ["", -1, 1, -1, 2, 19, 85, -18, 2, -3, -26, 36, 2, 4, 7, -9, -18, 70, 72, -5, 35, -20, -28, 1, -2, -4, -3, -59, -11, -63, -2, -72, 59, -69], "withholdReward": false, "trial_id": "mdp_trial_17", "block": "test", "trialIndex": 18, "score": 37.4, "costs": -5.6, "simulationMode": [null, null, null, null, null], "rewards": [2, 4, 7, -5, 35], "path": ["0", "0", "12", "13", "14", "19", "20"], "rt": [10113, 7, 274, 58, 88], "actions": ["right", "right", "right", "down", "right"], "actionTimes": [10881, 11405, 12206, 12773, 13385], "queries": {"click": {"state": {"target": ["19", "21", "22", "20"], "time": [1681, 3716, 5726, 7887]}, "edge": {"target": [], "time": []}}, "mouseover": {"state": {"target": ["12", "13", "14", "19", "21", "22", "22", "20", "15", "20", "16", "15", "14"], "time": [1192, 1211, 1239, 1489, 2537, 4487, 4686, 6467, 6617, 7300, 8415, 10117, 10222]}, "edge": {"target": [], "time": []}}, "mouseout": {"state": {"target": ["0", "12", "13", "14", "19", "21", "22", "22", "19", "20", "15", "20", "16", "15", "14"], "time": [1173, 1207, 1224, 1289, 2436, 4418, 4519, 6099, 6151, 6566, 6802, 8184, 10049, 10190, 10283]}, "edge": {"target": [], "time": []}}}, "displayed_time": "14.77", "trialTime": 15838, "trial_type": "mouselab-mdp", "trial_index": 25, "time_elapsed": 636427, "internal_node_id": "0.0-6.0-1.0-16.0"}}, {"uniqueid": "w90387194:a14002223", "current_trial": 26, "dateTime": 1693481684801, "trialdata": {"revealed_states": [], "clicked_states": ["29", "27"], "num_clicks_accrued": [0, 0, 0, 0, 0, 0, 0, 0, 0, 0, 0, 0, 0], "stateRewards": ["", -2, 1, -8, 12, -65, -79, 16, 7, -80, -17, -45, -2, 2, -5, -2, -85, 23, -4, -7, 48, 27, -76, 2, 3, 5, 2, 43, 71, -13, 7, -49, 59, -31], "withholdReward": false, "trial_id": "mdp_trial_18", "block": "test", "trialIndex": 19, "score": 52.2, "costs": -2.8, "simulationMode": [null, null, null, null, null], "rewards": [2, 3, 5, 2, 43], "path": ["0", "0", "23", "24", "25", "26", "27"], "rt": [5602, 17, 82, 54, 588], "actions": ["left", "left", "left", "up", "up"], "actionTimes": [8194, 8733, 9344, 9920, 11018], "queries": {"click": {"state": {"target": ["29", "27"], "time": [3256, 5385]}, "edge": {"target": [], "time": []}}, "mouseover": {"state": {"target": ["26", "29", "33", "26", "27", "28", "25", "25", "28", "24"], "time": [2950, 3033, 4233, 4715, 4888, 5812, 6345, 6662, 7396, 7497]}, "edge": {"target": [], "time": []}}, "mouseout": {"state": {"target": ["13", "28", "26", "24", "0", "26", "29", "33", "26", "27", "28", "25", "25", "28", "24"], "time": [1152, 1318, 1684, 1801, 2604, 3001, 3931, 4615, 4849, 5714, 6318, 6413, 6729, 7451, 7529]}, "edge": {"target": [], "time": []}}}, "displayed_time": "16.59", "trialTime": 17740, "trial_type": "mouselab-mdp", "trial_index": 26, "time_elapsed": 654865, "internal_node_id": "0.0-6.0-1.0-17.0"}}, {"uniqueid": "w90387194:a14002223", "current_trial": 27, "dateTime": 1693481701158, "trialdata": {"revealed_states": [], "clicked_states": ["32"], "num_clicks_accrued": [0, 0, 0, 0, 0, 0, 0, 0, 0, 0, 0, 0, 0], "stateRewards": ["", -1, -3, 1, -4, -48, -63, -49, -2, -84, -19, 65, 2, -2, -2, -12, -4, 59, 9, 6, 75, 69, -13, -1, -3, -3, -2, -37, -68, -36, 13, 32, 18, -14], "withholdReward": false, "trial_id": "mdp_trial_19", "block": "test", "trialIndex": 20, "score": 22.6, "costs": -1.4, "simulationMode": [null, null, null, null, null], "rewards": [-1, -3, -3, 13, 18], "path": ["0", "0", "23", "24", "25", "30", "32"], "rt": [3027, 201, 98, 507, 62], "actions": ["left", "left", "left", "down", "down"], "actionTimes": [3948, 4660, 5270, 6298, 6883], "queries": {"click": {"state": {"target": ["32"], "time": [1571]}, "edge": {"target": [], "time": []}}, "mouseover": {"state": {"target": ["23", "31", "32"], "time": [1191, 1241, 1356]}, "edge": {"target": [], "time": []}}, "mouseout": {"state": {"target": ["0", "23", "31", "32"], "time": [1174, 1205, 1293, 2155]}, "edge": {"target": [], "time": []}}}, "displayed_time": "14.93", "trialTime": 15586, "trial_type": "mouselab-mdp", "trial_index": 27, "time_elapsed": 671222, "internal_node_id": "0.0-6.0-1.0-18.0"}}, {"uniqueid": "w90387194:a14002223", "current_trial": 28, "dateTime": 1693481717726, "trialdata": {"revealed_states": [], "clicked_states": ["7", "10"], "num_clicks_accrued": [0, 0, 0, 0, 0, 0, 0, 0, 0, 0, 0, 0, 0], "stateRewards": ["", 1, 2, -3, -6, 50, -7, 7, -7, -80, 21, -1, 2, 2, 4, -1, 33, 84, 1, 14, -53, 81, 6, -2, -2, -3, -9, -87, -38, -59, -5, -74, -3, -71], "withholdReward": false, "trial_id": "mdp_trial_20", "block": "test", "trialIndex": 21, "score": 11.2, "costs": -2.8, "simulationMode": [null, null, null, null, null], "rewards": [1, 2, -3, -7, 21], "path": ["0", "0", "1", "2", "3", "8", "10"], "rt": [6596, 175, 6, 4, 30], "actions": ["up", "up", "up", "left", "down"], "actionTimes": [7640, 8340, 8871, 9404, 9943], "queries": {"click": {"state": {"target": ["7", "10"], "time": [2594, 5809]}, "edge": {"target": [], "time": []}}, "mouseover": {"state": {"target": ["1", "2", "4", "4", "7", "2", "10"], "time": [1301, 1617, 1869, 2200, 2350, 5482, 5730]}, "edge": {"target": [], "time": []}}, "mouseout": {"state": {"target": ["0", "1", "2", "4", "4", "7", "2"], "time": [519, 1402, 1701, 1902, 2250, 5432, 5647]}, "edge": {"target": [], "time": []}}}, "displayed_time": "15.05", "trialTime": 15849, "trial_type": "mouselab-mdp", "trial_index": 28, "time_elapsed": 687790, "internal_node_id": "0.0-6.0-1.0-19.0"}}, {"uniqueid": "w90387194:a14002223", "current_trial": 29, "dateTime": 1693481736011, "trialdata": {"revealed_states": [], "clicked_states": ["10"], "num_clicks_accrued": [0, 0, 0, 0, 0, 0, 0, 0, 0, 0, 0, 0, 0], "stateRewards": ["", -2, 3, 8, -9, 59, 41, -50, -1, 82, 66, 33, 2, -2, 7, 8, 1, -38, 12, -16, 24, -37, 67, 1, 4, -2, 5, 35, -83, 28, 8, -27, 69, -64], "withholdReward": false, "trial_id": "mdp_trial_21", "block": "test", "trialIndex": 22, "score": 72.6, "costs": -1.4, "simulationMode": [null, null, null, null, null], "rewards": [-2, 3, 8, -1, 66], "path": ["0", "0", "1", "2", "3", "8", "10"], "rt": [3302, 5, 90, 22, 540], "actions": ["up", "up", "up", "left", "down"], "actionTimes": [4789, 5306, 5921, 6456, 7519], "queries": {"click": {"state": {"target": ["10"], "time": [2221]}, "edge": {"target": [], "time": []}}, "mouseover": {"state": {"target": ["2", "1", "10", "2", "7"], "time": [1750, 1799, 2099, 2613, 2780]}, "edge": {"target": [], "time": []}}, "mouseout": {"state": {"target": ["10", "0", "2", "1", "10", "2", "7", "0"], "time": [751, 1502, 1766, 1848, 2580, 2713, 16101, 16151]}, "edge": {"target": [], "time": []}}}, "displayed_time": "15.49", "trialTime": 17547, "trial_type": "mouselab-mdp", "trial_index": 29, "time_elapsed": 706075, "internal_node_id": "0.0-6.0-1.0-20.0"}}, {"uniqueid": "w90387194:a14002223", "current_trial": 30, "dateTime": 1693481753477, "trialdata": {"revealed_states": [], "clicked_states": ["7", "10", "5", "9"], "num_clicks_accrued": [0, 0, 0, 0, 0, 0, 0, 0, 0, 0, 0, 0, 0], "stateRewards": ["", -1, -1, 7, -15, -43, -21, -84, -9, -45, -66, 2, 1, -2, 2, 8, -27, 44, -52, -5, -84, 11, 53, 1, 4, -4, 16, 83, -82, -15, -16, 68, -43, 81], "withholdReward": false, "trial_id": "mdp_trial_22", "block": "test", "trialIndex": 23, "score": 1.4000000000000004, "costs": -5.6, "simulationMode": [null, null, null, null, null], "rewards": [1, -2, 2, -5, 11], "path": ["0", "0", "12", "13", "14", "19", "21"], "rt": [9226, 602, 60, 36, 100], "actions": ["right", "right", "right", "down", "down"], "actionTimes": [11156, 12272, 12849, 13418, 14050], "queries": {"click": {"state": {"target": ["7", "10", "5", "9"], "time": [2508, 4499, 6453, 8379]}, "edge": {"target": [], "time": []}}, "mouseover": {"state": {"target": ["7", "7", "2", "10", "3", "5", "9"], "time": [1951, 2344, 3109, 3445, 5408, 5478, 6976]}, "edge": {"target": [], "time": []}}, "mouseout": {"state": {"target": ["0", "0", "7", "7", "2", "10", "3", "5"], "time": [1012, 1948, 2196, 3077, 3194, 5376, 5425, 6825]}, "edge": {"target": [], "time": []}}}, "displayed_time": "15.93", "trialTime": 16911, "trial_type": "mouselab-mdp", "trial_index": 30, "time_elapsed": 723541, "internal_node_id": "0.0-6.0-1.0-21.0"}}, {"uniqueid": "w90387194:a14002223", "current_trial": 31, "dateTime": 1693481770652, "trialdata": {"revealed_states": [], "clicked_states": ["7", "10", "5"], "num_clicks_accrued": [0, 0, 0, 0, 0, 0, 0, 0, 0, 0, 0, 0, 0], "stateRewards": ["", -2, 3, -5, -7, 66, 43, -60, -4, -70, -75, 4, -1, 2, 2, -13, 54, 11, -40, -1, 77, 32, 15, -2, 3, -8, -9, -35, 83, -27, 6, -74, -34, 44], "withholdReward": false, "trial_id": "mdp_trial_23", "block": "test", "trialIndex": 24, "score": 50.8, "costs": -4.199999999999999, "simulationMode": [null, null, null, null, null], "rewards": [-2, 3, -5, -7, 66], "path": ["0", "0", "1", "2", "3", "4", "5"], "rt": [7587, 78, 256, 546, 206], "actions": ["up", "up", "up", "right", "up"], "actionTimes": [8967, 9567, 10343, 11400, 12123], "queries": {"click": {"state": {"target": ["7", "10", "5"], "time": [2026, 4019, 6299]}, "edge": {"target": [], "time": []}}, "mouseover": {"state": {"target": ["7", "2", "10", "3", "5", "5"], "time": [1941, 2473, 2603, 4389, 4422, 4739]}, "edge": {"target": [], "time": []}}, "mouseout": {"state": {"target": ["9", "1", "0", "7", "2", "10", "3", "5", "5"], "time": [725, 875, 1556, 2457, 2525, 4357, 4406, 4554, 6920]}, "edge": {"target": [], "time": []}}}, "displayed_time": "15.38", "trialTime": 16385, "trial_type": "mouselab-mdp", "trial_index": 31, "time_elapsed": 740717, "internal_node_id": "0.0-6.0-1.0-22.0"}}, {"uniqueid": "w90387194:a14002223", "current_trial": 32, "dateTime": 1693481788059, "trialdata": {"revealed_states": [], "clicked_states": ["29", "33", "20", "17"], "num_clicks_accrued": [0, 0, 0, 0, 0, 0, 0, 0, 0, 0, 0, 0, 0], "stateRewards": ["", 2, -3, -2, 14, -4, 85, 46, 15, -28, 41, 31, -1, -1, -1, 5, 62, 79, 57, 12, -73, -64, 86, -1, 1, -3, -5, 68, 11, -32, 8, -80, -21, -56], "withholdReward": false, "trial_id": "mdp_trial_24", "block": "test", "trialIndex": 25, "score": 75.4, "costs": -5.6, "simulationMode": [null, null, null, null, null], "rewards": [-1, -1, -1, 5, 79], "path": ["0", "0", "12", "13", "14", "15", "17"], "rt": [8556, 60, 173, 40, 580], "actions": ["right", "right", "right", "up", "right"], "actionTimes": [9765, 10338, 11051, 11600, 12688], "queries": {"click": {"state": {"target": ["29", "33", "20", "17"], "time": [1922, 3825, 5766, 7682]}, "edge": {"target": [], "time": []}}, "mouseover": {"state": {"target": ["23", "24", "29", "25", "31", "30", "33", "30", "12", "13", "14", "20", "17"], "time": [1514, 1565, 1783, 2280, 2349, 3174, 3230, 4136, 4178, 4198, 4214, 4547, 6477]}, "edge": {"target": [], "time": []}}, "mouseout": {"state": {"target": ["0", "23", "24", "29", "25", "31", "30", "33", "30", "12", "13", "14", "20"], "time": [1500, 1549, 1600, 2249, 2331, 3147, 3197, 4130, 4153, 4195, 4212, 4228, 6179]}, "edge": {"target": [], "time": []}}}, "displayed_time": "15.21", "trialTime": 16615, "trial_type": "mouselab-mdp", "trial_index": 32, "time_elapsed": 758122, "internal_node_id": "0.0-6.0-1.0-23.0"}}, {"uniqueid": "w90387194:a14002223", "current_trial": 33, "dateTime": 1693481806178, "trialdata": {"revealed_states": [], "clicked_states": [], "num_clicks_accrued": [0, 0, 0, 0, 0, 0, 0, 0, 0, 0, 0, 0, 0], "stateRewards": ["", -2, -1, -4, -15, -14, -67, 32, -3, -59, 63, 31, 2, -1, -7, -15, 71, -66, -27, -3, -54, -39, 72, 2, 1, 1, -13, 77, -40, 35, -9, 35, 75, 57], "withholdReward": false, "trial_id": "mdp_trial_25", "block": "test", "trialIndex": 26, "score": -69, "costs": 0, "simulationMode": [null, null, null, null, null], "rewards": [-2, -1, -4, -3, -59], "path": ["0", "0", "1", "2", "3", "8", "9"], "rt": [1588, 32, 230, 506, 553], "actions": ["up", "up", "up", "left", "up"], "actionTimes": [3417, 3967, 4719, 5741, 6817], "queries": {"click": {"state": {"target": [], "time": []}, "edge": {"target": [], "time": []}}, "mouseover": {"state": {"target": [], "time": []}, "edge": {"target": [], "time": []}}, "mouseout": {"state": {"target": ["17", "15", "18", "0"], "time": [516, 548, 599, 848]}, "edge": {"target": [], "time": []}}}, "displayed_time": "15.83", "trialTime": 17333, "trial_type": "mouselab-mdp", "trial_index": 33, "time_elapsed": 776242, "internal_node_id": "0.0-6.0-1.0-24.0"}}, {"uniqueid": "w90387194:a14002223", "current_trial": 34, "dateTime": 1693481822930, "trialdata": {"revealed_states": [], "clicked_states": ["22"], "num_clicks_accrued": [0, 0, 0, 0, 0, 0, 0, 0, 0, 0, 0, 0, 0], "stateRewards": ["", 1, 1, -5, 8, -6, 45, 16, -6, -7, -22, -38, -1, -4, 8, -11, -16, 21, -45, -15, -59, -32, 42, -1, 3, 6, 11, -7, 34, -27, -8, 85, 43, -9], "withholdReward": false, "trial_id": "mdp_trial_26", "block": "test", "trialIndex": 27, "score": 28.6, "costs": -1.4, "simulationMode": [null, null, null, null, null], "rewards": [-1, -4, 8, -15, 42], "path": ["0", "0", "12", "13", "14", "19", "22"], "rt": [4430, 55, 41, 486, 131], "actions": ["right", "right", "right", "down", "left"], "actionTimes": [5849, 6418, 6985, 7998, 8643], "queries": {"click": {"state": {"target": ["22"], "time": [3141]}, "edge": {"target": [], "time": []}}, "mouseover": {"state": {"target": ["12", "13", "14", "19", "22", "21"], "time": [1947, 2030, 2130, 2545, 3064, 3777]}, "edge": {"target": [], "time": []}}, "mouseout": {"state": {"target": ["0", "12", "13", "14", "19", "22"], "time": [1914, 1996, 2079, 2480, 2796, 3662]}, "edge": {"target": [], "time": []}}}, "displayed_time": "15.42", "trialTime": 15937, "trial_type": "mouselab-mdp", "trial_index": 34, "time_elapsed": 792995, "internal_node_id": "0.0-6.0-1.0-25.0"}}, {"uniqueid": "w90387194:a14002223", "current_trial": 35, "dateTime": 1693481839764, "trialdata": {"revealed_states": [], "clicked_states": ["31", "32"], "num_clicks_accrued": [0, 0, 0, 0, 0, 0, 0, 0, 0, 0, 0, 0, 0], "stateRewards": ["", 1, -1, 4, 5, -32, 18, 20, 6, -88, -74, 9, -2, 1, -2, -14, 34, -77, -38, -1, 80, -36, 73, 2, 3, -8, 10, -48, -73, -71, -11, -22, 20, 54], "withholdReward": false, "trial_id": "mdp_trial_27", "block": "test", "trialIndex": 28, "score": 3.1999999999999993, "costs": -2.8, "simulationMode": [null, null, null, null, null], "rewards": [2, 3, -8, -11, 20], "path": ["0", "0", "23", "24", "25", "30", "32"], "rt": [5721, 56, 180, 35, 284], "actions": ["left", "left", "left", "down", "down"], "actionTimes": [6811, 7379, 8085, 8638, 9439], "queries": {"click": {"state": {"target": ["31", "32"], "time": [1807, 4125]}, "edge": {"target": [], "time": []}}, "mouseover": {"state": {"target": ["0", "31", "32"], "time": [1344, 1491, 3921]}, "edge": {"target": [], "time": []}}, "mouseout": {"state": {"target": ["21", "0", "0", "31", "32"], "time": [142, 642, 1361, 3876, 6171]}, "edge": {"target": [], "time": []}}}, "displayed_time": "15.09", "trialTime": 16014, "trial_type": "mouselab-mdp", "trial_index": 35, "time_elapsed": 809829, "internal_node_id": "0.0-6.0-1.0-26.0"}}, {"uniqueid": "w90387194:a14002223", "current_trial": 36, "dateTime": 1693481856842, "trialdata": {"revealed_states": [], "clicked_states": ["33"], "num_clicks_accrued": [0, 0, 0, 0, 0, 0, 0, 0, 0, 0, 0, 0, 0], "stateRewards": ["", 1, -3, -1, 9, -34, -40, 22, -7, 45, 53, -11, 2, 4, 5, 15, 21, 37, -49, -3, 80, -28, -34, 1, -3, 1, 1, -40, -6, -5, -16, -85, -86, 59], "withholdReward": false, "trial_id": "mdp_trial_28", "block": "test", "trialIndex": 29, "score": 40.6, "costs": -1.4, "simulationMode": [null, null, null, null, null], "rewards": [1, -3, 1, -16, 59], "path": ["0", "0", "23", "24", "25", "30", "33"], "rt": [3946, 170, 124, 568, 94], "actions": ["left", "left", "left", "down", "left"], "actionTimes": [5648, 6333, 6971, 8047, 8663], "queries": {"click": {"state": {"target": ["33"], "time": [2832]}, "edge": {"target": [], "time": []}}, "mouseover": {"state": {"target": ["33", "29"], "time": [2613, 3431]}, "edge": {"target": [], "time": []}}, "mouseout": {"state": {"target": ["0", "33", "29", "24"], "time": [2048, 3295, 13623, 13706]}, "edge": {"target": [], "time": []}}}, "displayed_time": "15.70", "trialTime": 16248, "trial_type": "mouselab-mdp", "trial_index": 36, "time_elapsed": 826906, "internal_node_id": "0.0-6.0-1.0-27.0"}}, {"uniqueid": "w90387194:a14002223", "current_trial": 37, "dateTime": 1693481873860, "trialdata": {"revealed_states": [], "clicked_states": ["29"], "num_clicks_accrued": [0, 0, 0, 0, 0, 0, 0, 0, 0, 0, 0, 0, 0], "stateRewards": ["", 2, 4, 7, -6, -76, -81, 2, 5, -66, -3, 36, -2, -4, 6, -2, -69, 4, -49, -6, 67, 38, -67, 2, 1, 1, 6, -68, -21, 52, -16, -16, 6, -70], "withholdReward": false, "trial_id": "mdp_trial_29", "block": "test", "trialIndex": 30, "score": 60.6, "costs": -1.4, "simulationMode": [null, null, null, null, null], "rewards": [2, 1, 1, 6, 52], "path": ["0", "0", "23", "24", "25", "26", "29"], "rt": [3487, 158, 398, 26, 554], "actions": ["left", "left", "left", "up", "left"], "actionTimes": [4767, 5441, 6346, 6891, 7965], "queries": {"click": {"state": {"target": ["29"], "time": [1740]}, "edge": {"target": [], "time": []}}, "mouseover": {"state": {"target": ["23", "26", "29", "27"], "time": [1318, 1399, 1664, 3864]}, "edge": {"target": [], "time": []}}, "mouseout": {"state": {"target": ["23", "0", "23", "26", "29"], "time": [748, 1292, 1331, 1598, 3798]}, "edge": {"target": [], "time": []}}}, "displayed_time": "15.28", "trialTime": 16234, "trial_type": "mouselab-mdp", "trial_index": 37, "time_elapsed": 843924, "internal_node_id": "0.0-6.0-1.0-28.0"}}, {"uniqueid": "w90387194:a14002223", "current_trial": 38, "dateTime": 1693481891910, "trialdata": {"revealed_states": [], "clicked_states": ["27", "28", "10"], "num_clicks_accrued": [0, 0, 0, 0, 0, 0, 0, 0, 0, 0, 0, 0, 0], "stateRewards": ["", 1, 2, -3, -5, 66, -50, -47, -5, 1, 28, -27, 1, 1, -1, -6, 37, -25, 56, 1, -82, -66, -40, -1, -4, -7, 15, -61, -23, 26, 10, 14, -56, 29], "withholdReward": false, "trial_id": "mdp_trial_30", "block": "test", "trialIndex": 31, "score": 18.8, "costs": -4.199999999999999, "simulationMode": [null, null, null, null, null], "rewards": [1, 2, -3, -5, 28], "path": ["0", "0", "1", "2", "3", "8", "10"], "rt": [8066, 37, 147, 566, 37], "actions": ["up", "up", "up", "left", "down"], "actionTimes": [10673, 11232, 11909, 12996, 13551], "queries": {"click": {"state": {"target": ["27", "28", "10"], "time": [3822, 6178, 8153]}, "edge": {"target": [], "time": []}}, "mouseover": {"state": {"target": ["28", "27", "27", "28", "28", "10", "11", "1"], "time": [3087, 3137, 3669, 4584, 6050, 7265, 8547, 10313]}, "edge": {"target": [], "time": []}}, "mouseout": {"state": {"target": ["27", "0", "28", "27", "27", "27", "28", "28", "10", "11", "10"], "time": [1236, 2628, 3105, 3203, 3925, 4500, 5102, 6802, 8463, 10197, 10262]}, "edge": {"target": [], "time": []}}}, "displayed_time": "16.61", "trialTime": 17258, "trial_type": "mouselab-mdp", "trial_index": 38, "time_elapsed": 861975, "internal_node_id": "0.0-6.0-1.0-29.0"}}, {"uniqueid": "w90387194:a14002223", "current_trial": 39, "dateTime": 1693481909664, "trialdata": {"revealed_states": [], "clicked_states": ["11"], "num_clicks_accrued": [0, 0, 0, 0, 0, 0, 0, 0, 0, 0, 0, 0, 0], "stateRewards": ["", 1, 2, 2, -15, -84, 28, -26, 13, 31, 86, 30, -2, 1, -1, -8, 66, -40, -1, -10, -32, 57, -17, 1, 2, -2, 9, -23, 77, 85, 12, -32, -62, -35], "withholdReward": false, "trial_id": "mdp_trial_31", "block": "test", "trialIndex": 32, "score": 46.6, "costs": -1.4, "simulationMode": [null, null, null, null, null], "rewards": [1, 2, 2, 13, 30], "path": ["0", "0", "1", "2", "3", "8", "11"], "rt": [3458, 132, 221, 103, 118], "actions": ["up", "up", "up", "left", "left"], "actionTimes": [5426, 6076, 6813, 7428, 8059], "queries": {"click": {"state": {"target": ["11"], "time": [2814]}, "edge": {"target": [], "time": []}}, "mouseover": {"state": {"target": ["11", "10", "10", "11", "8"], "time": [1999, 2045, 2462, 2728, 4958]}, "edge": {"target": [], "time": []}}, "mouseout": {"state": {"target": ["1", "0", "0", "11", "10", "10", "11"], "time": [745, 831, 1995, 2027, 2061, 2479, 4743]}, "edge": {"target": [], "time": []}}}, "displayed_time": "15.97", "trialTime": 16887, "trial_type": "mouselab-mdp", "trial_index": 39, "time_elapsed": 879728, "internal_node_id": "0.0-6.0-1.0-30.0"}}, {"uniqueid": "w90387194:a14002223", "current_trial": 40, "dateTime": 1693481927029, "trialdata": {"revealed_states": [], "clicked_states": ["9"], "num_clicks_accrued": [0, 0, 0, 0, 0, 0, 0, 0, 0, 0, 0, 0, 0], "stateRewards": ["", 1, 1, 6, -14, -40, 37, 16, -13, 33, -68, 49, 2, 4, 3, 6, 55, 27, 32, 10, -65, 20, -87, 2, 1, -6, -5, -42, 12, 29, -8, 16, 76, -33], "withholdReward": false, "trial_id": "mdp_trial_32", "block": "test", "trialIndex": 33, "score": 26.6, "costs": -1.4, "simulationMode": [null, null, null, null, null], "rewards": [1, 1, 6, -13, 33], "path": ["0", "0", "1", "2", "3", "8", "9"], "rt": [3775, 77, 166, 634, 247], "actions": ["up", "up", "up", "left", "up"], "actionTimes": [5894, 6488, 7190, 8346, 9103], "queries": {"click": {"state": {"target": ["9"], "time": [3437]}, "edge": {"target": [], "time": []}}, "mouseover": {"state": {"target": ["1", "2", "3", "9", "3", "7"], "time": [3010, 3046, 3128, 3327, 3943, 5513]}, "edge": {"target": [], "time": []}}, "mouseout": {"state": {"target": ["8", "1", "2", "3", "9", "3"], "time": [1147, 3029, 3093, 3160, 3824, 5460]}, "edge": {"target": [], "time": []}}}, "displayed_time": "16.12", "trialTime": 16501, "trial_type": "mouselab-mdp", "trial_index": 40, "time_elapsed": 897093, "internal_node_id": "0.0-6.0-1.0-31.0"}}, {"uniqueid": "w90387194:a14002223", "current_trial": 41, "dateTime": 1693481944640, "trialdata": {"revealed_states": [], "clicked_states": ["5"], "num_clicks_accrued": [0, 0, 0, 0, 0, 0, 0, 0, 0, 0, 0, 0, 0], "stateRewards": ["", 2, 3, -1, 6, 44, -4, -59, -14, -3, 64, 16, 1, -3, 3, 6, 3, 49, 19, 3, -49, -14, -86, 1, 2, -3, -8, -33, 14, 32, -13, -77, -47, -67], "withholdReward": false, "trial_id": "mdp_trial_33", "block": "test", "trialIndex": 34, "score": 52.6, "costs": -1.4, "simulationMode": [null, null, null, null, null], "rewards": [2, 3, -1, 6, 44], "path": ["0", "0", "1", "2", "3", "4", "5"], "rt": [3363, 5, 252, 329, 5], "actions": ["up", "up", "up", "right", "up"], "actionTimes": [5004, 5519, 6300, 7141, 7666], "queries": {"click": {"state": {"target": ["5"], "time": [2528]}, "edge": {"target": [], "time": []}}, "mouseover": {"state": {"target": ["7", "5", "6"], "time": [2165, 2382, 4670]}, "edge": {"target": [], "time": []}}, "mouseout": {"state": {"target": ["7", "7", "5", "6", "12"], "time": [415, 2182, 4586, 11640, 11758]}, "edge": {"target": [], "time": []}}}, "displayed_time": "15.64", "trialTime": 16685, "trial_type": "mouselab-mdp", "trial_index": 41, "time_elapsed": 914704, "internal_node_id": "0.0-6.0-1.0-32.0"}}, {"uniqueid": "w90387194:a14002223", "current_trial": 42, "dateTime": 1693481961873, "trialdata": {"revealed_states": [], "clicked_states": ["6", "7"], "num_clicks_accrued": [0, 0, 0, 0, 0, 0, 0, 0, 0, 0, 0, 0, 0], "stateRewards": ["", 1, -4, -6, 11, -20, 8, -30, 1, -38, 88, 42, 2, 3, 5, -12, -8, -74, 30, -8, 67, -19, 42, 2, -1, 4, 13, 50, -68, 2, -8, -15, 87, -46], "withholdReward": false, "trial_id": "mdp_trial_34", "block": "test", "trialIndex": 35, "score": 7.199999999999999, "costs": -2.8, "simulationMode": [null, null, null, null, null], "rewards": [1, -4, -6, 11, 8], "path": ["0", "0", "1", "2", "3", "4", "6"], "rt": [5401, 131, 148, 72, 90], "actions": ["up", "up", "up", "right", "right"], "actionTimes": [6854, 7499, 8165, 8756, 9357], "queries": {"click": {"state": {"target": ["6", "7"], "time": [2165, 4828]}, "edge": {"target": [], "time": []}}, "mouseover": {"state": {"target": ["6", "7"], "time": [1889, 2852]}, "edge": {"target": [], "time": []}}, "mouseout": {"state": {"target": ["6"], "time": [2753]}, "edge": {"target": [], "time": []}}}, "displayed_time": "15.46", "trialTime": 16324, "trial_type": "mouselab-mdp", "trial_index": 42, "time_elapsed": 931937, "internal_node_id": "0.0-6.0-1.0-33.0"}}, {"uniqueid": "w90387194:a14002223", "current_trial": 43, "dateTime": 1693481981472, "trialdata": {"revealed_states": [], "clicked_states": ["18", "16", "17", "20"], "num_clicks_accrued": [0, 0, 0, 0, 0, 0, 0, 0, 0, 0, 0, 0, 0], "stateRewards": ["", 2, -1, -2, -5, -47, -57, -33, -11, 31, -18, -72, -2, 1, -4, -8, -46, -53, -50, 15, -85, -9, 39, -2, -2, 1, 14, -1, -8, 53, -12, -41, -74, 62], "withholdReward": false, "trial_id": "mdp_trial_35", "block": "test", "trialIndex": 36, "score": -94.6, "costs": -5.6, "simulationMode": [null, null, null, null, null], "rewards": [-2, -2, 1, -12, -74], "path": ["0", "0", "23", "24", "25", "30", "32"], "rt": [11744, 356, 112, 175, 690], "actions": ["left", "left", "left", "down", "down"], "actionTimes": [13327, 14194, 14813, 15510, 16722], "queries": {"click": {"state": {"target": ["18", "16", "17", "20"], "time": [2310, 5441, 7677, 10916]}, "edge": {"target": [], "time": []}}, "mouseover": {"state": {"target": ["12", "18", "16", "15", "17", "20"], "time": [1930, 2112, 5243, 5893, 7491, 8173]}, "edge": {"target": [], "time": []}}, "mouseout": {"state": {"target": ["7", "1", "0", "12", "18", "16", "15", "17"], "time": [730, 779, 1899, 1948, 5109, 5842, 5941, 8106]}, "edge": {"target": [], "time": []}}}, "displayed_time": "17.23", "trialTime": 18666, "trial_type": "mouselab-mdp", "trial_index": 43, "time_elapsed": 951536, "internal_node_id": "0.0-6.0-1.0-34.0"}}, {"uniqueid": "w90387194:a14002223", "current_trial": 44, "dateTime": 1693481998498, "trialdata": {"revealed_states": [], "clicked_states": ["21"], "num_clicks_accrued": [0, 0, 0, 0, 0, 0, 0, 0, 0, 0, 0, 0, 0], "stateRewards": ["", 1, -1, 1, -14, -10, 67, -28, -11, 72, 40, -65, -1, 1, 1, -2, 8, -55, 34, -10, 61, 33, -15, 2, -4, 7, 4, -75, 63, -21, -16, 61, 19, 21], "withholdReward": false, "trial_id": "mdp_trial_36", "block": "test", "trialIndex": 37, "score": 22.6, "costs": -1.4, "simulationMode": [null, null, null, null, null], "rewards": [-1, 1, 1, -10, 33], "path": ["0", "0", "12", "13", "14", "19", "21"], "rt": [3713, 115, 91, 4, 5], "actions": ["right", "right", "right", "down", "down"], "actionTimes": [5184, 5812, 6423, 6939, 7471], "queries": {"click": {"state": {"target": ["21"], "time": [2413]}, "edge": {"target": [], "time": []}}, "mouseover": {"state": {"target": ["12", "13", "20", "21", "22"], "time": [1905, 1939, 2018, 2234, 2885]}, "edge": {"target": [], "time": []}}, "mouseout": {"state": {"target": ["20", "19", "22", "0", "12", "13", "20", "21"], "time": [600, 650, 668, 1900, 1921, 1955, 2052, 2800]}, "edge": {"target": [], "time": []}}}, "displayed_time": "15.47", "trialTime": 16397, "trial_type": "mouselab-mdp", "trial_index": 44, "time_elapsed": 968562, "internal_node_id": "0.0-6.0-1.0-35.0"}}, {"uniqueid": "w90387194:a14002223", "current_trial": 45, "dateTime": 1693482016292, "trialdata": {"revealed_states": [], "clicked_states": [], "num_clicks_accrued": [0, 0, 0, 0, 0, 0, 0, 0, 0, 0, 0, 0, 0], "stateRewards": ["", 2, 1, -3, 7, 46, 11, -36, 16, 71, 5, 1, 2, -2, -8, -3, -4, 6, 55, 7, 68, -54, 2, 1, 1, 6, -6, 42, -4, -84, -11, -65, 63, 25], "withholdReward": false, "trial_id": "mdp_trial_37", "block": "test", "trialIndex": 38, "score": -68, "costs": 0, "simulationMode": [null, null, null, null, null], "rewards": [1, 1, 6, -11, -65], "path": ["0", "0", "23", "24", "25", "30", "31"], "rt": [4174, 61, 187, 559, 3562], "actions": ["left", "left", "left", "down", "right"], "actionTimes": [6322, 6902, 7611, 8684, 12766], "queries": {"click": {"state": {"target": [], "time": []}, "edge": {"target": [], "time": []}}, "mouseover": {"state": {"target": ["32", "30"], "time": [4891, 5257]}, "edge": {"target": [], "time": []}}, "mouseout": {"state": {"target": ["22", "0", "32", "30", "30"], "time": [911, 4809, 4941, 5407, 15132]}, "edge": {"target": [], "time": []}}}, "displayed_time": "16.15", "trialTime": 16953, "trial_type": "mouselab-mdp", "trial_index": 45, "time_elapsed": 986356, "internal_node_id": "0.0-6.0-1.0-36.0"}}, {"uniqueid": "w90387194:a14002223", "current_trial": 46, "dateTime": 1693482033873, "trialdata": {"revealed_states": [], "clicked_states": [], "num_clicks_accrued": [0, 0, 0, 0, 0, 0, 0, 0, 0, 0, 0, 0, 0], "stateRewards": ["", 2, -3, 5, -14, -63, -9, -24, -11, -54, -43, 68, 2, -2, -4, 7, -64, 30, 47, 12, -74, 11, 86, 1, -3, 3, 10, -71, -42, -52, -1, -29, -16, 69], "withholdReward": false, "trial_id": "mdp_trial_38", "block": "test", "trialIndex": 39, "score": -31, "costs": 0, "simulationMode": [null, null, null, null, null], "rewards": [1, -3, 3, 10, -42], "path": ["0", "0", "23", "24", "25", "26", "28"], "rt": [706, 781, 711, 41, 731], "actions": ["left", "left", "left", "up", "right"], "actionTimes": [2575, 3867, 5095, 5660, 6932], "queries": {"click": {"state": {"target": [], "time": []}, "edge": {"target": [], "time": []}}, "mouseover": {"state": {"target": [], "time": []}, "edge": {"target": [], "time": []}}, "mouseout": {"state": {"target": ["25", "24", "23", "0"], "time": [851, 934, 1067, 16304]}, "edge": {"target": [], "time": []}}}, "displayed_time": "15.87", "trialTime": 16725, "trial_type": "mouselab-mdp", "trial_index": 46, "time_elapsed": 1003937, "internal_node_id": "0.0-6.0-1.0-37.0"}}, {"uniqueid": "w90387194:a14002223", "current_trial": 47, "dateTime": 1693482051086, "trialdata": {"revealed_states": [], "clicked_states": [], "num_clicks_accrued": [0, 0, 0, 0, 0, 0, 0, 0, 0, 0, 0, 0, 0], "stateRewards": ["", -2, 2, 5, -14, -56, 64, 84, -5, 52, 39, 85, -2, 1, 7, 8, 21, 29, -78, -9, -10, -69, 10, -2, -1, -7, 15, 72, 20, 41, -2, 52, 80, 22], "withholdReward": false, "trial_id": "mdp_trial_39", "block": "test", "trialIndex": 40, "score": 75, "costs": 0, "simulationMode": [null, null, null, null, null], "rewards": [-2, 2, 5, -14, 84], "path": ["0", "0", "1", "2", "3", "4", "7"], "rt": [1016, 2560, 884, 64, 163], "actions": ["up", "up", "up", "right", "down"], "actionTimes": [2476, 5560, 6962, 7543, 8240], "queries": {"click": {"state": {"target": [], "time": []}, "edge": {"target": [], "time": []}}, "mouseover": {"state": {"target": [], "time": []}, "edge": {"target": [], "time": []}}, "mouseout": {"state": {"target": [], "time": []}, "edge": {"target": [], "time": []}}}, "displayed_time": "15.46", "trialTime": 16455, "trial_type": "mouselab-mdp", "trial_index": 47, "time_elapsed": 1021151, "internal_node_id": "0.0-6.0-1.0-38.0"}}, {"uniqueid": "w90387194:a14002223", "current_trial": 48, "dateTime": 1693482069028, "trialdata": {"revealed_states": [], "clicked_states": [], "num_clicks_accrued": [0, 0, 0, 0, 0, 0, 0, 0, 0, 0, 0, 0, 0], "stateRewards": ["", -1, -2, -1, -10, -57, 73, -72, -16, 75, -14, -46, -2, -3, -7, -1, -61, -60, 76, -4, 50, 4, 14, 2, 2, -7, 12, -65, -32, 15, -8, -76, -25, -61], "withholdReward": false, "trial_id": "mdp_trial_40", "block": "test", "trialIndex": 41, "score": -86, "costs": 0, "simulationMode": [null, null, null, null, null], "rewards": [-1, -2, -1, -10, -72], "path": ["0", "0", "1", "2", "3", "4", "7"], "rt": [1618, 995, 542, 428, 1103], "actions": ["up", "up", "up", "right", "down"], "actionTimes": [3598, 5105, 6168, 7104, 8727], "queries": {"click": {"state": {"target": [], "time": []}, "edge": {"target": [], "time": []}}, "mouseover": {"state": {"target": [], "time": []}, "edge": {"target": [], "time": []}}, "mouseout": {"state": {"target": [], "time": []}, "edge": {"target": [], "time": []}}}, "displayed_time": "15.98", "trialTime": 16991, "trial_type": "mouselab-mdp", "trial_index": 48, "time_elapsed": 1039092, "internal_node_id": "0.0-6.0-1.0-39.0"}}, {"uniqueid": "w90387194:a14002223", "current_trial": 49, "dateTime": 1693482119478, "trialdata": {"rt": 50442, "response": {"Q0": "$-2 to $2", "Q1": "$-16 to $16", "Q2": "$-88 to $88", "Q3": "The cost was always $1.4.", "Q4": "Neither motivated nor unmotivated"}, "question_order": [0, 1, 2, 3, 4], "trial_id": "final_quiz_control", "trial_type": "survey-multi-choice", "trial_index": 49, "time_elapsed": 1089543, "internal_node_id": "0.0-6.0-2.0"}}, {"uniqueid": "w90387194:a14002223", "current_trial": 50, "dateTime": 1693482153924, "trialdata": {"rt": 34425, "response": {"Q0": "highest last node inspected , 4 max inspect", "Q1": "not really", "Q2": "difficult"}, "trial_id": "self_report_control", "trial_type": "survey-text", "trial_index": 50, "time_elapsed": 1123989, "internal_node_id": "0.0-6.0-3.0"}}, {"uniqueid": "w90387194:a14002223", "current_trial": 51, "dateTime": 1693482180020, "trialdata": {"rt": 26088, "response": {"gender": "female", "age": "22", "colorblind": "0", "effort": "1"}, "trial_type": "survey-html-form", "trial_index": 51, "time_elapsed": 1150085, "internal_node_id": "0.0-6.0-4.0"}}, {"uniqueid": "w90387194:a14002223", "current_trial": 52, "dateTime": 1693482230642, "trialdata": {"rt": 50606, "response": {"Q0": "once I played - very easy.", "Q1": "no I dont think I have", "Q2": ""}, "trial_type": "survey-text", "trial_index": 52, "time_elapsed": 1200707, "internal_node_id": "0.0-6.0-5.0"}}, {"uniqueid": "w90387194:a14002223", "current_trial": 53, "dateTime": 1693482255612, "trialdata": {"rt": 24963, "stimulus": "<h1>Completion Code Instructions (1/2)</h1>\n<br><br><br><br>\nYou have reached the end of the experiment! The completion code consists of two parts: (1) a code with 2 characters (2) a code with 6 characters. On this page, you will receive the second part of the code. The first part of the completion code will be on the next page.\n<br><br>\nThe second part of your completion code is: <b>EWEK22</b>\n<br><br>\nPlease note this down. Then, press 'Finish HIT' in order to find the first part of your completion code. Once the data has been saved, you will receive this code either in this window or in the original browser window where you started the experiment.\n", "response": 0, "trial_type": "html-button-response", "trial_index": 53, "time_elapsed": 1225677, "internal_node_id": "0.0-6.0-6.0"}}, {"uniqueid": "w90387194:a14002223", "current_trial": 54, "dateTime": 1693482256619, "trialdata": {"success": true, "trial_type": "fullscreen", "trial_index": 54, "time_elapsed": 1226684, "internal_node_id": "0.0-7.0"}}], "questiondata": {"params": {"CODE": "C6DMOQA6", "MIN_TIME": 14, "inspectCost": 1, "startTime": "Thu Aug 31 2023 13:23:47 GMT+0200 (South Africa Standard Time)", "bonusRate": 0.002, "variance": "1_2_4_8_44", "branching": "31123"}, "final_score": 534.8}, "eventdata": [{"eventtype": "initialized", "value": null, "timestamp": 1693481026351, "interval": 0}, {"eventtype": "window_resize", "value": [1024, 767], "timestamp": 1693481026351, "interval": 0}, {"eventtype": "window_resize", "value": [1024, 767], "timestamp": 1693481026902, "interval": 551}, {"eventtype": "focus", "value": "off", "timestamp": 1693481029661, "interval": 2759}, {"eventtype": "window_resize", "value": [1280, 918], "timestamp": 1693481030652, "interval": 991}, {"eventtype": "focus", "value": "on", "timestamp": 1693481032700, "interval": 2048}, {"eventtype": "window_resize", "value": [1280, 1024], "timestamp": 1693481035651, "interval": 2951}, {"eventtype": "focus", "value": "off", "timestamp": 1693482252570, "interval": 1216919}, {"eventtype": "focus", "value": "on", "timestamp": 1693482255528, "interval": 2958}, {"eventtype": "window_resize", "value": [1280, 918], "timestamp": 1693482255842, "interval": 314}], "useragent": "Mozilla/5.0 (Windows NT 10.0; Win64; x64) AppleWebKit/537.36 (KHTML, like Gecko) Chrome/115.0.0.0 Safari/537.36", "mode": "live", "id": "w90387194:a14002223", "status": "user data saved", "Beginhit": "2023-08-31 11:23:43.422982", "Beginexp": "2023-08-31 11:23:58.458135", "Endhit": "2023-08-31 11:44:20.2044", "psiturkStatus": 3, "browser": "<redacted>", "platform": "windows", "language": "en-US"}