{"condition": 0, "counterbalance": 0, "assignmentId": "a79990024", "workerId": "w88238064", "hitId": "h76104839", "currenttrial": 55, "bonus": 0, "data": [{"uniqueid": "w88238064:a79990024", "current_trial": 0, "dateTime": 1693582282008, "trialdata": {"success": true, "trial_type": "fullscreen", "trial_index": 0, "time_elapsed": 2865, "internal_node_id": "0.0-0.0"}}, {"uniqueid": "w88238064:a79990024", "current_trial": 1, "dateTime": 1693582289283, "trialdata": {"view_history": [{"page_index": 0, "viewing_time": 7274}], "rt": 7274, "trial_id": "exp_instructions_control", "trial_type": "instructions", "trial_index": 1, "time_elapsed": 10140, "internal_node_id": "0.0-1.0"}}, {"uniqueid": "w88238064:a79990024", "current_trial": 2, "dateTime": 1693582440973, "trialdata": {"view_history": [{"page_index": 0, "viewing_time": 39878}, {"page_index": 1, "viewing_time": 48883}, {"page_index": 2, "viewing_time": 33287}, {"page_index": 3, "viewing_time": 29628}], "rt": 151676, "trial_id": "mouselab_instructions_1_control", "trial_type": "instructions", "trial_index": 2, "time_elapsed": 161830, "internal_node_id": "0.0-2.0-1.0"}}, {"uniqueid": "w88238064:a79990024", "current_trial": 3, "dateTime": 1693582480297, "trialdata": {"revealed_states": [], "clicked_states": ["23", "12", "13", "14", "24", "22", "19", "21", "25", "30", "32", "1", "2", "3", "8", "4", "6", "11", "9"], "num_clicks_accrued": [0, 0, 0, 0, 0, 0, 0, 0, 0, 0, 0, 0, 0], "stateRewards": ["", 10, 10, -10, 10, 10, -10, -10, 10, 10, -10, -10, 10, 10, -10, 10, 10, 10, 10, -10, -10, -10, 10, -10, -10, -10, -10, 10, 10, -10, -10, -10, -10, -10], "withholdReward": false, "trial_id": "practice_1", "block": "test", "trialIndex": 0, "score": 24, "costs": -9.5, "simulationMode": [null, null, null, null, null], "rewards": [10, 10, -10, 10, 10], "path": ["0", "0", "1", "2", "3", "8", "9"], "rt": [30321, 145, 78, 683, 115], "actions": ["up", "up", "up", "left", "up"], "actionTimes": [32234, 32883, 33466, 34654, 35270], "queries": {"click": {"state": {"target": ["23", "12", "13", "14", "24", "22", "19", "21", "25", "30", "32", "1", "2", "3", "8", "4", "6", "11", "9"], "time": [5298, 6683, 7972, 9061, 10728, 11811, 13126, 14339, 15512, 17036, 18411, 20888, 22210, 23534, 24677, 25980, 26993, 28085, 29577]}, "edge": {"target": [], "time": []}}, "mouseover": {"state": {"target": ["0", "23", "23", "24", "24", "0", "12", "13", "14", "13", "14", "0", "23", "24", "22", "22", "19", "21", "31", "30", "25", "30", "32", "23", "1", "2", "10", "10", "3", "8", "4", "6", "11", "9", "8", "2", "1", "1"], "time": [2942, 3011, 5066, 5653, 6153, 6566, 6594, 7003, 7387, 7620, 8236, 9937, 10103, 10712, 11120, 11403, 12804, 14160, 15203, 15403, 15469, 15787, 17386, 20552, 20844, 21237, 22620, 23003, 23378, 24520, 25103, 26837, 27920, 29153, 29837, 31191, 31253, 31545]}, "edge": {"target": [], "time": []}}, "mouseout": {"state": {"target": ["23", "0", "0", "0", "23", "23", "24", "24", "0", "12", "13", "14", "13", "14", "0", "23", "24", "22", "22", "19", "21", "21", "31", "30", "25", "30", "32", "23", "1", "2", "10", "10", "3", "8", "3", "4", "6", "4", "3", "8", "11", "8", "9", "8", "2", "1", "1", "28"], "time": [789, 1053, 1740, 2976, 3067, 5587, 5986, 6353, 6573, 6970, 7337, 7570, 8170, 9503, 9970, 10684, 10953, 11170, 12253, 13370, 14344, 14570, 15303, 15427, 15686, 17287, 18653, 20580, 21170, 22570, 22970, 23203, 23770, 24953, 25053, 26286, 27253, 27403, 27470, 27620, 28470, 28820, 29753, 31121, 31198, 31302, 35053, 35830]}, "edge": {"target": [], "time": []}}}, "displayed_time": "35.77", "trialTime": 38867, "trial_type": "mouselab-mdp", "trial_index": 3, "time_elapsed": 201154, "internal_node_id": "0.0-2.0-2.0-0.0"}}, {"uniqueid": "w88238064:a79990024", "current_trial": 4, "dateTime": 1693582487635, "trialdata": {"revealed_states": [], "clicked_states": [], "num_clicks_accrued": [0, 0, 0, 0, 0, 0, 0, 0, 0, 0, 0, 0, 0], "stateRewards": ["", -10, 10, 10, 10, -10, -10, -10, -10, 10, -10, 10, 10, -10, 10, 10, -10, 10, 10, -10, 10, -10, 10, 10, 10, -10, 10, 10, 10, -10, 10, -10, 10, 10], "withholdReward": false, "trial_id": "practice_2", "block": "test", "trialIndex": 1, "score": 13.5, "costs": 0, "simulationMode": [null, null, null, null, null], "rewards": [-10, 10, 10, -10, 10], "path": ["0", "0", "1", "2", "3", "8", "9"], "rt": [765, 401, 216, 115, 251], "actions": ["up", "up", "up", "left", "up"], "actionTimes": [2338, 3240, 3955, 4571, 5323], "queries": {"click": {"state": {"target": [], "time": []}, "edge": {"target": [], "time": []}}, "mouseover": {"state": {"target": ["0", "23"], "time": [1598, 1695]}, "edge": {"target": [], "time": []}}, "mouseout": {"state": {"target": ["23", "0", "23", "33"], "time": [1160, 1660, 1723, 5341]}, "edge": {"target": [], "time": []}}}, "displayed_time": "5.84", "trialTime": 7222, "trial_type": "mouselab-mdp", "trial_index": 4, "time_elapsed": 208491, "internal_node_id": "0.0-2.0-2.0-1.0"}}, {"uniqueid": "w88238064:a79990024", "current_trial": 5, "dateTime": 1693582511614, "trialdata": {"view_history": [{"page_index": 0, "viewing_time": 20219}, {"page_index": 1, "viewing_time": 3753}], "rt": 23972, "trial_id": "mouselab_instructions_2_control", "trial_type": "instructions", "trial_index": 5, "time_elapsed": 232471, "internal_node_id": "0.0-2.0-3.0"}}, {"uniqueid": "w88238064:a79990024", "current_trial": 6, "dateTime": 1693582533871, "trialdata": {"rt": 22256, "response": {"Q0": "The cost for clicking on nodes may vary between nodes.", "Q1": "The better I perform the higher my bonus will be.", "Q2": "No, the amount of cash at each node of the web may be different each time.", "Q3": "To get the highest total score.", "Q4": "Only before moving the spider.", "Q5": "3 seconds"}, "question_order": [0, 1, 2, 3, 4, 5], "correct": {"Q0": "The cost for clicking on nodes may vary between nodes.", "Q1": "The better I perform the higher my bonus will be.", "Q2": "No, the amount of cash at each node of the web may be different each time.", "Q3": "To get the highest total score.", "Q4": "Only before moving the spider.", "Q5": "3 seconds"}, "trial_id": "mouselab_quiz_control", "trial_type": "survey-multi-choice", "trial_index": 6, "time_elapsed": 254728, "internal_node_id": "0.0-2.0-4.0"}}, {"uniqueid": "w88238064:a79990024", "current_trial": 7, "dateTime": 1693582537006, "trialdata": {"rt": 3131, "response": {"Q0": "No"}, "question_order": [0], "trial_id": "repeat_check", "trial_type": "survey-multi-choice", "trial_index": 7, "time_elapsed": 257863, "internal_node_id": "0.0-4.0-0.0"}}, {"uniqueid": "w88238064:a79990024", "current_trial": 8, "dateTime": 1693582546678, "trialdata": {"rt": 9670, "stimulus": "\n<h1> Get ready to start the game! </h1>\n\nThank you for reading the instructions. Get ready start with the 40 rounds of this game.\n<br><br>\nIf you need to take a break, feel free to take one after the end of a round, before continuing to the next one.\n<br><br>\nRemember, the more money the spider gets, the bigger your bonus will be!\n<br><br>\n<div style='text-align: center;'>Press <code>space</code> to begin.</div>\n\n<br><br>\n(If, at any point, the <code>space</code> key does not take you to the next page, click once on the text and try again.)", "response": " ", "trial_id": "mdp_ready", "trial_type": "html-keyboard-response", "trial_index": 8, "time_elapsed": 267535, "internal_node_id": "0.0-6.0-0.0"}}, {"uniqueid": "w88238064:a79990024", "current_trial": 9, "dateTime": 1693582564465, "trialdata": {"revealed_states": [], "clicked_states": ["23", "1", "12"], "num_clicks_accrued": [0, 0, 0, 0, 0, 0, 0, 0, 0, 0, 0, 0, 0], "stateRewards": ["", -1, 2, 7, 8, 75, 67, -11, 6, 52, -17, 38, -1, 4, -8, 14, 74, -37, -17, -12, 52, 55, 71, -2, -1, -5, 2, 21, 6, -88, -14, 64, -61, -47], "withholdReward": false, "trial_id": "mdp_trial_1", "block": "test", "trialIndex": 2, "score": 49.8, "costs": -4.199999999999999, "simulationMode": [null, null, null, null, null], "rewards": [-1, 4, -8, -12, 71], "path": ["0", "0", "12", "13", "14", "19", "22"], "rt": [9906, 246, 134, 95, 287], "actions": ["right", "right", "right", "down", "left"], "actionTimes": [11466, 12225, 12863, 13457, 14249], "queries": {"click": {"state": {"target": ["23", "1", "12"], "time": [2747, 6580, 8453]}, "edge": {"target": [], "time": []}}, "mouseover": {"state": {"target": ["23", "24", "1", "12"], "time": [2491, 3977, 6519, 6861]}, "edge": {"target": [], "time": []}}, "mouseout": {"state": {"target": ["8", "28", "0", "12", "23", "24", "23", "1", "12"], "time": [206, 706, 775, 852, 3095, 4387, 4449, 6744, 8744]}, "edge": {"target": [], "time": []}}}, "displayed_time": "15.56", "trialTime": 17670, "trial_type": "mouselab-mdp", "trial_index": 9, "time_elapsed": 285322, "internal_node_id": "0.0-6.0-1.0-0.0"}}, {"uniqueid": "w88238064:a79990024", "current_trial": 10, "dateTime": 1693582582314, "trialdata": {"revealed_states": [], "clicked_states": [], "num_clicks_accrued": [0, 0, 0, 0, 0, 0, 0, 0, 0, 0, 0, 0, 0], "stateRewards": ["", -2, -4, -8, 8, 63, -50, -19, -7, -17, -31, 31, 1, 3, -5, 12, -35, -63, -29, -4, -17, -75, -79, -2, -3, -2, 8, -3, -85, 10, -2, -82, -82, 56], "withholdReward": false, "trial_id": "mdp_trial_2", "block": "test", "trialIndex": 3, "score": -56, "costs": 0, "simulationMode": [null, null, null, null, null], "rewards": [-2, -4, -8, 8, -50], "path": ["0", "0", "1", "2", "3", "4", "6"], "rt": [1317, 89, 183, 33, 126], "actions": ["up", "up", "up", "right", "right"], "actionTimes": [3831, 4425, 5118, 5668, 6295], "queries": {"click": {"state": {"target": [], "time": []}, "edge": {"target": [], "time": []}}, "mouseover": {"state": {"target": ["23", "24", "25"], "time": [2562, 2589, 2603]}, "edge": {"target": [], "time": []}}, "mouseout": {"state": {"target": ["25", "24", "0", "23", "24", "25"], "time": [2082, 2103, 2541, 2576, 2596, 2617]}, "edge": {"target": [], "time": []}}}, "displayed_time": "16.52", "trialTime": 17735, "trial_type": "mouselab-mdp", "trial_index": 10, "time_elapsed": 303171, "internal_node_id": "0.0-6.0-1.0-1.0"}}, {"uniqueid": "w88238064:a79990024", "current_trial": 11, "dateTime": 1693582608043, "trialdata": {"revealed_states": [], "clicked_states": ["23", "24", "25", "1", "30", "32", "33", "31"], "num_clicks_accrued": [0, 0, 0, 0, 0, 0, 0, 0, 0, 0, 0, 0, 0], "stateRewards": ["", -1, 1, -5, -6, -78, 47, -13, 12, 48, -88, 20, 2, -3, -2, 13, -20, 37, -57, 14, -38, 30, 31, -2, -2, 8, 2, -23, 78, 28, 12, -74, -88, 8], "withholdReward": false, "trial_id": "mdp_trial_3", "block": "test", "trialIndex": 4, "score": 12.799999999999999, "costs": -11.200000000000001, "simulationMode": [null, null, null, null, null], "rewards": [-2, -2, 8, 12, 8], "path": ["0", "0", "23", "24", "25", "30", "33"], "rt": [18546, 478, 155, 60, 132], "actions": ["left", "left", "left", "down", "left"], "actionTimes": [21356, 22346, 23006, 23578, 24216], "queries": {"click": {"state": {"target": ["23", "24", "25", "1", "30", "32", "33", "31"], "time": [3545, 5232, 7204, 9017, 11952, 13784, 16518, 18651]}, "edge": {"target": [], "time": []}}, "mouseover": {"state": {"target": ["0", "23", "24", "25", "1", "2", "2", "24", "30", "30", "32", "31", "33", "33", "33", "33", "30", "31", "30"], "time": [3037, 3363, 3950, 5600, 8583, 9468, 10884, 11190, 11245, 11412, 12267, 14100, 14200, 16044, 16294, 16495, 17867, 18459, 18867]}, "edge": {"target": [], "time": []}}, "mouseout": {"state": {"target": ["25", "24", "0", "0", "23", "24", "25", "1", "2", "2", "24", "30", "30", "32", "31", "30", "33", "33", "33", "33", "33", "33", "30", "31", "30", "33"], "time": [2418, 2439, 2668, 3079, 3817, 5517, 7434, 9267, 10794, 11127, 11203, 11308, 12200, 14017, 14167, 14184, 14217, 16134, 16342, 16617, 17650, 17850, 17884, 18817, 18884, 18917]}, "edge": {"target": [], "time": []}}}, "displayed_time": "24.72", "trialTime": 25613, "trial_type": "mouselab-mdp", "trial_index": 11, "time_elapsed": 328900, "internal_node_id": "0.0-6.0-1.0-2.0"}}, {"uniqueid": "w88238064:a79990024", "current_trial": 12, "dateTime": 1693582643085, "trialdata": {"revealed_states": [], "clicked_states": ["1", "2", "8", "3", "4", "6", "5", "7", "12", "13", "14", "15", "18", "16"], "num_clicks_accrued": [0, 0, 0, 0, 0, 0, 0, 0, 0, 0, 0, 0, 0], "stateRewards": ["", 1, -2, -3, 14, -42, -87, -37, -11, -50, 33, -44, -2, 4, -7, 13, 48, -75, -66, 12, 23, -2, 82, 1, -4, 3, 12, 51, -15, -26, -11, -52, -29, 82], "withholdReward": false, "trial_id": "mdp_trial_4", "block": "test", "trialIndex": 5, "score": 36.400000000000006, "costs": -19.599999999999998, "simulationMode": [null, null, null, null, null], "rewards": [-2, 4, -7, 13, 48], "path": ["0", "0", "12", "13", "14", "15", "16"], "rt": [28512, 14, 658, 84, 85], "actions": ["right", "right", "right", "up", "up"], "actionTimes": [30557, 31074, 32251, 32844, 33428], "queries": {"click": {"state": {"target": ["1", "2", "8", "3", "4", "6", "5", "7", "12", "13", "14", "15", "18", "16"], "time": [2680, 4623, 6887, 8829, 10742, 12735, 14648, 16531, 18431, 20214, 21806, 23609, 25591, 27484]}, "edge": {"target": [], "time": []}}, "mouseover": {"state": {"target": ["1", "2", "3", "3", "8", "3", "4", "6", "5", "7", "8", "8", "1", "12", "13", "14", "15", "18", "16", "17"], "time": [2577, 3452, 4936, 6729, 6854, 7269, 9086, 11019, 14486, 15402, 16836, 17459, 17592, 17725, 18675, 20542, 22326, 24142, 26375, 27909]}, "edge": {"target": [], "time": []}}, "mouseout": {"state": {"target": ["33", "30", "31", "0", "1", "1", "2", "3", "3", "8", "3", "4", "6", "4", "5", "4", "7", "8", "8", "1", "12", "13", "14", "15", "18", "16", "17"], "time": [659, 694, 1090, 2396, 2904, 3386, 4852, 6646, 6750, 7202, 9052, 10969, 12986, 14334, 14820, 14952, 16581, 16919, 17492, 17625, 18608, 20425, 22159, 23909, 25842, 27659, 34353]}, "edge": {"target": [], "time": []}}}, "displayed_time": "33.94", "trialTime": 34924, "trial_type": "mouselab-mdp", "trial_index": 12, "time_elapsed": 363941, "internal_node_id": "0.0-6.0-1.0-3.0"}}, {"uniqueid": "w88238064:a79990024", "current_trial": 13, "dateTime": 1693582660586, "trialdata": {"revealed_states": [], "clicked_states": ["23", "24", "25", "26", "27"], "num_clicks_accrued": [0, 0, 0, 0, 0, 0, 0, 0, 0, 0, 0, 0, 0], "stateRewards": ["", 2, -1, -1, 7, 11, -40, -22, -2, 69, 37, 8, -2, 4, -8, -12, -2, -72, -3, -12, 17, 63, 12, 1, 3, -7, 6, 25, 61, 61, -9, 28, -17, 27], "withholdReward": false, "trial_id": "mdp_trial_5", "block": "test", "trialIndex": 6, "score": 21, "costs": -7, "simulationMode": [null, null, null, null, null], "rewards": [1, 3, -7, 6, 25], "path": ["0", "0", "23", "24", "25", "26", "27"], "rt": [11199, 544, 220, 146, 140], "actions": ["left", "left", "left", "up", "up"], "actionTimes": [12394, 13449, 14175, 14835, 15495], "queries": {"click": {"state": {"target": ["23", "24", "25", "26", "27"], "time": [2198, 4050, 5874, 7727, 9590]}, "edge": {"target": [], "time": []}}, "mouseover": {"state": {"target": ["23", "24", "25", "26", "27", "28"], "time": [1968, 3204, 4371, 6288, 8487, 10104]}, "edge": {"target": [], "time": []}}, "mouseout": {"state": {"target": ["14", "0", "23", "24", "25", "26", "27", "28", "1", "28", "26", "29"], "time": [197, 1482, 3021, 4288, 6121, 8004, 9788, 11843, 16176, 16440, 16517, 16565]}, "edge": {"target": [], "time": []}}}, "displayed_time": "16.00", "trialTime": 17387, "trial_type": "mouselab-mdp", "trial_index": 13, "time_elapsed": 381443, "internal_node_id": "0.0-6.0-1.0-4.0"}}, {"uniqueid": "w88238064:a79990024", "current_trial": 14, "dateTime": 1693582680672, "trialdata": {"revealed_states": [], "clicked_states": ["1", "2", "3", "8", "9", "10"], "num_clicks_accrued": [0, 0, 0, 0, 0, 0, 0, 0, 0, 0, 0, 0, 0], "stateRewards": ["", -1, 1, -2, 5, 73, 15, 61, 8, 7, 38, 76, 2, 2, -4, -6, -6, -26, 43, -5, -45, -85, -35, -2, 1, -4, 15, -10, 69, 72, -11, 84, -49, -38], "withholdReward": false, "trial_id": "mdp_trial_6", "block": "test", "trialIndex": 7, "score": 35.6, "costs": -8.4, "simulationMode": [null, null, null, null, null], "rewards": [-1, 1, -2, 8, 38], "path": ["0", "0", "1", "2", "3", "8", "10"], "rt": [14676, 18, 606, 72, 50], "actions": ["up", "up", "up", "left", "down"], "actionTimes": [15674, 16190, 17312, 17895, 18456], "queries": {"click": {"state": {"target": ["1", "2", "3", "8", "9", "10"], "time": [3131, 4983, 6827, 8659, 10622, 13104]}, "edge": {"target": [], "time": []}}, "mouseover": {"state": {"target": ["0", "1", "2", "3", "8", "9", "11", "10", "11", "11"], "time": [1483, 3039, 3938, 5455, 7622, 10254, 11539, 13011, 13455, 13738]}, "edge": {"target": [], "time": []}}, "mouseout": {"state": {"target": ["23", "0", "0", "1", "2", "3", "8", "3", "3", "9", "11", "8", "10", "11", "11", "27"], "time": [906, 1240, 2886, 3671, 5338, 7588, 9055, 9155, 9688, 10905, 12698, 12775, 13322, 13505, 15122, 19108]}, "edge": {"target": [], "time": []}}}, "displayed_time": "18.96", "trialTime": 19974, "trial_type": "mouselab-mdp", "trial_index": 14, "time_elapsed": 401529, "internal_node_id": "0.0-6.0-1.0-5.0"}}, {"uniqueid": "w88238064:a79990024", "current_trial": 15, "dateTime": 1693582696540, "trialdata": {"revealed_states": [], "clicked_states": ["12", "13", "14", "15", "17"], "num_clicks_accrued": [0, 0, 0, 0, 0, 0, 0, 0, 0, 0, 0, 0, 0], "stateRewards": ["", 2, 3, 6, -12, -29, 12, 87, 4, 35, -30, 67, 2, 3, -5, -9, 44, 69, -8, 1, 45, -8, 28, -2, -1, -8, 11, -12, -5, 81, 9, 87, 82, 88], "withholdReward": false, "trial_id": "mdp_trial_7", "block": "test", "trialIndex": 8, "score": 53, "costs": -7, "simulationMode": [null, null, null, null, null], "rewards": [2, 3, -5, -9, 69], "path": ["0", "0", "12", "13", "14", "15", "17"], "rt": [10436, 407, 139, 117, 55], "actions": ["right", "right", "right", "up", "right"], "actionTimes": [11621, 12534, 13183, 13810, 14382], "queries": {"click": {"state": {"target": ["12", "13", "14", "15", "17"], "time": [1641, 3483, 5311, 7144, 9106]}, "edge": {"target": [], "time": []}}, "mouseover": {"state": {"target": ["12", "12", "13", "14", "15", "17", "16"], "time": [1446, 1592, 1937, 3737, 6609, 7526, 10076]}, "edge": {"target": [], "time": []}}, "mouseout": {"state": {"target": ["29", "24", "23", "0", "0", "12", "12", "13", "14", "15", "17", "16", "15", "10", "27"], "time": [349, 411, 446, 474, 1391, 1516, 1887, 3704, 6009, 7476, 9559, 11147, 14966, 15036, 15077]}, "edge": {"target": [], "time": []}}}, "displayed_time": "15.19", "trialTime": 15757, "trial_type": "mouselab-mdp", "trial_index": 15, "time_elapsed": 417396, "internal_node_id": "0.0-6.0-1.0-6.0"}}, {"uniqueid": "w88238064:a79990024", "current_trial": 16, "dateTime": 1693582715415, "trialdata": {"revealed_states": [], "clicked_states": ["12", "13", "14", "19", "21", "22", "20"], "num_clicks_accrued": [0, 0, 0, 0, 0, 0, 0, 0, 0, 0, 0, 0, 0], "stateRewards": ["", -1, 1, 8, -8, -49, 62, -78, 16, 28, -81, 78, -2, -3, -1, -4, 67, 49, -2, -13, -16, -39, 83, 1, -4, 4, -5, -20, 7, 84, 7, -32, -59, 19], "withholdReward": false, "trial_id": "mdp_trial_8", "block": "test", "trialIndex": 9, "score": 54.2, "costs": -9.8, "simulationMode": [null, null, null, null, null], "rewards": [-2, -3, -1, -13, 83], "path": ["0", "0", "12", "13", "14", "19", "22"], "rt": [12976, 58, 52, 69, 46], "actions": ["right", "right", "right", "down", "left"], "actionTimes": [14700, 15261, 15822, 16405, 16966], "queries": {"click": {"state": {"target": ["12", "13", "14", "19", "21", "22", "20"], "time": [2386, 4212, 6015, 7667, 9279, 11162, 13114]}, "edge": {"target": [], "time": []}}, "mouseover": {"state": {"target": ["0", "12", "13", "14", "19", "21", "22", "20", "12", "0"], "time": [1821, 1946, 2835, 4435, 6268, 8152, 9668, 11419, 13435, 13468]}, "edge": {"target": [], "time": []}}, "mouseout": {"state": {"target": ["29", "0", "12", "13", "14", "19", "21", "22", "19", "20", "12", "0", "23", "24", "25"], "time": [863, 1884, 2552, 4385, 6202, 7952, 9585, 11302, 11385, 13385, 13452, 18390, 18412, 18425, 18439]}, "edge": {"target": [], "time": []}}}, "displayed_time": "17.47", "trialTime": 18759, "trial_type": "mouselab-mdp", "trial_index": 16, "time_elapsed": 436272, "internal_node_id": "0.0-6.0-1.0-7.0"}}, {"uniqueid": "w88238064:a79990024", "current_trial": 17, "dateTime": 1693582732676, "trialdata": {"revealed_states": [], "clicked_states": ["23", "24", "25", "26", "27"], "num_clicks_accrued": [0, 0, 0, 0, 0, 0, 0, 0, 0, 0, 0, 0, 0], "stateRewards": ["", -2, 1, -8, 12, -65, -79, 16, 7, -80, -17, -45, -2, 2, -5, -2, -85, 23, -4, -7, 48, 27, -76, 2, 3, 5, 2, 43, 71, -13, 7, -49, 59, -31], "withholdReward": false, "trial_id": "mdp_trial_9", "block": "test", "trialIndex": 10, "score": 48, "costs": -7, "simulationMode": [null, null, null, null, null], "rewards": [2, 3, 5, 2, 43], "path": ["0", "0", "23", "24", "25", "26", "27"], "rt": [10291, 464, 112, 47, 68], "actions": ["left", "left", "left", "up", "up"], "actionTimes": [11414, 12383, 12998, 13549, 14120], "queries": {"click": {"state": {"target": ["23", "24", "25", "26", "27"], "time": [1454, 3236, 5049, 6972, 8846]}, "edge": {"target": [], "time": []}}, "mouseover": {"state": {"target": ["23", "24", "25", "26", "27", "28", "1"], "time": [1360, 1701, 3568, 5501, 7334, 9484, 10993]}, "edge": {"target": [], "time": []}}, "mouseout": {"state": {"target": ["24", "23", "0", "23", "24", "25", "26", "27", "28", "1", "28", "26"], "time": [631, 666, 1284, 1684, 3468, 5301, 7201, 9118, 10944, 14635, 14708, 14743]}, "edge": {"target": [], "time": []}}}, "displayed_time": "15.12", "trialTime": 17135, "trial_type": "mouselab-mdp", "trial_index": 17, "time_elapsed": 453532, "internal_node_id": "0.0-6.0-1.0-8.0"}}, {"uniqueid": "w88238064:a79990024", "current_trial": 18, "dateTime": 1693582752626, "trialdata": {"revealed_states": [], "clicked_states": ["23", "24", "25", "30", "32", "33", "31"], "num_clicks_accrued": [0, 0, 0, 0, 0, 0, 0, 0, 0, 0, 0, 0, 0], "stateRewards": ["", -2, -3, -3, 9, 79, 67, 22, -15, -56, 27, -85, -2, 4, -4, -15, -20, -32, 60, 15, 71, 57, 17, 1, 2, -8, 15, -37, -81, 82, 15, 21, -3, 2], "withholdReward": false, "trial_id": "mdp_trial_10", "block": "test", "trialIndex": 11, "score": 21.2, "costs": -9.8, "simulationMode": [null, null, null, null, null], "rewards": [1, 2, -8, 15, 21], "path": ["0", "0", "23", "24", "25", "30", "31"], "rt": [14186, 370, 153, 91, 18], "actions": ["left", "left", "left", "down", "right"], "actionTimes": [15675, 16544, 17193, 17798, 18326], "queries": {"click": {"state": {"target": ["23", "24", "25", "30", "32", "33", "31"], "time": [1923, 3558, 5581, 7423, 9417, 11360, 13340]}, "edge": {"target": [], "time": []}}, "mouseover": {"state": {"target": ["0", "23", "23", "24", "25", "30", "32", "33", "31", "30"], "time": [1629, 1699, 1803, 2599, 3916, 5799, 7682, 10216, 11983, 13556]}, "edge": {"target": [], "time": []}}, "mouseout": {"state": {"target": ["25", "23", "0", "23", "23", "24", "25", "30", "32", "33", "30", "31", "30"], "time": [1032, 1344, 1650, 1741, 2516, 3849, 5766, 7616, 9649, 11566, 11682, 13523, 13573]}, "edge": {"target": [], "time": []}}}, "displayed_time": "18.84", "trialTime": 19833, "trial_type": "mouselab-mdp", "trial_index": 18, "time_elapsed": 473483, "internal_node_id": "0.0-6.0-1.0-9.0"}}, {"uniqueid": "w88238064:a79990024", "current_trial": 19, "dateTime": 1693582781412, "trialdata": {"revealed_states": [], "clicked_states": ["1", "2", "3", "4", "6", "5", "7", "8", "9", "11", "10"], "num_clicks_accrued": [0, 0, 0, 0, 0, 0, 0, 0, 0, 0, 0, 0, 0], "stateRewards": ["", 2, -2, -3, 10, -4, -1, -11, -8, -9, -36, -78, 2, 1, 7, -7, 44, -1, -31, -1, 26, 47, 83, 2, -4, -4, -6, -52, -76, -81, -1, -59, 45, 67], "withholdReward": false, "trial_id": "mdp_trial_11", "block": "test", "trialIndex": 12, "score": 19.599999999999998, "costs": -15.400000000000002, "simulationMode": [null, null, null, null, null], "rewards": [2, 1, 7, -1, 26], "path": ["0", "0", "12", "13", "14", "19", "20"], "rt": [23271, 342, 143, 41, 65], "actions": ["right", "right", "right", "down", "right"], "actionTimes": [24201, 25048, 25697, 26247, 26819], "queries": {"click": {"state": {"target": ["1", "2", "3", "4", "6", "5", "7", "8", "9", "11", "10"], "time": [1450, 2992, 4892, 6799, 8741, 10684, 12566, 14798, 16632, 18623, 20746]}, "edge": {"target": [], "time": []}}, "mouseover": {"state": {"target": ["1", "2", "3", "4", "4", "6", "5", "7", "3", "8", "9", "10", "11", "10", "1", "23", "0", "12", "13"], "time": [1399, 2320, 3886, 4939, 5403, 7038, 9420, 11136, 14600, 14663, 15470, 17621, 18579, 18853, 22690, 22946, 23197, 23253, 23308]}, "edge": {"target": [], "time": []}}, "mouseout": {"state": {"target": ["24", "23", "1", "2", "3", "4", "4", "6", "5", "4", "7", "3", "8", "9", "8", "10", "11", "10", "1", "23", "0", "12", "13", "13", "23", "24", "25"], "time": [773, 794, 2220, 3486, 4913, 5004, 6987, 9070, 10903, 10970, 12720, 14628, 15121, 16853, 16954, 18538, 18788, 20970, 22711, 23162, 23232, 23280, 25836, 27419, 27579, 27843, 27892]}, "edge": {"target": [], "time": []}}}, "displayed_time": "27.34", "trialTime": 28667, "trial_type": "mouselab-mdp", "trial_index": 19, "time_elapsed": 502269, "internal_node_id": "0.0-6.0-1.0-10.0"}}, {"uniqueid": "w88238064:a79990024", "current_trial": 20, "dateTime": 1693582801256, "trialdata": {"revealed_states": [], "clicked_states": ["12", "13", "14", "15", "16", "17", "18"], "num_clicks_accrued": [0, 0, 0, 0, 0, 0, 0, 0, 0, 0, 0, 0, 0], "stateRewards": ["", 2, -1, 3, -12, -83, 6, -33, 9, 28, 24, -50, -2, -1, -2, -5, -87, 37, 82, 12, 80, -5, 10, -2, -3, -6, 9, 22, -1, 16, 9, 77, -62, 58], "withholdReward": false, "trial_id": "mdp_trial_12", "block": "test", "trialIndex": 13, "score": 62.2, "costs": -9.8, "simulationMode": [null, null, null, null, null], "rewards": [-2, -1, -2, -5, 82], "path": ["0", "0", "12", "13", "14", "15", "18"], "rt": [14599, 12, 29, 40, 19], "actions": ["right", "right", "right", "up", "left"], "actionTimes": [15823, 16351, 16901, 17462, 17990], "queries": {"click": {"state": {"target": ["12", "13", "14", "15", "16", "17", "18"], "time": [1829, 3514, 5237, 7200, 8961, 10854, 13828]}, "edge": {"target": [], "time": []}}, "mouseover": {"state": {"target": ["0", "12", "13", "13", "14", "14", "14", "15", "16", "17", "18", "23", "24", "25", "18", "12", "31", "30", "33"], "time": [1251, 1615, 2137, 2520, 3787, 3853, 4254, 5570, 7570, 9304, 13002, 13275, 13303, 13365, 13747, 14154, 14803, 14838, 14855]}, "edge": {"target": [], "time": []}}, "mouseout": {"state": {"target": ["25", "24", "23", "0", "12", "13", "13", "14", "14", "14", "15", "16", "17", "18", "23", "24", "25", "18", "12", "31", "30", "33"], "time": [719, 740, 782, 1574, 2088, 2420, 3720, 3838, 3870, 5470, 7453, 9237, 11037, 13185, 13289, 13331, 13504, 14020, 14204, 14820, 14854, 14887]}, "edge": {"target": [], "time": []}}}, "displayed_time": "18.51", "trialTime": 19728, "trial_type": "mouselab-mdp", "trial_index": 20, "time_elapsed": 522113, "internal_node_id": "0.0-6.0-1.0-11.0"}}, {"uniqueid": "w88238064:a79990024", "current_trial": 21, "dateTime": 1693582819918, "trialdata": {"revealed_states": [], "clicked_states": ["12", "13", "14", "15", "18", "16", "17"], "num_clicks_accrued": [0, 0, 0, 0, 0, 0, 0, 0, 0, 0, 0, 0, 0], "stateRewards": ["", -2, -3, 4, 1, 33, -53, 15, 9, -12, 61, -6, -2, 4, 6, -11, 47, -43, -7, -11, 46, 23, -28, -1, -1, 3, -10, 11, 76, -76, 10, 18, -38, 87], "withholdReward": false, "trial_id": "mdp_trial_13", "block": "test", "trialIndex": 14, "score": 34.2, "costs": -9.8, "simulationMode": [null, null, null, null, null], "rewards": [-2, 4, 6, -11, 47], "path": ["0", "0", "12", "13", "14", "15", "16"], "rt": [13303, 6, 41, 348, 135], "actions": ["right", "right", "right", "up", "up"], "actionTimes": [14740, 15256, 15807, 16664, 17302], "queries": {"click": {"state": {"target": ["12", "13", "14", "15", "18", "16", "17"], "time": [2339, 3872, 5492, 7094, 8696, 11001, 12843]}, "edge": {"target": [], "time": []}}, "mouseover": {"state": {"target": ["0", "12", "13", "14", "15", "18", "17", "16", "17", "15", "18"], "time": [1494, 1883, 2860, 4348, 6315, 7432, 9749, 10957, 11215, 13215, 13248]}, "edge": {"target": [], "time": []}}, "mouseout": {"state": {"target": ["25", "24", "23", "0", "12", "12", "13", "14", "15", "18", "15", "17", "16", "17", "15", "18"], "time": [611, 646, 882, 1795, 2378, 2510, 4282, 5848, 7332, 8982, 9732, 10115, 11132, 13198, 13232, 13265]}, "edge": {"target": [], "time": []}}}, "displayed_time": "17.80", "trialTime": 18545, "trial_type": "mouselab-mdp", "trial_index": 21, "time_elapsed": 540774, "internal_node_id": "0.0-6.0-1.0-12.0"}}, {"uniqueid": "w88238064:a79990024", "current_trial": 22, "dateTime": 1693582836243, "trialdata": {"revealed_states": [], "clicked_states": ["23", "24", "25", "30", "32"], "num_clicks_accrued": [0, 0, 0, 0, 0, 0, 0, 0, 0, 0, 0, 0, 0], "stateRewards": ["", -1, 4, -5, 9, 29, -75, -42, -16, 24, -28, -41, 2, -3, 1, 10, 60, 47, 55, -1, -53, 22, -40, 2, -3, -6, 4, -26, 44, 54, 15, -76, 42, 14], "withholdReward": false, "trial_id": "mdp_trial_14", "block": "test", "trialIndex": 15, "score": 43, "costs": -7, "simulationMode": [null, null, null, null, null], "rewards": [2, -3, -6, 15, 42], "path": ["0", "0", "23", "24", "25", "30", "32"], "rt": [10754, 446, 189, 28, 39], "actions": ["left", "left", "left", "down", "down"], "actionTimes": [11644, 12600, 13293, 13832, 14393], "queries": {"click": {"state": {"target": ["23", "24", "25", "30", "32"], "time": [2102, 3774, 5527, 7330, 9122]}, "edge": {"target": [], "time": []}}, "mouseover": {"state": {"target": ["0", "23", "24", "25", "30", "32", "31"], "time": [1031, 1740, 2553, 4620, 6020, 7687, 9970]}, "edge": {"target": [], "time": []}}, "mouseout": {"state": {"target": ["25", "24", "23", "0", "23", "24", "25", "30", "32", "30", "31", "31", "33"], "time": [691, 712, 739, 1080, 2337, 4153, 5836, 7570, 9588, 9796, 11212, 15017, 15073]}, "edge": {"target": [], "time": []}}}, "displayed_time": "14.90", "trialTime": 16209, "trial_type": "mouselab-mdp", "trial_index": 22, "time_elapsed": 557100, "internal_node_id": "0.0-6.0-1.0-13.0"}}, {"uniqueid": "w88238064:a79990024", "current_trial": 23, "dateTime": 1693582852864, "trialdata": {"revealed_states": [], "clicked_states": ["23", "24", "25", "26", "29"], "num_clicks_accrued": [0, 0, 0, 0, 0, 0, 0, 0, 0, 0, 0, 0, 0], "stateRewards": ["", 2, -2, -8, 9, -20, 55, -58, 14, 42, 2, 36, 1, -3, -5, 5, -58, 57, 60, 16, 57, 30, -70, -2, 1, 3, 10, 59, 23, 77, -13, -26, 88, -72], "withholdReward": false, "trial_id": "mdp_trial_15", "block": "test", "trialIndex": 16, "score": 82, "costs": -7, "simulationMode": [null, null, null, null, null], "rewards": [-2, 1, 3, 10, 77], "path": ["0", "0", "23", "24", "25", "26", "29"], "rt": [9489, 404, 114, 98, 41], "actions": ["left", "left", "left", "up", "left"], "actionTimes": [10995, 11907, 12534, 13150, 13711], "queries": {"click": {"state": {"target": ["23", "24", "25", "26", "29"], "time": [1812, 3410, 5160, 6683, 8537]}, "edge": {"target": [], "time": []}}, "mouseover": {"state": {"target": ["0", "23", "24", "25", "26", "29", "27", "28"], "time": [1662, 1703, 2885, 4068, 5518, 7252, 9335, 10606]}, "edge": {"target": [], "time": []}}, "mouseout": {"state": {"target": ["33", "30", "31", "23", "23", "0", "0", "23", "24", "25", "26", "29", "26", "27", "28"], "time": [585, 606, 620, 883, 1363, 1390, 1668, 2235, 3818, 5385, 7169, 8802, 9201, 10550, 14268]}, "edge": {"target": [], "time": []}}}, "displayed_time": "15.51", "trialTime": 16494, "trial_type": "mouselab-mdp", "trial_index": 23, "time_elapsed": 573721, "internal_node_id": "0.0-6.0-1.0-14.0"}}, {"uniqueid": "w88238064:a79990024", "current_trial": 24, "dateTime": 1693582872934, "trialdata": {"revealed_states": [], "clicked_states": ["23", "24", "25", "26", "29", "28", "27"], "num_clicks_accrued": [0, 0, 0, 0, 0, 0, 0, 0, 0, 0, 0, 0, 0], "stateRewards": ["", 2, 4, -6, -13, -75, -81, 30, 7, 5, 59, -65, -1, -1, 7, 14, -38, 36, -41, 1, -54, -5, 64, 2, -1, 5, 6, -19, 79, 11, 16, -33, -50, 58], "withholdReward": false, "trial_id": "mdp_trial_16", "block": "test", "trialIndex": 17, "score": 81.2, "costs": -9.8, "simulationMode": [null, null, null, null, null], "rewards": [2, -1, 5, 6, 79], "path": ["0", "0", "23", "24", "25", "26", "28"], "rt": [13937, 26, 499, 71, 785], "actions": ["left", "left", "left", "up", "right"], "actionTimes": [15209, 15737, 16760, 17332, 18630], "queries": {"click": {"state": {"target": ["23", "24", "25", "26", "29", "28", "27"], "time": [1595, 3407, 5370, 7203, 9175, 11458, 13377]}, "edge": {"target": [], "time": []}}, "mouseover": {"state": {"target": ["0", "23", "23", "24", "25", "26", "29", "27", "28", "27"], "time": [1304, 1373, 1581, 2253, 3986, 6536, 7570, 10086, 11408, 11720]}, "edge": {"target": [], "time": []}}, "mouseout": {"state": {"target": ["24", "23", "23", "0", "23", "23", "24", "25", "25", "26", "29", "27", "28", "27"], "time": [574, 595, 1136, 1324, 1442, 1836, 3836, 5637, 6403, 7486, 9554, 11185, 11620, 13577]}, "edge": {"target": [], "time": []}}}, "displayed_time": "19.14", "trialTime": 19950, "trial_type": "mouselab-mdp", "trial_index": 24, "time_elapsed": 593791, "internal_node_id": "0.0-6.0-1.0-15.0"}}, {"uniqueid": "w88238064:a79990024", "current_trial": 25, "dateTime": 1693582890369, "trialdata": {"revealed_states": [], "clicked_states": ["23", "25", "26", "28", "27", "29"], "num_clicks_accrued": [0, 0, 0, 0, 0, 0, 0, 0, 0, 0, 0, 0, 0], "stateRewards": ["", -2, -3, 8, 14, -73, 73, 84, -12, -2, -50, -17, 2, 1, -2, -9, -44, -27, -33, 16, -63, -47, -66, -2, 1, 4, -5, -33, -11, 50, 9, 38, -79, 31], "withholdReward": false, "trial_id": "mdp_trial_17", "block": "test", "trialIndex": 18, "score": 39.6, "costs": -8.4, "simulationMode": [null, null, null, null, null], "rewards": [-2, 1, 4, -5, 50], "path": ["0", "0", "23", "24", "25", "26", "29"], "rt": [12440, 472, 148, 147, 124], "actions": ["left", "left", "left", "up", "left"], "actionTimes": [13265, 14244, 14904, 15553, 16180], "queries": {"click": {"state": {"target": ["23", "25", "26", "28", "27", "29"], "time": [1144, 3006, 4929, 6830, 8854, 10776]}, "edge": {"target": [], "time": []}}, "mouseover": {"state": {"target": ["23", "23", "24", "24", "25", "26", "28", "27", "27", "29", "33"], "time": [995, 1062, 1388, 1755, 2671, 3537, 5204, 7121, 8807, 9204, 11288]}, "edge": {"target": [], "time": []}}, "mouseout": {"state": {"target": ["0", "23", "23", "24", "24", "25", "26", "28", "27", "27", "29", "33"], "time": [946, 1002, 1338, 1405, 2238, 3304, 5154, 7021, 7155, 9054, 11021, 12863]}, "edge": {"target": [], "time": []}}}, "displayed_time": "16.69", "trialTime": 17313, "trial_type": "mouselab-mdp", "trial_index": 25, "time_elapsed": 611226, "internal_node_id": "0.0-6.0-1.0-16.0"}}, {"uniqueid": "w88238064:a79990024", "current_trial": 26, "dateTime": 1693582906815, "trialdata": {"revealed_states": [], "clicked_states": [], "num_clicks_accrued": [0, 0, 0, 0, 0, 0, 0, 0, 0, 0, 0, 0, 0], "stateRewards": ["", 1, -2, 4, 7, -43, -83, -60, -5, -86, -80, 83, -1, -2, 6, 11, -15, 21, 13, 9, 29, -49, 11, -1, 4, -6, -11, 87, 40, 63, -8, -39, -11, 62], "withholdReward": false, "trial_id": "mdp_trial_18", "block": "test", "trialIndex": 19, "score": -82, "costs": 0, "simulationMode": [null, null, null, null, null], "rewards": [1, -2, 4, -5, -80], "path": ["0", "0", "1", "2", "3", "8", "10"], "rt": [4931, 27, 26, 428, 155], "actions": ["up", "up", "up", "left", "down"], "actionTimes": [6227, 6766, 7316, 8251, 8911], "queries": {"click": {"state": {"target": [], "time": []}, "edge": {"target": [], "time": []}}, "mouseover": {"state": {"target": ["23", "24", "25", "25", "25", "24", "21"], "time": [1534, 1860, 2666, 3659, 4846, 5728, 5902]}, "edge": {"target": [], "time": []}}, "mouseout": {"state": {"target": ["32", "0", "23", "24", "25", "25", "25", "24", "21", "32"], "time": [124, 1506, 1569, 2340, 2951, 4124, 5708, 5749, 9583, 9833]}, "edge": {"target": [], "time": []}}}, "displayed_time": "15.30", "trialTime": 16326, "trial_type": "mouselab-mdp", "trial_index": 26, "time_elapsed": 627672, "internal_node_id": "0.0-6.0-1.0-17.0"}}, {"uniqueid": "w88238064:a79990024", "current_trial": 27, "dateTime": 1693582923216, "trialdata": {"revealed_states": [], "clicked_states": ["30", "31", "32", "33"], "num_clicks_accrued": [0, 0, 0, 0, 0, 0, 0, 0, 0, 0, 0, 0, 0], "stateRewards": ["", 2, 4, -5, 7, 81, 35, 6, 11, 14, -72, 42, -1, 2, 3, -7, -77, -44, -40, -15, -85, 51, -32, -2, -1, -5, 7, -74, 47, 52, 16, -49, 48, -46], "withholdReward": false, "trial_id": "mdp_trial_19", "block": "test", "trialIndex": 20, "score": 50.4, "costs": -5.6, "simulationMode": [null, null, null, null, null], "rewards": [-2, -1, -5, 16, 48], "path": ["0", "0", "23", "24", "25", "30", "32"], "rt": [9238, 111, 78, 22, 110], "actions": ["left", "left", "left", "down", "down"], "actionTimes": [11119, 11735, 12318, 12846, 13484], "queries": {"click": {"state": {"target": ["30", "31", "32", "33"], "time": [3360, 5233, 7105, 9228]}, "edge": {"target": [], "time": []}}, "mouseover": {"state": {"target": ["23", "31", "30", "31", "32", "33"], "time": [2127, 2377, 2564, 3672, 5505, 7472]}, "edge": {"target": [], "time": []}}, "mouseout": {"state": {"target": ["32", "30", "31", "0", "23", "31", "30", "31", "32", "33"], "time": [224, 1147, 1203, 2092, 2133, 2439, 3606, 5422, 7273, 9389]}, "edge": {"target": [], "time": []}}}, "displayed_time": "15.88", "trialTime": 16277, "trial_type": "mouselab-mdp", "trial_index": 27, "time_elapsed": 644073, "internal_node_id": "0.0-6.0-1.0-18.0"}}, {"uniqueid": "w88238064:a79990024", "current_trial": 28, "dateTime": 1693582964913, "trialdata": {"revealed_states": [], "clicked_states": ["29", "27", "28", "31", "32", "33", "22", "21", "20", "17", "16", "18", "6", "5", "7", "10", "11", "9"], "num_clicks_accrued": [0, 0, 0, 0, 0, 0, 0, 0, 0, 0, 0, 0, 0], "stateRewards": ["", 1, 4, -8, -5, -15, -7, 21, 13, -30, 40, -65, 1, 1, 5, -14, 35, 27, -38, -11, 36, -58, -47, -2, 4, -3, 13, -16, -49, 22, 15, -56, -44, -10], "withholdReward": false, "trial_id": "mdp_trial_20", "block": "test", "trialIndex": 21, "score": 24.800000000000008, "costs": -25.199999999999992, "simulationMode": [null, null, null, null, null], "rewards": [1, 4, -8, 13, 40], "path": ["0", "0", "1", "2", "3", "8", "10"], "rt": [35764, 12, 18, 567, 62], "actions": ["up", "up", "up", "left", "down"], "actionTimes": [37060, 37588, 38127, 39227, 39788], "queries": {"click": {"state": {"target": ["29", "27", "28", "31", "32", "33", "22", "21", "20", "17", "16", "18", "6", "5", "7", "10", "11", "9"], "time": [1945, 3915, 5788, 7650, 9473, 11365, 13258, 15181, 16993, 18956, 20998, 22921, 25329, 27210, 29092, 31055, 33137, 35100]}, "edge": {"target": [], "time": []}}, "mouseover": {"state": {"target": ["23", "29", "26", "27", "28", "24", "31", "32", "33", "30", "22", "22", "21", "20", "14", "17", "16", "18", "7", "6", "5", "4", "7", "2", "10", "11", "9", "8", "10"], "time": [1563, 1834, 2308, 3208, 4141, 6008, 6092, 7908, 10391, 11575, 11725, 12125, 13508, 15475, 17275, 17991, 19275, 21358, 23241, 25291, 26125, 27426, 27508, 29341, 29958, 31575, 33458, 35441, 36192]}, "edge": {"target": [], "time": []}}, "mouseout": {"state": {"target": ["33", "30", "31", "0", "23", "29", "26", "27", "28", "24", "31", "32", "33", "30", "31", "22", "22", "21", "20", "14", "17", "16", "18", "7", "6", "5", "4", "7", "2", "10", "11", "9", "8", "10", "25", "31"], "time": [761, 1055, 1104, 1521, 1570, 2241, 2525, 4075, 5975, 6042, 7825, 9675, 11558, 11592, 11625, 11775, 13441, 15341, 17158, 17758, 19175, 21225, 23108, 23408, 25541, 27391, 27458, 29292, 29858, 31225, 33308, 35391, 35878, 36358, 41132, 41159]}, "edge": {"target": [], "time": []}}}, "displayed_time": "40.29", "trialTime": 41571, "trial_type": "mouselab-mdp", "trial_index": 28, "time_elapsed": 685770, "internal_node_id": "0.0-6.0-1.0-19.0"}}, {"uniqueid": "w88238064:a79990024", "current_trial": 29, "dateTime": 1693582980797, "trialdata": {"revealed_states": [], "clicked_states": ["29", "28", "27", "31"], "num_clicks_accrued": [0, 0, 0, 0, 0, 0, 0, 0, 0, 0, 0, 0, 0], "stateRewards": ["", 1, 1, 5, 6, -29, -7, 3, -16, 9, -46, 65, -1, 4, -1, -16, -63, -77, -87, 8, 80, -50, 43, -1, -1, -5, 5, -38, -71, -62, 9, 81, -50, -52], "withholdReward": false, "trial_id": "mdp_trial_21", "block": "test", "trialIndex": 22, "score": 77.4, "costs": -5.6, "simulationMode": [null, null, null, null, null], "rewards": [-1, -1, -5, 9, 81], "path": ["0", "0", "23", "24", "25", "30", "31"], "rt": [8896, 25, 4, 515, 98], "actions": ["left", "left", "left", "down", "right"], "actionTimes": [9951, 10479, 11007, 12052, 12668], "queries": {"click": {"state": {"target": ["29", "28", "27", "31"], "time": [1962, 3794, 5647, 7499]}, "edge": {"target": [], "time": []}}, "mouseover": {"state": {"target": ["28", "26", "29", "29", "25", "26", "28", "26", "27", "26", "31", "32"], "time": [1439, 1460, 1509, 1793, 2202, 3086, 3469, 4619, 4919, 5819, 6335, 7769]}, "edge": {"target": [], "time": []}}, "mouseout": {"state": {"target": ["0", "28", "26", "29", "29", "25", "26", "28", "26", "27", "26", "31", "32", "33"], "time": [1060, 1446, 1481, 1648, 2136, 2969, 3136, 3985, 4836, 5786, 5836, 7685, 13425, 13467]}, "edge": {"target": [], "time": []}}}, "displayed_time": "15.06", "trialTime": 15748, "trial_type": "mouselab-mdp", "trial_index": 29, "time_elapsed": 701653, "internal_node_id": "0.0-6.0-1.0-20.0"}}, {"uniqueid": "w88238064:a79990024", "current_trial": 30, "dateTime": 1693583010460, "trialdata": {"revealed_states": [], "clicked_states": ["21", "22", "20", "17", "16", "18", "5", "6", "7", "11", "9", "10"], "num_clicks_accrued": [0, 0, 0, 0, 0, 0, 0, 0, 0, 0, 0, 0, 0], "stateRewards": ["", -1, -3, -7, -7, -76, 30, -49, 11, -70, 56, 2, 1, 4, -3, -14, -59, -83, -25, -9, -21, -67, -73, -2, 4, 4, -9, -11, -32, 60, 9, -87, 22, -64], "withholdReward": false, "trial_id": "mdp_trial_22", "block": "test", "trialIndex": 23, "score": 39.2, "costs": -16.8, "simulationMode": [null, null, null, null, null], "rewards": [-1, -3, -7, 11, 56], "path": ["0", "0", "1", "2", "3", "8", "10"], "rt": [24283, 20, 109, 53, 70], "actions": ["up", "up", "up", "left", "down"], "actionTimes": [25422, 25939, 26577, 27138, 27721], "queries": {"click": {"state": {"target": ["21", "22", "20", "17", "16", "18", "5", "6", "7", "11", "9", "10"], "time": [2074, 3966, 5865, 7757, 9640, 11492, 13406, 15259, 17162, 19426, 21429, 23310]}, "edge": {"target": [], "time": []}}, "mouseover": {"state": {"target": ["31", "22", "21", "22", "19", "20", "20", "17", "16", "18", "7", "4", "5", "6", "7", "2", "10", "11", "9", "8", "10"], "time": [1648, 1863, 1989, 2561, 4145, 4194, 4783, 6533, 8033, 10717, 11717, 12084, 12217, 13700, 15834, 17617, 18267, 19139, 21383, 21700, 22617]}, "edge": {"target": [], "time": []}}, "mouseout": {"state": {"target": ["0", "31", "22", "21", "22", "19", "20", "20", "17", "16", "18", "7", "4", "5", "6", "7", "2", "10", "11", "9", "8", "10", "27", "30"], "time": [1335, 1669, 1870, 2427, 4111, 4177, 4245, 6033, 7917, 9867, 11497, 12017, 12150, 13633, 15467, 17550, 18200, 19064, 21293, 21650, 21767, 23501, 28150, 28952]}, "edge": {"target": [], "time": []}}}, "displayed_time": "28.22", "trialTime": 29536, "trial_type": "mouselab-mdp", "trial_index": 30, "time_elapsed": 731317, "internal_node_id": "0.0-6.0-1.0-21.0"}}, {"uniqueid": "w88238064:a79990024", "current_trial": 31, "dateTime": 1693583025959, "trialdata": {"revealed_states": [], "clicked_states": ["32"], "num_clicks_accrued": [0, 0, 0, 0, 0, 0, 0, 0, 0, 0, 0, 0, 0], "stateRewards": ["", -2, 2, -2, -7, -50, -62, -45, 7, 36, -24, -72, -1, -1, 8, -1, -67, 20, -52, 2, 35, -50, 80, -1, 1, 6, -6, -70, 6, 88, 8, -47, 74, -19], "withholdReward": false, "trial_id": "mdp_trial_23", "block": "test", "trialIndex": 24, "score": 86.6, "costs": -1.4, "simulationMode": [null, null, null, null, null], "rewards": [-1, 1, 6, 8, 74], "path": ["0", "0", "23", "24", "25", "30", "32"], "rt": [4424, 31, 75, 64, 85], "actions": ["left", "left", "left", "down", "down"], "actionTimes": [5215, 5753, 6347, 6919, 7524], "queries": {"click": {"state": {"target": ["32"], "time": [2450]}, "edge": {"target": [], "time": []}}, "mouseover": {"state": {"target": ["23", "31", "26", "29", "26", "24", "31", "32", "21"], "time": [1093, 1148, 1503, 1586, 2079, 2155, 2183, 2384, 3771]}, "edge": {"target": [], "time": []}}, "mouseout": {"state": {"target": ["0", "23", "31", "26", "29", "26", "24", "31", "32", "21"], "time": [1072, 1107, 1162, 1530, 2044, 2093, 2162, 2232, 2804, 4398]}, "edge": {"target": [], "time": []}}}, "displayed_time": "14.79", "trialTime": 15356, "trial_type": "mouselab-mdp", "trial_index": 31, "time_elapsed": 746816, "internal_node_id": "0.0-6.0-1.0-22.0"}}, {"uniqueid": "w88238064:a79990024", "current_trial": 32, "dateTime": 1693583042558, "trialdata": {"revealed_states": [], "clicked_states": ["5"], "num_clicks_accrued": [0, 0, 0, 0, 0, 0, 0, 0, 0, 0, 0, 0, 0], "stateRewards": ["", 1, 3, 1, -13, 52, -28, 67, -14, 3, 63, -70, -1, -4, 7, -11, -10, 47, -18, 6, 69, -9, -61, 2, 3, -6, 10, 63, -34, 40, -6, -79, -35, -32], "withholdReward": false, "trial_id": "mdp_trial_24", "block": "test", "trialIndex": 25, "score": 42.6, "costs": -1.4, "simulationMode": [null, null, null, null, null], "rewards": [1, 3, 1, -13, 52], "path": ["0", "0", "1", "2", "3", "4", "5"], "rt": [3697, 65, 126, 31, 42], "actions": ["up", "up", "up", "right", "up"], "actionTimes": [5008, 5568, 6195, 6734, 7295], "queries": {"click": {"state": {"target": ["5"], "time": [2689]}, "edge": {"target": [], "time": []}}, "mouseover": {"state": {"target": ["0", "31", "32", "31", "23", "1", "2", "4", "5", "4", "6"], "time": [1350, 1482, 1701, 1933, 1989, 2030, 2128, 2225, 2628, 3302, 3369]}, "edge": {"target": [], "time": []}}, "mouseout": {"state": {"target": ["25", "24", "23", "0", "31", "32", "31", "23", "1", "2", "4", "5", "4", "6", "7", "1", "24", "30", "33"], "time": [655, 697, 752, 1385, 1503, 1871, 1961, 2010, 2086, 2148, 2343, 2802, 3318, 5252, 7769, 7802, 8225, 8267, 8301]}, "edge": {"target": [], "time": []}}}, "displayed_time": "15.31", "trialTime": 16469, "trial_type": "mouselab-mdp", "trial_index": 32, "time_elapsed": 763415, "internal_node_id": "0.0-6.0-1.0-23.0"}}, {"uniqueid": "w88238064:a79990024", "current_trial": 33, "dateTime": 1693583058073, "trialdata": {"revealed_states": [], "clicked_states": ["17", "20", "21", "16"], "num_clicks_accrued": [0, 0, 0, 0, 0, 0, 0, 0, 0, 0, 0, 0, 0], "stateRewards": ["", -2, -4, -2, 10, -8, -15, -47, 7, -84, 53, 5, -1, 2, -7, 3, 83, 31, 47, -1, 30, -8, 69, 2, -4, -1, 8, -7, 12, -8, -8, -13, 30, -84], "withholdReward": false, "trial_id": "mdp_trial_25", "block": "test", "trialIndex": 26, "score": 74.4, "costs": -5.6, "simulationMode": [null, null, null, null, null], "rewards": [-1, 2, -7, 3, 83], "path": ["0", "0", "12", "13", "14", "15", "16"], "rt": [8431, 352, 183, 123, 149], "actions": ["right", "right", "right", "up", "up"], "actionTimes": [9123, 9981, 10662, 11300, 11960], "queries": {"click": {"state": {"target": ["17", "20", "21", "16"], "time": [1251, 3208, 5210, 7072]}, "edge": {"target": [], "time": []}}, "mouseover": {"state": {"target": ["12", "13", "14", "17", "20", "19", "14", "19", "21", "19", "14", "15", "16", "18"], "time": [951, 986, 1014, 1208, 1488, 4127, 4427, 5012, 5067, 5410, 5477, 5660, 5826, 7427]}, "edge": {"target": [], "time": []}}, "mouseout": {"state": {"target": ["33", "30", "31", "12", "13", "14", "17", "20", "19", "14", "19", "21", "19", "14", "15", "16", "18", "15"], "time": [388, 409, 437, 972, 1007, 1041, 1355, 3493, 4144, 4991, 5047, 5376, 5443, 5560, 5743, 7311, 9477, 9527]}, "edge": {"target": [], "time": []}}}, "displayed_time": "14.69", "trialTime": 15370, "trial_type": "mouselab-mdp", "trial_index": 33, "time_elapsed": 778930, "internal_node_id": "0.0-6.0-1.0-24.0"}}, {"uniqueid": "w88238064:a79990024", "current_trial": 34, "dateTime": 1693583077489, "trialdata": {"revealed_states": [], "clicked_states": ["29", "27", "28", "33", "32", "31"], "num_clicks_accrued": [0, 0, 0, 0, 0, 0, 0, 0, 0, 0, 0, 0, 0], "stateRewards": ["", 1, 3, -2, 15, 51, 15, -19, 11, 67, -45, -73, 2, 4, -2, -13, 36, 9, -28, 10, -30, 31, 16, 1, 2, -1, -16, 14, -22, 36, -1, 88, -5, 45], "withholdReward": false, "trial_id": "mdp_trial_26", "block": "test", "trialIndex": 27, "score": 80.6, "costs": -8.4, "simulationMode": [null, null, null, null, null], "rewards": [1, 2, -1, -1, 88], "path": ["0", "0", "23", "24", "25", "30", "31"], "rt": [12522, 2, 13, 3, 58], "actions": ["left", "left", "left", "down", "right"], "actionTimes": [13835, 14346, 14890, 15429, 16002], "queries": {"click": {"state": {"target": ["29", "27", "28", "33", "32", "31"], "time": [1776, 3857, 5810, 7703, 9925, 11847]}, "edge": {"target": [], "time": []}}, "mouseover": {"state": {"target": ["23", "26", "29", "26", "27", "28", "25", "33", "32", "31"], "time": [1564, 1641, 1703, 2110, 2609, 4110, 6044, 6560, 7976, 10609]}, "edge": {"target": [], "time": []}}, "mouseout": {"state": {"target": ["33", "30", "31", "23", "26", "29", "26", "27", "28", "25", "33", "32", "31"], "time": [564, 585, 620, 1571, 1675, 2044, 2493, 4026, 5976, 6060, 7860, 10143, 12044]}, "edge": {"target": [], "time": []}}}, "displayed_time": "16.51", "trialTime": 19269, "trial_type": "mouselab-mdp", "trial_index": 34, "time_elapsed": 798346, "internal_node_id": "0.0-6.0-1.0-25.0"}}, {"uniqueid": "w88238064:a79990024", "current_trial": 35, "dateTime": 1693583095122, "trialdata": {"revealed_states": [], "clicked_states": ["5"], "num_clicks_accrued": [0, 0, 0, 0, 0, 0, 0, 0, 0, 0, 0, 0, 0], "stateRewards": ["", 2, -1, -4, -13, 74, 77, 3, 2, -43, -2, -11, 2, 3, 7, 11, -26, -29, -33, -3, -3, -13, -3, 1, 3, -7, 14, -59, 33, 9, -5, 34, 79, 68], "withholdReward": false, "trial_id": "mdp_trial_27", "block": "test", "trialIndex": 28, "score": 56.6, "costs": -1.4, "simulationMode": [null, null, null, null, null], "rewards": [2, -1, -4, -13, 74], "path": ["0", "0", "1", "2", "3", "4", "5"], "rt": [2663, 28, 107, 49, 56], "actions": ["up", "up", "up", "right", "up"], "actionTimes": [3871, 4409, 5037, 5597, 6170], "queries": {"click": {"state": {"target": ["5"], "time": [1749]}, "edge": {"target": [], "time": []}}, "mouseover": {"state": {"target": ["0", "7", "4", "5", "6"], "time": [1290, 1512, 1554, 1672, 2780]}, "edge": {"target": [], "time": []}}, "mouseout": {"state": {"target": ["0", "0", "0", "7", "4", "5", "6", "16", "0", "23", "31", "30"], "time": [859, 1270, 1451, 1533, 1575, 1947, 4097, 6697, 6790, 6818, 6901, 7311]}, "edge": {"target": [], "time": []}}}, "displayed_time": "15.21", "trialTime": 17489, "trial_type": "mouselab-mdp", "trial_index": 35, "time_elapsed": 815979, "internal_node_id": "0.0-6.0-1.0-26.0"}}, {"uniqueid": "w88238064:a79990024", "current_trial": 36, "dateTime": 1693583111341, "trialdata": {"revealed_states": [], "clicked_states": ["21", "22"], "num_clicks_accrued": [0, 0, 0, 0, 0, 0, 0, 0, 0, 0, 0, 0, 0], "stateRewards": ["", 1, 1, 1, -3, -7, -1, -41, -10, 20, -72, -63, 1, -4, -2, 2, -66, 30, -84, -2, 49, 23, 71, -1, -4, 4, -12, 67, 5, 18, -16, 88, 56, -5], "withholdReward": false, "trial_id": "mdp_trial_28", "block": "test", "trialIndex": 29, "score": 61.2, "costs": -2.8, "simulationMode": [null, null, null, null, null], "rewards": [1, -4, -2, -2, 71], "path": ["0", "0", "12", "13", "14", "19", "22"], "rt": [5169, 104, 148, 169, 79], "actions": ["right", "right", "right", "down", "left"], "actionTimes": [6234, 6850, 7510, 8181, 8775], "queries": {"click": {"state": {"target": ["21", "22"], "time": [1737, 3700]}, "edge": {"target": [], "time": []}}, "mouseover": {"state": {"target": ["22", "21", "22", "19", "20", "20"], "time": [1426, 1683, 2395, 3895, 3962, 4862]}, "edge": {"target": [], "time": []}}, "mouseout": {"state": {"target": ["29", "26", "28", "0", "0", "22", "21", "22", "19", "20", "20", "20"], "time": [412, 432, 453, 578, 1315, 1468, 2228, 3878, 3945, 4478, 9012, 14792]}, "edge": {"target": [], "time": []}}}, "displayed_time": "15.07", "trialTime": 16074, "trial_type": "mouselab-mdp", "trial_index": 36, "time_elapsed": 832198, "internal_node_id": "0.0-6.0-1.0-27.0"}}, {"uniqueid": "w88238064:a79990024", "current_trial": 37, "dateTime": 1693583127633, "trialdata": {"revealed_states": [], "clicked_states": ["33", "32", "31", "28"], "num_clicks_accrued": [0, 0, 0, 0, 0, 0, 0, 0, 0, 0, 0, 0, 0], "stateRewards": ["", 2, 3, -3, 4, 72, -28, 34, -12, 57, -64, -15, 2, 1, -4, -15, 2, 49, 31, -1, -42, -58, 31, -2, 1, -2, -13, -75, -19, -22, -6, 61, 10, -56], "withholdReward": false, "trial_id": "mdp_trial_29", "block": "test", "trialIndex": 30, "score": 46.4, "costs": -5.6, "simulationMode": [null, null, null, null, null], "rewards": [-2, 1, -2, -6, 61], "path": ["0", "0", "23", "24", "25", "30", "31"], "rt": [8686, 110, 153, 59, 42], "actions": ["left", "left", "left", "down", "right"], "actionTimes": [9196, 9812, 10472, 11044, 11594], "queries": {"click": {"state": {"target": ["33", "32", "31", "28"], "time": [1371, 3254, 5246, 7289]}, "edge": {"target": [], "time": []}}, "mouseover": {"state": {"target": ["31", "30", "33", "30", "32", "31", "25", "28"], "time": [871, 1148, 1260, 1968, 2518, 3984, 5584, 5934]}, "edge": {"target": [], "time": []}}, "mouseout": {"state": {"target": ["0", "31", "30", "33", "30", "32", "31", "25", "28", "26"], "time": [787, 905, 1176, 1934, 2001, 3434, 5518, 5818, 7584, 11851]}, "edge": {"target": [], "time": []}}}, "displayed_time": "14.51", "trialTime": 16083, "trial_type": "mouselab-mdp", "trial_index": 37, "time_elapsed": 848490, "internal_node_id": "0.0-6.0-1.0-28.0"}}, {"uniqueid": "w88238064:a79990024", "current_trial": 38, "dateTime": 1693583148422, "trialdata": {"revealed_states": [], "clicked_states": ["11", "10", "9", "5", "6", "7", "29"], "num_clicks_accrued": [0, 0, 0, 0, 0, 0, 0, 0, 0, 0, 0, 0, 0], "stateRewards": ["", 1, 2, -6, -13, -51, 22, -4, -12, -44, -12, 6, -2, -2, -2, -14, -46, -4, -77, -2, 36, -79, 41, 2, -4, 2, -6, -55, 59, 70, -5, 39, -19, 24], "withholdReward": false, "trial_id": "mdp_trial_30", "block": "test", "trialIndex": 31, "score": 54.2, "costs": -9.8, "simulationMode": [null, null, null, null, null], "rewards": [2, -4, 2, -6, 70], "path": ["0", "0", "23", "24", "25", "26", "29"], "rt": [14760, 419, 178, 155, 126], "actions": ["left", "left", "left", "up", "left"], "actionTimes": [15984, 16919, 17612, 18272, 18910], "queries": {"click": {"state": {"target": ["11", "10", "9", "5", "6", "7", "29"], "time": [1750, 3801, 5724, 7627, 9499, 11482, 13494]}, "edge": {"target": [], "time": []}}, "mouseover": {"state": {"target": ["10", "8", "11", "10", "8", "9", "5", "6", "6", "7", "28", "26", "29", "27"], "time": [1525, 1566, 1746, 2999, 4016, 4249, 6533, 7833, 8066, 10116, 12299, 12833, 13066, 14133]}, "edge": {"target": [], "time": []}}, "mouseout": {"state": {"target": ["0", "10", "8", "11", "11", "11", "10", "8", "9", "5", "6", "6", "7", "28", "26", "29", "27", "11"], "time": [677, 1552, 1691, 1807, 1966, 2483, 3867, 4099, 5916, 7766, 7849, 9683, 11716, 12366, 12966, 13916, 15545, 19830]}, "edge": {"target": [], "time": []}}}, "displayed_time": "19.42", "trialTime": 20637, "trial_type": "mouselab-mdp", "trial_index": 38, "time_elapsed": 869279, "internal_node_id": "0.0-6.0-1.0-29.0"}}, {"uniqueid": "w88238064:a79990024", "current_trial": 39, "dateTime": 1693583163965, "trialdata": {"revealed_states": [], "clicked_states": ["17", "16"], "num_clicks_accrued": [0, 0, 0, 0, 0, 0, 0, 0, 0, 0, 0, 0, 0], "stateRewards": ["", 2, 2, 3, -15, 23, -14, 73, -7, -32, -20, -6, 1, 1, -5, -12, 73, 6, -84, 11, -81, -57, 13, -2, -1, -4, -8, -52, -58, 49, 13, 5, -41, -41], "withholdReward": false, "trial_id": "mdp_trial_31", "block": "test", "trialIndex": 32, "score": 55.2, "costs": -2.8, "simulationMode": [null, null, null, null, null], "rewards": [1, 1, -5, -12, 73], "path": ["0", "0", "12", "13", "14", "15", "16"], "rt": [5256, 53, 90, 107, 73], "actions": ["right", "right", "right", "up", "up"], "actionTimes": [5996, 6546, 7151, 7767, 8350], "queries": {"click": {"state": {"target": ["17", "16"], "time": [1574, 3585]}, "edge": {"target": [], "time": []}}, "mouseover": {"state": {"target": ["0", "13", "17", "16", "18"], "time": [874, 1262, 1533, 2376, 4276]}, "edge": {"target": [], "time": []}}, "mouseout": {"state": {"target": ["23", "0", "0", "13", "17", "17", "16", "18", "1", "23", "24", "25"], "time": [526, 567, 880, 1290, 1909, 2326, 3793, 9082, 9144, 9207, 9311, 9359]}, "edge": {"target": [], "time": []}}}, "displayed_time": "14.74", "trialTime": 15390, "trial_type": "mouselab-mdp", "trial_index": 39, "time_elapsed": 884822, "internal_node_id": "0.0-6.0-1.0-30.0"}}, {"uniqueid": "w88238064:a79990024", "current_trial": 40, "dateTime": 1693583179424, "trialdata": {"revealed_states": [], "clicked_states": ["21"], "num_clicks_accrued": [0, 0, 0, 0, 0, 0, 0, 0, 0, 0, 0, 0, 0], "stateRewards": ["", -1, 3, 8, 10, -86, 61, -36, 10, 17, -60, 24, -1, -3, 3, 11, 50, 60, 33, -3, -20, 58, -6, 1, -4, -4, 13, -70, -71, 43, 14, 52, 82, -11], "withholdReward": false, "trial_id": "mdp_trial_32", "block": "test", "trialIndex": 33, "score": 52.6, "costs": -1.4, "simulationMode": [null, null, null, null, null], "rewards": [-1, -3, 3, -3, 58], "path": ["0", "0", "12", "13", "14", "19", "21"], "rt": [3178, 364, 157, 101, 144], "actions": ["right", "right", "right", "down", "down"], "actionTimes": [3869, 4738, 5398, 6025, 6685], "queries": {"click": {"state": {"target": ["21"], "time": [1253]}, "edge": {"target": [], "time": []}}, "mouseover": {"state": {"target": ["0", "22", "21", "22", "22"], "time": [924, 1021, 1076, 1973, 2640]}, "edge": {"target": [], "time": []}}, "mouseout": {"state": {"target": ["30", "31", "23", "0", "0", "22", "21", "22", "22", "31"], "time": [229, 493, 548, 583, 958, 1035, 1719, 2007, 3469, 7428]}, "edge": {"target": [], "time": []}}}, "displayed_time": "14.69", "trialTime": 15309, "trial_type": "mouselab-mdp", "trial_index": 40, "time_elapsed": 900281, "internal_node_id": "0.0-6.0-1.0-31.0"}}, {"uniqueid": "w88238064:a79990024", "current_trial": 41, "dateTime": 1693583196409, "trialdata": {"revealed_states": [], "clicked_states": ["9", "5", "10"], "num_clicks_accrued": [0, 0, 0, 0, 0, 0, 0, 0, 0, 0, 0, 0, 0], "stateRewards": ["", 1, 4, 5, 8, -55, -11, 8, 16, -37, 77, -22, -2, 3, -8, -10, 45, 87, -67, 4, 17, -33, -22, -1, -3, 7, 6, -39, -85, 75, -1, 7, -48, 45], "withholdReward": false, "trial_id": "mdp_trial_33", "block": "test", "trialIndex": 34, "score": 98.8, "costs": -4.199999999999999, "simulationMode": [null, null, null, null, null], "rewards": [1, 4, 5, 16, 77], "path": ["0", "0", "1", "2", "3", "8", "10"], "rt": [6978, 383, 215, 105, 49], "actions": ["up", "up", "up", "left", "down"], "actionTimes": [7867, 8775, 9490, 10096, 10657], "queries": {"click": {"state": {"target": ["9", "5", "10"], "time": [1426, 3420, 5342]}, "edge": {"target": [], "time": []}}, "mouseover": {"state": {"target": ["1", "2", "3", "9", "5", "7", "2", "10", "7", "7"], "time": [1052, 1107, 1198, 1371, 1891, 4474, 4741, 4808, 5924, 6208]}, "edge": {"target": [], "time": []}}, "mouseout": {"state": {"target": ["0", "1", "2", "3", "9", "5", "7", "2", "10", "7", "7", "2"], "time": [982, 1087, 1163, 1281, 1808, 3757, 4708, 4774, 5574, 6007, 11208, 11241]}, "edge": {"target": [], "time": []}}}, "displayed_time": "14.89", "trialTime": 16828, "trial_type": "mouselab-mdp", "trial_index": 41, "time_elapsed": 917266, "internal_node_id": "0.0-6.0-1.0-32.0"}}, {"uniqueid": "w88238064:a79990024", "current_trial": 42, "dateTime": 1693583211732, "trialdata": {"revealed_states": [], "clicked_states": ["29", "33"], "num_clicks_accrued": [0, 0, 0, 0, 0, 0, 0, 0, 0, 0, 0, 0, 0], "stateRewards": ["", -2, 2, 3, -7, -31, -33, 29, -8, -57, 50, -83, -1, -1, 5, 13, -23, -62, 25, 5, -66, -85, 14, 1, -2, -1, 16, 71, 33, -19, -14, 5, -43, 79], "withholdReward": false, "trial_id": "mdp_trial_34", "block": "test", "trialIndex": 35, "score": 60.2, "costs": -2.8, "simulationMode": [null, null, null, null, null], "rewards": [1, -2, -1, -14, 79], "path": ["0", "0", "23", "24", "25", "30", "33"], "rt": [5050, 65, 81, 48, 87], "actions": ["left", "left", "left", "down", "left"], "actionTimes": [5786, 6358, 6941, 7491, 8096], "queries": {"click": {"state": {"target": ["29", "33"], "time": [1410, 3342]}, "edge": {"target": [], "time": []}}, "mouseover": {"state": {"target": ["23", "26", "29", "26", "28", "24", "30", "33", "32"], "time": [910, 1188, 1396, 2042, 2209, 2376, 2425, 3052, 3560]}, "edge": {"target": [], "time": []}}, "mouseout": {"state": {"target": ["24", "23", "0", "23", "26", "29", "26", "28", "24", "30", "33", "32"], "time": [549, 576, 778, 1056, 1299, 1692, 2125, 2359, 2392, 2476, 3476, 10702]}, "edge": {"target": [], "time": []}}}, "displayed_time": "14.74", "trialTime": 15169, "trial_type": "mouselab-mdp", "trial_index": 42, "time_elapsed": 932589, "internal_node_id": "0.0-6.0-1.0-33.0"}}, {"uniqueid": "w88238064:a79990024", "current_trial": 43, "dateTime": 1693583228149, "trialdata": {"revealed_states": [], "clicked_states": ["21", "16", "11", "33", "31"], "num_clicks_accrued": [0, 0, 0, 0, 0, 0, 0, 0, 0, 0, 0, 0, 0], "stateRewards": ["", -2, 2, -4, -4, -59, 88, 62, -3, 69, -15, -34, 1, -2, -5, 7, -54, -20, 78, -16, -74, -53, -21, 2, -4, 2, 13, -8, -44, 26, 9, 72, 4, 17], "withholdReward": false, "trial_id": "mdp_trial_35", "block": "test", "trialIndex": 36, "score": 74, "costs": -7, "simulationMode": [null, null, null, null, null], "rewards": [2, -4, 2, 9, 72], "path": ["0", "0", "23", "24", "25", "30", "31"], "rt": [11309, 87, 114, 35, 91], "actions": ["left", "left", "left", "down", "right"], "actionTimes": [11946, 12540, 13167, 13706, 14315], "queries": {"click": {"state": {"target": ["21", "16", "11", "33", "31"], "time": [1697, 3560, 5472, 7326, 9487]}, "edge": {"target": [], "time": []}}, "mouseover": {"state": {"target": ["22", "19", "21", "19", "14", "15", "16", "7", "3", "9", "11", "26", "29", "33", "30", "25", "29", "25", "31", "32"], "time": [1087, 1156, 1420, 2119, 2169, 2236, 2769, 4136, 4254, 4519, 5119, 5736, 6286, 6803, 8219, 8255, 8336, 9323, 9413, 10086]}, "edge": {"target": [], "time": []}}, "mouseout": {"state": {"target": ["33", "30", "30", "31", "23", "0", "22", "19", "21", "19", "14", "15", "16", "7", "3", "9", "11", "26", "29", "33", "30", "25", "29", "25", "31", "32", "32"], "time": [246, 274, 455, 476, 510, 802, 1129, 1365, 2053, 2136, 2219, 2303, 3803, 4186, 4369, 4837, 5686, 5769, 6670, 7553, 8254, 8286, 9295, 9337, 9670, 11490, 15231]}, "edge": {"target": [], "time": []}}}, "displayed_time": "14.82", "trialTime": 16263, "trial_type": "mouselab-mdp", "trial_index": 43, "time_elapsed": 949006, "internal_node_id": "0.0-6.0-1.0-34.0"}}, {"uniqueid": "w88238064:a79990024", "current_trial": 44, "dateTime": 1693583243702, "trialdata": {"revealed_states": [], "clicked_states": ["33"], "num_clicks_accrued": [0, 0, 0, 0, 0, 0, 0, 0, 0, 0, 0, 0, 0], "stateRewards": ["", 2, -3, 5, -14, -63, -9, -24, -11, -54, -43, 68, 2, -2, -4, 7, -64, 30, 47, 12, -74, 11, 86, 1, -3, 3, 10, -71, -42, -52, -1, -29, -16, 69], "withholdReward": false, "trial_id": "mdp_trial_36", "block": "test", "trialIndex": 37, "score": 67.6, "costs": -1.4, "simulationMode": [null, null, null, null, null], "rewards": [1, -3, 3, -1, 69], "path": ["0", "0", "23", "24", "25", "30", "33"], "rt": [2896, 104, 102, 107, 129], "actions": ["left", "left", "left", "down", "left"], "actionTimes": [3704, 4309, 4925, 5530, 6168], "queries": {"click": {"state": {"target": ["33"], "time": [1351]}, "edge": {"target": [], "time": []}}, "mouseover": {"state": {"target": ["0", "23", "24", "25", "33", "24", "23", "1", "7", "6"], "time": [818, 984, 1040, 1082, 1186, 1738, 1788, 1821, 1888, 2088]}, "edge": {"target": [], "time": []}}, "mouseout": {"state": {"target": ["0", "0", "23", "24", "25", "33", "24", "23", "1", "7", "6", "4", "3"], "time": [699, 971, 1026, 1061, 1109, 1471, 1771, 1804, 1854, 1922, 13262, 13290, 13311]}, "edge": {"target": [], "time": []}}}, "displayed_time": "14.81", "trialTime": 15397, "trial_type": "mouselab-mdp", "trial_index": 44, "time_elapsed": 964559, "internal_node_id": "0.0-6.0-1.0-35.0"}}, {"uniqueid": "w88238064:a79990024", "current_trial": 45, "dateTime": 1693583259553, "trialdata": {"revealed_states": [], "clicked_states": ["11", "20", "9", "10"], "num_clicks_accrued": [0, 0, 0, 0, 0, 0, 0, 0, 0, 0, 0, 0, 0], "stateRewards": ["", 2, -4, 4, 9, 69, 9, -75, 12, -86, 66, 25, -1, 3, 2, -13, -88, -3, 1, 4, -69, 49, -84, 2, -1, 4, 2, -18, -81, -52, -15, -69, -54, 25], "withholdReward": false, "trial_id": "mdp_trial_37", "block": "test", "trialIndex": 38, "score": 74.4, "costs": -5.6, "simulationMode": [null, null, null, null, null], "rewards": [2, -4, 4, 12, 66], "path": ["0", "0", "1", "2", "3", "8", "10"], "rt": [9117, 35, 2, 398, 37], "actions": ["up", "up", "up", "left", "down"], "actionTimes": [10431, 10970, 11487, 12400, 12939], "queries": {"click": {"state": {"target": ["11", "20", "9", "10"], "time": [1858, 4081, 6133, 8065]}, "edge": {"target": [], "time": []}}, "mouseover": {"state": {"target": ["10", "11", "10", "14", "20", "21", "21", "22", "12", "2", "8", "9", "8", "10", "1"], "time": [1644, 1803, 2068, 2468, 2868, 4318, 4769, 5251, 5285, 5352, 5551, 5789, 6435, 6501, 8634]}, "edge": {"target": [], "time": []}}, "mouseout": {"state": {"target": ["29", "24", "23", "0", "10", "11", "10", "14", "20", "21", "21", "22", "12", "2", "8", "9", "8", "10", "1", "1"], "time": [296, 331, 352, 1539, 1699, 2019, 2101, 2484, 4201, 4384, 5185, 5269, 5301, 5368, 5618, 6401, 6468, 8269, 8852, 13852]}, "edge": {"target": [], "time": []}}}, "displayed_time": "15.32", "trialTime": 15678, "trial_type": "mouselab-mdp", "trial_index": 45, "time_elapsed": 980410, "internal_node_id": "0.0-6.0-1.0-36.0"}}, {"uniqueid": "w88238064:a79990024", "current_trial": 46, "dateTime": 1693583286840, "trialdata": {"revealed_states": [], "clicked_states": ["17", "20", "21", "22", "33", "28", "5", "11", "9", "7", "6"], "num_clicks_accrued": [0, 0, 0, 0, 0, 0, 0, 0, 0, 0, 0, 0, 0], "stateRewards": ["", 1, 2, -3, 6, -88, 74, -45, 7, -46, 40, -77, 1, -4, 4, 3, 22, -25, -59, 8, -83, 19, -60, -1, -1, -1, -8, 26, -29, 64, -7, -88, -51, -55], "withholdReward": false, "trial_id": "mdp_trial_38", "block": "test", "trialIndex": 39, "score": 64.6, "costs": -15.400000000000002, "simulationMode": [null, null, null, null, null], "rewards": [1, 2, -3, 6, 74], "path": ["0", "0", "1", "2", "3", "4", "6"], "rt": [22551, 34, 55, 6, 40], "actions": ["up", "up", "up", "right", "right"], "actionTimes": [23284, 23822, 24394, 24911, 25462], "queries": {"click": {"state": {"target": ["17", "20", "21", "22", "33", "28", "5", "11", "9", "7", "6"], "time": [1416, 3299, 5192, 7153, 9186, 11207, 13111, 14992, 16945, 18846, 20789]}, "edge": {"target": [], "time": []}}, "mouseover": {"state": {"target": ["13", "14", "17", "14", "20", "21", "22", "32", "33", "30", "24", "28", "27", "8", "5", "4", "8", "11", "9", "8", "3", "7", "6"], "time": [1144, 1192, 1331, 1704, 2271, 3509, 6021, 8487, 9151, 9404, 11109, 11146, 11754, 12104, 12321, 13404, 14338, 14387, 16901, 17172, 17205, 17287, 19204]}, "edge": {"target": [], "time": []}}, "mouseout": {"state": {"target": ["0", "13", "14", "17", "14", "20", "21", "22", "32", "33", "30", "24", "28", "27", "8", "5", "4", "8", "11", "9", "8", "3", "7", "6", "4", "2", "10", "28", "26"], "time": [743, 1172, 1234, 1587, 2137, 3454, 5371, 7342, 9102, 9371, 9437, 11130, 11258, 11922, 12154, 13338, 13571, 14354, 15172, 17121, 17187, 17223, 19021, 26454, 26482, 26516, 26537, 26579, 26593]}, "edge": {"target": [], "time": []}}}, "displayed_time": "25.97", "trialTime": 27118, "trial_type": "mouselab-mdp", "trial_index": 46, "time_elapsed": 1007697, "internal_node_id": "0.0-6.0-1.0-37.0"}}, {"uniqueid": "w88238064:a79990024", "current_trial": 47, "dateTime": 1693583302491, "trialdata": {"revealed_states": [], "clicked_states": ["20", "17"], "num_clicks_accrued": [0, 0, 0, 0, 0, 0, 0, 0, 0, 0, 0, 0, 0], "stateRewards": ["", -2, 1, -5, 2, -68, 80, 33, 10, 67, -59, 20, -1, -3, 3, 14, 74, -2, 24, -16, 63, 80, 46, -1, 4, 6, 12, 83, -38, -43, -4, 43, 14, -79], "withholdReward": false, "trial_id": "mdp_trial_39", "block": "test", "trialIndex": 40, "score": 43.2, "costs": -2.8, "simulationMode": [null, null, null, null, null], "rewards": [-1, -3, 3, -16, 63], "path": ["0", "0", "12", "13", "14", "19", "20"], "rt": [5000, 56, 105, 49, 22], "actions": ["right", "right", "right", "down", "right"], "actionTimes": [6026, 6587, 7203, 7764, 8303], "queries": {"click": {"state": {"target": ["20", "17"], "time": [1489, 4091]}, "edge": {"target": [], "time": []}}, "mouseover": {"state": {"target": ["19", "20", "17", "19"], "time": [1290, 1332, 2064, 4497]}, "edge": {"target": [], "time": []}}, "mouseout": {"state": {"target": ["32", "0", "19", "20", "17", "20", "19"], "time": [249, 1200, 1311, 1680, 4247, 4447, 8985]}, "edge": {"target": [], "time": []}}}, "displayed_time": "15.03", "trialTime": 15475, "trial_type": "mouselab-mdp", "trial_index": 47, "time_elapsed": 1023348, "internal_node_id": "0.0-6.0-1.0-38.0"}}, {"uniqueid": "w88238064:a79990024", "current_trial": 48, "dateTime": 1693583318441, "trialdata": {"revealed_states": [], "clicked_states": ["17", "32", "33", "16"], "num_clicks_accrued": [0, 0, 0, 0, 0, 0, 0, 0, 0, 0, 0, 0, 0], "stateRewards": ["", -2, 1, 6, -2, -10, -78, -69, 14, -15, 7, -1, 1, -1, -2, 13, 77, 32, 87, 5, -74, 30, -26, 1, 3, 4, 12, 39, 54, -43, 2, 10, 23, 13], "withholdReward": false, "trial_id": "mdp_trial_40", "block": "test", "trialIndex": 41, "score": 82.4, "costs": -5.6, "simulationMode": [null, null, null, null, null], "rewards": [1, -1, -2, 13, 77], "path": ["0", "0", "12", "13", "14", "15", "16"], "rt": [10601, 67, 66, 33, 66], "actions": ["right", "right", "right", "up", "up"], "actionTimes": [11240, 11812, 12395, 12945, 13528], "queries": {"click": {"state": {"target": ["17", "32", "33", "16"], "time": [2535, 4690, 6652, 8764]}, "edge": {"target": [], "time": []}}, "mouseover": {"state": {"target": ["22", "19", "20", "19", "19", "20", "20", "17", "14", "32", "32", "33", "26", "27", "16", "18"], "time": [1054, 1096, 1825, 1901, 2026, 2103, 2353, 2492, 2777, 2944, 3311, 5194, 7194, 7261, 8693, 10678]}, "edge": {"target": [], "time": []}}, "mouseout": {"state": {"target": ["0", "22", "19", "20", "19", "19", "20", "20", "17", "14", "32", "32", "33", "26", "27", "16", "18", "13", "22"], "time": [429, 1075, 1137, 1881, 1936, 2068, 2221, 2395, 2727, 2811, 2961, 4861, 6877, 7228, 7961, 8961, 14290, 14339, 14360]}, "edge": {"target": [], "time": []}}}, "displayed_time": "14.64", "trialTime": 15772, "trial_type": "mouselab-mdp", "trial_index": 48, "time_elapsed": 1039298, "internal_node_id": "0.0-6.0-1.0-39.0"}}, {"uniqueid": "w88238064:a79990024", "current_trial": 49, "dateTime": 1693583354393, "trialdata": {"rt": 35945, "response": {"Q0": "$-2 to $2", "Q1": "$-16 to $16", "Q2": "$-88 to $88", "Q3": "The cost for clicking on nodes varied between nodes.", "Q4": "Slightly motivated"}, "question_order": [0, 1, 2, 3, 4], "trial_id": "final_quiz_control", "trial_type": "survey-multi-choice", "trial_index": 49, "time_elapsed": 1075250, "internal_node_id": "0.0-6.0-2.0"}}, {"uniqueid": "w88238064:a79990024", "current_trial": 50, "dateTime": 1693583428833, "trialdata": {"rt": 74432, "response": {"Q0": "I realised the major deciding factor would be the value of the final node so I scanned all the final nodes until I found a value above 50.", "Q1": "I started by scanning every node then realised the major deciding factor would be the value of the final node so I scanned all the final nodes until I found a value above 50.", "Q2": "Not very difficult. Nothing made it particularly difficult to improve."}, "trial_id": "self_report_control", "trial_type": "survey-text", "trial_index": 50, "time_elapsed": 1149690, "internal_node_id": "0.0-6.0-3.0"}}, {"uniqueid": "w88238064:a79990024", "current_trial": 51, "dateTime": 1693583441195, "trialdata": {"rt": 12360, "response": {"gender": "male", "age": "22", "colorblind": "0", "effort": "0"}, "trial_type": "survey-html-form", "trial_index": 51, "time_elapsed": 1162052, "internal_node_id": "0.0-6.0-4.0"}}, {"uniqueid": "w88238064:a79990024", "current_trial": 52, "dateTime": 1693583451467, "trialdata": {"rt": 10269, "response": {"Q0": "No", "Q1": "No", "Q2": ""}, "trial_type": "survey-text", "trial_index": 52, "time_elapsed": 1172324, "internal_node_id": "0.0-6.0-5.0"}}, {"uniqueid": "w88238064:a79990024", "current_trial": 53, "dateTime": 1693583479263, "trialdata": {"rt": 27788, "stimulus": "<h1>Completion Code Instructions (1/2)</h1>\n<br><br><br><br>\nYou have reached the end of the experiment! The completion code consists of two parts: (1) a code with 2 characters (2) a code with 6 characters. On this page, you will receive the second part of the code. The first part of the completion code will be on the next page.\n<br><br>\nThe second part of your completion code is: <b>EWEK22</b>\n<br><br>\nPlease note this down. Then, press 'Next' in order to find the first part of your completion code. Once the data has been saved, you will receive this code either in this window or in the original browser window where you started the experiment.\n <br><br>\n<h2 style='color: red;'>Note: this is <strong>NOT</strong> the full completion code. Copy this down and click 'Next' to get the full completion code on the next page.</h2>", "response": 0, "trial_type": "html-button-response", "trial_index": 53, "time_elapsed": 1200120, "internal_node_id": "0.0-6.0-6.0"}}, {"uniqueid": "w88238064:a79990024", "current_trial": 54, "dateTime": 1693583480265, "trialdata": {"success": true, "trial_type": "fullscreen", "trial_index": 54, "time_elapsed": 1201122, "internal_node_id": "0.0-7.0"}}], "questiondata": {"params": {"CODE": "C6DMOQA6", "MIN_TIME": 14, "inspectCost": 1, "startTime": "Fri Sep 01 2023 16:31:18 GMT+0100 (British Summer Time)", "bonusRate": 0.002, "variance": "1_2_4_8_44", "branching": "31123"}, "final_score": 1923.2}, "eventdata": [{"eventtype": "initialized", "value": null, "timestamp": 1693582278114, "interval": 0}, {"eventtype": "window_resize", "value": [1024, 767], "timestamp": 1693582278114, "interval": 0}, {"eventtype": "window_resize", "value": [1024, 767], "timestamp": 1693582278424, "interval": 310}, {"eventtype": "window_resize", "value": [1920, 1080], "timestamp": 1693582281209, "interval": 2785}, {"eventtype": "focus", "value": "off", "timestamp": 1693583473082, "interval": 1191873}, {"eventtype": "focus", "value": "on", "timestamp": 1693583476876, "interval": 3794}, {"eventtype": "window_resize", "value": [1024, 767], "timestamp": 1693583479472, "interval": 2596}], "useragent": "Mozilla/5.0 (Windows NT 10.0; Win64; x64) AppleWebKit/537.36 (KHTML, like Gecko) Chrome/116.0.0.0 Safari/537.36", "mode": "live", "id": "w88238064:a79990024", "status": "user data saved", "Beginhit": "2023-09-01 15:31:17.333808", "Beginexp": "2023-09-01 15:31:22.422886", "Endhit": "2023-09-01 15:51:21.024895", "psiturkStatus": 3, "browser": "<redacted>", "platform": "windows", "language": "en-GB"}