{"condition": 0, "counterbalance": 0, "assignmentId": "a24796623", "workerId": "w78762861", "hitId": "h69905457", "currenttrial": 55, "bonus": 0, "data": [{"uniqueid": "w78762861:a24796623", "current_trial": 0, "dateTime": 1693660296878, "trialdata": {"success": true, "trial_type": "fullscreen", "trial_index": 0, "time_elapsed": 4991, "internal_node_id": "0.0-0.0"}}, {"uniqueid": "w78762861:a24796623", "current_trial": 1, "dateTime": 1693660317823, "trialdata": {"view_history": [{"page_index": 0, "viewing_time": 20933}], "rt": 20933, "trial_id": "exp_instructions_control", "trial_type": "instructions", "trial_index": 1, "time_elapsed": 25937, "internal_node_id": "0.0-1.0"}}, {"uniqueid": "w78762861:a24796623", "current_trial": 2, "dateTime": 1693660532928, "trialdata": {"view_history": [{"page_index": 0, "viewing_time": 79115}, {"page_index": 1, "viewing_time": 73486}, {"page_index": 2, "viewing_time": 24405}, {"page_index": 3, "viewing_time": 38096}], "rt": 215102, "trial_id": "mouselab_instructions_1_control", "trial_type": "instructions", "trial_index": 2, "time_elapsed": 241042, "internal_node_id": "0.0-2.0-1.0"}}, {"uniqueid": "w78762861:a24796623", "current_trial": 3, "dateTime": 1693660566072, "trialdata": {"revealed_states": [], "clicked_states": ["1", "2", "12", "13", "25"], "num_clicks_accrued": [0, 0, 0, 0, 0, 0, 0, 0, 0, 0, 0, 0, 0], "stateRewards": ["", 10, 10, -10, -10, 10, 10, 10, -10, 10, -10, -10, 10, -10, 10, 10, -10, 10, -10, -10, -10, 10, 10, 10, 10, 10, 10, 10, -10, -10, 10, 10, -10, 10], "withholdReward": false, "trial_id": "practice_1", "block": "test", "trialIndex": 0, "score": 31, "costs": -2.5, "simulationMode": [null, null, null, null, null], "rewards": [10, 10, 10, 10, -10], "path": ["0", "0", "23", "24", "25", "26", "29"], "rt": [14800, 263, 309, 3389, 247], "actions": ["left", "left", "left", "up", "left"], "actionTimes": [17909, 18664, 19477, 23358, 24100], "queries": {"click": {"state": {"target": ["1", "2", "12", "13", "25"], "time": [4625, 5676, 7308, 10185, 13356]}, "edge": {"target": [], "time": []}}, "mouseover": {"state": {"target": ["1", "2", "3", "12", "12", "13", "12", "23", "24", "25", "24", "0", "13", "12", "0", "23"], "time": [3827, 5178, 6145, 6611, 6999, 7746, 12198, 12382, 12745, 12898, 14318, 14348, 14413, 15124, 15135, 15212]}, "edge": {"target": [], "time": []}}, "mouseout": {"state": {"target": ["0", "1", "2", "3", "2", "1", "12", "12", "13", "12", "23", "24", "25", "24", "0", "13", "12", "0", "23", "0"], "time": [1496, 4668, 6095, 6378, 6428, 6512, 6743, 7712, 12184, 12212, 12718, 12795, 14315, 14330, 14367, 15119, 15131, 15147, 16536, 28987]}, "edge": {"target": [], "time": []}}}, "displayed_time": "24.62", "trialTime": 32634, "trial_type": "mouselab-mdp", "trial_index": 3, "time_elapsed": 274185, "internal_node_id": "0.0-2.0-2.0-0.0"}}, {"uniqueid": "w78762861:a24796623", "current_trial": 4, "dateTime": 1693660588778, "trialdata": {"revealed_states": [], "clicked_states": ["12"], "num_clicks_accrued": [0, 0, 0, 0, 0, 0, 0, 0, 0, 0, 0, 0, 0], "stateRewards": ["", -10, -10, -10, 10, 10, 10, 10, 10, 10, 10, 10, -10, 10, -10, 10, 10, -10, 10, 10, -10, 10, -10, 10, 10, 10, -10, -10, 10, 10, 10, 10, 10, 10], "withholdReward": false, "trial_id": "practice_2", "block": "test", "trialIndex": 1, "score": -7, "costs": -0.5, "simulationMode": [null, null, null, null, null], "rewards": [-10, -10, -10, 10, 10], "path": ["0", "0", "1", "2", "3", "4", "6"], "rt": [8309, 429, 1176, 381, 137], "actions": ["up", "up", "up", "right", "right"], "actionTimes": [12318, 13251, 14931, 15821, 16476], "queries": {"click": {"state": {"target": ["12"], "time": [8116]}, "edge": {"target": [], "time": []}}, "mouseover": {"state": {"target": ["0", "23", "12", "1"], "time": [5422, 5552, 7604, 10219]}, "edge": {"target": [], "time": []}}, "mouseout": {"state": {"target": ["0", "0", "23", "12", "1"], "time": [2681, 5450, 7456, 9307, 19555]}, "edge": {"target": [], "time": []}}}, "displayed_time": "16.97", "trialTime": 22421, "trial_type": "mouselab-mdp", "trial_index": 4, "time_elapsed": 296891, "internal_node_id": "0.0-2.0-2.0-1.0"}}, {"uniqueid": "w78762861:a24796623", "current_trial": 5, "dateTime": 1693660638025, "trialdata": {"view_history": [{"page_index": 0, "viewing_time": 37830}, {"page_index": 1, "viewing_time": 11413}], "rt": 49244, "trial_id": "mouselab_instructions_2_control", "trial_type": "instructions", "trial_index": 5, "time_elapsed": 346139, "internal_node_id": "0.0-2.0-3.0"}}, {"uniqueid": "w78762861:a24796623", "current_trial": 6, "dateTime": 1693660680258, "trialdata": {"rt": 42228, "response": {"Q0": "The cost for clicking on nodes may vary between nodes.", "Q1": "The better I perform the higher my bonus will be.", "Q2": "No, the amount of cash at each node of the web may be different each time.", "Q3": "To get the highest total score.", "Q4": "Only before moving the spider.", "Q5": "3 seconds"}, "question_order": [0, 1, 2, 3, 4, 5], "correct": {"Q0": "The cost for clicking on nodes may vary between nodes.", "Q1": "The better I perform the higher my bonus will be.", "Q2": "No, the amount of cash at each node of the web may be different each time.", "Q3": "To get the highest total score.", "Q4": "Only before moving the spider.", "Q5": "3 seconds"}, "trial_id": "mouselab_quiz_control", "trial_type": "survey-multi-choice", "trial_index": 6, "time_elapsed": 388372, "internal_node_id": "0.0-2.0-4.0"}}, {"uniqueid": "w78762861:a24796623", "current_trial": 7, "dateTime": 1693660689315, "trialdata": {"rt": 9050, "response": {"Q0": "No"}, "question_order": [0], "trial_id": "repeat_check", "trial_type": "survey-multi-choice", "trial_index": 7, "time_elapsed": 397429, "internal_node_id": "0.0-4.0-0.0"}}, {"uniqueid": "w78762861:a24796623", "current_trial": 8, "dateTime": 1693660702673, "trialdata": {"rt": 13351, "stimulus": "\n<h1> Get ready to start the game! </h1>\n\nThank you for reading the instructions. Get ready start with the 40 rounds of this game.\n<br><br>\nIf you need to take a break, feel free to take one after the end of a round, before continuing to the next one.\n<br><br>\nRemember, the more money the spider gets, the bigger your bonus will be!\n<br><br>\n<div style='text-align: center;'>Press <code>space</code> to begin.</div>\n\n<br><br>\n(If, at any point, the <code>space</code> key does not take you to the next page, click once on the text and try again.)", "response": " ", "trial_id": "mdp_ready", "trial_type": "html-keyboard-response", "trial_index": 8, "time_elapsed": 410787, "internal_node_id": "0.0-6.0-0.0"}}, {"uniqueid": "w78762861:a24796623", "current_trial": 9, "dateTime": 1693660735027, "trialdata": {"revealed_states": [], "clicked_states": ["1", "23", "12", "13"], "num_clicks_accrued": [0, 0, 0, 0, 0, 0, 0, 0, 0, 0, 0, 0, 0], "stateRewards": ["", 2, 3, 3, 10, 19, -21, 6, 9, 54, 68, 16, 2, 2, -6, -8, 40, -2, -75, -2, -42, 55, 59, -1, 2, 4, -14, 11, -34, -30, -6, 61, -53, 13], "withholdReward": false, "trial_id": "mdp_trial_1", "block": "test", "trialIndex": 2, "score": 24.4, "costs": -5.6, "simulationMode": [null, null, null, null, null], "rewards": [2, 2, -6, -8, 40], "path": ["0", "0", "12", "13", "14", "15", "16"], "rt": [15220, 213, 287, 679, 122], "actions": ["right", "right", "right", "up", "up"], "actionTimes": [18893, 19607, 20398, 21574, 22218], "queries": {"click": {"state": {"target": ["1", "23", "12", "13"], "time": [5837, 8619, 12014, 15368]}, "edge": {"target": [], "time": []}}, "mouseover": {"state": {"target": ["1", "0", "23", "0", "12", "13", "12"], "time": [4955, 6745, 7529, 11095, 11471, 14490, 17574]}, "edge": {"target": [], "time": []}}, "mouseout": {"state": {"target": ["0", "1", "0", "23", "0", "12", "12", "13", "12", "0"], "time": [971, 6672, 7437, 10556, 11427, 12096, 14395, 17546, 17793, 25932]}, "edge": {"target": [], "time": []}}}, "displayed_time": "22.71", "trialTime": 32044, "trial_type": "mouselab-mdp", "trial_index": 9, "time_elapsed": 443141, "internal_node_id": "0.0-6.0-1.0-0.0"}}, {"uniqueid": "w78762861:a24796623", "current_trial": 10, "dateTime": 1693660756609, "trialdata": {"revealed_states": [], "clicked_states": ["1"], "num_clicks_accrued": [0, 0, 0, 0, 0, 0, 0, 0, 0, 0, 0, 0, 0], "stateRewards": ["", -2, 3, 8, -9, 59, 41, -50, -1, 82, 66, 33, 2, -2, 7, 8, 1, -38, 12, -16, 24, -37, 67, 1, 4, -2, 5, 35, -83, 28, 8, -27, 69, -64], "withholdReward": false, "trial_id": "mdp_trial_2", "block": "test", "trialIndex": 3, "score": 34.6, "costs": -1.4, "simulationMode": [null, null, null, null, null], "rewards": [1, 4, -2, 5, 28], "path": ["0", "0", "23", "24", "25", "26", "29"], "rt": [5862, 255, 325, 2556, 767], "actions": ["left", "left", "left", "up", "left"], "actionTimes": [8157, 8906, 9742, 12791, 14069], "queries": {"click": {"state": {"target": ["1"], "time": [3640]}, "edge": {"target": [], "time": []}}, "mouseover": {"state": {"target": ["1", "0", "23"], "time": [2985, 6196, 6296]}, "edge": {"target": [], "time": []}}, "mouseout": {"state": {"target": ["1", "0", "23", "0", "13"], "time": [4780, 6264, 18022, 18036, 18051]}, "edge": {"target": [], "time": []}}}, "displayed_time": "16.30", "trialTime": 21271, "trial_type": "mouselab-mdp", "trial_index": 10, "time_elapsed": 464722, "internal_node_id": "0.0-6.0-1.0-1.0"}}, {"uniqueid": "w78762861:a24796623", "current_trial": 11, "dateTime": 1693660777882, "trialdata": {"revealed_states": [], "clicked_states": ["1"], "num_clicks_accrued": [0, 0, 0, 0, 0, 0, 0, 0, 0, 0, 0, 0, 0], "stateRewards": ["", 2, -1, 3, -12, -83, 6, -33, 9, 28, 24, -50, -2, -1, -2, -5, -87, 37, 82, 12, 80, -5, 10, -2, -3, -6, 9, 22, -1, 16, 9, 77, -62, 58], "withholdReward": false, "trial_id": "mdp_trial_3", "block": "test", "trialIndex": 4, "score": -3.4000000000000004, "costs": -1.4, "simulationMode": [null, null, null, null, null], "rewards": [2, -1, 3, -12, 6], "path": ["0", "0", "1", "2", "3", "4", "6"], "rt": [5568, 395, 240, 330, 192], "actions": ["up", "up", "up", "right", "right"], "actionTimes": [7367, 8257, 9018, 9843, 10537], "queries": {"click": {"state": {"target": ["1"], "time": [3283]}, "edge": {"target": [], "time": []}}, "mouseover": {"state": {"target": ["1"], "time": [2657]}, "edge": {"target": [], "time": []}}, "mouseout": {"state": {"target": ["0", "1", "13"], "time": [2523, 4292, 17233]}, "edge": {"target": [], "time": []}}}, "displayed_time": "15.80", "trialTime": 20885, "trial_type": "mouselab-mdp", "trial_index": 11, "time_elapsed": 485995, "internal_node_id": "0.0-6.0-1.0-2.0"}}, {"uniqueid": "w78762861:a24796623", "current_trial": 12, "dateTime": 1693660808755, "trialdata": {"revealed_states": [], "clicked_states": ["1", "2", "23", "12"], "num_clicks_accrued": [0, 0, 0, 0, 0, 0, 0, 0, 0, 0, 0, 0, 0], "stateRewards": ["", 1, -3, -6, -5, 47, 80, -29, 11, -71, 10, -29, -2, 3, -6, 12, 2, -78, -6, 8, 34, -16, -5, -1, 3, 3, -13, 84, -36, -62, -3, -27, 66, 15], "withholdReward": false, "trial_id": "mdp_trial_4", "block": "test", "trialIndex": 5, "score": 62.4, "costs": -5.6, "simulationMode": [null, null, null, null, null], "rewards": [-1, 3, 3, -3, 66], "path": ["0", "0", "23", "24", "25", "30", "32"], "rt": [18661, 283, 174, 362, 177], "actions": ["left", "left", "left", "down", "down"], "actionTimes": [22186, 22970, 23660, 24532, 25213], "queries": {"click": {"state": {"target": ["1", "2", "23", "12"], "time": [5586, 9022, 12697, 15684]}, "edge": {"target": [], "time": []}}, "mouseover": {"state": {"target": ["1", "2", "1", "23", "18", "15", "17", "15", "13", "12", "12", "16", "1", "23", "24"], "time": [5226, 7833, 12095, 12296, 13531, 13551, 13631, 14979, 15063, 15214, 15354, 18770, 19602, 20617, 20766]}, "edge": {"target": [], "time": []}}, "mouseout": {"state": {"target": ["33", "30", "31", "0", "1", "2", "1", "23", "18", "15", "17", "15", "13", "12", "12", "16", "1", "23", "24"], "time": [1462, 1476, 1592, 2277, 6144, 12051, 12145, 13481, 13547, 13565, 14964, 14996, 15113, 15246, 16415, 18783, 19632, 20699, 20954]}, "edge": {"target": [], "time": []}}}, "displayed_time": "25.70", "trialTime": 30501, "trial_type": "mouselab-mdp", "trial_index": 12, "time_elapsed": 516868, "internal_node_id": "0.0-6.0-1.0-3.0"}}, {"uniqueid": "w78762861:a24796623", "current_trial": 13, "dateTime": 1693660830063, "trialdata": {"revealed_states": [], "clicked_states": [], "num_clicks_accrued": [0, 0, 0, 0, 0, 0, 0, 0, 0, 0, 0, 0, 0], "stateRewards": ["", 1, 1, 5, 6, -29, -7, 3, -16, 9, -46, 65, -1, 4, -1, -16, -63, -77, -87, 8, 80, -50, 43, -1, -1, -5, 5, -38, -71, -62, 9, 81, -50, -52], "withholdReward": false, "trial_id": "mdp_trial_5", "block": "test", "trialIndex": 6, "score": -40, "costs": 0, "simulationMode": [null, null, null, null, null], "rewards": [-1, -1, -5, 5, -38], "path": ["0", "0", "23", "24", "25", "26", "27"], "rt": [2603, 165, 141, 234, 132], "actions": ["left", "left", "left", "up", "up"], "actionTimes": [4893, 5558, 6220, 6963, 7595], "queries": {"click": {"state": {"target": [], "time": []}, "edge": {"target": [], "time": []}}, "mouseover": {"state": {"target": ["23"], "time": [3608]}, "edge": {"target": [], "time": []}}, "mouseout": {"state": {"target": ["0", "23", "0", "13", "14"], "time": [790, 18401, 18430, 18446, 18463]}, "edge": {"target": [], "time": []}}}, "displayed_time": "16.30", "trialTime": 20947, "trial_type": "mouselab-mdp", "trial_index": 13, "time_elapsed": 538176, "internal_node_id": "0.0-6.0-1.0-4.0"}}, {"uniqueid": "w78762861:a24796623", "current_trial": 14, "dateTime": 1693660855876, "trialdata": {"revealed_states": [], "clicked_states": ["12", "1", "23"], "num_clicks_accrued": [0, 0, 0, 0, 0, 0, 0, 0, 0, 0, 0, 0, 0], "stateRewards": ["", -2, -3, 1, -7, 39, -67, 16, 5, -20, 73, 66, -1, 4, 5, -3, 23, -68, -87, -8, 3, -3, 17, 1, -4, -2, -13, -32, 34, 61, -5, -11, -18, 12], "withholdReward": false, "trial_id": "mdp_trial_6", "block": "test", "trialIndex": 7, "score": -2.1999999999999993, "costs": -4.199999999999999, "simulationMode": [null, null, null, null, null], "rewards": [1, -4, -2, -5, 12], "path": ["0", "0", "23", "24", "25", "30", "33"], "rt": [10512, 288, 195, 704, 218], "actions": ["left", "left", "left", "down", "left"], "actionTimes": [13897, 14683, 15374, 16581, 17297], "queries": {"click": {"state": {"target": ["12", "1", "23"], "time": [5364, 8056, 10934]}, "edge": {"target": [], "time": []}}, "mouseover": {"state": {"target": ["12", "0", "1", "23"], "time": [4604, 7561, 7758, 10473]}, "edge": {"target": [], "time": []}}, "mouseout": {"state": {"target": ["13", "18", "16", "1", "0", "12", "12", "0", "1", "23"], "time": [1635, 1652, 1923, 2069, 2673, 5414, 6107, 7577, 10393, 11625]}, "edge": {"target": [], "time": []}}}, "displayed_time": "17.80", "trialTime": 25433, "trial_type": "mouselab-mdp", "trial_index": 14, "time_elapsed": 563989, "internal_node_id": "0.0-6.0-1.0-5.0"}}, {"uniqueid": "w78762861:a24796623", "current_trial": 15, "dateTime": 1693660878925, "trialdata": {"revealed_states": [], "clicked_states": ["23"], "num_clicks_accrued": [0, 0, 0, 0, 0, 0, 0, 0, 0, 0, 0, 0, 0], "stateRewards": ["", -2, 4, -7, -3, -76, 39, -28, 10, 14, 12, 60, 2, -3, 6, -10, 88, -34, -41, -3, 72, -13, -56, 1, 3, 2, 8, -51, 23, -57, 1, 14, -46, -16], "withholdReward": false, "trial_id": "mdp_trial_7", "block": "test", "trialIndex": 8, "score": -38.4, "costs": -1.4, "simulationMode": [null, null, null, null, null], "rewards": [1, 3, 2, 8, -51], "path": ["0", "0", "23", "24", "25", "26", "27"], "rt": [4726, 253, 281, 335, 106], "actions": ["left", "left", "left", "up", "up"], "actionTimes": [7427, 8186, 8966, 9804, 10425], "queries": {"click": {"state": {"target": ["23"], "time": [4162]}, "edge": {"target": [], "time": []}}, "mouseover": {"state": {"target": ["23"], "time": [3713]}, "edge": {"target": [], "time": []}}, "mouseout": {"state": {"target": ["20", "19", "22", "0", "23", "0", "23", "21"], "time": [983, 998, 1012, 1382, 1650, 3664, 5048, 20440]}, "edge": {"target": [], "time": []}}}, "displayed_time": "16.70", "trialTime": 22664, "trial_type": "mouselab-mdp", "trial_index": 15, "time_elapsed": 587037, "internal_node_id": "0.0-6.0-1.0-6.0"}}, {"uniqueid": "w78762861:a24796623", "current_trial": 16, "dateTime": 1693660898668, "trialdata": {"revealed_states": [], "clicked_states": [], "num_clicks_accrued": [0, 0, 0, 0, 0, 0, 0, 0, 0, 0, 0, 0, 0], "stateRewards": ["", -1, 2, -6, 6, -82, -19, -39, -16, -83, 11, -33, -2, -2, 4, -6, -82, -1, -19, -6, -10, -67, -41, -2, 1, -7, 16, -23, -78, -52, 14, 31, -71, 74], "withholdReward": false, "trial_id": "mdp_trial_8", "block": "test", "trialIndex": 9, "score": -18, "costs": 0, "simulationMode": [null, null, null, null, null], "rewards": [-1, 2, -6, 6, -19], "path": ["0", "0", "1", "2", "3", "4", "6"], "rt": [1915, 130, 83, 195, 88], "actions": ["up", "up", "up", "right", "right"], "actionTimes": [3601, 4224, 4827, 5524, 6114], "queries": {"click": {"state": {"target": [], "time": []}, "edge": {"target": [], "time": []}}, "mouseover": {"state": {"target": ["1"], "time": [2357]}, "edge": {"target": [], "time": []}}, "mouseout": {"state": {"target": ["0", "1"], "time": [1243, 16883]}, "edge": {"target": [], "time": []}}}, "displayed_time": "15.69", "trialTime": 19328, "trial_type": "mouselab-mdp", "trial_index": 16, "time_elapsed": 606781, "internal_node_id": "0.0-6.0-1.0-7.0"}}, {"uniqueid": "w78762861:a24796623", "current_trial": 17, "dateTime": 1693660919272, "trialdata": {"revealed_states": [], "clicked_states": [], "num_clicks_accrued": [0, 0, 0, 0, 0, 0, 0, 0, 0, 0, 0, 0, 0], "stateRewards": ["", 2, 4, 7, -6, -76, -81, 2, 5, -66, -3, 36, -2, -4, 6, -2, -69, 4, -49, -6, 67, 38, -67, 2, 1, 1, 6, -68, -21, 52, -16, -16, 6, -70], "withholdReward": false, "trial_id": "mdp_trial_9", "block": "test", "trialIndex": 10, "score": 32, "costs": 0, "simulationMode": [null, null, null, null, null], "rewards": [-2, -4, 6, -6, 38], "path": ["0", "0", "12", "13", "14", "19", "21"], "rt": [1814, 55, 212, 536, 137], "actions": ["right", "right", "right", "down", "down"], "actionTimes": [3903, 4478, 5187, 6226, 6879], "queries": {"click": {"state": {"target": [], "time": []}, "edge": {"target": [], "time": []}}, "mouseover": {"state": {"target": [], "time": []}, "edge": {"target": [], "time": []}}, "mouseout": {"state": {"target": ["32", "30", "23", "0", "0", "18"], "time": [707, 1038, 1086, 1440, 17794, 17825]}, "edge": {"target": [], "time": []}}}, "displayed_time": "16.09", "trialTime": 20190, "trial_type": "mouselab-mdp", "trial_index": 17, "time_elapsed": 627385, "internal_node_id": "0.0-6.0-1.0-8.0"}}, {"uniqueid": "w78762861:a24796623", "current_trial": 18, "dateTime": 1693660939089, "trialdata": {"revealed_states": [], "clicked_states": [], "num_clicks_accrued": [0, 0, 0, 0, 0, 0, 0, 0, 0, 0, 0, 0, 0], "stateRewards": ["", -2, -4, -8, 8, 63, -50, -19, -7, -17, -31, 31, 1, 3, -5, 12, -35, -63, -29, -4, -17, -75, -79, -2, -3, -2, 8, -3, -85, 10, -2, -82, -82, 56], "withholdReward": false, "trial_id": "mdp_trial_10", "block": "test", "trialIndex": 11, "score": -24, "costs": 0, "simulationMode": [null, null, null, null, null], "rewards": [1, 3, -5, 12, -35], "path": ["0", "0", "12", "13", "14", "15", "16"], "rt": [1143, 56, 126, 852, 381], "actions": ["right", "right", "right", "up", "up"], "actionTimes": [3131, 3711, 4347, 5691, 6571], "queries": {"click": {"state": {"target": [], "time": []}, "edge": {"target": [], "time": []}}, "mouseover": {"state": {"target": [], "time": []}, "edge": {"target": [], "time": []}}, "mouseout": {"state": {"target": ["14", "13", "12", "0"], "time": [788, 802, 1120, 16977]}, "edge": {"target": [], "time": []}}}, "displayed_time": "15.99", "trialTime": 19397, "trial_type": "mouselab-mdp", "trial_index": 18, "time_elapsed": 647202, "internal_node_id": "0.0-6.0-1.0-9.0"}}, {"uniqueid": "w78762861:a24796623", "current_trial": 19, "dateTime": 1693660969247, "trialdata": {"revealed_states": [], "clicked_states": [], "num_clicks_accrued": [0, 0, 0, 0, 0, 0, 0, 0, 0, 0, 0, 0, 0], "stateRewards": ["", -2, 2, 3, -7, -31, -33, 29, -8, -57, 50, -83, -1, -1, 5, 13, -23, -62, 25, 5, -66, -85, 14, 1, -2, -1, 16, 71, 33, -19, -14, 5, -43, 79], "withholdReward": false, "trial_id": "mdp_trial_11", "block": "test", "trialIndex": 12, "score": -88, "costs": 0, "simulationMode": [null, null, null, null, null], "rewards": [-2, 2, 3, -8, -83], "path": ["0", "0", "1", "2", "3", "8", "11"], "rt": [2277, 222, 326, 1909, 754], "actions": ["up", "up", "up", "left", "left"], "actionTimes": [12807, 13547, 14369, 16801, 18064], "queries": {"click": {"state": {"target": [], "time": []}, "edge": {"target": [], "time": []}}, "mouseover": {"state": {"target": [], "time": []}, "edge": {"target": [], "time": []}}, "mouseout": {"state": {"target": ["30", "24", "23", "1", "0", "12", "14"], "time": [1388, 1434, 9407, 9470, 27544, 27577, 27593]}, "edge": {"target": [], "time": []}}}, "displayed_time": "24.53", "trialTime": 29731, "trial_type": "mouselab-mdp", "trial_index": 19, "time_elapsed": 677360, "internal_node_id": "0.0-6.0-1.0-10.0"}}, {"uniqueid": "w78762861:a24796623", "current_trial": 20, "dateTime": 1693660998626, "trialdata": {"revealed_states": [], "clicked_states": ["1"], "num_clicks_accrued": [0, 0, 0, 0, 0, 0, 0, 0, 0, 0, 0, 0, 0], "stateRewards": ["", 2, -1, -3, 16, -3, -16, -62, -1, 13, -26, 43, -1, 4, 3, -9, -54, -37, -3, -12, -71, -68, -57, 1, -3, 2, -9, 2, -2, -9, -11, 84, -52, 55], "withholdReward": false, "trial_id": "mdp_trial_12", "block": "test", "trialIndex": 13, "score": -64.4, "costs": -1.4, "simulationMode": [null, null, null, null, null], "rewards": [-1, 4, 3, -12, -57], "path": ["0", "0", "12", "13", "14", "19", "22"], "rt": [14205, 246, 133, 334, 353], "actions": ["right", "right", "right", "down", "left"], "actionTimes": [16336, 17083, 17736, 18573, 19424], "queries": {"click": {"state": {"target": ["1"], "time": [3543]}, "edge": {"target": [], "time": []}}, "mouseover": {"state": {"target": ["1", "12", "0", "23", "23", "2", "3", "2", "1"], "time": [3047, 4598, 6271, 6314, 6831, 8049, 8348, 12550, 14602]}, "edge": {"target": [], "time": []}}, "mouseout": {"state": {"target": ["21", "0", "1", "12", "0", "23", "23", "2", "3", "2", "1"], "time": [814, 1566, 4515, 4666, 6284, 6331, 7987, 8287, 10468, 14237, 27546]}, "edge": {"target": [], "time": []}}}, "displayed_time": "19.94", "trialTime": 28912, "trial_type": "mouselab-mdp", "trial_index": 20, "time_elapsed": 706739, "internal_node_id": "0.0-6.0-1.0-11.0"}}, {"uniqueid": "w78762861:a24796623", "current_trial": 21, "dateTime": 1693661024944, "trialdata": {"revealed_states": [], "clicked_states": ["1", "3", "8", "6"], "num_clicks_accrued": [0, 0, 0, 0, 0, 0, 0, 0, 0, 0, 0, 0, 0], "stateRewards": ["", 1, -1, 8, -3, 38, 85, -20, -4, 8, 23, 73, 2, -4, 6, -13, 44, 7, -28, -11, -77, 45, -69, 1, -1, -7, -11, 75, -51, -87, 7, 36, -53, -26], "withholdReward": false, "trial_id": "mdp_trial_13", "block": "test", "trialIndex": 14, "score": 84.4, "costs": -5.6, "simulationMode": [null, null, null, null, null], "rewards": [1, -1, 8, -3, 85], "path": ["0", "0", "1", "2", "3", "4", "6"], "rt": [14430, 60, 102, 228, 169], "actions": ["up", "up", "up", "right", "right"], "actionTimes": [17760, 18319, 18914, 19640, 20315], "queries": {"click": {"state": {"target": ["1", "3", "8", "6"], "time": [4431, 7044, 9184, 12802]}, "edge": {"target": [], "time": []}}, "mouseover": {"state": {"target": ["1", "23", "3", "3", "8", "9", "9", "5", "6", "7", "1"], "time": [4008, 5170, 6270, 6706, 7872, 10877, 11227, 11876, 12345, 15824, 16279]}, "edge": {"target": [], "time": []}}, "mouseout": {"state": {"target": ["16", "1", "23", "3", "3", "8", "9", "9", "5", "6", "6", "7"], "time": [939, 5121, 6225, 6286, 7805, 9230, 10889, 11706, 11905, 13457, 15778, 15839]}, "edge": {"target": [], "time": []}}}, "displayed_time": "20.81", "trialTime": 25909, "trial_type": "mouselab-mdp", "trial_index": 21, "time_elapsed": 733057, "internal_node_id": "0.0-6.0-1.0-12.0"}}, {"uniqueid": "w78762861:a24796623", "current_trial": 22, "dateTime": 1693661043995, "trialdata": {"revealed_states": [], "clicked_states": ["6", "11"], "num_clicks_accrued": [0, 0, 0, 0, 0, 0, 0, 0, 0, 0, 0, 0, 0], "stateRewards": ["", 1, -2, 4, 7, -43, -83, -60, -5, -86, -80, 83, -1, -2, 6, 11, -15, 21, 13, 9, 29, -49, 11, -1, 4, -6, -11, 87, 40, 63, -8, -39, -11, 62], "withholdReward": false, "trial_id": "mdp_trial_14", "block": "test", "trialIndex": 15, "score": 78.2, "costs": -2.8, "simulationMode": [null, null, null, null, null], "rewards": [1, -2, 4, -5, 83], "path": ["0", "0", "1", "2", "3", "8", "11"], "rt": [8500, 301, 115, 320, 158], "actions": ["up", "up", "up", "left", "left"], "actionTimes": [10267, 11072, 11705, 12543, 13198], "queries": {"click": {"state": {"target": ["6", "11"], "time": [3373, 6338]}, "edge": {"target": [], "time": []}}, "mouseover": {"state": {"target": ["7", "6", "5", "11"], "time": [2423, 2572, 5584, 6001]}, "edge": {"target": [], "time": []}}, "mouseout": {"state": {"target": ["1", "0", "7", "6", "5", "11"], "time": [770, 1151, 2440, 3869, 5600, 6385]}, "edge": {"target": [], "time": []}}}, "displayed_time": "15.77", "trialTime": 18616, "trial_type": "mouselab-mdp", "trial_index": 22, "time_elapsed": 752108, "internal_node_id": "0.0-6.0-1.0-13.0"}}, {"uniqueid": "w78762861:a24796623", "current_trial": 23, "dateTime": 1693661080714, "trialdata": {"revealed_states": [], "clicked_states": ["6", "11", "27", "29", "33", "32", "31", "22", "20"], "num_clicks_accrued": [0, 0, 0, 0, 0, 0, 0, 0, 0, 0, 0, 0, 0], "stateRewards": ["", -2, 1, -3, -16, -39, -52, 30, -7, -41, -59, 11, 2, 1, 8, 2, -11, -26, -42, -13, 87, -59, -48, -1, -1, -1, 16, -79, 31, 50, -1, -84, 34, -82], "withholdReward": false, "trial_id": "mdp_trial_15", "block": "test", "trialIndex": 16, "score": 72.4, "costs": -12.600000000000001, "simulationMode": [null, null, null, null, null], "rewards": [2, 1, 8, -13, 87], "path": ["0", "0", "12", "13", "14", "19", "20"], "rt": [25789, 132, 169, 184, 234], "actions": ["right", "right", "right", "down", "right"], "actionTimes": [29027, 29677, 30365, 31065, 31797], "queries": {"click": {"state": {"target": ["6", "11", "27", "29", "33", "32", "31", "22", "20"], "time": [4441, 6719, 9514, 12461, 15032, 17287, 20156, 23315, 25553]}, "edge": {"target": [], "time": []}}, "mouseover": {"state": {"target": ["7", "6", "4", "3", "8", "11", "28", "27", "10", "29", "33", "32", "31", "20", "19", "22", "19", "20", "21", "22", "12"], "time": [3754, 3867, 5252, 5271, 5319, 5686, 8888, 9222, 10288, 12005, 13171, 15746, 18356, 22392, 22690, 22908, 24292, 24376, 26242, 27925, 28377]}, "edge": {"target": [], "time": []}}, "mouseout": {"state": {"target": ["3", "1", "0", "0", "7", "6", "4", "3", "8", "11", "11", "28", "27", "10", "29", "33", "32", "31", "20", "19", "22", "19", "20", "21", "22", "12", "13"], "time": [1835, 1851, 1865, 3631, 3771, 5218, 5268, 5302, 5352, 6791, 7469, 8918, 9577, 11604, 13072, 15656, 18139, 22290, 22662, 22773, 23397, 24326, 26192, 27874, 27941, 34550, 34577]}, "edge": {"target": [], "time": []}}}, "displayed_time": "32.30", "trialTime": 36313, "trial_type": "mouselab-mdp", "trial_index": 23, "time_elapsed": 788828, "internal_node_id": "0.0-6.0-1.0-14.0"}}, {"uniqueid": "w78762861:a24796623", "current_trial": 24, "dateTime": 1693661101210, "trialdata": {"revealed_states": [], "clicked_states": ["9", "5"], "num_clicks_accrued": [0, 0, 0, 0, 0, 0, 0, 0, 0, 0, 0, 0, 0], "stateRewards": ["", 1, 4, 5, -5, 58, -80, 75, 6, 25, -39, 46, 2, -2, 4, 2, 59, 31, -22, -12, -61, 15, 72, 1, -2, -7, 8, 77, 76, -23, -7, 71, -15, -3], "withholdReward": false, "trial_id": "mdp_trial_16", "block": "test", "trialIndex": 17, "score": 60.2, "costs": -2.8, "simulationMode": [null, null, null, null, null], "rewards": [1, 4, 5, -5, 58], "path": ["0", "0", "1", "2", "3", "4", "5"], "rt": [7715, 119, 142, 207, 166], "actions": ["up", "up", "up", "right", "up"], "actionTimes": [10060, 10695, 11334, 12033, 12692], "queries": {"click": {"state": {"target": ["9", "5"], "time": [3975, 6462]}, "edge": {"target": [], "time": []}}, "mouseover": {"state": {"target": ["1", "9", "5", "6", "7", "1"], "time": [2871, 3275, 6171, 8860, 9072, 9121]}, "edge": {"target": [], "time": []}}, "mouseout": {"state": {"target": ["15", "18", "0", "1", "9", "5", "6", "7", "1"], "time": [1106, 1120, 1471, 2902, 4026, 6528, 8875, 9089, 9155]}, "edge": {"target": [], "time": []}}}, "displayed_time": "16.35", "trialTime": 20047, "trial_type": "mouselab-mdp", "trial_index": 24, "time_elapsed": 809322, "internal_node_id": "0.0-6.0-1.0-15.0"}}, {"uniqueid": "w78762861:a24796623", "current_trial": 25, "dateTime": 1693661122616, "trialdata": {"revealed_states": [], "clicked_states": ["5", "6", "16", "17"], "num_clicks_accrued": [0, 0, 0, 0, 0, 0, 0, 0, 0, 0, 0, 0, 0], "stateRewards": ["", -1, -3, 1, -4, -48, -63, -49, -2, -84, -19, 65, 2, -2, -2, -12, -4, 59, 9, 6, 75, 69, -13, -1, -3, -3, -2, -37, -68, -36, 13, 32, 18, -14], "withholdReward": false, "trial_id": "mdp_trial_17", "block": "test", "trialIndex": 18, "score": 39.4, "costs": -5.6, "simulationMode": [null, null, null, null, null], "rewards": [2, -2, -2, -12, 59], "path": ["0", "0", "12", "13", "14", "15", "17"], "rt": [11332, 182, 170, 1801, 186], "actions": ["right", "right", "right", "up", "right"], "actionTimes": [12767, 13451, 14140, 16436, 17139], "queries": {"click": {"state": {"target": ["5", "6", "16", "17"], "time": [2459, 5197, 7587, 9733]}, "edge": {"target": [], "time": []}}, "mouseover": {"state": {"target": ["1", "4", "5", "6", "16", "17"], "time": [1866, 1927, 1960, 4914, 6079, 9298]}, "edge": {"target": [], "time": []}}, "mouseout": {"state": {"target": ["1", "4", "5", "6", "6", "16", "16", "17"], "time": [1879, 1943, 2506, 5263, 5647, 7641, 8080, 10313]}, "edge": {"target": [], "time": []}}}, "displayed_time": "17.64", "trialTime": 20957, "trial_type": "mouselab-mdp", "trial_index": 25, "time_elapsed": 830730, "internal_node_id": "0.0-6.0-1.0-16.0"}}, {"uniqueid": "w78762861:a24796623", "current_trial": 26, "dateTime": 1693661140166, "trialdata": {"revealed_states": [], "clicked_states": ["29"], "num_clicks_accrued": [0, 0, 0, 0, 0, 0, 0, 0, 0, 0, 0, 0, 0], "stateRewards": ["", 2, -4, 7, 3, 23, -42, 4, 7, -81, -33, 7, -2, -4, 5, -1, 50, -57, -14, -13, -14, 44, 55, -2, -2, 5, -2, 33, 1, 57, -13, -7, 58, 87], "withholdReward": false, "trial_id": "mdp_trial_18", "block": "test", "trialIndex": 19, "score": 54.6, "costs": -1.4, "simulationMode": [null, null, null, null, null], "rewards": [-2, -2, 5, -2, 57], "path": ["0", "0", "23", "24", "25", "26", "29"], "rt": [4466, 114, 160, 1500, 123], "actions": ["left", "left", "left", "up", "left"], "actionTimes": [6703, 7339, 8002, 10025, 10650], "queries": {"click": {"state": {"target": ["29"], "time": [3839]}, "edge": {"target": [], "time": []}}, "mouseover": {"state": {"target": ["28", "26", "29"], "time": [3078, 3093, 3476]}, "edge": {"target": [], "time": []}}, "mouseout": {"state": {"target": ["21", "22", "28", "26", "29"], "time": [1203, 1236, 3090, 3105, 4739]}, "edge": {"target": [], "time": []}}}, "displayed_time": "16.24", "trialTime": 17141, "trial_type": "mouselab-mdp", "trial_index": 26, "time_elapsed": 848279, "internal_node_id": "0.0-6.0-1.0-17.0"}}, {"uniqueid": "w78762861:a24796623", "current_trial": 27, "dateTime": 1693661160999, "trialdata": {"revealed_states": [], "clicked_states": ["33", "20", "21"], "num_clicks_accrued": [0, 0, 0, 0, 0, 0, 0, 0, 0, 0, 0, 0, 0], "stateRewards": ["", 2, -1, -1, 7, 11, -40, -22, -2, 69, 37, 8, -2, 4, -8, -12, -2, -72, -3, -12, 17, 63, 12, 1, 3, -7, 6, 25, 61, 61, -9, 28, -17, 27], "withholdReward": false, "trial_id": "mdp_trial_19", "block": "test", "trialIndex": 20, "score": 40.8, "costs": -4.199999999999999, "simulationMode": [null, null, null, null, null], "rewards": [-2, 4, -8, -12, 63], "path": ["0", "0", "12", "13", "14", "19", "21"], "rt": [10955, 139, 265, 208, 222], "actions": ["right", "right", "right", "down", "down"], "actionTimes": [13309, 13953, 14714, 15422, 16137], "queries": {"click": {"state": {"target": ["33", "20", "21"], "time": [3686, 7022, 10488]}, "edge": {"target": [], "time": []}}, "mouseover": {"state": {"target": ["23", "30", "33", "30", "19", "20", "19", "21"], "time": [2946, 2991, 3345, 4143, 6327, 6631, 9876, 9976]}, "edge": {"target": [], "time": []}}, "mouseout": {"state": {"target": ["29", "26", "0", "0", "23", "30", "33", "30", "19", "20", "20", "19", "21"], "time": [1344, 1360, 1423, 1761, 2974, 3008, 3748, 4159, 6345, 7085, 9849, 9893, 10964]}, "edge": {"target": [], "time": []}}}, "displayed_time": "16.63", "trialTime": 20372, "trial_type": "mouselab-mdp", "trial_index": 27, "time_elapsed": 869112, "internal_node_id": "0.0-6.0-1.0-18.0"}}, {"uniqueid": "w78762861:a24796623", "current_trial": 28, "dateTime": 1693661179702, "trialdata": {"revealed_states": [], "clicked_states": ["5", "16"], "num_clicks_accrued": [0, 0, 0, 0, 0, 0, 0, 0, 0, 0, 0, 0, 0], "stateRewards": ["", -1, 3, 8, 10, -86, 61, -36, 10, 17, -60, 24, -1, -3, 3, 11, 50, 60, 33, -3, -20, 58, -6, 1, -4, -4, 13, -70, -71, 43, 14, 52, 82, -11], "withholdReward": false, "trial_id": "mdp_trial_20", "block": "test", "trialIndex": 21, "score": 57.2, "costs": -2.8, "simulationMode": [null, null, null, null, null], "rewards": [-1, -3, 3, 11, 50], "path": ["0", "0", "12", "13", "14", "15", "16"], "rt": [7617, 95, 162, 418, 156], "actions": ["right", "right", "right", "up", "up"], "actionTimes": [10279, 10892, 11560, 12482, 13139], "queries": {"click": {"state": {"target": ["5", "16"], "time": [3966, 7570]}, "edge": {"target": [], "time": []}}, "mouseover": {"state": {"target": ["1", "5", "5", "16"], "time": [3246, 3307, 3664, 6693]}, "edge": {"target": [], "time": []}}, "mouseout": {"state": {"target": ["16", "1", "0", "0", "1", "5", "5", "16"], "time": [1175, 1527, 1684, 1945, 3264, 3341, 4280, 8077]}, "edge": {"target": [], "time": []}}}, "displayed_time": "16.66", "trialTime": 18235, "trial_type": "mouselab-mdp", "trial_index": 28, "time_elapsed": 887815, "internal_node_id": "0.0-6.0-1.0-19.0"}}, {"uniqueid": "w78762861:a24796623", "current_trial": 29, "dateTime": 1693661199294, "trialdata": {"revealed_states": [], "clicked_states": ["5", "6"], "num_clicks_accrued": [0, 0, 0, 0, 0, 0, 0, 0, 0, 0, 0, 0, 0], "stateRewards": ["", -2, -3, 8, 14, -73, 73, 84, -12, -2, -50, -17, 2, 1, -2, -9, -44, -27, -33, 16, -63, -47, -66, -2, 1, 4, -5, -33, -11, 50, 9, 38, -79, 31], "withholdReward": false, "trial_id": "mdp_trial_21", "block": "test", "trialIndex": 22, "score": 87.2, "costs": -2.8, "simulationMode": [null, null, null, null, null], "rewards": [-2, -3, 8, 14, 73], "path": ["0", "0", "1", "2", "3", "4", "6"], "rt": [7606, 96, 125, 247, 130], "actions": ["up", "up", "up", "right", "right"], "actionTimes": [11244, 11853, 12499, 13237, 13886], "queries": {"click": {"state": {"target": ["5", "6"], "time": [4735, 8244]}, "edge": {"target": [], "time": []}}, "mouseover": {"state": {"target": ["1", "2", "5", "5", "6", "6"], "time": [4140, 4163, 4217, 4524, 7607, 7886]}, "edge": {"target": [], "time": []}}, "mouseout": {"state": {"target": ["15", "18", "1", "2", "5", "5", "6", "6"], "time": [2666, 2701, 4159, 4171, 4303, 4774, 7636, 8586]}, "edge": {"target": [], "time": []}}}, "displayed_time": "17.64", "trialTime": 19163, "trial_type": "mouselab-mdp", "trial_index": 29, "time_elapsed": 907407, "internal_node_id": "0.0-6.0-1.0-20.0"}}, {"uniqueid": "w78762861:a24796623", "current_trial": 30, "dateTime": 1693661224934, "trialdata": {"revealed_states": [], "clicked_states": ["6", "5", "16", "17"], "num_clicks_accrued": [0, 0, 0, 0, 0, 0, 0, 0, 0, 0, 0, 0, 0], "stateRewards": ["", 2, 3, 6, -12, -29, 12, 87, 4, 35, -30, 67, 2, 3, -5, -9, 44, 69, -8, 1, 45, -8, 28, -2, -1, -8, 11, -12, -5, 81, 9, 87, 82, 88], "withholdReward": false, "trial_id": "mdp_trial_22", "block": "test", "trialIndex": 23, "score": 54.4, "costs": -5.6, "simulationMode": [null, null, null, null, null], "rewards": [2, 3, -5, -9, 69], "path": ["0", "0", "12", "13", "14", "15", "17"], "rt": [13199, 143, 185, 3999, 254], "actions": ["right", "right", "right", "up", "right"], "actionTimes": [14856, 15506, 16182, 20680, 21452], "queries": {"click": {"state": {"target": ["6", "5", "16", "17"], "time": [2814, 6015, 9216, 12002]}, "edge": {"target": [], "time": []}}, "mouseover": {"state": {"target": ["6", "5", "16", "17", "17"], "time": [2295, 5629, 8627, 11444, 11742]}, "edge": {"target": [], "time": []}}, "mouseout": {"state": {"target": ["16", "12", "6", "5", "16", "17", "17"], "time": [739, 1009, 3071, 6275, 9273, 11508, 12443]}, "edge": {"target": [], "time": []}}}, "displayed_time": "21.95", "trialTime": 25219, "trial_type": "mouselab-mdp", "trial_index": 30, "time_elapsed": 933047, "internal_node_id": "0.0-6.0-1.0-21.0"}}, {"uniqueid": "w78762861:a24796623", "current_trial": 31, "dateTime": 1693661244541, "trialdata": {"revealed_states": [], "clicked_states": ["5", "16", "6"], "num_clicks_accrued": [0, 0, 0, 0, 0, 0, 0, 0, 0, 0, 0, 0, 0], "stateRewards": ["", -2, 3, -1, 2, -72, 63, 20, -1, 62, -66, 39, -2, 3, -6, 14, 22, 47, 1, 8, -49, -1, -41, 2, 2, -6, -16, -64, -60, -34, 16, 54, 22, -7], "withholdReward": false, "trial_id": "mdp_trial_23", "block": "test", "trialIndex": 24, "score": 60.8, "costs": -4.199999999999999, "simulationMode": [null, null, null, null, null], "rewards": [-2, 3, -1, 2, 63], "path": ["0", "0", "1", "2", "3", "4", "6"], "rt": [9322, 105, 140, 212, 137], "actions": ["up", "up", "up", "right", "right"], "actionTimes": [11731, 12330, 12965, 13686, 14344], "queries": {"click": {"state": {"target": ["5", "16", "6"], "time": [3387, 5971, 8114]}, "edge": {"target": [], "time": []}}, "mouseover": {"state": {"target": ["1", "4", "5", "16", "16", "6", "2", "22"], "time": [2785, 2851, 2917, 5453, 5704, 6637, 10471, 10972]}, "edge": {"target": [], "time": []}}, "mouseout": {"state": {"target": ["17", "12", "0", "0", "1", "4", "5", "16", "16", "6", "2", "22"], "time": [871, 1250, 1384, 2745, 2801, 2884, 3461, 5518, 6554, 8198, 10906, 18623]}, "edge": {"target": [], "time": []}}}, "displayed_time": "16.41", "trialTime": 19196, "trial_type": "mouselab-mdp", "trial_index": 31, "time_elapsed": 952654, "internal_node_id": "0.0-6.0-1.0-22.0"}}, {"uniqueid": "w78762861:a24796623", "current_trial": 32, "dateTime": 1693661274959, "trialdata": {"revealed_states": [], "clicked_states": ["5", "6", "16", "17", "20", "21", "22"], "num_clicks_accrued": [0, 0, 0, 0, 0, 0, 0, 0, 0, 0, 0, 0, 0], "stateRewards": ["", -2, 2, -2, -7, -50, -62, -45, 7, 36, -24, -72, -1, -1, 8, -1, -67, 20, -52, 2, 35, -50, 80, -1, 1, 6, -6, -70, 6, 88, 8, -47, 74, -19], "withholdReward": false, "trial_id": "mdp_trial_24", "block": "test", "trialIndex": 25, "score": 78.2, "costs": -9.8, "simulationMode": [null, null, null, null, null], "rewards": [-1, -1, 8, 2, 80], "path": ["0", "0", "12", "13", "14", "19", "22"], "rt": [22100, 134, 198, 387, 143], "actions": ["right", "right", "right", "down", "left"], "actionTimes": [24566, 25201, 25924, 26804, 27460], "queries": {"click": {"state": {"target": ["5", "6", "16", "17", "20", "21", "22"], "time": [3745, 6508, 9686, 12755, 15877, 19302, 21496]}, "edge": {"target": [], "time": []}}, "mouseover": {"state": {"target": ["1", "4", "5", "6", "16", "17", "20", "21", "21", "22", "22", "30", "33"], "time": [3026, 3106, 3307, 6012, 9381, 12495, 15533, 18716, 19007, 19845, 20213, 22105, 22163]}, "edge": {"target": [], "time": []}}, "mouseout": {"state": {"target": ["23", "0", "1", "4", "5", "6", "16", "17", "20", "21", "21", "22", "22", "30"], "time": [1558, 1925, 3040, 3172, 3771, 6908, 9926, 12821, 16296, 18761, 19779, 19913, 21998, 22117]}, "edge": {"target": [], "time": []}}}, "displayed_time": "27.97", "trialTime": 29964, "trial_type": "mouselab-mdp", "trial_index": 32, "time_elapsed": 983073, "internal_node_id": "0.0-6.0-1.0-23.0"}}, {"uniqueid": "w78762861:a24796623", "current_trial": 33, "dateTime": 1693661293265, "trialdata": {"revealed_states": [], "clicked_states": ["27"], "num_clicks_accrued": [0, 0, 0, 0, 0, 0, 0, 0, 0, 0, 0, 0, 0], "stateRewards": ["", -1, 2, -2, 13, -56, -28, 10, 14, 53, -80, -29, 1, -3, -3, -14, 14, 9, -40, -9, 18, 18, 48, 1, 1, 1, -9, 64, -39, -9, 7, -52, -78, 7], "withholdReward": false, "trial_id": "mdp_trial_25", "block": "test", "trialIndex": 26, "score": 56.6, "costs": -1.4, "simulationMode": [null, null, null, null, null], "rewards": [1, 1, 1, -9, 64], "path": ["0", "0", "23", "24", "25", "26", "27"], "rt": [4589, 154, 164, 1602, 199], "actions": ["left", "left", "left", "up", "up"], "actionTimes": [6448, 7101, 7762, 9866, 10565], "queries": {"click": {"state": {"target": ["27"], "time": [3422]}, "edge": {"target": [], "time": []}}, "mouseover": {"state": {"target": ["28", "27", "29"], "time": [2759, 2808, 4194]}, "edge": {"target": [], "time": []}}, "mouseout": {"state": {"target": ["33", "30", "23", "0", "28", "27"], "time": [869, 908, 995, 2679, 2775, 4010]}, "edge": {"target": [], "time": []}}}, "displayed_time": "15.86", "trialTime": 17861, "trial_type": "mouselab-mdp", "trial_index": 33, "time_elapsed": 1001378, "internal_node_id": "0.0-6.0-1.0-24.0"}}, {"uniqueid": "w78762861:a24796623", "current_trial": 34, "dateTime": 1693661319388, "trialdata": {"revealed_states": [], "clicked_states": ["5", "6", "16", "17", "20", "21"], "num_clicks_accrued": [0, 0, 0, 0, 0, 0, 0, 0, 0, 0, 0, 0, 0], "stateRewards": ["", -1, 2, -7, -12, -62, 12, -13, 5, 77, -71, 83, 1, -4, 7, 15, -42, -87, -4, 5, -25, 44, 88, -1, 4, -5, -8, 14, 51, 8, -5, 83, -24, -19], "withholdReward": false, "trial_id": "mdp_trial_26", "block": "test", "trialIndex": 27, "score": 44.6, "costs": -8.4, "simulationMode": [null, null, null, null, null], "rewards": [1, -4, 7, 5, 44], "path": ["0", "0", "12", "13", "14", "19", "21"], "rt": [18285, 364, 221, 245, 211], "actions": ["right", "right", "right", "down", "down"], "actionTimes": [20605, 21484, 22207, 22948, 23664], "queries": {"click": {"state": {"target": ["5", "6", "16", "17", "20", "21"], "time": [3511, 6514, 9580, 12334, 15138, 17910]}, "edge": {"target": [], "time": []}}, "mouseover": {"state": {"target": ["5", "6", "16", "17", "20", "21", "22"], "time": [2915, 5962, 9262, 11969, 14881, 17332, 18584]}, "edge": {"target": [], "time": []}}, "mouseout": {"state": {"target": ["29", "23", "0", "5", "6", "16", "17", "20", "21"], "time": [1245, 1308, 2775, 3576, 6929, 9963, 12831, 15771, 18501]}, "edge": {"target": [], "time": []}}}, "displayed_time": "24.18", "trialTime": 25645, "trial_type": "mouselab-mdp", "trial_index": 34, "time_elapsed": 1027501, "internal_node_id": "0.0-6.0-1.0-25.0"}}, {"uniqueid": "w78762861:a24796623", "current_trial": 35, "dateTime": 1693661336515, "trialdata": {"revealed_states": [], "clicked_states": ["11"], "num_clicks_accrued": [0, 0, 0, 0, 0, 0, 0, 0, 0, 0, 0, 0, 0], "stateRewards": ["", -1, -3, -6, -2, -7, 80, -45, -3, -38, -72, 76, 2, 1, 7, 4, -62, 14, -74, 14, -87, -21, -88, -2, 1, -7, -10, 66, 56, -76, 10, -29, -72, -70], "withholdReward": false, "trial_id": "mdp_trial_27", "block": "test", "trialIndex": 28, "score": 61.6, "costs": -1.4, "simulationMode": [null, null, null, null, null], "rewards": [-1, -3, -6, -3, 76], "path": ["0", "0", "1", "2", "3", "8", "11"], "rt": [6262, 152, 56, 719, 3], "actions": ["up", "up", "up", "left", "left"], "actionTimes": [8185, 8840, 9411, 10646, 11158], "queries": {"click": {"state": {"target": ["11"], "time": [4090]}, "edge": {"target": [], "time": []}}, "mouseover": {"state": {"target": ["3", "11", "8", "5", "6", "4"], "time": [3118, 3701, 4983, 5034, 5784, 6950]}, "edge": {"target": [], "time": []}}, "mouseout": {"state": {"target": ["22", "0", "0", "3", "11", "8", "5", "6", "4"], "time": [802, 1033, 2471, 3335, 4950, 5000, 5050, 6923, 6967]}, "edge": {"target": [], "time": []}}}, "displayed_time": "15.93", "trialTime": 16669, "trial_type": "mouselab-mdp", "trial_index": 35, "time_elapsed": 1044628, "internal_node_id": "0.0-6.0-1.0-26.0"}}, {"uniqueid": "w78762861:a24796623", "current_trial": 36, "dateTime": 1693661353803, "trialdata": {"revealed_states": [], "clicked_states": ["6", "5"], "num_clicks_accrued": [0, 0, 0, 0, 0, 0, 0, 0, 0, 0, 0, 0, 0], "stateRewards": ["", 2, -4, 4, 9, 69, 9, -75, 12, -86, 66, 25, -1, 3, 2, -13, -88, -3, 1, 4, -69, 49, -84, 2, -1, 4, 2, -18, -81, -52, -15, -69, -54, 25], "withholdReward": false, "trial_id": "mdp_trial_28", "block": "test", "trialIndex": 29, "score": 77.2, "costs": -2.8, "simulationMode": [null, null, null, null, null], "rewards": [2, -4, 4, 9, 69], "path": ["0", "0", "1", "2", "3", "4", "5"], "rt": [6593, 442, 216, 212, 777], "actions": ["up", "up", "up", "right", "up"], "actionTimes": [8324, 9262, 9969, 10682, 11978], "queries": {"click": {"state": {"target": ["6", "5"], "time": [3112, 5296]}, "edge": {"target": [], "time": []}}, "mouseover": {"state": {"target": ["1", "2", "4", "6", "5", "9"], "time": [2252, 2313, 2616, 2680, 3966, 5666]}, "edge": {"target": [], "time": []}}, "mouseout": {"state": {"target": ["2", "1", "0", "0", "1", "2", "4", "6", "5", "5"], "time": [415, 498, 582, 918, 2281, 2498, 2648, 3874, 5356, 5566]}, "edge": {"target": [], "time": []}}}, "displayed_time": "15.73", "trialTime": 16816, "trial_type": "mouselab-mdp", "trial_index": 36, "time_elapsed": 1061916, "internal_node_id": "0.0-6.0-1.0-27.0"}}, {"uniqueid": "w78762861:a24796623", "current_trial": 37, "dateTime": 1693661373738, "trialdata": {"revealed_states": [], "clicked_states": ["5", "6", "16", "17"], "num_clicks_accrued": [0, 0, 0, 0, 0, 0, 0, 0, 0, 0, 0, 0, 0], "stateRewards": ["", -1, 4, -6, -5, -22, -38, -38, -2, -56, 88, 14, -1, -1, -7, -6, 61, -60, 21, 11, 57, 31, -30, -2, -2, 6, -9, -44, -70, -44, -15, 34, 16, -78], "withholdReward": false, "trial_id": "mdp_trial_29", "block": "test", "trialIndex": 30, "score": 40.4, "costs": -5.6, "simulationMode": [null, null, null, null, null], "rewards": [-1, -1, -7, -6, 61], "path": ["0", "0", "12", "13", "14", "15", "16"], "rt": [9991, 710, 241, 524, 193], "actions": ["right", "right", "right", "up", "up"], "actionTimes": [12850, 14053, 14815, 15834, 16520], "queries": {"click": {"state": {"target": ["5", "6", "16", "17"], "time": [4067, 6129, 8098, 10234]}, "edge": {"target": [], "time": []}}, "mouseover": {"state": {"target": ["1", "4", "5", "5", "6", "16", "16", "17", "15"], "time": [3288, 3318, 3401, 3824, 4620, 6573, 7028, 8590, 11040]}, "edge": {"target": [], "time": []}}, "mouseout": {"state": {"target": ["9", "8", "28", "24", "23", "0", "1", "4", "5", "5", "5", "6", "16", "16", "17", "15"], "time": [1154, 1454, 1534, 1634, 2001, 3243, 3305, 3369, 3536, 4126, 4425, 6504, 6608, 8521, 11022, 11055]}, "edge": {"target": [], "time": []}}}, "displayed_time": "17.04", "trialTime": 19449, "trial_type": "mouselab-mdp", "trial_index": 37, "time_elapsed": 1081850, "internal_node_id": "0.0-6.0-1.0-28.0"}}, {"uniqueid": "w78762861:a24796623", "current_trial": 38, "dateTime": 1693661392082, "trialdata": {"revealed_states": [], "clicked_states": ["5", "6", "16"], "num_clicks_accrued": [0, 0, 0, 0, 0, 0, 0, 0, 0, 0, 0, 0, 0], "stateRewards": ["", 2, -2, -3, 10, -4, -1, -11, -8, -9, -36, -78, 2, 1, 7, -7, 44, -1, -31, -1, 26, 47, 83, 2, -4, -4, -6, -52, -76, -81, -1, -59, 45, 67], "withholdReward": false, "trial_id": "mdp_trial_30", "block": "test", "trialIndex": 31, "score": 42.8, "costs": -4.199999999999999, "simulationMode": [null, null, null, null, null], "rewards": [2, 1, 7, -7, 44], "path": ["0", "0", "12", "13", "14", "15", "16"], "rt": [8929, 568, 200, 484, 153], "actions": ["right", "right", "right", "up", "up"], "actionTimes": [10936, 11998, 12713, 13697, 14350], "queries": {"click": {"state": {"target": ["5", "6", "16"], "time": [3275, 5367, 8233]}, "edge": {"target": [], "time": []}}, "mouseover": {"state": {"target": ["1", "4", "5", "5", "6", "16", "17"], "time": [2261, 2323, 2373, 2726, 3924, 6058, 8943]}, "edge": {"target": [], "time": []}}, "mouseout": {"state": {"target": ["1", "4", "5", "5", "6", "16"], "time": [2276, 2355, 2389, 3785, 5975, 8909]}, "edge": {"target": [], "time": []}}}, "displayed_time": "16.01", "trialTime": 17875, "trial_type": "mouselab-mdp", "trial_index": 38, "time_elapsed": 1100195, "internal_node_id": "0.0-6.0-1.0-29.0"}}, {"uniqueid": "w78762861:a24796623", "current_trial": 39, "dateTime": 1693661415699, "trialdata": {"revealed_states": [], "clicked_states": ["5", "9", "11", "27", "29"], "num_clicks_accrued": [0, 0, 0, 0, 0, 0, 0, 0, 0, 0, 0, 0, 0], "stateRewards": ["", -1, -2, -8, 8, -27, -82, 19, -14, -62, 4, 1, -2, 2, 6, 10, 73, -51, -2, 2, 73, -48, 54, -1, 2, -4, 11, -25, 47, 86, 15, 33, 43, -42], "withholdReward": false, "trial_id": "mdp_trial_31", "block": "test", "trialIndex": 32, "score": 87, "costs": -7, "simulationMode": [null, null, null, null, null], "rewards": [-1, 2, -4, 11, 86], "path": ["0", "0", "23", "24", "25", "26", "29"], "rt": [13835, 387, 239, 1064, 169], "actions": ["left", "left", "left", "up", "left"], "actionTimes": [15953, 16842, 17580, 19155, 19825], "queries": {"click": {"state": {"target": ["5", "9", "11", "27", "29"], "time": [3182, 6078, 8517, 10629, 12692]}, "edge": {"target": [], "time": []}}, "mouseover": {"state": {"target": ["4", "5", "9", "27", "11", "27", "29", "33", "33"], "time": [2587, 2681, 5819, 6968, 7951, 9152, 11318, 13453, 14153]}, "edge": {"target": [], "time": []}}, "mouseout": {"state": {"target": ["17", "18", "4", "5", "5", "9", "27", "11", "27", "29", "29", "33"], "time": [998, 1047, 2631, 3227, 5419, 6141, 7873, 8853, 11153, 12776, 13387, 13487]}, "edge": {"target": [], "time": []}}}, "displayed_time": "20.32", "trialTime": 23178, "trial_type": "mouselab-mdp", "trial_index": 39, "time_elapsed": 1123811, "internal_node_id": "0.0-6.0-1.0-30.0"}}, {"uniqueid": "w78762861:a24796623", "current_trial": 40, "dateTime": 1693661434669, "trialdata": {"revealed_states": [], "clicked_states": ["28", "33", "31"], "num_clicks_accrued": [0, 0, 0, 0, 0, 0, 0, 0, 0, 0, 0, 0, 0], "stateRewards": ["", 1, -1, 1, 13, 31, -56, 72, 2, 41, 5, 63, -2, -3, -2, 3, -71, -26, 52, 13, -31, 24, -67, 2, -2, 5, 4, 66, 43, 72, 9, 86, -26, 44], "withholdReward": false, "trial_id": "mdp_trial_32", "block": "test", "trialIndex": 33, "score": 95.8, "costs": -4.199999999999999, "simulationMode": [null, null, null, null, null], "rewards": [2, -2, 5, 9, 86], "path": ["0", "0", "23", "24", "25", "30", "31"], "rt": [8910, 28, 146, 212, 265], "actions": ["left", "left", "left", "down", "right"], "actionTimes": [11314, 11861, 12508, 13214, 13983], "queries": {"click": {"state": {"target": ["28", "33", "31"], "time": [3792, 5927, 8268]}, "edge": {"target": [], "time": []}}, "mouseover": {"state": {"target": ["28", "26", "28", "25", "33", "30", "31", "32"], "time": [2933, 3012, 3314, 4314, 4530, 6414, 6548, 8766]}, "edge": {"target": [], "time": []}}, "mouseout": {"state": {"target": ["33", "0", "28", "26", "28", "25", "33", "30", "31"], "time": [1177, 1863, 2949, 3235, 4247, 4380, 6380, 6464, 8698]}, "edge": {"target": [], "time": []}}}, "displayed_time": "16.41", "trialTime": 18520, "trial_type": "mouselab-mdp", "trial_index": 40, "time_elapsed": 1142782, "internal_node_id": "0.0-6.0-1.0-31.0"}}, {"uniqueid": "w78762861:a24796623", "current_trial": 41, "dateTime": 1693661453146, "trialdata": {"revealed_states": [], "clicked_states": ["32"], "num_clicks_accrued": [0, 0, 0, 0, 0, 0, 0, 0, 0, 0, 0, 0, 0], "stateRewards": ["", 2, 3, 8, 14, 69, -27, 17, 2, -71, -65, -10, 2, -3, 7, 8, 65, -10, 65, -12, 73, -12, 13, -2, -2, 6, 10, -79, -69, -18, 10, -85, 67, 74], "withholdReward": false, "trial_id": "mdp_trial_33", "block": "test", "trialIndex": 34, "score": 77.6, "costs": -1.4, "simulationMode": [null, null, null, null, null], "rewards": [-2, -2, 6, 10, 67], "path": ["0", "0", "23", "24", "25", "30", "32"], "rt": [4002, 474, 203, 292, 130], "actions": ["left", "left", "left", "down", "down"], "actionTimes": [6201, 7180, 7876, 8671, 9302], "queries": {"click": {"state": {"target": ["32"], "time": [3348]}, "edge": {"target": [], "time": []}}, "mouseover": {"state": {"target": ["0", "31", "32", "21"], "time": [2608, 2702, 2819, 4270]}, "edge": {"target": [], "time": []}}, "mouseout": {"state": {"target": ["32", "31", "0", "0", "31", "32"], "time": [586, 650, 1003, 2635, 2719, 3837]}, "edge": {"target": [], "time": []}}}, "displayed_time": "16.20", "trialTime": 18014, "trial_type": "mouselab-mdp", "trial_index": 41, "time_elapsed": 1161259, "internal_node_id": "0.0-6.0-1.0-32.0"}}, {"uniqueid": "w78762861:a24796623", "current_trial": 42, "dateTime": 1693661488308, "trialdata": {"revealed_states": [], "clicked_states": ["32", "21", "20", "22", "17", "18", "16", "6", "7", "5"], "num_clicks_accrued": [0, 0, 0, 0, 0, 0, 0, 0, 0, 0, 0, 0, 0], "stateRewards": ["", 1, 3, -2, 15, 51, 15, -19, 11, 67, -45, -73, 2, 4, -2, -13, 36, 9, -28, 10, -30, 31, 16, 1, 2, -1, -16, 14, -22, 36, -1, 88, -5, 45], "withholdReward": false, "trial_id": "mdp_trial_34", "block": "test", "trialIndex": 35, "score": 54, "costs": -14.000000000000002, "simulationMode": [null, null, null, null, null], "rewards": [1, 3, -2, 15, 51], "path": ["0", "0", "1", "2", "3", "4", "5"], "rt": [24763, 393, 179, 171, 1569], "actions": ["up", "up", "up", "right", "up"], "actionTimes": [27533, 28422, 29123, 29800, 31864], "queries": {"click": {"state": {"target": ["32", "21", "20", "22", "17", "18", "16", "6", "7", "5"], "time": [3657, 6522, 8879, 10972, 13213, 15811, 17903, 20226, 22527, 24668]}, "edge": {"target": [], "time": []}}, "mouseover": {"state": {"target": ["23", "31", "32", "21", "21", "20", "19", "22", "14", "17", "15", "18", "16", "6", "7", "4", "5", "5", "9", "9"], "time": [2938, 2982, 3120, 5837, 6218, 7252, 9490, 9536, 11386, 11619, 15154, 15537, 16221, 18990, 20824, 22975, 23024, 23458, 25192, 25588]}, "edge": {"target": [], "time": []}}, "mouseout": {"state": {"target": ["21", "23", "0", "23", "31", "32", "21", "21", "20", "19", "22", "14", "17", "15", "18", "16", "6", "7", "4", "5", "5", "9"], "time": [401, 1618, 2903, 2952, 3032, 3694, 5867, 7085, 9486, 9519, 11320, 11486, 15124, 15389, 16105, 18623, 20722, 22927, 23008, 23126, 24741, 25208]}, "edge": {"target": [], "time": []}}}, "displayed_time": "32.38", "trialTime": 34670, "trial_type": "mouselab-mdp", "trial_index": 42, "time_elapsed": 1196421, "internal_node_id": "0.0-6.0-1.0-33.0"}}, {"uniqueid": "w78762861:a24796623", "current_trial": 43, "dateTime": 1693661507593, "trialdata": {"revealed_states": [], "clicked_states": ["5"], "num_clicks_accrued": [0, 0, 0, 0, 0, 0, 0, 0, 0, 0, 0, 0, 0], "stateRewards": ["", -1, 2, -2, 5, 80, -61, -27, 12, 44, -26, -75, -2, -4, 1, -16, 42, -49, -50, 4, -44, 2, 80, -2, -2, 5, -2, 59, 10, 24, 7, -48, -86, -44], "withholdReward": false, "trial_id": "mdp_trial_35", "block": "test", "trialIndex": 36, "score": 82.6, "costs": -1.4, "simulationMode": [null, null, null, null, null], "rewards": [-1, 2, -2, 5, 80], "path": ["0", "0", "1", "2", "3", "4", "5"], "rt": [3731, 398, 256, 228, 959], "actions": ["up", "up", "up", "right", "up"], "actionTimes": [6272, 7164, 7923, 8662, 10126], "queries": {"click": {"state": {"target": ["5"], "time": [3527]}, "edge": {"target": [], "time": []}}, "mouseover": {"state": {"target": ["1", "7", "5"], "time": [2651, 2692, 3261]}, "edge": {"target": [], "time": []}}, "mouseout": {"state": {"target": ["9", "4", "0", "0", "1", "7", "5"], "time": [959, 1044, 1526, 2078, 2678, 2727, 3846]}, "edge": {"target": [], "time": []}}}, "displayed_time": "16.54", "trialTime": 18771, "trial_type": "mouselab-mdp", "trial_index": 43, "time_elapsed": 1215706, "internal_node_id": "0.0-6.0-1.0-34.0"}}, {"uniqueid": "w78762861:a24796623", "current_trial": 44, "dateTime": 1693661527025, "trialdata": {"revealed_states": [], "clicked_states": ["5", "6"], "num_clicks_accrued": [0, 0, 0, 0, 0, 0, 0, 0, 0, 0, 0, 0, 0], "stateRewards": ["", 1, -3, 4, 13, -72, 52, 5, 5, -58, 5, 14, 2, 1, 3, -14, -86, -4, 73, 6, -58, -50, 49, 2, -3, -4, 2, 33, -41, 42, -11, 81, 45, 53], "withholdReward": false, "trial_id": "mdp_trial_36", "block": "test", "trialIndex": 37, "score": 64.2, "costs": -2.8, "simulationMode": [null, null, null, null, null], "rewards": [1, -3, 4, 13, 52], "path": ["0", "0", "1", "2", "3", "4", "6"], "rt": [7635, 594, 233, 210, 131], "actions": ["up", "up", "up", "right", "right"], "actionTimes": [10874, 11972, 12727, 13456, 14093], "queries": {"click": {"state": {"target": ["5", "6"], "time": [5412, 7822]}, "edge": {"target": [], "time": []}}, "mouseover": {"state": {"target": ["7", "4", "5", "6"], "time": [4109, 4889, 5107, 7575]}, "edge": {"target": [], "time": []}}, "mouseout": {"state": {"target": ["4", "3", "0", "0", "7", "4", "5", "6"], "time": [1390, 1408, 1805, 2277, 4544, 4939, 5805, 8141]}, "edge": {"target": [], "time": []}}}, "displayed_time": "17.24", "trialTime": 18921, "trial_type": "mouselab-mdp", "trial_index": 44, "time_elapsed": 1235138, "internal_node_id": "0.0-6.0-1.0-35.0"}}, {"uniqueid": "w78762861:a24796623", "current_trial": 45, "dateTime": 1693661545473, "trialdata": {"revealed_states": [], "clicked_states": ["5", "6", "9"], "num_clicks_accrued": [0, 0, 0, 0, 0, 0, 0, 0, 0, 0, 0, 0, 0], "stateRewards": ["", -1, 4, -3, 3, 57, -61, 5, -11, 23, -1, 34, -2, -4, -1, -13, 27, 38, -36, 4, -45, 21, 88, 1, -2, -1, 1, -69, -5, -78, -12, -9, 38, -54], "withholdReward": false, "trial_id": "mdp_trial_37", "block": "test", "trialIndex": 38, "score": 55.8, "costs": -4.199999999999999, "simulationMode": [null, null, null, null, null], "rewards": [-1, 4, -3, 3, 57], "path": ["0", "0", "1", "2", "3", "4", "5"], "rt": [10054, 161, 84, 202, 739], "actions": ["up", "up", "up", "right", "up"], "actionTimes": [12235, 12896, 13486, 14204, 15441], "queries": {"click": {"state": {"target": ["5", "6", "9"], "time": [3273, 5810, 9165]}, "edge": {"target": [], "time": []}}, "mouseover": {"state": {"target": ["1", "5", "6", "9"], "time": [2650, 3012, 5263, 8733]}, "edge": {"target": [], "time": []}}, "mouseout": {"state": {"target": ["0", "1", "5", "6", "9"], "time": [1596, 2667, 3629, 5857, 9765]}, "edge": {"target": [], "time": []}}}, "displayed_time": "16.18", "trialTime": 17902, "trial_type": "mouselab-mdp", "trial_index": 45, "time_elapsed": 1253585, "internal_node_id": "0.0-6.0-1.0-36.0"}}, {"uniqueid": "w78762861:a24796623", "current_trial": 46, "dateTime": 1693661563954, "trialdata": {"revealed_states": [], "clicked_states": ["5"], "num_clicks_accrued": [0, 0, 0, 0, 0, 0, 0, 0, 0, 0, 0, 0, 0], "stateRewards": ["", -2, 3, -5, -7, 66, 43, -60, -4, -70, -75, 4, -1, 2, 2, -13, 54, 11, -40, -1, 77, 32, 15, -2, 3, -8, -9, -35, 83, -27, 6, -74, -34, 44], "withholdReward": false, "trial_id": "mdp_trial_38", "block": "test", "trialIndex": 39, "score": 53.6, "costs": -1.4, "simulationMode": [null, null, null, null, null], "rewards": [-2, 3, -5, -7, 66], "path": ["0", "0", "1", "2", "3", "4", "5"], "rt": [3981, 506, 177, 186, 953], "actions": ["up", "up", "up", "right", "up"], "actionTimes": [6191, 7199, 7886, 8579, 10045], "queries": {"click": {"state": {"target": ["5"], "time": [3402]}, "edge": {"target": [], "time": []}}, "mouseover": {"state": {"target": ["7", "4", "5"], "time": [2627, 2661, 3042]}, "edge": {"target": [], "time": []}}, "mouseout": {"state": {"target": ["1", "0", "7", "4", "5", "5", "4"], "time": [1140, 2543, 2658, 2686, 3479, 4238, 17495]}, "edge": {"target": [], "time": []}}}, "displayed_time": "16.21", "trialTime": 17987, "trial_type": "mouselab-mdp", "trial_index": 46, "time_elapsed": 1272067, "internal_node_id": "0.0-6.0-1.0-37.0"}}, {"uniqueid": "w78762861:a24796623", "current_trial": 47, "dateTime": 1693661593715, "trialdata": {"revealed_states": [], "clicked_states": ["5", "9", "11", "6", "16", "18", "17"], "num_clicks_accrued": [0, 0, 0, 0, 0, 0, 0, 0, 0, 0, 0, 0, 0], "stateRewards": ["", 1, 4, 7, -16, -84, -6, -46, -12, -7, -49, -26, -1, 2, -4, 2, 22, 37, -64, 1, 88, -13, -10, 1, -4, -2, 5, 2, -10, -34, 9, 66, 55, 38], "withholdReward": false, "trial_id": "mdp_trial_39", "block": "test", "trialIndex": 40, "score": 26.2, "costs": -9.8, "simulationMode": [null, null, null, null, null], "rewards": [-1, 2, -4, 2, 37], "path": ["0", "0", "12", "13", "14", "15", "17"], "rt": [19178, 520, 248, 520, 136], "actions": ["right", "right", "right", "up", "right"], "actionTimes": [21805, 22831, 23573, 24597, 25230], "queries": {"click": {"state": {"target": ["5", "9", "11", "6", "16", "18", "17"], "time": [3916, 6192, 8428, 11281, 14015, 16486, 19157]}, "edge": {"target": [], "time": []}}, "mouseover": {"state": {"target": ["1", "4", "5", "9", "11", "8", "3", "4", "6", "6", "16", "18", "15", "17"], "time": [3088, 3166, 3200, 4967, 6902, 8920, 8953, 9002, 9402, 9956, 13654, 14671, 18654, 18704]}, "edge": {"target": [], "time": []}}, "mouseout": {"state": {"target": ["1", "0", "0", "1", "4", "5", "9", "9", "11", "8", "3", "4", "6", "6", "16", "16", "18", "15"], "time": [985, 1468, 3039, 3110, 3182, 3947, 6300, 6836, 8902, 8936, 8971, 9369, 9436, 11836, 14078, 14373, 18637, 18687]}, "edge": {"target": [], "time": []}}}, "displayed_time": "25.73", "trialTime": 29222, "trial_type": "mouselab-mdp", "trial_index": 47, "time_elapsed": 1301829, "internal_node_id": "0.0-6.0-1.0-38.0"}}, {"uniqueid": "w78762861:a24796623", "current_trial": 48, "dateTime": 1693661612678, "trialdata": {"revealed_states": [], "clicked_states": ["5"], "num_clicks_accrued": [0, 0, 0, 0, 0, 0, 0, 0, 0, 0, 0, 0, 0], "stateRewards": ["", 1, 2, -3, -5, 66, -50, -47, -5, 1, 28, -27, 1, 1, -1, -6, 37, -25, 56, 1, -82, -66, -40, -1, -4, -7, 15, -61, -23, 26, 10, 14, -56, 29], "withholdReward": false, "trial_id": "mdp_trial_40", "block": "test", "trialIndex": 41, "score": 59.6, "costs": -1.4, "simulationMode": [null, null, null, null, null], "rewards": [1, 2, -3, -5, 66], "path": ["0", "0", "1", "2", "3", "4", "5"], "rt": [5812, 323, 161, 192, 2042], "actions": ["up", "up", "up", "right", "up"], "actionTimes": [8614, 9448, 10102, 10816, 13351], "queries": {"click": {"state": {"target": ["5"], "time": [4798]}, "edge": {"target": [], "time": []}}, "mouseover": {"state": {"target": ["1", "5", "5", "9"], "time": [3719, 3801, 4320, 5386]}, "edge": {"target": [], "time": []}}, "mouseout": {"state": {"target": ["17", "15", "18", "0", "1", "5", "5"], "time": [1034, 1066, 1083, 2211, 3751, 3819, 5241]}, "edge": {"target": [], "time": []}}}, "displayed_time": "16.80", "trialTime": 18342, "trial_type": "mouselab-mdp", "trial_index": 48, "time_elapsed": 1320791, "internal_node_id": "0.0-6.0-1.0-39.0"}}, {"uniqueid": "w78762861:a24796623", "current_trial": 49, "dateTime": 1693661685573, "trialdata": {"rt": 72890, "response": {"Q0": "$-2 to $2", "Q1": "$-4 to $4", "Q2": "$-88 to $88", "Q3": "The cost was always $1.4.", "Q4": "Very motivated"}, "question_order": [0, 1, 2, 3, 4], "trial_id": "final_quiz_control", "trial_type": "survey-multi-choice", "trial_index": 49, "time_elapsed": 1393687, "internal_node_id": "0.0-6.0-2.0"}}, {"uniqueid": "w78762861:a24796623", "current_trial": 50, "dateTime": 1693661814664, "trialdata": {"rt": 129080, "response": {"Q0": "At first I was just clicking on the nearest step until I found one that wasn't a minus. After a few rounds I realised this wasn't helping so did a few rounds without clicking any. I was still losing. I then tried the outer edge and this worked.", "Q1": "As above I learned to just find a positive target on the edge and head for that.", "Q2": "Not difficult once I realised what to do"}, "trial_id": "self_report_control", "trial_type": "survey-text", "trial_index": 50, "time_elapsed": 1522778, "internal_node_id": "0.0-6.0-3.0"}}, {"uniqueid": "w78762861:a24796623", "current_trial": 51, "dateTime": 1693661833460, "trialdata": {"rt": 18790, "response": {"gender": "female", "age": "51", "colorblind": "0", "effort": "0"}, "trial_type": "survey-html-form", "trial_index": 51, "time_elapsed": 1541574, "internal_node_id": "0.0-6.0-4.0"}}, {"uniqueid": "w78762861:a24796623", "current_trial": 52, "dateTime": 1693661850617, "trialdata": {"rt": 17149, "response": {"Q0": "no", "Q1": "no", "Q2": "no"}, "trial_type": "survey-text", "trial_index": 52, "time_elapsed": 1558731, "internal_node_id": "0.0-6.0-5.0"}}, {"uniqueid": "w78762861:a24796623", "current_trial": 53, "dateTime": 1693661872848, "trialdata": {"rt": 22225, "stimulus": "<h1>Completion Code Instructions (1/2)</h1>\n<br><br><br><br>\nYou have reached the end of the experiment! The completion code consists of two parts: (1) a code with 2 characters (2) a code with 6 characters. On this page, you will receive the second part of the code. The first part of the completion code will be on the next page.\n<br><br>\nThe second part of your completion code is: <b>EWEK22</b>\n<br><br>\nPlease note this down. Then, press 'Next' in order to find the first part of your completion code. Once the data has been saved, you will receive this code either in this window or in the original browser window where you started the experiment.\n <br><br>\n<h2 style='color: red;'>Note: this is <strong>NOT</strong> the full completion code. Copy this down and click 'Next' to get the full completion code on the next page.</h2>", "response": 0, "trial_type": "html-button-response", "trial_index": 53, "time_elapsed": 1580962, "internal_node_id": "0.0-6.0-6.0"}}, {"uniqueid": "w78762861:a24796623", "current_trial": 54, "dateTime": 1693661873853, "trialdata": {"success": true, "trial_type": "fullscreen", "trial_index": 54, "time_elapsed": 1581966, "internal_node_id": "0.0-7.0"}}], "questiondata": {"params": {"CODE": "C6DMOQA6", "MIN_TIME": 14, "inspectCost": 1, "startTime": "Sat Sep 02 2023 14:11:31 GMT+0100 (British Summer Time)", "bonusRate": 0.002, "variance": "1_2_4_8_44", "branching": "31123"}, "final_score": 1622.4}, "eventdata": [{"eventtype": "initialized", "value": null, "timestamp": 1693660290766, "interval": 0}, {"eventtype": "window_resize", "value": [1366, 670], "timestamp": 1693660290766, "interval": 0}, {"eventtype": "window_resize", "value": [1366, 670], "timestamp": 1693660291090, "interval": 324}, {"eventtype": "window_resize", "value": [1366, 768], "timestamp": 1693660296109, "interval": 5019}, {"eventtype": "window_resize", "value": [1366, 670], "timestamp": 1693661873167, "interval": 1577058}], "useragent": "Mozilla/5.0 (Windows NT 10.0; Win64; x64) AppleWebKit/537.36 (KHTML, like Gecko) Chrome/116.0.0.0 Safari/537.36", "mode": "live", "id": "w78762861:a24796623", "status": "user data saved", "Beginhit": "2023-09-02 13:11:29.484635", "Beginexp": "2023-09-02 13:11:36.852725", "Endhit": "2023-09-02 13:37:54.261354", "psiturkStatus": 3, "browser": "<redacted>", "platform": "windows", "language": "en-GB"}