{"condition": 1, "counterbalance": 0, "assignmentId": "a86447540", "workerId": "w80132647", "hitId": "h91478462", "currenttrial": 56, "bonus": 0, "data": [{"uniqueid": "w80132647:a86447540", "current_trial": 0, "dateTime": 1693568407674, "trialdata": {"success": true, "trial_type": "fullscreen", "trial_index": 0, "time_elapsed": 10171, "internal_node_id": "0.0-0.0"}}, {"uniqueid": "w80132647:a86447540", "current_trial": 1, "dateTime": 1693568442382, "trialdata": {"view_history": [{"page_index": 0, "viewing_time": 34687}], "rt": 34690, "trial_id": "exp_instructions_misaligned", "trial_type": "instructions", "trial_index": 1, "time_elapsed": 44881, "internal_node_id": "0.0-1.0"}}, {"uniqueid": "w80132647:a86447540", "current_trial": 2, "dateTime": 1693568977465, "trialdata": {"view_history": [{"page_index": 0, "viewing_time": 188186}, {"page_index": 1, "viewing_time": 217006}, {"page_index": 2, "viewing_time": 51036}, {"page_index": 3, "viewing_time": 78848}], "rt": 535076, "trial_id": "mouselab_instructions_1_misaligned", "trial_type": "instructions", "trial_index": 2, "time_elapsed": 579964, "internal_node_id": "0.0-2.0-1.0"}}, {"uniqueid": "w80132647:a86447540", "current_trial": 3, "dateTime": 1693569093445, "trialdata": {"revealed_states": [], "clicked_states": ["23", "24", "25", "26", "28", "29", "27", "30", "33", "31", "32", "12", "13", "14", "19", "21", "22", "20", "15", "18", "17", "16", "1", "2", "3", "8", "11", "10", "9", "4", "7", "6", "5"], "num_clicks_accrued": [0, 0, 0, 0, 0, 0, 0, 0, 0, 0, 0, 0, 0], "stateRewards": ["", -10, -10, 10, -10, 10, 10, 10, -10, -10, 10, 10, -10, -10, 10, -10, -10, -10, 10, -10, -10, -10, -10, 10, -10, 10, 10, -10, -10, 10, -10, -10, 10, -10], "withholdReward": false, "trial_id": "practice_1", "block": "test", "trialIndex": 0, "score": -23, "costs": -16.5, "simulationMode": [null, null, null, null, null], "rewards": [-10, -10, 10, -10, 10], "path": ["0", "0", "1", "2", "3", "8", "10"], "rt": [74590, 1274, 651, 262, 290], "actions": ["up", "up", "up", "left", "down"], "actionTimes": [84025, 85857, 87045, 87848, 88693], "queries": {"click": {"state": {"target": ["23", "24", "25", "26", "28", "29", "27", "30", "33", "31", "32", "12", "13", "14", "19", "21", "22", "20", "15", "18", "17", "16", "1", "2", "3", "8", "11", "10", "9", "4", "7", "6", "5"], "time": [14062, 15353, 16760, 18307, 19930, 21758, 23155, 25545, 27426, 28817, 30374, 34801, 36462, 38220, 40234, 41881, 43546, 45323, 47816, 49529, 51577, 54017, 57837, 59495, 61595, 63756, 65737, 68280, 70594, 73228, 75290, 77650, 79875]}, "edge": {"target": [], "time": []}}, "mouseover": {"state": {"target": ["0", "23", "24", "25", "26", "28", "29", "27", "26", "25", "30", "33", "31", "30", "32", "30", "24", "23", "0", "12", "13", "14", "19", "21", "22", "19", "20", "14", "15", "18", "17", "15", "16", "18", "15", "18", "1", "2", "3", "8", "11", "10", "8", "9", "3", "3", "4", "7", "6", "5", "5", "4", "7", "1"], "time": [13335, 13497, 15081, 16433, 17809, 19552, 21459, 22750, 24764, 25165, 25334, 27214, 28505, 29734, 30127, 31720, 32387, 32932, 33396, 34401, 35978, 37921, 39951, 41496, 43136, 44752, 44998, 47039, 47409, 49204, 51334, 53277, 53663, 55977, 56543, 56697, 57383, 59044, 61055, 63456, 65314, 67962, 69957, 70210, 72218, 72360, 72493, 75037, 77265, 79159, 79561, 81860, 82010, 82244]}, "edge": {"target": [], "time": []}}, "mouseout": {"state": {"target": ["0", "0", "23", "24", "25", "26", "28", "26", "29", "27", "26", "25", "30", "33", "31", "30", "32", "30", "24", "23", "0", "12", "12", "13", "14", "19", "21", "22", "19", "20", "14", "15", "18", "15", "17", "15", "16", "18", "15", "18", "1", "2", "3", "8", "11", "8", "10", "8", "9", "3", "3", "4", "7", "4", "6", "5", "5", "4", "7", "1", "1", "0"], "time": [10695, 13388, 14953, 16332, 17712, 19482, 20733, 20864, 22526, 24645, 24913, 25249, 25596, 27644, 29570, 29788, 30543, 31770, 32903, 33044, 34213, 34966, 35885, 37672, 39681, 41292, 42861, 44609, 44945, 46095, 47104, 49119, 50981, 51184, 53225, 53301, 55776, 56001, 56630, 56998, 57980, 60888, 63315, 65229, 67423, 67660, 69824, 70042, 72152, 72256, 72393, 74934, 75463, 77044, 78991, 79243, 81687, 81943, 82062, 108114, 108462, 109549]}, "edge": {"target": [], "time": []}}}, "displayed_time": "89.22", "trialTime": 114303, "trial_type": "mouselab-mdp", "trial_index": 3, "time_elapsed": 695942, "internal_node_id": "0.0-2.0-2.0-0.0"}}, {"uniqueid": "w80132647:a86447540", "current_trial": 4, "dateTime": 1693569148444, "trialdata": {"revealed_states": [], "clicked_states": ["23", "24", "12", "13", "14", "15", "16", "18", "17", "19", "22", "20", "21"], "num_clicks_accrued": [0, 0, 0, 0, 0, 0, 0, 0, 0, 0, 0, 0, 0], "stateRewards": ["", -10, -10, 10, -10, 10, 10, -10, -10, -10, 10, 10, -10, 10, -10, -10, -10, 10, -10, 10, 10, 10, -10, -10, -10, -10, 10, -10, 10, -10, 10, 10, 10, -10], "withholdReward": false, "trial_id": "practice_2", "block": "test", "trialIndex": 1, "score": 7, "costs": -6.5, "simulationMode": [null, null, null, null, null], "rewards": [-10, 10, -10, 10, 10], "path": ["0", "0", "12", "13", "14", "19", "21"], "rt": [40511, 188, 238, 137, 227], "actions": ["right", "right", "right", "down", "down"], "actionTimes": [47452, 48200, 48975, 49643, 50420], "queries": {"click": {"state": {"target": ["23", "24", "12", "13", "14", "15", "16", "18", "17", "19", "22", "20", "21"], "time": [8997, 10474, 13210, 14761, 18536, 20962, 24243, 26570, 28857, 36421, 39139, 41048, 43764]}, "edge": {"target": [], "time": []}}, "mouseover": {"state": {"target": ["23", "24", "25", "12", "13", "1", "14", "15", "16", "15", "18", "18", "15", "17", "13", "15", "15", "13", "12", "13", "14", "15", "14", "19", "22", "19", "20", "21"], "time": [8441, 9861, 11944, 12805, 13992, 17225, 18030, 20433, 23578, 25942, 26013, 26244, 28205, 28260, 31264, 31743, 32283, 32731, 33134, 33436, 34140, 34779, 35851, 36220, 37476, 40566, 40712, 43111]}, "edge": {"target": [], "time": []}}, "mouseout": {"state": {"target": ["12", "0", "23", "24", "25", "24", "23", "12", "13", "12", "1", "14", "15", "16", "15", "18", "18", "15", "17", "13", "15", "17", "15", "13", "12", "13", "14", "15", "14", "19", "22", "19", "20", "21"], "time": [2808, 4538, 9570, 11489, 12148, 12230, 12300, 13872, 16502, 16640, 17261, 20275, 22788, 25875, 25966, 26040, 28155, 28233, 30738, 31392, 31995, 32246, 32317, 33052, 33369, 34057, 34659, 35563, 35952, 36451, 40529, 40630, 42570, 46276]}, "edge": {"target": [], "time": []}}}, "displayed_time": "50.98", "trialTime": 53926, "trial_type": "mouselab-mdp", "trial_index": 4, "time_elapsed": 750941, "internal_node_id": "0.0-2.0-2.0-1.0"}}, {"uniqueid": "w80132647:a86447540", "current_trial": 5, "dateTime": 1693569245517, "trialdata": {"view_history": [{"page_index": 0, "viewing_time": 76253}, {"page_index": 1, "viewing_time": 20808}], "rt": 97062, "trial_id": "mouselab_instructions_2_misaligned", "trial_type": "instructions", "trial_index": 5, "time_elapsed": 848015, "internal_node_id": "0.0-2.0-3.0"}}, {"uniqueid": "w80132647:a86447540", "current_trial": 6, "dateTime": 1693569323864, "trialdata": {"rt": 78329, "response": {"Q0": "The cost for clicking on nodes may vary between nodes.", "Q1": "The better I perform the higher my bonus will be.", "Q2": "No, the amount of cash at each node of the web may be different each time.", "Q3": "To get the highest total score.", "Q4": "Only before moving the spider.", "Q5": "3 seconds"}, "question_order": [0, 1, 2, 3, 4, 5], "correct": {"Q0": "The cost for clicking on nodes may vary between nodes.", "Q1": "The better I perform the higher my bonus will be.", "Q2": "No, the amount of cash at each node of the web may be different each time.", "Q3": "To get the highest total score.", "Q4": "Only before moving the spider.", "Q5": "3 seconds"}, "trial_id": "mouselab_quiz_misaligned", "trial_type": "survey-multi-choice", "trial_index": 6, "time_elapsed": 926362, "internal_node_id": "0.0-2.0-4.0"}}, {"uniqueid": "w80132647:a86447540", "current_trial": 7, "dateTime": 1693569335776, "trialdata": {"rt": 11886, "response": {"Q0": "No"}, "question_order": [0], "trial_id": "repeat_check", "trial_type": "survey-multi-choice", "trial_index": 7, "time_elapsed": 938274, "internal_node_id": "0.0-4.0-0.0"}}, {"uniqueid": "w80132647:a86447540", "current_trial": 8, "dateTime": 1693569444140, "trialdata": {"rt": 108346, "stimulus": "\n<h1> Get ready to start the game! </h1>\n\nThank you for reading the instructions. Get ready start with the 40 rounds of this game.\n<br><br>\nIf you need to take a break, feel free to take one after the end of a round, before continuing to the next one.\n<br><br>\nRemember, the more money the spider gets, the bigger your bonus will be!\n<br><br>\n<div style='text-align: center;'>Press <code>space</code> to begin.</div>\n\n<br><br>\n(If, at any point, the <code>space</code> key does not take you to the next page, click once on the text and try again.)", "response": " ", "trial_id": "mdp_ready", "trial_type": "html-keyboard-response", "trial_index": 8, "time_elapsed": 1046639, "internal_node_id": "0.0-6.0-0.0"}}, {"uniqueid": "w80132647:a86447540", "current_trial": 9, "dateTime": 1693569483541, "trialdata": {"revealed_states": [], "clicked_states": ["23", "24", "12", "13", "1", "2"], "num_clicks_accrued": [0, 0, 0, 0, 0, 0, 0, 0, 0, 0, 0, 0, 0], "stateRewards": ["", -2, 4, -5, -12, 85, -24, -18, -15, -78, -22, 26, -1, -1, 2, 14, -45, 52, -23, 7, -33, 24, -6, -2, -4, 5, -7, -16, 36, -39, 5, 71, -87, -23], "withholdReward": false, "trial_id": "mdp_trial_1", "block": "test", "trialIndex": 2, "score": -39.3, "costs": -0.29999999999999993, "simulationMode": [null, null, null, null, null], "rewards": [-2, 4, -5, -12, -24], "path": ["0", "0", "1", "2", "3", "4", "6"], "rt": [20266, 273, 498, 218, 84], "actions": ["up", "up", "up", "right", "right"], "actionTimes": [25694, 26514, 27556, 28305, 28923], "queries": {"click": {"state": {"target": ["23", "24", "12", "13", "1", "2"], "time": [7441, 9021, 10549, 11683, 14115, 15191]}, "edge": {"target": [], "time": []}}, "mouseover": {"state": {"target": ["23", "24", "0", "12", "13", "1", "2", "3", "2", "1"], "time": [7057, 8067, 9883, 10145, 11274, 13584, 14812, 18541, 22353, 22650]}, "edge": {"target": [], "time": []}}, "mouseout": {"state": {"target": ["31", "0", "12", "13", "12", "0", "0", "23", "24", "23", "0", "12", "13", "12", "12", "12", "1", "2", "2", "3", "2", "1"], "time": [1391, 1420, 1608, 1709, 1793, 2811, 5936, 7923, 9540, 9810, 10060, 11091, 12309, 12724, 13028, 13196, 14594, 15946, 18135, 22302, 22377, 22803]}, "edge": {"target": [], "time": []}}}, "displayed_time": "29.46", "trialTime": 38173, "trial_type": "mouselab-mdp", "trial_index": 9, "time_elapsed": 1086038, "internal_node_id": "0.0-6.0-1.0-0.0"}}, {"uniqueid": "w80132647:a86447540", "current_trial": 10, "dateTime": 1693569516138, "trialdata": {"revealed_states": [], "clicked_states": ["23", "24", "12", "13", "14", "1", "2", "3", "8", "11", "6"], "num_clicks_accrued": [0, 0, 0, 0, 0, 0, 0, 0, 0, 0, 0, 0, 0], "stateRewards": ["", 1, 2, -6, -13, -51, 22, -4, -12, -44, -12, 6, -2, -2, -2, -14, -46, -4, -77, -2, 36, -79, 41, 2, -4, 2, -6, -55, 59, 70, -5, 39, -19, 24], "withholdReward": false, "trial_id": "mdp_trial_2", "block": "test", "trialIndex": 3, "score": -2.0500000000000007, "costs": -8.05, "simulationMode": [null, null, null, null, null], "rewards": [1, 2, -6, -13, 22], "path": ["0", "0", "1", "2", "3", "4", "6"], "rt": [17589, 187, 153, 102, 172], "actions": ["up", "up", "up", "right", "right"], "actionTimes": [20421, 21157, 21858, 22494, 23228], "queries": {"click": {"state": {"target": ["23", "24", "12", "13", "14", "1", "2", "3", "8", "11", "6"], "time": [3926, 4866, 6162, 7056, 8047, 9283, 10276, 11487, 12765, 14011, 16932]}, "edge": {"target": [], "time": []}}, "mouseover": {"state": {"target": ["23", "24", "0", "12", "12", "13", "14", "1", "2", "3", "8", "11", "3", "4", "6", "6", "4"], "time": [3661, 4278, 5494, 5621, 5921, 6665, 7751, 9002, 9910, 11237, 12442, 13762, 14841, 14994, 15119, 15720, 17778]}, "edge": {"target": [], "time": []}}, "mouseout": {"state": {"target": ["23", "24", "23", "0", "12", "12", "13", "14", "1", "2", "3", "8", "11", "8", "3", "4", "6", "6"], "time": [4194, 5412, 5451, 5575, 5732, 6589, 7613, 8574, 9656, 10855, 12203, 13654, 14665, 14770, 14921, 15074, 15311, 17687]}, "edge": {"target": [], "time": []}}}, "displayed_time": "23.76", "trialTime": 31399, "trial_type": "mouselab-mdp", "trial_index": 10, "time_elapsed": 1118635, "internal_node_id": "0.0-6.0-1.0-1.0"}}, {"uniqueid": "w80132647:a86447540", "current_trial": 11, "dateTime": 1693569546731, "trialdata": {"revealed_states": [], "clicked_states": [], "num_clicks_accrued": [0, 0, 0, 0, 0, 0, 0, 0, 0, 0, 0, 0, 0], "stateRewards": ["", 1, 4, 7, -16, -84, -6, -46, -12, -7, -49, -26, -1, 2, -4, 2, 22, 37, -64, 1, 88, -13, -10, 1, -4, -2, 5, 2, -10, -34, 9, 66, 55, 38], "withholdReward": false, "trial_id": "mdp_trial_3", "block": "test", "trialIndex": 4, "score": 59, "costs": 0, "simulationMode": [null, null, null, null, null], "rewards": [1, -4, -2, 9, 55], "path": ["0", "0", "23", "24", "25", "30", "32"], "rt": [14304, 42, 152, 89, 132], "actions": ["left", "left", "left", "down", "down"], "actionTimes": [20471, 21077, 21773, 22396, 23084], "queries": {"click": {"state": {"target": [], "time": []}, "edge": {"target": [], "time": []}}, "mouseover": {"state": {"target": ["1", "23"], "time": [8335, 10833]}, "edge": {"target": [], "time": []}}, "mouseout": {"state": {"target": ["4", "1", "1", "23"], "time": [2632, 3664, 9823, 16536]}, "edge": {"target": [], "time": []}}}, "displayed_time": "23.62", "trialTime": 29364, "trial_type": "mouselab-mdp", "trial_index": 11, "time_elapsed": 1149228, "internal_node_id": "0.0-6.0-1.0-2.0"}}, {"uniqueid": "w80132647:a86447540", "current_trial": 12, "dateTime": 1693569572352, "trialdata": {"revealed_states": [], "clicked_states": ["12", "13", "14", "19", "21"], "num_clicks_accrued": [0, 0, 0, 0, 0, 0, 0, 0, 0, 0, 0, 0, 0], "stateRewards": ["", 2, -3, -8, 14, -7, -51, 73, 2, 36, 36, -43, -1, 3, -4, 1, 6, 87, -65, 15, 61, -42, -83, -1, 3, -2, -7, 30, -48, 35, 13, 26, 60, 78], "withholdReward": false, "trial_id": "mdp_trial_4", "block": "test", "trialIndex": 5, "score": -74.75, "costs": -4.75, "simulationMode": [null, null, null, null, null], "rewards": [-1, 3, -4, 15, -83], "path": ["0", "0", "12", "13", "14", "19", "22"], "rt": [12186, 180, 245, 59, 245], "actions": ["right", "right", "right", "down", "left"], "actionTimes": [14660, 15364, 16136, 16736, 17535], "queries": {"click": {"state": {"target": ["12", "13", "14", "19", "21"], "time": [3684, 4584, 5628, 6673, 8085]}, "edge": {"target": [], "time": []}}, "mouseover": {"state": {"target": ["0", "12", "12", "13", "14", "19", "21", "20"], "time": [3010, 3073, 3299, 4297, 5211, 6456, 7685, 10405]}, "edge": {"target": [], "time": []}}, "mouseout": {"state": {"target": ["0", "0", "12", "12", "13", "14", "19", "19", "21"], "time": [1211, 3042, 3105, 4204, 5174, 6238, 6886, 7436, 8278]}, "edge": {"target": [], "time": []}}}, "displayed_time": "18.09", "trialTime": 24219, "trial_type": "mouselab-mdp", "trial_index": 12, "time_elapsed": 1174850, "internal_node_id": "0.0-6.0-1.0-3.0"}}, {"uniqueid": "w80132647:a86447540", "current_trial": 13, "dateTime": 1693569631866, "trialdata": {"revealed_states": [], "clicked_states": ["1", "2", "3", "8", "11", "9", "10", "4", "6", "5", "7", "12", "13", "14", "15", "17", "18", "16", "19"], "num_clicks_accrued": [0, 0, 0, 0, 0, 0, 0, 0, 0, 0, 0, 0, 0], "stateRewards": ["", -1, 2, 5, -6, 13, -64, -47, 8, -79, -80, -33, 1, 2, -2, -16, 56, -71, -10, 3, 29, 44, 85, -1, 4, 5, 4, -36, -56, 19, 8, 52, -13, -2], "withholdReward": false, "trial_id": "mdp_trial_5", "block": "test", "trialIndex": 6, "score": 13.350000000000001, "costs": -27.65, "simulationMode": [null, null, null, null, null], "rewards": [1, 2, -2, -16, 56], "path": ["0", "0", "12", "13", "14", "15", "16"], "rt": [48260, 94, 73, 33, 27], "actions": ["right", "right", "right", "up", "up"], "actionTimes": [52154, 52782, 53437, 54032, 54628], "queries": {"click": {"state": {"target": ["1", "2", "3", "8", "11", "9", "10", "4", "6", "5", "7", "12", "13", "14", "15", "17", "18", "16", "19"], "time": [5137, 6197, 7345, 8705, 10146, 13710, 17470, 21423, 22842, 26303, 30953, 35377, 36336, 37586, 38884, 40402, 43771, 46892, 50269]}, "edge": {"target": [], "time": []}}, "mouseover": {"state": {"target": ["1", "2", "3", "8", "11", "9", "8", "10", "3", "4", "6", "5", "4", "7", "12", "12", "13", "14", "15", "17", "18", "16", "15", "14", "19"], "time": [4920, 5706, 6857, 8342, 9769, 11714, 14592, 14764, 18277, 18561, 22216, 23926, 27068, 27320, 31533, 31887, 35925, 37309, 38603, 40094, 41276, 44510, 47705, 47926, 48225]}, "edge": {"target": [], "time": []}}, "mouseout": {"state": {"target": ["19", "12", "1", "2", "3", "8", "8", "11", "9", "8", "10", "3", "4", "6", "5", "4", "7", "12", "12", "13", "13", "14", "15", "17", "15", "18", "16", "15", "14"], "time": [512, 2485, 5312, 6368, 8254, 8850, 9430, 11280, 14503, 14638, 18129, 18413, 22015, 23497, 26914, 27220, 31286, 31579, 35740, 36374, 37118, 38297, 39934, 41143, 41229, 44318, 47565, 47813, 48006]}, "edge": {"target": [], "time": []}}}, "displayed_time": "55.20", "trialTime": 58101, "trial_type": "mouselab-mdp", "trial_index": 13, "time_elapsed": 1234363, "internal_node_id": "0.0-6.0-1.0-4.0"}}, {"uniqueid": "w80132647:a86447540", "current_trial": 14, "dateTime": 1693569672249, "trialdata": {"revealed_states": [], "clicked_states": ["23", "24", "25", "26", "28", "29", "27", "30", "33", "31", "32"], "num_clicks_accrued": [0, 0, 0, 0, 0, 0, 0, 0, 0, 0, 0, 0, 0], "stateRewards": ["", -2, -3, 4, 1, 33, -53, 15, 9, -12, 61, -6, -2, 4, 6, -11, 47, -43, -7, -11, 46, 23, -28, -1, -1, 3, -10, 11, 76, -76, 10, 18, -38, 87], "withholdReward": false, "trial_id": "mdp_trial_6", "block": "test", "trialIndex": 7, "score": 80.95, "costs": -17.05, "simulationMode": [null, null, null, null, null], "rewards": [-1, -1, 3, 10, 87], "path": ["0", "0", "23", "24", "25", "30", "33"], "rt": [28032, 697, 231, 274, 181], "actions": ["left", "left", "left", "down", "left"], "actionTimes": [30755, 31995, 32785, 33601, 34328], "queries": {"click": {"state": {"target": ["23", "24", "25", "26", "28", "29", "27", "30", "33", "31", "32"], "time": [4242, 5109, 6183, 7419, 8382, 11853, 15556, 18944, 20301, 23726, 27407]}, "edge": {"target": [], "time": []}}, "mouseover": {"state": {"target": ["0", "23", "24", "25", "26", "28", "29", "27", "25", "30", "33", "31", "32", "0", "12"], "time": [3764, 3828, 4621, 5644, 7147, 8116, 9096, 12864, 17008, 17314, 19944, 22103, 25982, 29469, 29655]}, "edge": {"target": [], "time": []}}, "mouseout": {"state": {"target": ["19", "0", "0", "23", "24", "25", "26", "28", "29", "27", "25", "30", "33", "30", "31", "32", "0"], "time": [764, 1517, 3795, 4572, 5505, 6359, 8079, 8791, 12516, 16630, 17123, 19724, 21286, 21685, 25584, 27542, 29617]}, "edge": {"target": [], "time": []}}}, "displayed_time": "34.87", "trialTime": 39061, "trial_type": "mouselab-mdp", "trial_index": 14, "time_elapsed": 1274746, "internal_node_id": "0.0-6.0-1.0-5.0"}}, {"uniqueid": "w80132647:a86447540", "current_trial": 15, "dateTime": 1693569696439, "trialdata": {"revealed_states": [], "clicked_states": [], "num_clicks_accrued": [0, 0, 0, 0, 0, 0, 0, 0, 0, 0, 0, 0, 0], "stateRewards": ["", 1, 1, -3, 7, 49, 78, 26, -5, 26, 48, -43, -1, -3, 2, -5, 4, -1, -60, 10, -35, 51, 81, -2, 1, -7, -5, -39, -86, -54, 4, -3, 74, 77], "withholdReward": false, "trial_id": "mdp_trial_7", "block": "test", "trialIndex": 8, "score": 89, "costs": 0, "simulationMode": [null, null, null, null, null], "rewards": [-1, -3, 2, 10, 81], "path": ["0", "0", "12", "13", "14", "19", "22"], "rt": [9662, 616, 598, 129, 965], "actions": ["right", "right", "right", "down", "left"], "actionTimes": [12851, 14005, 15140, 15810, 17306], "queries": {"click": {"state": {"target": [], "time": []}, "edge": {"target": [], "time": []}}, "mouseover": {"state": {"target": ["12", "1", "12", "12", "13", "12"], "time": [4228, 5141, 5628, 5892, 6747, 8246]}, "edge": {"target": [], "time": []}}, "mouseout": {"state": {"target": ["12", "0", "12", "1", "12", "12", "13"], "time": [1593, 1798, 4885, 5588, 5661, 6629, 8148]}, "edge": {"target": [], "time": []}}}, "displayed_time": "17.85", "trialTime": 22825, "trial_type": "mouselab-mdp", "trial_index": 15, "time_elapsed": 1298936, "internal_node_id": "0.0-6.0-1.0-6.0"}}, {"uniqueid": "w80132647:a86447540", "current_trial": 16, "dateTime": 1693569757291, "trialdata": {"revealed_states": [], "clicked_states": ["1", "2", "3", "4", "7", "6", "5", "9", "8", "10", "11", "23", "24", "25", "30", "31", "32", "33", "29", "26", "27"], "num_clicks_accrued": [0, 0, 0, 0, 0, 0, 0, 0, 0, 0, 0, 0, 0], "stateRewards": ["", -2, -1, -1, 5, -54, -87, 35, 2, -8, 20, -22, 1, 3, 6, 13, -75, -32, -55, -3, 56, 62, -22, -1, -4, -1, -7, -51, 84, 70, 7, -15, 5, 55], "withholdReward": false, "trial_id": "mdp_trial_8", "block": "test", "trialIndex": 9, "score": 25.050000000000004, "costs": -31.949999999999996, "simulationMode": [null, null, null, null, null, null], "rewards": [-1, -4, -1, -7, 70], "path": ["0", "0", "23", "24", "25", "26", "29"], "rt": [48248, 3511, 156, 127, 91, 7], "actions": ["left", "left", "left", "left", "up", "left"], "actionTimes": [50504, 54036, 54755, 55412, 56048, 56575], "queries": {"click": {"state": {"target": ["1", "2", "3", "4", "7", "6", "5", "9", "8", "10", "11", "23", "24", "25", "30", "31", "32", "33", "29", "26", "27"], "time": [3260, 4348, 5631, 6710, 7866, 11103, 14398, 18014, 21240, 22675, 26006, 29270, 30879, 31864, 32929, 34093, 36964, 40417, 43387, 46333, 48145]}, "edge": {"target": [], "time": []}}, "mouseover": {"state": {"target": ["1", "2", "3", "4", "7", "6", "5", "9", "8", "10", "11", "28", "23", "24", "25", "30", "31", "32", "33", "29", "26", "27"], "time": [2942, 3997, 5327, 6316, 7593, 9055, 12338, 15842, 18749, 21838, 24074, 28197, 28665, 30618, 31471, 32763, 33534, 35268, 37843, 41057, 44180, 47338]}, "edge": {"target": [], "time": []}}, "mouseout": {"state": {"target": ["12", "1", "2", "3", "4", "7", "6", "5", "9", "8", "10", "11", "28", "23", "24", "25", "30", "31", "32", "33", "29", "26"], "time": [455, 3761, 4514, 6259, 7462, 8831, 11752, 15347, 18570, 21541, 23469, 27058, 28612, 29912, 31389, 32520, 32970, 34633, 37405, 40894, 44131, 46939]}, "edge": {"target": [], "time": []}}}, "displayed_time": "57.15", "trialTime": 59387, "trial_type": "mouselab-mdp", "trial_index": 16, "time_elapsed": 1359789, "internal_node_id": "0.0-6.0-1.0-7.0"}}, {"uniqueid": "w80132647:a86447540", "current_trial": 17, "dateTime": 1693569794089, "trialdata": {"revealed_states": [], "clicked_states": ["12", "13", "14", "19", "22", "21", "20", "17", "15", "18"], "num_clicks_accrued": [0, 0, 0, 0, 0, 0, 0, 0, 0, 0, 0, 0, 0], "stateRewards": ["", 1, -2, -8, -3, 31, -84, -55, -14, 15, -58, 17, -2, -3, 7, 7, -12, 48, 67, 4, -44, -68, 46, 2, 3, -5, -7, 76, 27, 5, 11, 57, 52, 59], "withholdReward": false, "trial_id": "mdp_trial_9", "block": "test", "trialIndex": 10, "score": 61.099999999999994, "costs": -14.900000000000002, "simulationMode": [null, null, null, null, null], "rewards": [-2, -3, 7, 7, 67], "path": ["0", "0", "12", "13", "14", "15", "18"], "rt": [24624, 46, 4, 31, 536], "actions": ["right", "right", "right", "up", "left"], "actionTimes": [28765, 29352, 30001, 30589, 31663], "queries": {"click": {"state": {"target": ["12", "13", "14", "19", "22", "21", "20", "17", "15", "18"], "time": [5156, 6122, 7130, 8271, 9466, 12588, 16043, 19312, 22370, 23983]}, "edge": {"target": [], "time": []}}, "mouseover": {"state": {"target": ["12", "13", "14", "19", "22", "21", "19", "20", "20", "17", "15", "18"], "time": [4838, 5830, 6805, 7884, 9122, 10647, 13156, 13471, 15720, 17666, 19880, 23409]}, "edge": {"target": [], "time": []}}, "mouseout": {"state": {"target": ["27", "28", "24", "23", "0", "12", "13", "14", "19", "22", "19", "21", "19", "20", "20", "17", "15", "18"], "time": [2208, 2373, 2440, 2490, 4194, 5694, 6612, 7717, 8978, 10071, 10562, 12951, 13319, 15470, 16531, 19793, 23102, 27234]}, "edge": {"target": [], "time": []}}}, "displayed_time": "32.22", "trialTime": 35406, "trial_type": "mouselab-mdp", "trial_index": 17, "time_elapsed": 1396586, "internal_node_id": "0.0-6.0-1.0-8.0"}}, {"uniqueid": "w80132647:a86447540", "current_trial": 18, "dateTime": 1693569840718, "trialdata": {"revealed_states": [], "clicked_states": ["23", "24", "25", "30", "31", "32", "33", "26", "29", "27", "28"], "num_clicks_accrued": [0, 0, 0, 0, 0, 0, 0, 0, 0, 0, 0, 0, 0], "stateRewards": ["", 1, -2, -3, 14, -42, -87, -37, -11, -50, 33, -44, -2, 4, -7, 13, 48, -75, -66, 12, 23, -2, 82, 1, -4, 3, 12, 51, -15, -26, -11, -52, -29, 82], "withholdReward": false, "trial_id": "mdp_trial_10", "block": "test", "trialIndex": 11, "score": 53.95, "costs": -17.05, "simulationMode": [null, null, null, null, null], "rewards": [1, -4, 3, -11, 82], "path": ["0", "0", "23", "24", "25", "30", "33"], "rt": [26971, 5, 72, 248, 155], "actions": ["left", "left", "left", "down", "left"], "actionTimes": [31335, 31890, 32549, 33327, 34018], "queries": {"click": {"state": {"target": ["23", "24", "25", "30", "31", "32", "33", "26", "29", "27", "28"], "time": [5661, 6702, 7613, 8622, 9675, 12894, 15823, 18840, 19935, 23510, 26938]}, "edge": {"target": [], "time": []}}, "mouseover": {"state": {"target": ["0", "23", "24", "25", "30", "31", "32", "33", "25", "26", "29", "27", "28"], "time": [5210, 5469, 6306, 7285, 8401, 9324, 10713, 13702, 17024, 17713, 19620, 20876, 24572]}, "edge": {"target": [], "time": []}}, "mouseout": {"state": {"target": ["18", "0", "0", "23", "24", "25", "30", "31", "32", "33", "25", "26", "29", "27", "28"], "time": [2283, 3098, 5242, 6291, 7203, 8185, 8662, 10173, 13445, 16851, 17492, 19343, 20421, 24272, 30510]}, "edge": {"target": [], "time": []}}}, "displayed_time": "34.55", "trialTime": 45215, "trial_type": "mouselab-mdp", "trial_index": 18, "time_elapsed": 1443216, "internal_node_id": "0.0-6.0-1.0-9.0"}}, {"uniqueid": "w80132647:a86447540", "current_trial": 19, "dateTime": 1693569879221, "trialdata": {"revealed_states": [], "clicked_states": ["1", "2", "3", "8", "11", "10", "9", "4", "7", "6", "5"], "num_clicks_accrued": [0, 0, 0, 0, 0, 0, 0, 0, 0, 0, 0, 0, 0], "stateRewards": ["", -1, 4, 3, 12, -27, 34, -33, 3, -63, 1, 6, 2, 2, -6, -11, -77, -85, 68, -6, 51, 81, -60, -2, -2, 1, 15, 20, 15, 68, -10, -14, 6, -4], "withholdReward": false, "trial_id": "mdp_trial_11", "block": "test", "trialIndex": 12, "score": 34.95, "costs": -17.05, "simulationMode": [null, null, null, null, null], "rewards": [-1, 4, 3, 12, 34], "path": ["0", "0", "1", "2", "3", "4", "6"], "rt": [28471, 8, 60, 347, 114], "actions": ["up", "up", "up", "right", "right"], "actionTimes": [31045, 31602, 32230, 33122, 33790], "queries": {"click": {"state": {"target": ["1", "2", "3", "8", "11", "10", "9", "4", "7", "6", "5"], "time": [3482, 4495, 5624, 6712, 8108, 11328, 14537, 18180, 19508, 23481, 26953]}, "edge": {"target": [], "time": []}}, "mouseover": {"state": {"target": ["1", "2", "3", "3", "8", "11", "10", "8", "9", "4", "7", "4", "6", "5"], "time": [2633, 4263, 5133, 5339, 6431, 7539, 8889, 11837, 12172, 17477, 19029, 22973, 23228, 25380]}, "edge": {"target": [], "time": []}}, "mouseout": {"state": {"target": ["28", "23", "1", "2", "3", "3", "8", "11", "10", "8", "9", "4", "7", "4", "6"], "time": [690, 960, 4068, 5049, 5218, 6217, 7290, 8732, 11559, 11892, 16821, 18846, 22893, 23007, 24715]}, "edge": {"target": [], "time": []}}}, "displayed_time": "34.34", "trialTime": 37036, "trial_type": "mouselab-mdp", "trial_index": 19, "time_elapsed": 1481718, "internal_node_id": "0.0-6.0-1.0-10.0"}}, {"uniqueid": "w80132647:a86447540", "current_trial": 20, "dateTime": 1693569917171, "trialdata": {"revealed_states": [], "clicked_states": ["23", "24", "25", "26", "29", "28", "27", "33", "30", "31", "32"], "num_clicks_accrued": [0, 0, 0, 0, 0, 0, 0, 0, 0, 0, 0, 0, 0], "stateRewards": ["", -1, 2, -7, -12, -62, 12, -13, 5, 77, -71, 83, 1, -4, 7, 15, -42, -87, -4, 5, -25, 44, 88, -1, 4, -5, -8, 14, 51, 8, -5, 83, -24, -19], "withholdReward": false, "trial_id": "mdp_trial_12", "block": "test", "trialIndex": 13, "score": 58.95, "costs": -17.05, "simulationMode": [null, null, null, null, null], "rewards": [-1, 4, -5, -5, 83], "path": ["0", "0", "23", "24", "25", "30", "31"], "rt": [27323, 118, 136, 17, 142], "actions": ["left", "left", "left", "down", "right"], "actionTimes": [31342, 31995, 32673, 33267, 33969], "queries": {"click": {"state": {"target": ["23", "24", "25", "26", "29", "28", "27", "33", "30", "31", "32"], "time": [5276, 6228, 7451, 8471, 9383, 12318, 15503, 19803, 22878, 24130, 27714]}, "edge": {"target": [], "time": []}}, "mouseover": {"state": {"target": ["0", "23", "24", "25", "26", "29", "28", "27", "26", "25", "33", "30", "33", "30", "31", "32"], "time": [4878, 5016, 5874, 7157, 8102, 9046, 10136, 13686, 16893, 17232, 17689, 18596, 19016, 20545, 23680, 25178]}, "edge": {"target": [], "time": []}}, "mouseout": {"state": {"target": ["5", "4", "1", "0", "23", "24", "25", "26", "29", "26", "28", "27", "26", "25", "33", "30", "33", "30", "31", "32"], "time": [2152, 2233, 2516, 4907, 5794, 7009, 7628, 8963, 9759, 9872, 13448, 16725, 17030, 17286, 18367, 18913, 20455, 23493, 24792, 28587]}, "edge": {"target": [], "time": []}}}, "displayed_time": "34.51", "trialTime": 36474, "trial_type": "mouselab-mdp", "trial_index": 20, "time_elapsed": 1519667, "internal_node_id": "0.0-6.0-1.0-11.0"}}, {"uniqueid": "w80132647:a86447540", "current_trial": 21, "dateTime": 1693569957308, "trialdata": {"revealed_states": [], "clicked_states": ["12", "13", "14", "15", "18", "17", "16", "19", "22", "21", "20"], "num_clicks_accrued": [0, 0, 0, 0, 0, 0, 0, 0, 0, 0, 0, 0, 0], "stateRewards": ["", 1, 1, 5, 6, -29, -7, 3, -16, 9, -46, 65, -1, 4, -1, -16, -63, -77, -87, 8, 80, -50, 43, -1, -1, -5, 5, -38, -71, -62, 9, 81, -50, -52], "withholdReward": false, "trial_id": "mdp_trial_13", "block": "test", "trialIndex": 14, "score": 72.95, "costs": -17.05, "simulationMode": [null, null, null, null, null], "rewards": [-1, 4, -1, 8, 80], "path": ["0", "0", "12", "13", "14", "19", "20"], "rt": [28444, 46, 74, 5, 51], "actions": ["right", "right", "right", "down", "right"], "actionTimes": [33697, 34301, 34932, 35488, 36097], "queries": {"click": {"state": {"target": ["12", "13", "14", "15", "18", "17", "16", "19", "22", "21", "20"], "time": [7074, 8309, 9656, 10748, 11788, 15280, 18540, 21367, 22618, 25498, 29375]}, "edge": {"target": [], "time": []}}, "mouseover": {"state": {"target": ["12", "13", "14", "15", "18", "17", "16", "15", "14", "19", "22", "21", "20"], "time": [6816, 8032, 9376, 10467, 11394, 12541, 16457, 19304, 19398, 19973, 22203, 23422, 26658]}, "edge": {"target": [], "time": []}}, "mouseout": {"state": {"target": ["0", "12", "13", "14", "15", "18", "15", "17", "16", "15", "14", "19", "22", "21", "20"], "time": [4089, 7943, 9174, 10173, 11279, 12369, 12455, 15963, 19220, 19350, 19481, 22090, 23131, 26405, 31916]}, "edge": {"target": [], "time": []}}}, "displayed_time": "36.65", "trialTime": 38250, "trial_type": "mouselab-mdp", "trial_index": 21, "time_elapsed": 1559805, "internal_node_id": "0.0-6.0-1.0-12.0"}}, {"uniqueid": "w80132647:a86447540", "current_trial": 22, "dateTime": 1693569996226, "trialdata": {"revealed_states": [], "clicked_states": ["1", "2", "3", "8", "11", "10", "9", "5", "4", "7", "6"], "num_clicks_accrued": [0, 0, 0, 0, 0, 0, 0, 0, 0, 0, 0, 0, 0], "stateRewards": ["", 1, -1, 8, 4, 76, -33, -17, -3, -1, -54, -74, -2, 2, -5, 13, -51, 63, 83, 1, 84, 29, -36, 2, -1, 7, -12, -10, -44, -43, -14, 8, -69, 19], "withholdReward": false, "trial_id": "mdp_trial_14", "block": "test", "trialIndex": 15, "score": 70.95, "costs": -17.05, "simulationMode": [null, null, null, null, null], "rewards": [1, -1, 8, 4, 76], "path": ["0", "0", "1", "2", "3", "4", "5"], "rt": [30015, 10, 142, 34, 10], "actions": ["up", "up", "up", "right", "up"], "actionTimes": [32617, 33246, 33961, 34577, 35139], "queries": {"click": {"state": {"target": ["1", "2", "3", "8", "11", "10", "9", "5", "4", "7", "6"], "time": [3922, 5184, 6437, 7938, 9062, 12286, 15394, 18630, 22678, 25630, 28989]}, "edge": {"target": [], "time": []}}, "mouseover": {"state": {"target": ["1", "2", "2", "3", "8", "11", "10", "8", "9", "5", "4", "7", "6"], "time": [3559, 4468, 4898, 5920, 7670, 8822, 9616, 12822, 13239, 17947, 19971, 24886, 27431]}, "edge": {"target": [], "time": []}}, "mouseout": {"state": {"target": ["0", "1", "2", "2", "3", "8", "11", "10", "8", "9", "5", "4", "7"], "time": [1506, 4333, 4587, 5568, 7425, 8488, 9574, 12656, 12998, 17707, 19600, 24651, 27034]}, "edge": {"target": [], "time": []}}}, "displayed_time": "35.69", "trialTime": 37534, "trial_type": "mouselab-mdp", "trial_index": 22, "time_elapsed": 1598723, "internal_node_id": "0.0-6.0-1.0-13.0"}}, {"uniqueid": "w80132647:a86447540", "current_trial": 23, "dateTime": 1693570034122, "trialdata": {"revealed_states": [], "clicked_states": ["23", "24", "25", "30", "31", "32", "33", "26", "29", "28", "27"], "num_clicks_accrued": [0, 0, 0, 0, 0, 0, 0, 0, 0, 0, 0, 0, 0], "stateRewards": ["", 1, 3, 1, -13, 52, -28, 67, -14, 3, 63, -70, -1, -4, 7, -11, -10, 47, -18, 6, 69, -9, -61, 2, 3, -6, 10, 63, -34, 40, -6, -79, -35, -32], "withholdReward": false, "trial_id": "mdp_trial_15", "block": "test", "trialIndex": 16, "score": 54.95, "costs": -17.05, "simulationMode": [null, null, null, null, null], "rewards": [2, 3, -6, 10, 63], "path": ["0", "0", "23", "24", "25", "26", "27"], "rt": [27351, 60, 50, 655, 102], "actions": ["left", "left", "left", "up", "up"], "actionTimes": [31104, 31718, 32345, 33567, 34215], "queries": {"click": {"state": {"target": ["23", "24", "25", "30", "31", "32", "33", "26", "29", "28", "27"], "time": [5346, 6333, 7282, 8227, 9227, 12685, 15975, 18903, 20014, 23548, 26454]}, "edge": {"target": [], "time": []}}, "mouseover": {"state": {"target": ["0", "23", "24", "25", "30", "31", "32", "33", "25", "26", "29", "28", "27", "1", "12"], "time": [4428, 5152, 5844, 7002, 8155, 8843, 10140, 13500, 16736, 17212, 19821, 20640, 24824, 28836, 29206]}, "edge": {"target": [], "time": []}}, "mouseout": {"state": {"target": ["6", "0", "23", "23", "24", "25", "30", "30", "31", "32", "33", "25", "26", "29", "26", "28", "27", "1"], "time": [1902, 4773, 5529, 5764, 6840, 7894, 8400, 8733, 9673, 13029, 16565, 16860, 19538, 20438, 20564, 24371, 28478, 29005]}, "edge": {"target": [], "time": []}}}, "displayed_time": "34.81", "trialTime": 36353, "trial_type": "mouselab-mdp", "trial_index": 23, "time_elapsed": 1636619, "internal_node_id": "0.0-6.0-1.0-14.0"}}, {"uniqueid": "w80132647:a86447540", "current_trial": 24, "dateTime": 1693570065809, "trialdata": {"revealed_states": [], "clicked_states": ["23", "24", "25", "30", "31", "32", "33"], "num_clicks_accrued": [0, 0, 0, 0, 0, 0, 0, 0, 0, 0, 0, 0, 0], "stateRewards": ["", 1, 1, -6, -2, 7, 77, 3, 16, -16, 66, 31, -1, 3, -8, -6, 33, -50, -48, 7, -60, -66, 36, 2, -3, 3, -7, -12, -61, -79, -4, 8, 74, -70], "withholdReward": false, "trial_id": "mdp_trial_16", "block": "test", "trialIndex": 17, "score": 62.95, "costs": -9.05, "simulationMode": [null, null, null, null, null, null], "rewards": [2, -3, 3, -4, 74], "path": ["0", "0", "23", "24", "25", "30", "32"], "rt": [16018, 693, 12, 19, 8, 597], "actions": ["left", "left", "left", "left", "down", "down"], "actionTimes": [22748, 23469, 24041, 24620, 25182, 26363], "queries": {"click": {"state": {"target": ["23", "24", "25", "30", "31", "32", "33"], "time": [8082, 9098, 10054, 11338, 12147, 15076, 20103]}, "edge": {"target": [], "time": []}}, "mouseover": {"state": {"target": ["23", "24", "25", "30", "31", "32", "32", "33"], "time": [7845, 8813, 9731, 11139, 11805, 12878, 13937, 15860]}, "edge": {"target": [], "time": []}}, "mouseout": {"state": {"target": ["12", "0", "23", "24", "25", "30", "30", "31", "32", "32"], "time": [4759, 5254, 8689, 9498, 10950, 11504, 11752, 12684, 13532, 15206]}, "edge": {"target": [], "time": []}}}, "displayed_time": "26.90", "trialTime": 30245, "trial_type": "mouselab-mdp", "trial_index": 24, "time_elapsed": 1668307, "internal_node_id": "0.0-6.0-1.0-15.0"}}, {"uniqueid": "w80132647:a86447540", "current_trial": 25, "dateTime": 1693570100085, "trialdata": {"revealed_states": [], "clicked_states": ["22", "21", "20", "17", "16", "18"], "num_clicks_accrued": [0, 0, 0, 0, 0, 0, 0, 0, 0, 0, 0, 0, 0], "stateRewards": ["", -1, 3, -4, -14, 78, 67, 2, 13, -32, 28, 39, -2, 1, -4, -4, -4, -42, -86, 11, 64, -29, -32, -1, -4, 2, -7, 5, 68, -61, 2, -21, 85, 50], "withholdReward": false, "trial_id": "mdp_trial_17", "block": "test", "trialIndex": 18, "score": 57.1, "costs": -12.9, "simulationMode": [null, null, null, null, null], "rewards": [-2, 1, -4, 11, 64], "path": ["0", "0", "12", "13", "14", "19", "20"], "rt": [21423, 29, 67, 73, 113], "actions": ["right", "right", "right", "down", "right"], "actionTimes": [24936, 25509, 26147, 26755, 27413], "queries": {"click": {"state": {"target": ["22", "21", "20", "17", "16", "18"], "time": [4747, 8093, 11358, 14527, 17938, 20986]}, "edge": {"target": [], "time": []}}, "mouseover": {"state": {"target": ["0", "22", "21", "20", "17", "16", "18", "14", "13"], "time": [4088, 4263, 5455, 8952, 12662, 15407, 18942, 22215, 23164]}, "edge": {"target": [], "time": []}}, "mouseout": {"state": {"target": ["31", "0", "0", "22", "21", "20", "17", "16", "18", "14"], "time": [68, 1501, 4143, 5371, 8708, 11902, 15039, 18592, 21152, 23047]}, "edge": {"target": [], "time": []}}}, "displayed_time": "27.95", "trialTime": 32677, "trial_type": "mouselab-mdp", "trial_index": 25, "time_elapsed": 1702581, "internal_node_id": "0.0-6.0-1.0-16.0"}}, {"uniqueid": "w80132647:a86447540", "current_trial": 26, "dateTime": 1693570133627, "trialdata": {"revealed_states": [], "clicked_states": ["7", "6", "5", "9", "11", "10", "28"], "num_clicks_accrued": [0, 0, 0, 0, 0, 0, 0, 0, 0, 0, 0, 0, 0], "stateRewards": ["", 1, -2, -8, -13, 4, 34, -84, -4, -49, 88, -70, -1, 3, -4, 10, -77, 13, -34, 15, -21, -16, 27, 1, -2, 8, -8, -6, 38, -26, 6, -15, 66, -3], "withholdReward": false, "trial_id": "mdp_trial_18", "block": "test", "trialIndex": 19, "score": 59.95, "costs": -15.05, "simulationMode": [null, null, null, null, null, null], "rewards": [1, -2, -8, -4, 88], "path": ["0", "0", "1", "2", "3", "8", "10"], "rt": [22632, 1539, 40, 60, 611, 9], "actions": ["up", "up", "up", "up", "left", "down"], "actionTimes": [25009, 26575, 27216, 27831, 29003, 29554], "queries": {"click": {"state": {"target": ["7", "6", "5", "9", "11", "10", "28"], "time": [3649, 6896, 9969, 13306, 16540, 19820, 22940]}, "edge": {"target": [], "time": []}}, "mouseover": {"state": {"target": ["7", "6", "5", "5", "9", "11", "10", "28"], "time": [3368, 4389, 7503, 7811, 11407, 13944, 17166, 20746]}, "edge": {"target": [], "time": []}}, "mouseout": {"state": {"target": ["12", "0", "7", "6", "5", "5", "9", "11", "10"], "time": [741, 2438, 4138, 7133, 7608, 11133, 13829, 16967, 20335]}, "edge": {"target": [], "time": []}}}, "displayed_time": "30.09", "trialTime": 31485, "trial_type": "mouselab-mdp", "trial_index": 26, "time_elapsed": 1736124, "internal_node_id": "0.0-6.0-1.0-17.0"}}, {"uniqueid": "w80132647:a86447540", "current_trial": 27, "dateTime": 1693570154433, "trialdata": {"revealed_states": [], "clicked_states": ["31"], "num_clicks_accrued": [0, 0, 0, 0, 0, 0, 0, 0, 0, 0, 0, 0, 0], "stateRewards": ["", 1, 1, -5, 10, -31, 73, 14, -8, -23, 63, -70, -1, 2, 8, 7, 25, -59, 27, -10, -40, -71, -15, -2, 3, -8, -5, -19, 77, -34, 7, 67, 63, 19], "withholdReward": false, "trial_id": "mdp_trial_19", "block": "test", "trialIndex": 20, "score": 64.85, "costs": -2.15, "simulationMode": [null, null, null, null, null], "rewards": [-2, 3, -8, 7, 67], "path": ["0", "0", "23", "24", "25", "30", "31"], "rt": [5731, 37, 9, 22, 194], "actions": ["left", "left", "left", "down", "right"], "actionTimes": [9157, 9749, 10326, 10894, 11637], "queries": {"click": {"state": {"target": ["31"], "time": [4754]}, "edge": {"target": [], "time": []}}, "mouseover": {"state": {"target": ["0", "23", "31", "32"], "time": [4057, 4181, 4495, 5817]}, "edge": {"target": [], "time": []}}, "mouseout": {"state": {"target": ["28", "28", "23", "0", "23", "31", "32"], "time": [1407, 1617, 1694, 4137, 4226, 5355, 8430]}, "edge": {"target": [], "time": []}}}, "displayed_time": "17.43", "trialTime": 19131, "trial_type": "mouselab-mdp", "trial_index": 27, "time_elapsed": 1756931, "internal_node_id": "0.0-6.0-1.0-18.0"}}, {"uniqueid": "w80132647:a86447540", "current_trial": 28, "dateTime": 1693570195291, "trialdata": {"revealed_states": [], "clicked_states": ["22", "21", "20", "17", "16", "18", "7", "6"], "num_clicks_accrued": [0, 0, 0, 0, 0, 0, 0, 0, 0, 0, 0, 0, 0], "stateRewards": ["", 2, -1, -4, -13, 74, 77, 3, 2, -43, -2, -11, 2, 3, 7, 11, -26, -29, -33, -3, -3, -13, -3, 1, 3, -7, 14, -59, 33, 9, -5, 34, 79, 68], "withholdReward": false, "trial_id": "mdp_trial_20", "block": "test", "trialIndex": 21, "score": 43.8, "costs": -17.2, "simulationMode": [null, null, null, null, null], "rewards": [2, -1, -4, -13, 77], "path": ["0", "0", "1", "2", "3", "4", "6"], "rt": [30004, 58, 21, 638, 83], "actions": ["up", "up", "up", "right", "right"], "actionTimes": [32854, 33469, 34032, 35222, 35855], "queries": {"click": {"state": {"target": ["22", "21", "20", "17", "16", "18", "7", "6"], "time": [4289, 7563, 10775, 14070, 18294, 21609, 24840, 28013]}, "edge": {"target": [], "time": []}}, "mouseover": {"state": {"target": ["13", "22", "21", "20", "17", "16", "16", "18", "7", "6", "4", "5"], "time": [2964, 3645, 5003, 8510, 11877, 14567, 18012, 19085, 22675, 25567, 28674, 28942]}, "edge": {"target": [], "time": []}}, "mouseout": {"state": {"target": ["31", "13", "22", "21", "20", "17", "16", "16", "18", "7", "6", "4"], "time": [624, 3002, 4741, 7972, 11470, 14408, 17357, 18857, 22298, 25287, 28521, 28735]}, "edge": {"target": [], "time": []}}}, "displayed_time": "36.41", "trialTime": 39160, "trial_type": "mouselab-mdp", "trial_index": 28, "time_elapsed": 1797788, "internal_node_id": "0.0-6.0-1.0-19.0"}}, {"uniqueid": "w80132647:a86447540", "current_trial": 29, "dateTime": 1693570228538, "trialdata": {"revealed_states": [], "clicked_states": ["31", "22", "21", "20", "17"], "num_clicks_accrued": [0, 0, 0, 0, 0, 0, 0, 0, 0, 0, 0, 0, 0], "stateRewards": ["", -2, -1, -2, -15, 87, 57, 29, -10, 77, -80, -7, 1, -3, 6, 14, -11, 87, -59, 4, -71, 16, -11, 2, 2, -7, 2, -47, 61, 50, 14, -20, 17, 81], "withholdReward": false, "trial_id": "mdp_trial_21", "block": "test", "trialIndex": 22, "score": 94.25, "costs": -10.75, "simulationMode": [null, null, null, null, null], "rewards": [1, -3, 6, 14, 87], "path": ["0", "0", "12", "13", "14", "15", "17"], "rt": [20568, 526, 204, 312, 107], "actions": ["right", "right", "right", "up", "right"], "actionTimes": [26200, 27283, 28019, 28943, 29603], "queries": {"click": {"state": {"target": ["31", "22", "21", "20", "17"], "time": [7388, 11809, 15052, 18540, 21802]}, "edge": {"target": [], "time": []}}, "mouseover": {"state": {"target": ["0", "31", "32", "22", "21", "20", "17", "16"], "time": [6642, 6817, 8285, 11444, 12551, 15430, 19269, 22660]}, "edge": {"target": [], "time": []}}, "mouseout": {"state": {"target": ["5", "7", "0", "0", "0", "31", "32", "22", "21", "20", "17"], "time": [3209, 3260, 3312, 5686, 6691, 7791, 10451, 12392, 15367, 18894, 22430]}, "edge": {"target": [], "time": []}}}, "displayed_time": "30.16", "trialTime": 31675, "trial_type": "mouselab-mdp", "trial_index": 29, "time_elapsed": 1831035, "internal_node_id": "0.0-6.0-1.0-20.0"}}, {"uniqueid": "w80132647:a86447540", "current_trial": 30, "dateTime": 1693570291338, "trialdata": {"revealed_states": [], "clicked_states": ["12", "22", "21", "20", "18", "16", "17", "31", "32", "33", "29", "27", "28", "11", "10"], "num_clicks_accrued": [0, 0, 0, 0, 0, 0, 0, 0, 0, 0, 0, 0, 0], "stateRewards": ["", -2, -3, 1, -7, 39, -67, 16, 5, -20, 73, 66, -1, 4, 5, -3, 23, -68, -87, -8, 3, -3, 17, 1, -4, -2, -13, -32, 34, 61, -5, -11, -18, 12], "withholdReward": false, "trial_id": "mdp_trial_22", "block": "test", "trialIndex": 23, "score": 44.150000000000006, "costs": -29.84999999999999, "simulationMode": [null, null, null, null, null], "rewards": [-2, -3, 1, 5, 73], "path": ["0", "0", "1", "2", "3", "8", "10"], "rt": [51659, 27, 73, 570, 35], "actions": ["up", "up", "up", "left", "down"], "actionTimes": [56111, 56694, 57306, 58452, 59041], "queries": {"click": {"state": {"target": ["12", "22", "21", "20", "18", "16", "17", "31", "32", "33", "29", "27", "28", "11", "10"], "time": [6544, 7897, 11175, 14388, 17582, 20712, 23944, 27240, 30462, 33613, 37247, 40588, 43905, 48097, 51839]}, "edge": {"target": [], "time": []}}, "mouseover": {"state": {"target": ["12", "13", "14", "19", "22", "21", "20", "15", "15", "18", "16", "17", "15", "23", "31", "32", "33", "29", "27", "28", "11", "10", "8", "9"], "time": [6166, 7111, 7334, 7554, 7646, 8910, 11584, 15465, 15561, 15823, 18583, 21477, 24600, 25010, 25304, 27860, 31009, 34774, 38205, 41273, 47828, 48742, 53251, 53552]}, "edge": {"target": [], "time": []}}, "mouseout": {"state": {"target": ["16", "18", "28", "26", "25", "12", "12", "13", "14", "19", "22", "21", "20", "15", "15", "18", "16", "17", "15", "23", "31", "32", "33", "29", "27", "28", "11", "10", "8"], "time": [2007, 2386, 2595, 2697, 2813, 6586, 7020, 7242, 7421, 7605, 8737, 11379, 14933, 15511, 15735, 18182, 21084, 24582, 24648, 25179, 27700, 30761, 34176, 37701, 41117, 47306, 48579, 52897, 53425]}, "edge": {"target": [], "time": []}}}, "displayed_time": "59.59", "trialTime": 61223, "trial_type": "mouselab-mdp", "trial_index": 30, "time_elapsed": 1893836, "internal_node_id": "0.0-6.0-1.0-21.0"}}, {"uniqueid": "w80132647:a86447540", "current_trial": 31, "dateTime": 1693570312121, "trialdata": {"revealed_states": [], "clicked_states": ["31"], "num_clicks_accrued": [0, 0, 0, 0, 0, 0, 0, 0, 0, 0, 0, 0, 0], "stateRewards": ["", -2, -1, -6, -14, -55, 78, -13, 11, 14, -71, 59, 2, 2, 6, -6, 9, 38, 14, 7, 85, 11, 68, 1, -4, -1, -3, -63, -85, 9, -2, 63, -86, -10], "withholdReward": false, "trial_id": "mdp_trial_23", "block": "test", "trialIndex": 24, "score": 54.85, "costs": -2.15, "simulationMode": [null, null, null, null, null], "rewards": [1, -4, -1, -2, 63], "path": ["0", "0", "23", "24", "25", "30", "31"], "rt": [7667, 51, 83, 34, 183], "actions": ["left", "left", "left", "down", "right"], "actionTimes": [11114, 11710, 12338, 12913, 13647], "queries": {"click": {"state": {"target": ["31"], "time": [5160]}, "edge": {"target": [], "time": []}}, "mouseover": {"state": {"target": ["0", "23", "24", "31", "22"], "time": [4153, 4252, 4304, 4727, 6897]}, "edge": {"target": [], "time": []}}, "mouseout": {"state": {"target": ["9", "17", "14", "12", "0", "0", "23", "24", "31"], "time": [1634, 1730, 1958, 2042, 2292, 4219, 4287, 4393, 6382]}, "edge": {"target": [], "time": []}}}, "displayed_time": "17.45", "trialTime": 19291, "trial_type": "mouselab-mdp", "trial_index": 31, "time_elapsed": 1914618, "internal_node_id": "0.0-6.0-1.0-22.0"}}, {"uniqueid": "w80132647:a86447540", "current_trial": 32, "dateTime": 1693570351925, "trialdata": {"revealed_states": [], "clicked_states": ["31", "32", "33", "29", "27", "28"], "num_clicks_accrued": [0, 0, 0, 0, 0, 0, 0, 0, 0, 0, 0, 0, 0], "stateRewards": ["", -1, 4, -5, 9, 29, -75, -42, -16, 24, -28, -41, 2, -3, 1, 10, 60, 47, 55, -1, -53, 22, -40, 2, -3, -6, 4, -26, 44, 54, 15, -76, 42, 14], "withholdReward": false, "trial_id": "mdp_trial_24", "block": "test", "trialIndex": 25, "score": 38.1, "costs": -12.9, "simulationMode": [null, null, null, null, null], "rewards": [2, -3, -6, 4, 54], "path": ["0", "0", "23", "24", "25", "26", "29"], "rt": [23372, 25, 7, 490, 10], "actions": ["left", "left", "left", "up", "left"], "actionTimes": [32880, 33471, 34025, 35064, 35613], "queries": {"click": {"state": {"target": ["31", "32", "33", "29", "27", "28"], "time": [11615, 14861, 18093, 21530, 24952, 28186]}, "edge": {"target": [], "time": []}}, "mouseover": {"state": {"target": ["0", "23", "31", "32", "32", "33", "29", "27", "27", "28", "10"], "time": [10365, 10539, 11124, 12371, 12835, 15475, 19383, 22126, 22757, 25602, 29761]}, "edge": {"target": [], "time": []}}, "mouseout": {"state": {"target": ["22", "22", "0", "0", "0", "23", "31", "32", "32", "33", "29", "27", "27", "28"], "time": [6472, 6833, 7480, 9566, 10405, 10874, 12141, 12540, 15230, 18462, 21849, 22515, 25355, 29640]}, "edge": {"target": [], "time": []}}}, "displayed_time": "36.16", "trialTime": 38085, "trial_type": "mouselab-mdp", "trial_index": 32, "time_elapsed": 1954422, "internal_node_id": "0.0-6.0-1.0-23.0"}}, {"uniqueid": "w80132647:a86447540", "current_trial": 33, "dateTime": 1693570406169, "trialdata": {"revealed_states": [], "clicked_states": ["7", "6", "5", "9", "11", "10", "18", "16", "17", "20", "21", "22"], "num_clicks_accrued": [0, 0, 0, 0, 0, 0, 0, 0, 0, 0, 0, 0, 0], "stateRewards": ["", -1, 2, -2, 13, -56, -28, 10, 14, 53, -80, -29, 1, -3, -3, -14, 14, 9, -40, -9, 18, 18, 48, 1, 1, 1, -9, 64, -39, -9, 7, -52, -78, 7], "withholdReward": false, "trial_id": "mdp_trial_25", "block": "test", "trialIndex": 26, "score": 40.2, "costs": -25.799999999999994, "simulationMode": [null, null, null, null, null], "rewards": [-1, 2, -2, 14, 53], "path": ["0", "0", "1", "2", "3", "8", "9"], "rt": [43532, 514, 121, 9, 9], "actions": ["up", "up", "up", "left", "up"], "actionTimes": [47155, 48240, 48895, 49448, 50003], "queries": {"click": {"state": {"target": ["7", "6", "5", "9", "11", "10", "18", "16", "17", "20", "21", "22"], "time": [4792, 8300, 11569, 14955, 18451, 21699, 25512, 28763, 32160, 35565, 38990, 42347]}, "edge": {"target": [], "time": []}}, "mouseover": {"state": {"target": ["0", "7", "6", "5", "9", "11", "10", "2", "18", "16", "17", "20", "21", "22"], "time": [3972, 4493, 5598, 8749, 12207, 15914, 19183, 24608, 25212, 26628, 29331, 33148, 36266, 39610]}, "edge": {"target": [], "time": []}}, "mouseout": {"state": {"target": ["10", "12", "12", "0", "0", "7", "6", "5", "9", "11", "11", "10", "2", "18", "16", "17", "20", "21", "22"], "time": [1643, 1843, 2060, 3682, 4175, 5333, 8584, 12079, 15579, 18675, 18890, 24552, 24761, 25641, 29050, 32664, 35970, 39149, 46111]}, "edge": {"target": [], "time": []}}}, "displayed_time": "50.56", "trialTime": 52590, "trial_type": "mouselab-mdp", "trial_index": 33, "time_elapsed": 2008666, "internal_node_id": "0.0-6.0-1.0-24.0"}}, {"uniqueid": "w80132647:a86447540", "current_trial": 34, "dateTime": 1693570427547, "trialdata": {"revealed_states": [], "clicked_states": ["31", "32"], "num_clicks_accrued": [0, 0, 0, 0, 0, 0, 0, 0, 0, 0, 0, 0, 0], "stateRewards": ["", -2, 4, -3, -13, 63, -36, 62, 11, 78, 34, -51, 2, -2, 8, -6, -40, -18, 31, 9, 64, 39, 79, 1, 4, -4, 15, -12, 76, 73, -10, -77, 86, -4], "withholdReward": false, "trial_id": "mdp_trial_26", "block": "test", "trialIndex": 27, "score": 72.7, "costs": -4.3, "simulationMode": [null, null, null, null, null], "rewards": [1, 4, -4, -10, 86], "path": ["0", "0", "23", "24", "25", "30", "32"], "rt": [8856, 326, 246, 190, 328], "actions": ["left", "left", "left", "down", "down"], "actionTimes": [13319, 14184, 14984, 15705, 16565], "queries": {"click": {"state": {"target": ["31", "32"], "time": [5660, 8916]}, "edge": {"target": [], "time": []}}, "mouseover": {"state": {"target": ["0", "23", "24", "31", "32", "33"], "time": [4527, 5166, 5246, 5462, 6591, 9523]}, "edge": {"target": [], "time": []}}, "mouseout": {"state": {"target": ["22", "0", "0", "23", "24", "31", "31", "32"], "time": [2461, 2726, 5127, 5206, 5328, 5863, 6306, 9086]}, "edge": {"target": [], "time": []}}}, "displayed_time": "18.47", "trialTime": 19719, "trial_type": "mouselab-mdp", "trial_index": 34, "time_elapsed": 2030045, "internal_node_id": "0.0-6.0-1.0-25.0"}}, {"uniqueid": "w80132647:a86447540", "current_trial": 35, "dateTime": 1693570449293, "trialdata": {"revealed_states": [], "clicked_states": ["22", "21"], "num_clicks_accrued": [0, 0, 0, 0, 0, 0, 0, 0, 0, 0, 0, 0, 0], "stateRewards": ["", -2, 2, 8, -6, -25, 3, 87, 2, -62, -2, 74, -2, -1, 2, -1, 79, 49, -37, -14, 5, 67, -9, -1, 2, -2, 5, 15, 38, 32, -14, -38, -38, 30], "withholdReward": false, "trial_id": "mdp_trial_27", "block": "test", "trialIndex": 28, "score": 47.7, "costs": -4.3, "simulationMode": [null, null, null, null, null], "rewards": [-2, -1, 2, -14, 67], "path": ["0", "0", "12", "13", "14", "19", "21"], "rt": [8966, 23, 136, 117, 165], "actions": ["right", "right", "right", "down", "down"], "actionTimes": [13514, 14114, 14799, 15449, 16145], "queries": {"click": {"state": {"target": ["22", "21"], "time": [5955, 9211]}, "edge": {"target": [], "time": []}}, "mouseover": {"state": {"target": ["22", "21", "20"], "time": [5619, 7420, 9541]}, "edge": {"target": [], "time": []}}, "mouseout": {"state": {"target": ["33", "25", "24", "23", "0", "22", "21"], "time": [2585, 2748, 2797, 2914, 5245, 7192, 9401]}, "edge": {"target": [], "time": []}}}, "displayed_time": "18.55", "trialTime": 19743, "trial_type": "mouselab-mdp", "trial_index": 35, "time_elapsed": 2051790, "internal_node_id": "0.0-6.0-1.0-26.0"}}, {"uniqueid": "w80132647:a86447540", "current_trial": 36, "dateTime": 1693570472008, "trialdata": {"revealed_states": [], "clicked_states": ["10", "11", "9"], "num_clicks_accrued": [0, 0, 0, 0, 0, 0, 0, 0, 0, 0, 0, 0, 0], "stateRewards": ["", -1, -4, 8, 8, -68, 47, 24, -7, -61, 49, -69, -1, -1, 8, -7, 42, 1, -45, -11, 10, -63, -6, 1, 4, 6, -16, 79, -37, -58, -12, 81, 18, -53], "withholdReward": false, "trial_id": "mdp_trial_28", "block": "test", "trialIndex": 29, "score": 38.55, "costs": -6.449999999999999, "simulationMode": [null, null, null, null, null], "rewards": [-1, -4, 8, -7, 49], "path": ["0", "0", "1", "2", "3", "8", "10"], "rt": [12817, 15, 178, 30, 143], "actions": ["up", "up", "up", "left", "down"], "actionTimes": [16179, 16750, 17504, 18078, 18767], "queries": {"click": {"state": {"target": ["10", "11", "9"], "time": [6218, 9594, 12949]}, "edge": {"target": [], "time": []}}, "mouseover": {"state": {"target": ["12", "22", "10", "11", "9"], "time": [4140, 4479, 5810, 8229, 10175]}, "edge": {"target": [], "time": []}}, "mouseout": {"state": {"target": ["20", "19", "12", "0", "12", "22", "10", "11"], "time": [1418, 1475, 1963, 2147, 4278, 5075, 7610, 9833]}, "edge": {"target": [], "time": []}}}, "displayed_time": "19.32", "trialTime": 21188, "trial_type": "mouselab-mdp", "trial_index": 36, "time_elapsed": 2074506, "internal_node_id": "0.0-6.0-1.0-27.0"}}, {"uniqueid": "w80132647:a86447540", "current_trial": 37, "dateTime": 1693570522908, "trialdata": {"revealed_states": [], "clicked_states": ["18", "16", "17", "22", "21", "20", "31", "32", "33", "29", "27"], "num_clicks_accrued": [0, 0, 0, 0, 0, 0, 0, 0, 0, 0, 0, 0, 0], "stateRewards": ["", 1, -1, 8, -3, 38, 85, -20, -4, 8, 23, 73, 2, -4, 6, -13, 44, 7, -28, -11, -77, 45, -69, 1, -1, -7, -11, 75, -51, -87, 7, 36, -53, -26], "withholdReward": false, "trial_id": "mdp_trial_29", "block": "test", "trialIndex": 30, "score": 33.35000000000001, "costs": -23.649999999999995, "simulationMode": [null, null, null, null, null], "rewards": [1, -1, -7, -11, 75], "path": ["0", "0", "23", "24", "25", "26", "27"], "rt": [41456, 109, 29, 65, 11], "actions": ["left", "left", "left", "up", "up"], "actionTimes": [45179, 45836, 46410, 47024, 47581], "queries": {"click": {"state": {"target": ["18", "16", "17", "22", "21", "20", "31", "32", "33", "29", "27"], "time": [5979, 9313, 12730, 16204, 19481, 22809, 26931, 30393, 33643, 37099, 40490]}, "edge": {"target": [], "time": []}}, "mouseover": {"state": {"target": ["12", "13", "22", "13", "18", "16", "17", "14", "19", "22", "21", "20", "31", "32", "33", "29", "27", "28"], "time": [4532, 4583, 4793, 5362, 5697, 6753, 9972, 13490, 13558, 14121, 16744, 20343, 26696, 28102, 30821, 36350, 37824, 41093]}, "edge": {"target": [], "time": []}}, "mouseout": {"state": {"target": ["9", "31", "0", "12", "13", "22", "13", "18", "16", "17", "14", "19", "22", "21", "20", "20", "31", "32", "33", "29", "27"], "time": [1717, 1778, 2173, 4569, 4692, 5326, 5400, 6374, 9844, 13434, 13543, 13913, 16607, 19619, 23004, 25898, 27796, 30602, 33847, 37592, 40994]}, "edge": {"target": [], "time": []}}}, "displayed_time": "48.16", "trialTime": 49267, "trial_type": "mouselab-mdp", "trial_index": 37, "time_elapsed": 2125405, "internal_node_id": "0.0-6.0-1.0-28.0"}}, {"uniqueid": "w80132647:a86447540", "current_trial": 38, "dateTime": 1693570542694, "trialdata": {"revealed_states": [], "clicked_states": ["7"], "num_clicks_accrued": [0, 0, 0, 0, 0, 0, 0, 0, 0, 0, 0, 0, 0], "stateRewards": ["", 2, -1, -1, -9, -81, -30, 55, -6, 78, 25, 62, 2, 4, -1, 9, -85, 1, -19, 1, -60, 12, -34, 1, 4, -1, -13, -24, -16, -83, -8, 16, 43, 9], "withholdReward": false, "trial_id": "mdp_trial_30", "block": "test", "trialIndex": 31, "score": 43.85, "costs": -2.15, "simulationMode": [null, null, null, null, null], "rewards": [2, -1, -1, -9, 55], "path": ["0", "0", "1", "2", "3", "4", "7"], "rt": [5772, 434, 217, 71, 207], "actions": ["up", "up", "up", "right", "down"], "actionTimes": [8849, 9838, 10593, 11224, 11978], "queries": {"click": {"state": {"target": ["7"], "time": [4129]}, "edge": {"target": [], "time": []}}, "mouseover": {"state": {"target": ["0", "7", "6"], "time": [3135, 3875, 4669]}, "edge": {"target": [], "time": []}}, "mouseout": {"state": {"target": ["28", "1", "0", "7"], "time": [1417, 1594, 3174, 4588]}, "edge": {"target": [], "time": []}}}, "displayed_time": "17.08", "trialTime": 18169, "trial_type": "mouselab-mdp", "trial_index": 38, "time_elapsed": 2145191, "internal_node_id": "0.0-6.0-1.0-29.0"}}, {"uniqueid": "w80132647:a86447540", "current_trial": 39, "dateTime": 1693570561959, "trialdata": {"revealed_states": [], "clicked_states": ["31"], "num_clicks_accrued": [0, 0, 0, 0, 0, 0, 0, 0, 0, 0, 0, 0, 0], "stateRewards": ["", 1, -3, 4, 13, -72, 52, 5, 5, -58, 5, 14, 2, 1, 3, -14, -86, -4, 73, 6, -58, -50, 49, 2, -3, -4, 2, 33, -41, 42, -11, 81, 45, 53], "withholdReward": false, "trial_id": "mdp_trial_31", "block": "test", "trialIndex": 32, "score": 62.85, "costs": -2.15, "simulationMode": [null, null, null, null, null], "rewards": [2, -3, -4, -11, 81], "path": ["0", "0", "23", "24", "25", "30", "31"], "rt": [7270, 47, 83, 52, 152], "actions": ["left", "left", "left", "down", "right"], "actionTimes": [9576, 10170, 10807, 11402, 12088], "queries": {"click": {"state": {"target": ["31"], "time": [5124]}, "edge": {"target": [], "time": []}}, "mouseover": {"state": {"target": ["0", "23", "24", "31", "32"], "time": [2363, 4413, 4697, 4963, 6659]}, "edge": {"target": [], "time": []}}, "mouseout": {"state": {"target": ["6", "4", "7", "0", "23", "24", "31", "31"], "time": [53, 317, 502, 3389, 4612, 4764, 5167, 6441]}, "edge": {"target": [], "time": []}}}, "displayed_time": "16.31", "trialTime": 17362, "trial_type": "mouselab-mdp", "trial_index": 39, "time_elapsed": 2164456, "internal_node_id": "0.0-6.0-1.0-30.0"}}, {"uniqueid": "w80132647:a86447540", "current_trial": 40, "dateTime": 1693570604587, "trialdata": {"revealed_states": [], "clicked_states": ["20", "21", "22", "17", "16", "18", "7", "6"], "num_clicks_accrued": [0, 0, 0, 0, 0, 0, 0, 0, 0, 0, 0, 0, 0], "stateRewards": ["", -1, -3, -6, -2, -7, 80, -45, -3, -38, -72, 76, 2, 1, 7, 4, -62, 14, -74, 14, -87, -21, -88, -2, 1, -7, -10, 66, 56, -76, 10, -29, -72, -70], "withholdReward": false, "trial_id": "mdp_trial_32", "block": "test", "trialIndex": 33, "score": 50.8, "costs": -17.2, "simulationMode": [null, null, null, null, null], "rewards": [-1, -3, -6, -2, 80], "path": ["0", "0", "1", "2", "3", "4", "6"], "rt": [30126, 10, 1016, 131, 150], "actions": ["up", "up", "up", "right", "right"], "actionTimes": [32737, 33284, 34856, 35528, 36212], "queries": {"click": {"state": {"target": ["20", "21", "22", "17", "16", "18", "7", "6"], "time": [4048, 7340, 10622, 14287, 17580, 21026, 25119, 28399]}, "edge": {"target": [], "time": []}}, "mouseover": {"state": {"target": ["20", "22", "19", "20", "17", "21", "22", "15", "17", "16", "18", "7", "6", "5"], "time": [2861, 3260, 3413, 3780, 5074, 6520, 8051, 11361, 11924, 14949, 18388, 24851, 25866, 28930]}, "edge": {"target": [], "time": []}}, "mouseout": {"state": {"target": ["22", "22", "0", "0", "20", "22", "19", "20", "17", "21", "22", "15", "17", "16", "18", "7", "6"], "time": [224, 673, 726, 2671, 2957, 3299, 3547, 4802, 5990, 7743, 11033, 11659, 14507, 18168, 24424, 25533, 28699]}, "edge": {"target": [], "time": []}}}, "displayed_time": "36.76", "trialTime": 40583, "trial_type": "mouselab-mdp", "trial_index": 40, "time_elapsed": 2207083, "internal_node_id": "0.0-6.0-1.0-31.0"}}, {"uniqueid": "w80132647:a86447540", "current_trial": 41, "dateTime": 1693570637635, "trialdata": {"revealed_states": [], "clicked_states": ["17", "16", "18", "22", "21", "20"], "num_clicks_accrued": [0, 0, 0, 0, 0, 0, 0, 0, 0, 0, 0, 0, 0], "stateRewards": ["", 2, 4, -5, 7, 81, 35, 6, 11, 14, -72, 42, -1, 2, 3, -7, -77, -44, -40, -15, -85, 51, -32, -2, -1, -5, 7, -74, 47, 52, 16, -49, 48, -46], "withholdReward": false, "trial_id": "mdp_trial_33", "block": "test", "trialIndex": 34, "score": 27.1, "costs": -12.9, "simulationMode": [null, null, null, null, null], "rewards": [-1, 2, 3, -15, 51], "path": ["0", "0", "12", "13", "14", "19", "21"], "rt": [23090, 12, 15, 72, 42], "actions": ["right", "right", "right", "down", "down"], "actionTimes": [26784, 27345, 27913, 28537, 29140], "queries": {"click": {"state": {"target": ["17", "16", "18", "22", "21", "20"], "time": [5902, 9307, 12538, 15790, 19096, 22759]}, "edge": {"target": [], "time": []}}, "mouseover": {"state": {"target": ["0", "12", "13", "15", "17", "16", "18", "13", "22", "21", "20"], "time": [3890, 4966, 5348, 5488, 5688, 8283, 10404, 13110, 13343, 16350, 19937]}, "edge": {"target": [], "time": []}}, "mouseout": {"state": {"target": ["5", "1", "0", "0", "12", "13", "15", "17", "16", "18", "13", "22", "21", "20"], "time": [1955, 2097, 2434, 4126, 5268, 5416, 5587, 6067, 10147, 13055, 13205, 16231, 19268, 23256]}, "edge": {"target": [], "time": []}}}, "displayed_time": "29.69", "trialTime": 31068, "trial_type": "mouselab-mdp", "trial_index": 41, "time_elapsed": 2240132, "internal_node_id": "0.0-6.0-1.0-32.0"}}, {"uniqueid": "w80132647:a86447540", "current_trial": 42, "dateTime": 1693570664725, "trialdata": {"revealed_states": [], "clicked_states": ["31", "32", "33", "29"], "num_clicks_accrued": [0, 0, 0, 0, 0, 0, 0, 0, 0, 0, 0, 0, 0], "stateRewards": ["", 2, -1, 4, -9, -43, 7, 54, -13, 38, -40, -83, -1, 2, -8, -10, 34, -33, 11, -14, -79, 65, 26, 1, 2, 4, 10, 21, 1, 86, 4, -53, 28, -29], "withholdReward": false, "trial_id": "mdp_trial_34", "block": "test", "trialIndex": 35, "score": 94.4, "costs": -8.6, "simulationMode": [null, null, null, null, null], "rewards": [1, 2, 4, 10, 86], "path": ["0", "0", "23", "24", "25", "26", "29"], "rt": [16021, 384, 32, 83, 553], "actions": ["left", "left", "left", "up", "left"], "actionTimes": [18933, 19868, 20439, 21066, 22178], "queries": {"click": {"state": {"target": ["31", "32", "33", "29"], "time": [4399, 7718, 11179, 14507]}, "edge": {"target": [], "time": []}}, "mouseover": {"state": {"target": ["0", "31", "32", "33", "29", "27"], "time": [3706, 4143, 5569, 8589, 13873, 15938]}, "edge": {"target": [], "time": []}}, "mouseout": {"state": {"target": ["19", "22", "0", "0", "31", "32", "33", "29"], "time": [885, 967, 1540, 3742, 5159, 7884, 12797, 14551]}, "edge": {"target": [], "time": []}}}, "displayed_time": "22.76", "trialTime": 25349, "trial_type": "mouselab-mdp", "trial_index": 42, "time_elapsed": 2267222, "internal_node_id": "0.0-6.0-1.0-33.0"}}, {"uniqueid": "w80132647:a86447540", "current_trial": 43, "dateTime": 1693570721485, "trialdata": {"revealed_states": [], "clicked_states": ["22", "10", "11", "9"], "num_clicks_accrued": [0, 0, 0, 0, 0, 0, 0, 0, 0, 0, 0, 0, 0], "stateRewards": ["", -1, -3, -7, -4, -85, -70, 79, 8, 84, -66, 42, 2, -2, -3, -16, -54, -66, 68, -3, 21, -14, 7, -2, -1, -3, -8, 75, 80, 86, -7, -84, 73, -16], "withholdReward": false, "trial_id": "mdp_trial_35", "block": "test", "trialIndex": 36, "score": 72.4, "costs": -8.6, "simulationMode": [null, null, null, null, null], "rewards": [-1, -3, -7, 8, 84], "path": ["0", "0", "1", "2", "3", "8", "9"], "rt": [16368, 95, 112, 77, 107], "actions": ["up", "up", "up", "left", "up"], "actionTimes": [20939, 21613, 22278, 22917, 23583], "queries": {"click": {"state": {"target": ["22", "10", "11", "9"], "time": [6269, 9508, 12918, 16434]}, "edge": {"target": [], "time": []}}, "mouseover": {"state": {"target": ["12", "22", "13", "18", "7", "2", "10", "11", "9"], "time": [5499, 5980, 8451, 8519, 8753, 9026, 9240, 11521, 14139]}, "edge": {"target": [], "time": []}}, "mouseout": {"state": {"target": ["27", "12", "22", "13", "18", "7", "2", "10", "11", "9"], "time": [2706, 5761, 6331, 8504, 8570, 8974, 9116, 10872, 13756, 19988]}, "edge": {"target": [], "time": []}}}, "displayed_time": "24.17", "trialTime": 55126, "trial_type": "mouselab-mdp", "trial_index": 43, "time_elapsed": 2323981, "internal_node_id": "0.0-6.0-1.0-34.0"}}, {"uniqueid": "w80132647:a86447540", "current_trial": 44, "dateTime": 1693570783855, "trialdata": {"revealed_states": [], "clicked_states": ["22", "21", "20", "17"], "num_clicks_accrued": [0, 0, 0, 0, 0, 0, 0, 0, 0, 0, 0, 0, 0], "stateRewards": ["", 1, 1, -7, -9, -44, 24, -83, -15, 44, -24, 72, -2, -3, 4, -5, 57, 55, 29, -11, 22, 12, -25, -1, 2, 7, 12, 33, -8, 47, -4, 8, 50, -4], "withholdReward": false, "trial_id": "mdp_trial_36", "block": "test", "trialIndex": 37, "score": 40.4, "costs": -8.6, "simulationMode": [null, null, null, null, null], "rewards": [-2, -3, 4, -5, 55], "path": ["0", "0", "12", "13", "14", "15", "17"], "rt": [16622, 11, 731, 296, 100], "actions": ["right", "right", "right", "up", "right"], "actionTimes": [55096, 55638, 56917, 57759, 58396], "queries": {"click": {"state": {"target": ["22", "21", "20", "17"], "time": [39939, 43291, 46760, 50186]}, "edge": {"target": [], "time": []}}, "mouseover": {"state": {"target": ["0", "12", "13", "22", "21", "20", "17", "16", "16"], "time": [38553, 39291, 39411, 39683, 40806, 44085, 47583, 50646, 50954]}, "edge": {"target": [], "time": []}}, "mouseout": {"state": {"target": ["3", "2", "1", "0", "12", "13", "22", "21", "20", "17", "16"], "time": [35956, 36054, 36323, 39213, 39352, 39503, 40409, 43635, 47164, 50458, 50786]}, "edge": {"target": [], "time": []}}}, "displayed_time": "58.93", "trialTime": 60340, "trial_type": "mouselab-mdp", "trial_index": 44, "time_elapsed": 2386352, "internal_node_id": "0.0-6.0-1.0-35.0"}}, {"uniqueid": "w80132647:a86447540", "current_trial": 45, "dateTime": 1693570804349, "trialdata": {"revealed_states": [], "clicked_states": ["31", "32"], "num_clicks_accrued": [0, 0, 0, 0, 0, 0, 0, 0, 0, 0, 0, 0, 0], "stateRewards": ["", -2, -2, -7, -13, -10, 49, -68, -1, 84, 70, 88, 1, 4, 4, 12, -57, 25, 30, 8, -1, -77, 57, 2, 3, 2, 3, -18, -80, 23, -15, -41, 70, 11], "withholdReward": false, "trial_id": "mdp_trial_37", "block": "test", "trialIndex": 38, "score": 57.7, "costs": -4.3, "simulationMode": [null, null, null, null, null], "rewards": [2, 3, 2, -15, 70], "path": ["0", "0", "23", "24", "25", "30", "32"], "rt": [10285, 159, 682, 109, 176], "actions": ["left", "left", "left", "down", "down"], "actionTimes": [13372, 14092, 15332, 16003, 16715], "queries": {"click": {"state": {"target": ["31", "32"], "time": [4487, 8682]}, "edge": {"target": [], "time": []}}, "mouseover": {"state": {"target": ["30", "31", "32", "33"], "time": [3912, 4177, 5280, 9147]}, "edge": {"target": [], "time": []}}, "mouseout": {"state": {"target": ["16", "18", "1", "30", "31", "32"], "time": [1187, 1246, 1465, 4101, 4933, 9055]}, "edge": {"target": [], "time": []}}}, "displayed_time": "17.27", "trialTime": 18670, "trial_type": "mouselab-mdp", "trial_index": 45, "time_elapsed": 2406847, "internal_node_id": "0.0-6.0-1.0-36.0"}}, {"uniqueid": "w80132647:a86447540", "current_trial": 46, "dateTime": 1693570834122, "trialdata": {"revealed_states": [], "clicked_states": ["31", "10", "11", "9", "5"], "num_clicks_accrued": [0, 0, 0, 0, 0, 0, 0, 0, 0, 0, 0, 0, 0], "stateRewards": ["", 2, 3, -3, 4, 72, -28, 34, -12, 57, -64, -15, 2, 1, -4, -15, 2, 49, 31, -1, -42, -58, 31, -2, 1, -2, -13, -75, -19, -22, -6, 61, 10, -56], "withholdReward": false, "trial_id": "mdp_trial_38", "block": "test", "trialIndex": 39, "score": 67.25, "costs": -10.75, "simulationMode": [null, null, null, null, null], "rewards": [2, 3, -3, 4, 72], "path": ["0", "0", "1", "2", "3", "4", "5"], "rt": [19672, 114, 127, 37, 12], "actions": ["up", "up", "up", "right", "up"], "actionTimes": [23177, 23859, 24505, 25081, 25637], "queries": {"click": {"state": {"target": ["31", "10", "11", "9", "5"], "time": [5068, 8826, 12089, 15355, 18810]}, "edge": {"target": [], "time": []}}, "mouseover": {"state": {"target": ["31", "32", "24", "10", "11", "9", "5", "6"], "time": [4848, 5966, 6762, 7213, 10157, 12835, 16089, 19551]}, "edge": {"target": [], "time": []}}, "mouseout": {"state": {"target": ["33", "30", "31", "0", "31", "31", "32", "24", "10", "11", "9", "5"], "time": [1585, 1653, 1701, 2045, 5114, 5578, 6634, 6845, 8996, 12360, 15685, 19363]}, "edge": {"target": [], "time": []}}}, "displayed_time": "26.19", "trialTime": 27599, "trial_type": "mouselab-mdp", "trial_index": 46, "time_elapsed": 2436619, "internal_node_id": "0.0-6.0-1.0-37.0"}}, {"uniqueid": "w80132647:a86447540", "current_trial": 47, "dateTime": 1693570857643, "trialdata": {"revealed_states": [], "clicked_states": ["31"], "num_clicks_accrued": [0, 0, 0, 0, 0, 0, 0, 0, 0, 0, 0, 0, 0], "stateRewards": ["", 2, 3, -3, 12, -43, 81, -82, -15, 58, -7, -75, -1, -1, 3, -5, 50, -25, -8, 4, 66, 65, -66, 2, -4, 2, -1, -10, 10, 37, 11, 88, -37, 8], "withholdReward": false, "trial_id": "mdp_trial_39", "block": "test", "trialIndex": 40, "score": 96.85, "costs": -2.15, "simulationMode": [null, null, null, null, null], "rewards": [2, -4, 2, 11, 88], "path": ["0", "0", "23", "24", "25", "30", "31"], "rt": [6599, 13, 100, 286, 383], "actions": ["left", "left", "left", "down", "right"], "actionTimes": [10137, 10701, 11362, 12179, 13124], "queries": {"click": {"state": {"target": ["31"], "time": [5793]}, "edge": {"target": [], "time": []}}, "mouseover": {"state": {"target": ["0", "23", "24", "31", "30"], "time": [3591, 4806, 5193, 5531, 8479]}, "edge": {"target": [], "time": []}}, "mouseout": {"state": {"target": ["6", "1", "0", "23", "24", "31", "31", "30"], "time": [1661, 1959, 4708, 5110, 5346, 5932, 7032, 8781]}, "edge": {"target": [], "time": []}}}, "displayed_time": "17.54", "trialTime": 21709, "trial_type": "mouselab-mdp", "trial_index": 47, "time_elapsed": 2460140, "internal_node_id": "0.0-6.0-1.0-38.0"}}, {"uniqueid": "w80132647:a86447540", "current_trial": 48, "dateTime": 1693570881238, "trialdata": {"revealed_states": [], "clicked_states": ["22"], "num_clicks_accrued": [0, 0, 0, 0, 0, 0, 0, 0, 0, 0, 0, 0, 0], "stateRewards": ["", 2, -2, -3, 10, -4, -1, -11, -8, -9, -36, -78, 2, 1, 7, -7, 44, -1, -31, -1, 26, 47, 83, 2, -4, -4, -6, -52, -76, -81, -1, -59, 45, 67], "withholdReward": false, "trial_id": "mdp_trial_40", "block": "test", "trialIndex": 41, "score": 89.85, "costs": -2.15, "simulationMode": [null, null, null, null, null], "rewards": [2, 1, 7, -1, 83], "path": ["0", "0", "12", "13", "14", "19", "22"], "rt": [5917, 64, 24, 143, 115], "actions": ["right", "right", "right", "down", "left"], "actionTimes": [12321, 12938, 13536, 14242, 14907], "queries": {"click": {"state": {"target": ["22"], "time": [8038]}, "edge": {"target": [], "time": []}}, "mouseover": {"state": {"target": ["0", "22", "21"], "time": [6472, 7751, 8807]}, "edge": {"target": [], "time": []}}, "mouseout": {"state": {"target": ["0", "22"], "time": [7360, 8572]}, "edge": {"target": [], "time": []}}}, "displayed_time": "20.41", "trialTime": 21778, "trial_type": "mouselab-mdp", "trial_index": 48, "time_elapsed": 2483735, "internal_node_id": "0.0-6.0-1.0-39.0"}}, {"uniqueid": "w80132647:a86447540", "current_trial": 49, "dateTime": 1693570956076, "trialdata": {"rt": 74716, "response": {"Q0": "$-2 to $2", "Q1": "$-32 to $32", "Q2": "$-88 to $88", "Q3": "The cost for clicking on nodes varied between nodes.", "Q4": "Slightly motivated"}, "question_order": [0, 1, 2, 3, 4], "trial_id": "final_quiz_control", "trial_type": "survey-multi-choice", "trial_index": 49, "time_elapsed": 2558574, "internal_node_id": "0.0-6.0-2.0"}}, {"uniqueid": "w80132647:a86447540", "current_trial": 50, "dateTime": 1693571170366, "trialdata": {"rt": 213776, "response": {"Q0": "after realizing that the inspecter charged me more every time i inspected a node i switched to only inspecting the last nodes ", "Q1": "By only inspecting the last nodes", "Q2": "I didn't find it difficult at all"}, "trial_id": "self_report_control", "trial_type": "survey-text", "trial_index": 50, "time_elapsed": 2772864, "internal_node_id": "0.0-6.0-3.0"}}, {"uniqueid": "w80132647:a86447540", "current_trial": 51, "dateTime": 1693571281176, "trialdata": {"rt": 110778, "response": {"Q0": "Neither disagree nor agree", "Q1": "Disagree", "Q2": "Agree", "Q3": "Agree", "Q4": "Disagree", "Q5": "Agree", "Q6": "Disagree"}, "question_order": [0, 1, 2, 3, 4, 5, 6], "trial_id": "self_report_2", "trial_type": "survey-multi-choice", "trial_index": 51, "time_elapsed": 2883675, "internal_node_id": "0.0-6.0-4.0"}}, {"uniqueid": "w80132647:a86447540", "current_trial": 52, "dateTime": 1693571321773, "trialdata": {"rt": 40359, "response": {"gender": "male", "age": "26", "colorblind": "0", "effort": "0"}, "trial_type": "survey-html-form", "trial_index": 52, "time_elapsed": 2924272, "internal_node_id": "0.0-6.0-5.0"}}, {"uniqueid": "w80132647:a86447540", "current_trial": 53, "dateTime": 1693571442791, "trialdata": {"rt": 120985, "response": {"Q0": "Nothing was confusing to me", "Q1": "I have never played this kind of a game", "Q2": ""}, "trial_type": "survey-text", "trial_index": 53, "time_elapsed": 3045290, "internal_node_id": "0.0-6.0-6.0"}}, {"uniqueid": "w80132647:a86447540", "current_trial": 54, "dateTime": 1693571506335, "trialdata": {"rt": 63404, "stimulus": "<h1>Completion Code Instructions (1/2)</h1>\n<br><br><br><br>\nYou have reached the end of the experiment! The completion code consists of two parts: (1) a code with 2 characters (2) a code with 6 characters. On this page, you will receive the second part of the code. The first part of the completion code will be on the next page.\n<br><br>\nThe second part of your completion code is: <b>EWEK22</b>\n<br><br>\nPlease note this down. Then, press 'Finish HIT' in order to find the first part of your completion code. Once the data has been saved, you will receive this code either in this window or in the original browser window where you started the experiment.\n", "response": 0, "trial_type": "html-button-response", "trial_index": 54, "time_elapsed": 3108834, "internal_node_id": "0.0-6.0-7.0"}}, {"uniqueid": "w80132647:a86447540", "current_trial": 55, "dateTime": 1693571507733, "trialdata": {"success": true, "trial_type": "fullscreen", "trial_index": 55, "time_elapsed": 3110232, "internal_node_id": "0.0-7.0"}}], "questiondata": {"params": {"CODE": "C6DMOQA6", "MIN_TIME": 14, "inspectCost": 1, "startTime": "Fri Sep 01 2023 12:39:55 GMT+0100 (British Summer Time)", "bonusRate": 0.002, "variance": "1_2_4_8_44", "branching": "31123"}, "final_score": 2015}, "eventdata": [{"eventtype": "initialized", "value": null, "timestamp": 1693568394716, "interval": 0}, {"eventtype": "window_resize", "value": [1024, 694], "timestamp": 1693568394717, "interval": 1}, {"eventtype": "window_resize", "value": [1024, 694], "timestamp": 1693568395250, "interval": 533}, {"eventtype": "window_resize", "value": [1366, 708], "timestamp": 1693568402451, "interval": 7201}, {"eventtype": "window_resize", "value": [1366, 768], "timestamp": 1693568406910, "interval": 4459}], "useragent": "Mozilla/5.0 (Windows NT 10.0; Win64; x64) AppleWebKit/537.36 (KHTML, like Gecko) Chrome/116.0.0.0 Safari/537.36", "mode": "live", "id": "w80132647:a86447540", "status": "user data saved", "Beginhit": "2023-09-01 10:39:25.475446", "Beginexp": "2023-09-01 10:39:42.8586", "Endhit": "2023-09-01 11:31:24.369032", "psiturkStatus": 3, "browser": "<redacted>", "platform": "windows", "language": "en-ZA"}