{"condition": 1, "counterbalance": 0, "assignmentId": "a17873500", "workerId": "w44568430", "hitId": "h99946395", "currenttrial": 62, "bonus": 0, "data": [{"uniqueid": "w44568430:a17873500", "current_trial": 0, "dateTime": 1691159453877, "trialdata": {"success": true, "trial_type": "fullscreen", "trial_index": 0, "time_elapsed": 4851, "internal_node_id": "0.0-0.0"}}, {"uniqueid": "w44568430:a17873500", "current_trial": 1, "dateTime": 1691159484425, "trialdata": {"view_history": [{"page_index": 0, "viewing_time": 30537}], "rt": 30540, "trial_id": "exp_instructions_misaligned", "trial_type": "instructions", "trial_index": 1, "time_elapsed": 35400, "internal_node_id": "0.0-1.0"}}, {"uniqueid": "w44568430:a17873500", "current_trial": 2, "dateTime": 1691159490271, "trialdata": {"success": true, "trial_type": "fullscreen", "trial_index": 2, "time_elapsed": 41246, "internal_node_id": "0.0-2.0-0.0"}}, {"uniqueid": "w44568430:a17873500", "current_trial": 3, "dateTime": 1691159873969, "trialdata": {"view_history": [{"page_index": 0, "viewing_time": 117333}, {"page_index": 1, "viewing_time": 174668}, {"page_index": 2, "viewing_time": 33293}, {"page_index": 3, "viewing_time": 58400}], "rt": 383694, "trial_id": "mouselab_instructions_1_misaligned", "trial_type": "instructions", "trial_index": 3, "time_elapsed": 424944, "internal_node_id": "0.0-2.0-1.0"}}, {"uniqueid": "w44568430:a17873500", "current_trial": 4, "dateTime": 1691159940366, "trialdata": {"revealed_states": [], "clicked_states": ["12", "15", "19", "24", "30", "1", "3", "2", "4", "14", "13", "23", "25", "26", "10", "8", "11", "9"], "num_clicks_accrued": [0, 0, 0, 0, 0, 0, 0, 0, 0, 0, 0, 0, 0], "stateRewards": ["", 10, 10, -10, -10, -10, 10, -10, 10, 10, 10, 10, -10, -10, -10, 10, -10, -10, -10, 10, -10, -10, -10, -10, -10, -10, -10, 10, -10, 10, -10, 10, -10, -10], "withholdReward": false, "trial_id": "practice_1", "block": "test", "trialIndex": 0, "score": 24.5, "costs": -9, "simulationMode": [null, null, null, null, null], "rewards": [10, 10, -10, 10, 10], "path": ["0", "0", "1", "2", "3", "8", "10"], "rt": [41731, 1498, 1106, 1068, 3396], "actions": ["up", "up", "up", "left", "down"], "actionTimes": [48321, 50316, 51922, 53500, 57392], "queries": {"click": {"state": {"target": ["12", "15", "19", "24", "30", "1", "3", "2", "4", "14", "13", "23", "25", "26", "10", "8", "11", "9"], "time": [9744, 10807, 12985, 14419, 15525, 17125, 19582, 20823, 23214, 24605, 25926, 28202, 30029, 31420, 33736, 35934, 37226, 38883]}, "edge": {"target": [], "time": []}}, "mouseover": {"state": {"target": ["12", "12", "18", "15", "14", "19", "22", "31", "24", "30", "23", "1", "2", "7", "3", "2", "7", "4", "7", "18", "14", "13", "13", "12", "24", "23", "24", "25", "26", "10", "2", "8", "11", "9", "3", "2", "3", "2", "1"], "time": [9071, 9402, 10234, 10386, 11299, 12697, 13532, 13630, 13979, 15011, 16076, 16844, 17726, 18672, 19287, 20087, 21436, 22849, 23785, 23835, 24182, 25064, 25631, 26415, 26845, 27827, 29226, 29657, 31023, 33253, 34900, 35465, 36831, 38395, 39897, 43372, 44603, 45886, 46984]}, "edge": {"target": [], "time": []}}, "mouseout": {"state": {"target": ["0", "12", "12", "18", "15", "14", "19", "22", "31", "24", "30", "24", "23", "1", "2", "7", "3", "2", "7", "4", "7", "18", "14", "13", "13", "12", "24", "23", "24", "25", "26", "10", "2", "8", "11", "9", "3", "2", "3", "2", "1"], "time": [9069, 9085, 10186, 10267, 11249, 12564, 13530, 13546, 13814, 14927, 15959, 16044, 16260, 17524, 18638, 19021, 19988, 21031, 22536, 23767, 23801, 23883, 25048, 25114, 26412, 26430, 27781, 29175, 29440, 30956, 32272, 34884, 35050, 36154, 37948, 39544, 43206, 44554, 45754, 46834, 47034]}, "edge": {"target": [], "time": []}}}, "displayed_time": "57.91", "trialTime": 65354, "trial_type": "mouselab-mdp", "trial_index": 4, "time_elapsed": 491339, "internal_node_id": "0.0-2.0-2.0-0.0"}}, {"uniqueid": "w44568430:a17873500", "current_trial": 5, "dateTime": 1691159990722, "trialdata": {"revealed_states": [], "clicked_states": ["12", "18", "2", "3", "4", "7", "8", "11", "9", "10", "30", "25", "31", "32", "33", "24", "23", "1"], "num_clicks_accrued": [0, 0, 0, 0, 0, 0, 0, 0, 0, 0, 0, 0, 0], "stateRewards": ["", -10, 10, 10, -10, -10, -10, -10, 10, 10, -10, 10, -10, 10, 10, 10, 10, 10, -10, -10, -10, 10, -10, -10, 10, 10, 10, 10, 10, -10, 10, -10, 10, -10], "withholdReward": false, "trial_id": "practice_2", "block": "test", "trialIndex": 1, "score": 24.5, "costs": -9, "simulationMode": [null, null, null, null, null], "rewards": [-10, 10, 10, 10, 10], "path": ["0", "0", "23", "24", "25", "30", "32"], "rt": [38885, 495, 259, 1338, 332], "actions": ["left", "left", "left", "down", "down"], "actionTimes": [41005, 42007, 42772, 44613, 45451], "queries": {"click": {"state": {"target": ["12", "18", "2", "3", "4", "7", "8", "11", "9", "10", "30", "25", "31", "32", "33", "24", "23", "1"], "time": [5453, 6481, 7639, 9944, 11240, 12611, 14668, 15990, 17437, 18945, 20507, 22197, 23635, 27117, 29313, 31741, 33136, 36094]}, "edge": {"target": [], "time": []}}, "mouseover": {"state": {"target": ["12", "0", "12", "13", "18", "7", "2", "8", "2", "4", "3", "4", "4", "7", "8", "11", "9", "9", "10", "28", "25", "30", "25", "31", "32", "33", "24", "23", "0", "12", "1", "2", "1"], "time": [3440, 5058, 5154, 5921, 6053, 6919, 6939, 6969, 7318, 8118, 9531, 10450, 10881, 11847, 13232, 15358, 16573, 16872, 18458, 19746, 19824, 20167, 21267, 22880, 26325, 28956, 31436, 32186, 35279, 35330, 35729, 36863, 40106]}, "edge": {"target": [], "time": []}}, "mouseout": {"state": {"target": ["12", "0", "12", "13", "18", "7", "2", "8", "2", "4", "3", "4", "4", "7", "8", "11", "9", "9", "9", "8", "10", "28", "25", "30", "25", "31", "32", "33", "24", "23", "0", "12", "1", "2", "1"], "time": [4105, 5075, 5887, 5987, 6903, 6936, 6952, 7185, 8002, 9500, 10419, 10581, 11779, 12911, 15224, 16490, 16624, 17648, 17937, 18038, 19725, 19764, 19853, 21150, 22781, 26259, 28756, 30054, 32068, 35247, 35297, 35529, 36729, 40090, 40157]}, "edge": {"target": [], "time": []}}}, "displayed_time": "45.95", "trialTime": 50148, "trial_type": "mouselab-mdp", "trial_index": 5, "time_elapsed": 541695, "internal_node_id": "0.0-2.0-2.0-1.0"}}, {"uniqueid": "w44568430:a17873500", "current_trial": 6, "dateTime": 1691160069431, "trialdata": {"view_history": [{"page_index": 0, "viewing_time": 60279}, {"page_index": 1, "viewing_time": 18422}], "rt": 78702, "trial_id": "mouselab_instructions_2_misaligned", "trial_type": "instructions", "trial_index": 6, "time_elapsed": 620406, "internal_node_id": "0.0-2.0-3.0"}}, {"uniqueid": "w44568430:a17873500", "current_trial": 7, "dateTime": 1691160119501, "trialdata": {"rt": 50063, "response": {"Q0": "The cost for clicking on nodes may vary between nodes.", "Q1": "The better I perform the higher my bonus will be.", "Q2": "No, the amount of cash at each node of the web may be different each time.", "Q3": "To get the highest total score.", "Q4": "Any time during the round.", "Q5": "3 seconds"}, "question_order": [0, 1, 2, 3, 4, 5], "correct": {"Q0": "The cost for clicking on nodes may vary between nodes.", "Q1": "The better I perform the higher my bonus will be.", "Q2": "No, the amount of cash at each node of the web may be different each time.", "Q3": "To get the highest total score.", "Q4": "Only before moving the spider.", "Q5": "3 seconds"}, "trial_id": "mouselab_quiz_misaligned", "trial_type": "survey-multi-choice", "trial_index": 7, "time_elapsed": 670475, "internal_node_id": "0.0-2.0-4.0"}}, {"uniqueid": "w44568430:a17873500", "current_trial": 8, "dateTime": 1691160133708, "trialdata": {"success": true, "trial_type": "fullscreen", "trial_index": 8, "time_elapsed": 684683, "internal_node_id": "0.0-2.1-0.1"}}, {"uniqueid": "w44568430:a17873500", "current_trial": 9, "dateTime": 1691160433030, "trialdata": {"view_history": [{"page_index": 0, "viewing_time": 75188}, {"page_index": 1, "viewing_time": 136474}, {"page_index": 2, "viewing_time": 47407}, {"page_index": 3, "viewing_time": 40246}], "rt": 299316, "trial_id": "mouselab_instructions_1_misaligned", "trial_type": "instructions", "trial_index": 9, "time_elapsed": 984005, "internal_node_id": "0.0-2.1-1.1"}}, {"uniqueid": "w44568430:a17873500", "current_trial": 10, "dateTime": 1691160464485, "trialdata": {"revealed_states": [], "clicked_states": ["12", "22", "23", "1", "2", "3", "8", "10"], "num_clicks_accrued": [0, 0, 0, 0, 0, 0, 0, 0, 0, 0, 0, 0, 0], "stateRewards": ["", 10, 10, -10, -10, -10, 10, -10, 10, 10, 10, 10, -10, -10, -10, 10, -10, -10, -10, 10, -10, -10, -10, -10, -10, -10, -10, 10, -10, 10, -10, 10, -10, -10], "withholdReward": false, "trial_id": "practice_1", "block": "test", "trialIndex": 2, "score": 29.5, "costs": -4, "simulationMode": [null, null, null, null, null], "rewards": [10, 10, -10, 10, 10], "path": ["0", "0", "1", "2", "3", "8", "10"], "rt": [20882, 246, 79, 79, 740], "actions": ["up", "up", "up", "left", "down"], "actionTimes": [23380, 24141, 24739, 25340, 26600], "queries": {"click": {"state": {"target": ["12", "22", "23", "1", "2", "3", "8", "10"], "time": [5866, 7019, 8553, 9855, 12405, 13653, 17645, 18871]}, "edge": {"target": [], "time": []}}, "mouseover": {"state": {"target": ["0", "12", "13", "22", "0", "23", "1", "2", "3", "8", "8", "4", "8", "10", "2", "7", "16", "1", "0", "0", "1"], "time": [4702, 5117, 6515, 6697, 7430, 7613, 9211, 12073, 12956, 14221, 15768, 16101, 17283, 18166, 20578, 20611, 20791, 21311, 21394, 21610, 21743]}, "edge": {"target": [], "time": []}}, "mouseout": {"state": {"target": ["0", "0", "12", "13", "22", "0", "23", "1", "23", "2", "3", "8", "8", "4", "3", "8", "10", "2", "7", "16", "1", "0", "0", "1"], "time": [1770, 4749, 6398, 6630, 7382, 7463, 9028, 10792, 11424, 12611, 13874, 15557, 15934, 16883, 16951, 18116, 20545, 20594, 20644, 20895, 21345, 21410, 21643, 21859]}, "edge": {"target": [], "time": []}}}, "displayed_time": "27.11", "trialTime": 31193, "trial_type": "mouselab-mdp", "trial_index": 10, "time_elapsed": 1015458, "internal_node_id": "0.0-2.1-2.1-0.1"}}, {"uniqueid": "w44568430:a17873500", "current_trial": 11, "dateTime": 1691160484531, "trialdata": {"revealed_states": [], "clicked_states": ["23", "12", "1", "24", "13", "2", "30", "32"], "num_clicks_accrued": [0, 0, 0, 0, 0, 0, 0, 0, 0, 0, 0, 0, 0], "stateRewards": ["", -10, 10, 10, -10, -10, -10, -10, 10, 10, -10, 10, -10, 10, 10, 10, 10, 10, -10, -10, -10, 10, -10, -10, 10, 10, 10, 10, 10, -10, 10, -10, 10, -10], "withholdReward": false, "trial_id": "practice_2", "block": "test", "trialIndex": 3, "score": 29.5, "costs": -4, "simulationMode": [null, null, null, null, null], "rewards": [-10, 10, 10, 10, 10], "path": ["0", "0", "23", "24", "25", "30", "32"], "rt": [13071, 258, 369, 579, 102], "actions": ["left", "left", "left", "down", "down"], "actionTimes": [14509, 15290, 16166, 17258, 17878], "queries": {"click": {"state": {"target": ["23", "12", "1", "24", "13", "2", "30", "32"], "time": [2111, 3746, 5518, 7482, 8641, 9803, 11451, 12804]}, "edge": {"target": [], "time": []}}, "mouseover": {"state": {"target": ["23", "12", "1", "13", "13", "0", "23", "24", "23", "0", "12", "13", "2", "28", "25", "30", "32", "32", "24", "23"], "time": [1845, 2594, 4242, 6009, 6323, 6473, 6589, 7204, 7854, 7889, 7974, 8305, 9452, 10520, 10600, 11182, 11983, 12282, 13314, 13480]}, "edge": {"target": [], "time": []}}, "mouseout": {"state": {"target": ["1", "23", "12", "1", "13", "13", "12", "0", "23", "24", "23", "0", "12", "13", "2", "28", "25", "30", "32", "32", "24"], "time": [712, 2313, 3964, 5958, 6090, 6389, 6439, 6532, 7020, 7837, 7876, 7905, 8024, 9152, 10467, 10551, 10949, 11948, 12068, 13230, 13401]}, "edge": {"target": [], "time": []}}}, "displayed_time": "18.41", "trialTime": 19807, "trial_type": "mouselab-mdp", "trial_index": 11, "time_elapsed": 1035505, "internal_node_id": "0.0-2.1-2.1-1.1"}}, {"uniqueid": "w44568430:a17873500", "current_trial": 12, "dateTime": 1691160570577, "trialdata": {"view_history": [{"page_index": 0, "viewing_time": 83041}, {"page_index": 1, "viewing_time": 2997}], "rt": 86039, "trial_id": "mouselab_instructions_2_misaligned", "trial_type": "instructions", "trial_index": 12, "time_elapsed": 1121552, "internal_node_id": "0.0-2.1-3.1"}}, {"uniqueid": "w44568430:a17873500", "current_trial": 13, "dateTime": 1691160624433, "trialdata": {"rt": 53846, "response": {"Q0": "The cost for clicking on nodes may vary between nodes.", "Q1": "The better I perform the higher my bonus will be.", "Q2": "No, the amount of cash at each node of the web may be different each time.", "Q3": "To get the highest total score.", "Q4": "Only before moving the spider.", "Q5": "3 seconds"}, "question_order": [0, 1, 2, 3, 4, 5], "correct": {"Q0": "The cost for clicking on nodes may vary between nodes.", "Q1": "The better I perform the higher my bonus will be.", "Q2": "No, the amount of cash at each node of the web may be different each time.", "Q3": "To get the highest total score.", "Q4": "Only before moving the spider.", "Q5": "3 seconds"}, "trial_id": "mouselab_quiz_misaligned", "trial_type": "survey-multi-choice", "trial_index": 13, "time_elapsed": 1175408, "internal_node_id": "0.0-2.1-4.1"}}, {"uniqueid": "w44568430:a17873500", "current_trial": 14, "dateTime": 1691160665548, "trialdata": {"rt": 41095, "stimulus": "\n<h1> Get ready to start the game! </h1>\n\nThank you for reading the instructions. Get ready start with the 40 rounds of this game.\n<br><br>\nIf you need to take a break, feel free to take one after the end of a round, before continuing to the next one.\n<br><br>\nRemember, the more money the spider gets, the bigger your bonus will be!\n<br><br>\n<div style='text-align: center;'>Press <code>space</code> to begin.</div>\n\n<br><br>\n(If, at any point, the <code>space</code> key does not take you to the next page, click once on the text and try again.)", "response": " ", "trial_id": "mdp_ready", "trial_type": "html-keyboard-response", "trial_index": 14, "time_elapsed": 1216523, "internal_node_id": "0.0-4.0-0.0"}}, {"uniqueid": "w44568430:a17873500", "current_trial": 15, "dateTime": 1691160701890, "trialdata": {"revealed_states": [], "clicked_states": ["1", "23", "12", "25", "13", "2", "19", "30", "27", "10", "3"], "num_clicks_accrued": [0, 0, 0, 0, 0, 0, 0, 0, 0, 0, 0, 0, 0], "stateRewards": ["", 2, -3, 5, -14, -63, -9, -24, -11, -54, -43, 68, 2, -2, -4, 7, -64, 30, 47, 12, -74, 11, 86, 1, -3, 3, 10, -71, -42, -52, -1, -29, -16, 69], "withholdReward": false, "trial_id": "mdp_trial_1", "block": "test", "trialIndex": 4, "score": -43.25, "costs": -9.25, "simulationMode": [null, null, null, null, null], "rewards": [2, -3, 5, -14, -24], "path": ["0", "0", "1", "2", "3", "4", "7"], "rt": [25224, 233, 282, 955, 200], "actions": ["up", "up", "up", "right", "down"], "actionTimes": [28313, 29070, 29865, 31340, 32048], "queries": {"click": {"state": {"target": ["1", "23", "12", "25", "13", "2", "19", "30", "27", "10", "3"], "time": [3923, 4788, 5832, 6943, 8418, 9625, 11080, 12261, 13786, 16801, 20205]}, "edge": {"target": [], "time": []}}, "mouseover": {"state": {"target": ["1", "23", "0", "12", "0", "24", "25", "24", "13", "1", "2", "0", "22", "19", "22", "31", "30", "33", "33", "30", "25", "26", "27", "28", "2", "10", "2", "7", "3", "2", "4", "1", "0"], "time": [3649, 4398, 5198, 5582, 6265, 6396, 6662, 7543, 8126, 9092, 9277, 10374, 10490, 10757, 11491, 11539, 11559, 11639, 11839, 11971, 13103, 13271, 13435, 14268, 14441, 14835, 17264, 17398, 17831, 21011, 23256, 27299, 27371]}, "edge": {"target": [], "time": []}}, "mouseout": {"state": {"target": ["12", "0", "1", "23", "0", "12", "0", "23", "24", "25", "25", "24", "13", "1", "2", "2", "0", "22", "19", "22", "31", "30", "33", "33", "30", "30", "25", "26", "27", "28", "2", "10", "2", "7", "3", "2", "4", "1", "0"], "time": [1651, 3416, 4331, 5164, 5231, 6263, 6297, 6346, 6595, 7158, 7510, 7560, 8925, 9125, 9831, 10174, 10391, 10590, 11489, 11512, 11556, 11572, 11789, 11873, 12464, 12953, 13203, 13368, 14202, 14302, 14512, 17248, 17348, 17514, 20926, 22942, 27217, 27333, 27384]}, "edge": {"target": [], "time": []}}}, "displayed_time": "32.56", "trialTime": 36079, "trial_type": "mouselab-mdp", "trial_index": 15, "time_elapsed": 1252863, "internal_node_id": "0.0-4.0-1.0-0.0"}}, {"uniqueid": "w44568430:a17873500", "current_trial": 16, "dateTime": 1691160746859, "trialdata": {"revealed_states": [], "clicked_states": ["12", "14", "22", "28", "26", "25", "24"], "num_clicks_accrued": [0, 0, 0, 0, 0, 0, 0, 0, 0, 0, 0, 0, 0], "stateRewards": ["", 2, -2, -8, 9, -20, 55, -58, 14, 42, 2, 36, 1, -3, -5, 5, -58, 57, 60, 16, 57, 30, -70, -2, 1, 3, 10, 59, 23, 77, -13, -26, 88, -72], "withholdReward": false, "trial_id": "mdp_trial_2", "block": "test", "trialIndex": 5, "score": 27.15, "costs": -7.85, "simulationMode": [null, null, null, null, null], "rewards": [-2, 1, 3, 10, 23], "path": ["0", "0", "23", "24", "25", "26", "28"], "rt": [17818, 205, 94, 703, 309], "actions": ["left", "left", "left", "up", "right"], "actionTimes": [23497, 24214, 24819, 26042, 26865], "queries": {"click": {"state": {"target": ["12", "14", "22", "28", "26", "25", "24"], "time": [6524, 7518, 8609, 13358, 17893, 19079, 20333]}, "edge": {"target": [], "time": []}}, "mouseover": {"state": {"target": ["12", "13", "14", "22", "21", "19", "13", "12", "23", "24", "28", "25", "30", "25", "26", "25", "24", "24", "23", "0", "0"], "time": [6212, 6897, 7231, 8276, 9325, 11886, 12136, 12186, 12603, 12735, 12952, 14251, 16864, 17229, 17248, 18545, 19661, 20026, 20742, 20860, 21242]}, "edge": {"target": [], "time": []}}, "mouseout": {"state": {"target": ["0", "0", "12", "13", "14", "22", "21", "19", "13", "12", "23", "24", "28", "25", "30", "25", "26", "25", "24", "24", "23", "0", "0"], "time": [4630, 6145, 6894, 6928, 8110, 9041, 11854, 12037, 12169, 12203, 12636, 12769, 13885, 16747, 17214, 17246, 18478, 19644, 19711, 20727, 20792, 20959, 22356]}, "edge": {"target": [], "time": []}}}, "displayed_time": "27.39", "trialTime": 44746, "trial_type": "mouselab-mdp", "trial_index": 16, "time_elapsed": 1297832, "internal_node_id": "0.0-4.0-1.0-1.0"}}, {"uniqueid": "w44568430:a17873500", "current_trial": 17, "dateTime": 1691160773650, "trialdata": {"revealed_states": [], "clicked_states": ["1", "24", "7", "3", "2"], "num_clicks_accrued": [0, 0, 0, 0, 0, 0, 0, 0, 0, 0, 0, 0, 0], "stateRewards": ["", 1, 3, 3, -10, 52, 68, 59, 12, 7, 49, 21, -2, -3, -4, -2, -2, 63, 63, -4, 44, 43, -76, -2, -3, -6, 13, 48, 36, 12, -5, -36, -33, -11], "withholdReward": false, "trial_id": "mdp_trial_3", "block": "test", "trialIndex": 6, "score": 52.45, "costs": -3.5500000000000003, "simulationMode": [null, null, null, null, null], "rewards": [1, 3, 3, -10, 59], "path": ["0", "0", "1", "2", "3", "4", "7"], "rt": [11014, 110, 27, 486, 126], "actions": ["up", "up", "up", "right", "down"], "actionTimes": [12194, 12827, 13378, 14401, 15039], "queries": {"click": {"state": {"target": ["1", "24", "7", "3", "2"], "time": [1938, 2754, 3982, 8530, 9599]}, "edge": {"target": [], "time": []}}, "mouseover": {"state": {"target": ["1", "24", "2", "2", "7", "2", "10", "2", "4", "3", "2", "4"], "time": [1662, 2361, 3178, 3477, 3692, 4341, 4610, 7536, 7819, 8219, 9285, 9984]}, "edge": {"target": [], "time": []}}, "mouseout": {"state": {"target": ["0", "1", "24", "2", "2", "7", "2", "10", "2", "4", "3", "2", "4"], "time": [1536, 2228, 2971, 3243, 3610, 4325, 4408, 7520, 7653, 8152, 9185, 9933, 11198]}, "edge": {"target": [], "time": []}}}, "displayed_time": "15.55", "trialTime": 26524, "trial_type": "mouselab-mdp", "trial_index": 17, "time_elapsed": 1324623, "internal_node_id": "0.0-4.0-1.0-2.0"}}, {"uniqueid": "w44568430:a17873500", "current_trial": 18, "dateTime": 1691160799132, "trialdata": {"revealed_states": [], "clicked_states": ["12", "18", "7", "10", "24", "8"], "num_clicks_accrued": [0, 0, 0, 0, 0, 0, 0, 0, 0, 0, 0, 0, 0], "stateRewards": ["", 1, -4, -6, -1, -21, 17, -72, 10, 77, 67, -46, -1, 4, -2, 14, -66, -49, -45, -15, -52, 23, -67, 2, -2, -2, 15, -3, 45, -64, 5, -44, 83, 61], "withholdReward": false, "trial_id": "mdp_trial_4", "block": "test", "trialIndex": 7, "score": 59.9, "costs": -8.1, "simulationMode": [null, null, null, null, null], "rewards": [1, -4, -6, 10, 67], "path": ["0", "0", "1", "2", "3", "8", "10"], "rt": [14777, 100, 34, 71, 171], "actions": ["up", "up", "up", "left", "down"], "actionTimes": [16577, 17191, 17741, 18342, 19026], "queries": {"click": {"state": {"target": ["12", "18", "7", "10", "24", "8"], "time": [3588, 4330, 7140, 10163, 13167, 14478]}, "edge": {"target": [], "time": []}}, "mouseover": {"state": {"target": ["0", "12", "0", "12", "18", "7", "2", "10", "23", "24", "4", "3", "8", "3", "2", "1"], "time": [2157, 2256, 2939, 3288, 3956, 5037, 7617, 8000, 10813, 11046, 13742, 13893, 14192, 15042, 15323, 15440]}, "edge": {"target": [], "time": []}}, "mouseout": {"state": {"target": ["1", "0", "12", "0", "12", "18", "7", "2", "10", "10", "23", "24", "4", "3", "8", "3", "2"], "time": [1008, 2190, 2872, 3255, 3923, 4547, 7583, 7901, 10386, 10663, 10879, 13592, 13860, 13944, 15008, 15256, 15407]}, "edge": {"target": [], "time": []}}}, "displayed_time": "19.54", "trialTime": 25208, "trial_type": "mouselab-mdp", "trial_index": 18, "time_elapsed": 1350105, "internal_node_id": "0.0-4.0-1.0-3.0"}}, {"uniqueid": "w44568430:a17873500", "current_trial": 19, "dateTime": 1691160837878, "trialdata": {"revealed_states": [], "clicked_states": ["24", "30", "26", "3", "10", "6", "22", "31"], "num_clicks_accrued": [0, 0, 0, 0, 0, 0, 0, 0, 0, 0, 0, 0, 0], "stateRewards": ["", -1, 2, 6, 11, 21, -21, -21, -6, 48, -71, 88, -1, -3, 3, 7, 64, 2, 9, -4, 37, -67, 72, 2, 2, -8, -8, -10, 71, -40, -3, 73, 80, 47], "withholdReward": false, "trial_id": "mdp_trial_5", "block": "test", "trialIndex": 8, "score": 54, "costs": -13.000000000000002, "simulationMode": [null, null, null, null, null], "rewards": [-1, -3, 3, -4, 72], "path": ["0", "0", "12", "13", "14", "19", "22"], "rt": [19948, 608, 251, 84, 602], "actions": ["right", "right", "right", "down", "left"], "actionTimes": [21732, 22863, 23619, 24220, 25338], "queries": {"click": {"state": {"target": ["24", "30", "26", "3", "10", "6", "22", "31"], "time": [2658, 3603, 4591, 5730, 6707, 10391, 13862, 17011]}, "edge": {"target": [], "time": []}}, "mouseover": {"state": {"target": ["23", "24", "30", "25", "26", "10", "4", "3", "10", "10", "2", "7", "4", "5", "4", "6", "6", "18", "13", "13", "13", "22", "31", "13", "14"], "time": [2146, 2396, 3277, 4043, 4292, 5058, 5191, 5392, 6091, 6390, 7073, 7205, 8589, 8653, 9585, 9634, 10084, 11267, 11351, 12998, 13239, 13363, 16528, 17591, 17841]}, "edge": {"target": [], "time": []}}, "mouseout": {"state": {"target": ["1", "23", "24", "30", "25", "26", "10", "4", "3", "10", "10", "2", "7", "4", "5", "4", "6", "6", "18", "13", "13", "13", "22", "31", "13", "14"], "time": [865, 2245, 3044, 4009, 4109, 5025, 5074, 5341, 5947, 6108, 7056, 7123, 8587, 8620, 9536, 9602, 9668, 11203, 11317, 11500, 13150, 13252, 14513, 17542, 17608, 17891]}, "edge": {"target": [], "time": []}}}, "displayed_time": "25.85", "trialTime": 38477, "trial_type": "mouselab-mdp", "trial_index": 19, "time_elapsed": 1388852, "internal_node_id": "0.0-4.0-1.0-4.0"}}, {"uniqueid": "w44568430:a17873500", "current_trial": 20, "dateTime": 1691160870303, "trialdata": {"revealed_states": [], "clicked_states": ["22", "32", "6", "11", "2"], "num_clicks_accrued": [0, 0, 0, 0, 0, 0, 0, 0, 0, 0, 0, 0, 0], "stateRewards": ["", -2, -1, -2, -15, 87, 57, 29, -10, 77, -80, -7, 1, -3, 6, 14, -11, 87, -59, 4, -71, 16, -11, 2, 2, -7, 2, -47, 61, 50, 14, -20, 17, 81], "withholdReward": false, "trial_id": "mdp_trial_6", "block": "test", "trialIndex": 9, "score": 28.05, "costs": -8.95, "simulationMode": [null, null, null, null, null], "rewards": [-2, -1, -2, -15, 57], "path": ["0", "0", "1", "2", "3", "4", "6"], "rt": [22175, 23, 66, 528, 62], "actions": ["up", "up", "up", "right", "right"], "actionTimes": [23922, 24466, 25045, 26086, 26670], "queries": {"click": {"state": {"target": ["22", "32", "6", "11", "2"], "time": [2625, 5920, 10147, 13905, 18578]}, "edge": {"target": [], "time": []}}, "mouseover": {"state": {"target": ["22", "22", "21", "31", "32", "31", "24", "2", "7", "6", "4", "3", "8", "11", "28", "25", "28", "1", "7", "2", "28", "26", "28", "6", "6", "7", "1", "28", "1"], "time": [1988, 2267, 3153, 4335, 5465, 6698, 6868, 7164, 7303, 7464, 10611, 10697, 10826, 10977, 14554, 14654, 14920, 15070, 15303, 15528, 19364, 19470, 20046, 20279, 20579, 20661, 20745, 21115, 23025]}, "edge": {"target": [], "time": []}}, "mouseout": {"state": {"target": ["12", "0", "22", "22", "21", "31", "32", "31", "24", "2", "7", "6", "6", "4", "3", "8", "11", "28", "25", "28", "1", "7", "2", "28", "26", "28", "2", "6", "6", "7", "1", "28", "1"], "time": [705, 1896, 2060, 3087, 3969, 5333, 6604, 6865, 6898, 7232, 7331, 10359, 10594, 10643, 10777, 10925, 14455, 14588, 14870, 14937, 15154, 15420, 19265, 19414, 19713, 20186, 20229, 20484, 20628, 20694, 20828, 22959, 23059]}, "edge": {"target": [], "time": []}}}, "displayed_time": "27.19", "trialTime": 32149, "trial_type": "mouselab-mdp", "trial_index": 20, "time_elapsed": 1421278, "internal_node_id": "0.0-4.0-1.0-5.0"}}, {"uniqueid": "w44568430:a17873500", "current_trial": 21, "dateTime": 1691160907727, "trialdata": {"revealed_states": [], "clicked_states": ["28", "24", "17", "20", "6", "11"], "num_clicks_accrued": [0, 0, 0, 0, 0, 0, 0, 0, 0, 0, 0, 0, 0], "stateRewards": ["", -2, 2, -2, -7, -50, -62, -45, 7, 36, -24, -72, -1, -1, 8, -1, -67, 20, -52, 2, 35, -50, 80, -1, 1, 6, -6, -70, 6, 88, 8, -47, 74, -19], "withholdReward": false, "trial_id": "mdp_trial_7", "block": "test", "trialIndex": 10, "score": 13.899999999999999, "costs": -11.100000000000001, "simulationMode": [null, null, null, null, null], "rewards": [-1, -1, 8, -1, 20], "path": ["0", "0", "12", "13", "14", "15", "17"], "rt": [20669, 276, 139, 3389, 1438], "actions": ["right", "right", "right", "up", "right"], "actionTimes": [21809, 22612, 23256, 27173, 29156], "queries": {"click": {"state": {"target": ["28", "24", "17", "20", "6", "11"], "time": [2396, 5201, 6474, 10047, 13708, 17001]}, "edge": {"target": [], "time": []}}, "mouseover": {"state": {"target": ["23", "24", "28", "24", "18", "17", "20", "14", "6", "4", "3", "8", "11", "8", "16", "17", "15"], "time": [1478, 1894, 2009, 2860, 5740, 6089, 7437, 10532, 10702, 14496, 14745, 14877, 15126, 17542, 17606, 18105, 20718]}, "edge": {"target": [], "time": []}}, "mouseout": {"state": {"target": ["23", "24", "28", "24", "18", "17", "20", "14", "6", "4", "3", "8", "11", "8", "16", "17", "15"], "time": [1594, 1977, 2760, 5674, 5757, 7104, 10260, 10566, 14494, 14511, 14779, 15009, 17539, 17556, 17640, 20688, 20801]}, "edge": {"target": [], "time": []}}}, "displayed_time": "29.68", "trialTime": 37137, "trial_type": "mouselab-mdp", "trial_index": 21, "time_elapsed": 1458701, "internal_node_id": "0.0-4.0-1.0-6.0"}}, {"uniqueid": "w44568430:a17873500", "current_trial": 22, "dateTime": 1691160934543, "trialdata": {"revealed_states": [], "clicked_states": ["28", "23", "25"], "num_clicks_accrued": [0, 0, 0, 0, 0, 0, 0, 0, 0, 0, 0, 0, 0], "stateRewards": ["", -2, -3, 7, -13, 60, 9, 37, -6, 37, 20, 1, 2, -2, -8, 6, -80, -31, -10, -7, 70, -65, -44, -1, 1, 7, 6, -11, 73, -85, 16, -21, 47, 34], "withholdReward": false, "trial_id": "mdp_trial_8", "block": "test", "trialIndex": 11, "score": 83.15, "costs": -2.8499999999999996, "simulationMode": [null, null, null, null, null], "rewards": [-1, 1, 7, 6, 73], "path": ["0", "0", "23", "24", "25", "26", "28"], "rt": [8781, 343, 139, 669, 80], "actions": ["left", "left", "left", "up", "right"], "actionTimes": [10188, 11038, 11700, 12886, 13487], "queries": {"click": {"state": {"target": ["28", "23", "25"], "time": [2525, 6172, 7915]}, "edge": {"target": [], "time": []}}, "mouseover": {"state": {"target": ["23", "26", "28", "2", "4", "6", "7", "24", "23", "24", "25", "24"], "time": [1736, 2103, 2219, 2936, 3069, 3202, 4953, 5016, 5318, 6665, 7147, 8777]}, "edge": {"target": [], "time": []}}, "mouseout": {"state": {"target": ["13", "12", "0", "23", "26", "28", "2", "4", "6", "7", "24", "23", "24", "25", "24", "23"], "time": [571, 854, 1670, 1803, 2185, 2869, 2992, 3102, 4950, 4966, 5083, 6631, 6797, 8728, 8844, 8994]}, "edge": {"target": [], "time": []}}}, "displayed_time": "15.41", "trialTime": 26516, "trial_type": "mouselab-mdp", "trial_index": 22, "time_elapsed": 1485517, "internal_node_id": "0.0-4.0-1.0-7.0"}}, {"uniqueid": "w44568430:a17873500", "current_trial": 23, "dateTime": 1691160954270, "trialdata": {"revealed_states": [], "clicked_states": ["21", "28", "33"], "num_clicks_accrued": [0, 0, 0, 0, 0, 0, 0, 0, 0, 0, 0, 0, 0], "stateRewards": ["", -2, -1, -5, 10, -36, -70, 68, -9, 86, 71, -10, 2, -4, 7, -7, 66, 44, -66, -13, -69, 43, 15, -2, 2, 6, -13, 62, 57, 50, -10, -69, 42, -72], "withholdReward": false, "trial_id": "mdp_trial_9", "block": "test", "trialIndex": 12, "score": 43.55, "costs": -6.449999999999999, "simulationMode": [null, null, null, null, null], "rewards": [-2, 2, 6, -13, 57], "path": ["0", "0", "23", "24", "25", "26", "28"], "rt": [11702, 331, 39, 658, 7], "actions": ["left", "left", "left", "up", "right"], "actionTimes": [12777, 13620, 14177, 15361, 15876], "queries": {"click": {"state": {"target": ["21", "28", "33"], "time": [2076, 4909, 8032]}, "edge": {"target": [], "time": []}}, "mouseover": {"state": {"target": ["21", "0", "28", "27", "27", "26", "25", "33", "26", "27", "27", "28", "23"], "time": [1801, 2467, 2799, 5613, 5912, 5994, 6061, 6312, 8392, 8411, 8725, 11469, 11519]}, "edge": {"target": [], "time": []}}, "mouseout": {"state": {"target": ["0", "21", "0", "28", "27", "27", "26", "25", "33", "26", "27", "27", "28", "23"], "time": [1408, 2400, 2484, 5395, 5713, 5962, 6029, 6211, 8358, 8408, 8425, 11404, 11486, 11637]}, "edge": {"target": [], "time": []}}}, "displayed_time": "16.40", "trialTime": 19474, "trial_type": "mouselab-mdp", "trial_index": 23, "time_elapsed": 1505243, "internal_node_id": "0.0-4.0-1.0-8.0"}}, {"uniqueid": "w44568430:a17873500", "current_trial": 24, "dateTime": 1691160986165, "trialdata": {"revealed_states": [], "clicked_states": ["17", "9", "27", "5", "28", "31", "22"], "num_clicks_accrued": [0, 0, 0, 0, 0, 0, 0, 0, 0, 0, 0, 0, 0], "stateRewards": ["", 1, -1, 4, 5, -32, 18, 20, 6, -88, -74, 9, -2, 1, -2, -14, 34, -77, -38, -1, 80, -36, 73, 2, 3, -8, 10, -48, -73, -71, -11, -22, 20, 54], "withholdReward": false, "trial_id": "mdp_trial_10", "block": "test", "trialIndex": 13, "score": 53.95, "costs": -15.05, "simulationMode": [null, null, null, null, null], "rewards": [-2, 1, -2, -1, 73], "path": ["0", "0", "12", "13", "14", "19", "22"], "rt": [24542, 297, 236, 199, 771], "actions": ["right", "right", "right", "down", "left"], "actionTimes": [26413, 27227, 27979, 28708, 29996], "queries": {"click": {"state": {"target": ["17", "9", "27", "5", "28", "31", "22"], "time": [2761, 5988, 9588, 12407, 15366, 18699, 22001]}, "edge": {"target": [], "time": []}}, "mouseover": {"state": {"target": ["12", "13", "17", "15", "4", "5", "9", "3", "28", "27", "8", "5", "3", "10", "28", "31", "19", "22", "20", "13", "14"], "time": [2092, 2127, 2440, 3094, 3192, 3307, 3540, 6419, 6819, 7152, 9984, 10282, 12827, 12894, 13110, 16889, 20467, 20717, 24295, 25542, 25793]}, "edge": {"target": [], "time": []}}, "mouseout": {"state": {"target": ["0", "12", "13", "17", "15", "4", "5", "9", "3", "28", "27", "8", "5", "3", "10", "28", "31", "19", "22", "20", "13"], "time": [1476, 2125, 2141, 3092, 3108, 3257, 3324, 6319, 6435, 6969, 9948, 10001, 12810, 12845, 12927, 16240, 19386, 20650, 23812, 25476, 25761]}, "edge": {"target": [], "time": []}}}, "displayed_time": "30.51", "trialTime": 31625, "trial_type": "mouselab-mdp", "trial_index": 24, "time_elapsed": 1537140, "internal_node_id": "0.0-4.0-1.0-9.0"}}, {"uniqueid": "w44568430:a17873500", "current_trial": 25, "dateTime": 1691161011720, "trialdata": {"revealed_states": [], "clicked_states": ["16", "11", "6", "28", "31"], "num_clicks_accrued": [0, 0, 0, 0, 0, 0, 0, 0, 0, 0, 0, 0, 0], "stateRewards": ["", 1, -2, 7, -14, 88, -56, -44, -14, 64, -51, -57, -2, 3, -4, -9, -11, 19, -77, -1, 68, 75, -67, -1, 1, -2, 5, -37, 70, -34, -10, -72, 63, -41], "withholdReward": false, "trial_id": "mdp_trial_11", "block": "test", "trialIndex": 14, "score": 62.25, "costs": -10.75, "simulationMode": [null, null, null, null, null], "rewards": [-1, 1, -2, 5, 70], "path": ["0", "0", "23", "24", "25", "26", "28"], "rt": [18739, 160, 297, 566, 659], "actions": ["left", "left", "left", "up", "right"], "actionTimes": [19887, 20567, 21387, 22487, 23661], "queries": {"click": {"state": {"target": ["16", "11", "6", "28", "31"], "time": [2170, 5648, 8851, 12190, 15586]}, "edge": {"target": [], "time": []}}, "mouseover": {"state": {"target": ["12", "15", "16", "7", "2", "8", "11", "5", "6", "0", "24", "25", "28", "30", "30", "31", "23", "23"], "time": [1528, 1628, 1828, 2578, 2811, 2932, 3278, 6124, 6939, 9302, 9551, 9884, 10067, 12565, 12847, 12914, 17125, 17291]}, "edge": {"target": [], "time": []}}, "mouseout": {"state": {"target": ["14", "13", "12", "12", "15", "16", "7", "2", "8", "11", "5", "6", "0", "24", "25", "28", "30", "30", "31", "23"], "time": [447, 546, 679, 1545, 1695, 2529, 2628, 2861, 3011, 5864, 6889, 9202, 9319, 9768, 9918, 12497, 12614, 12863, 15993, 17242]}, "edge": {"target": [], "time": []}}}, "displayed_time": "24.17", "trialTime": 25306, "trial_type": "mouselab-mdp", "trial_index": 25, "time_elapsed": 1562693, "internal_node_id": "0.0-4.0-1.0-10.0"}}, {"uniqueid": "w44568430:a17873500", "current_trial": 26, "dateTime": 1691161040508, "trialdata": {"revealed_states": [], "clicked_states": ["21", "32", "28", "17", "6", "11"], "num_clicks_accrued": [0, 0, 0, 0, 0, 0, 0, 0, 0, 0, 0, 0, 0], "stateRewards": ["", 1, -3, -2, 14, 49, -40, -39, 2, 26, -61, 73, 1, -4, -8, 12, 79, 29, -65, -13, 55, -26, 27, -1, 3, 3, 9, -17, -60, -18, -8, 35, -88, 69], "withholdReward": false, "trial_id": "mdp_trial_12", "block": "test", "trialIndex": 15, "score": 58.1, "costs": -12.9, "simulationMode": [null, null, null, null, null], "rewards": [1, -3, -2, 2, 73], "path": ["0", "0", "1", "2", "3", "8", "11"], "rt": [21191, 134, 304, 539, 759], "actions": ["up", "up", "up", "left", "left"], "actionTimes": [22694, 23341, 24158, 25209, 26477], "queries": {"click": {"state": {"target": ["21", "32", "28", "17", "6", "11"], "time": [2256, 5430, 8693, 11726, 15202, 18413]}, "edge": {"target": [], "time": []}}, "mouseover": {"state": {"target": ["22", "21", "32", "31", "24", "28", "1", "18", "15", "17", "16", "4", "6", "4", "11", "9", "8", "10"], "time": [1796, 2013, 2913, 5709, 6109, 6341, 9221, 9387, 9687, 9870, 12252, 12899, 13182, 16644, 17078, 21140, 22024, 22102]}, "edge": {"target": [], "time": []}}, "mouseout": {"state": {"target": ["23", "0", "22", "21", "32", "31", "24", "28", "1", "18", "15", "17", "16", "4", "6", "4", "11", "9", "8", "10"], "time": [531, 1697, 1813, 2714, 5677, 5759, 6208, 9172, 9255, 9504, 9786, 12150, 12767, 13048, 16610, 16661, 20806, 22000, 22052, 22119]}, "edge": {"target": [], "time": []}}}, "displayed_time": "27.00", "trialTime": 28515, "trial_type": "mouselab-mdp", "trial_index": 26, "time_elapsed": 1591482, "internal_node_id": "0.0-4.0-1.0-11.0"}}, {"uniqueid": "w44568430:a17873500", "current_trial": 27, "dateTime": 1691161061522, "trialdata": {"revealed_states": [], "clicked_states": ["11", "5", "28", "33"], "num_clicks_accrued": [0, 0, 0, 0, 0, 0, 0, 0, 0, 0, 0, 0, 0], "stateRewards": ["", 1, -4, 6, -3, 40, 76, -51, 5, -24, -63, 44, -2, -2, 8, 1, 76, -85, -58, 10, 59, 20, 11, -2, 3, -3, 3, -82, -10, 54, -7, -57, -6, -32], "withholdReward": false, "trial_id": "mdp_trial_13", "block": "test", "trialIndex": 16, "score": 43.4, "costs": -8.6, "simulationMode": [null, null, null, null, null], "rewards": [1, -4, 6, 5, 44], "path": ["0", "0", "1", "2", "3", "8", "11"], "rt": [14899, 185, 30, 612, 45], "actions": ["up", "up", "up", "left", "left"], "actionTimes": [16135, 16841, 17385, 18517, 19080], "queries": {"click": {"state": {"target": ["11", "5", "28", "33"], "time": [2287, 5091, 8231, 11482]}, "edge": {"target": [], "time": []}}, "mouseover": {"state": {"target": ["1", "10", "11", "8", "3", "5", "4", "7", "13", "12", "28", "26", "25", "33", "30", "31", "24", "25", "27", "8", "3", "8"], "time": [1658, 1740, 2006, 2789, 2856, 3073, 6151, 6184, 6317, 6436, 6783, 9130, 9483, 9929, 12012, 12260, 13674, 13774, 14157, 14289, 15255, 15388]}, "edge": {"target": [], "time": []}}, "mouseout": {"state": {"target": ["1", "1", "10", "11", "8", "3", "5", "4", "7", "13", "12", "28", "26", "25", "33", "30", "31", "24", "25", "27", "8", "3"], "time": [607, 1672, 1840, 2756, 2822, 2922, 6134, 6167, 6200, 6434, 6451, 9048, 9430, 9564, 11978, 12110, 13576, 13691, 13807, 14212, 14355, 15355]}, "edge": {"target": [], "time": []}}}, "displayed_time": "19.59", "trialTime": 20726, "trial_type": "mouselab-mdp", "trial_index": 27, "time_elapsed": 1612495, "internal_node_id": "0.0-4.0-1.0-12.0"}}, {"uniqueid": "w44568430:a17873500", "current_trial": 28, "dateTime": 1691161080076, "trialdata": {"revealed_states": [], "clicked_states": ["21"], "num_clicks_accrued": [0, 0, 0, 0, 0, 0, 0, 0, 0, 0, 0, 0, 0], "stateRewards": ["", 2, -1, -1, 7, 11, -40, -22, -2, 69, 37, 8, -2, 4, -8, -12, -2, -72, -3, -12, 17, 63, 12, 1, 3, -7, 6, 25, 61, 61, -9, 28, -17, 27], "withholdReward": false, "trial_id": "mdp_trial_14", "block": "test", "trialIndex": 17, "score": 42.85, "costs": -2.15, "simulationMode": [null, null, null, null, null], "rewards": [-2, 4, -8, -12, 63], "path": ["0", "0", "12", "13", "14", "19", "21"], "rt": [6646, 302, 359, 5, 430], "actions": ["right", "right", "right", "down", "down"], "actionTimes": [8844, 9656, 10528, 11059, 12014], "queries": {"click": {"state": {"target": ["21"], "time": [2914]}, "edge": {"target": [], "time": []}}, "mouseover": {"state": {"target": ["21", "32", "30", "25", "26", "27", "28", "23"], "time": [2642, 3741, 4141, 4225, 4257, 4324, 6687, 6804]}, "edge": {"target": [], "time": []}}, "mouseout": {"state": {"target": ["8", "10", "0", "0", "21", "32", "30", "25", "26", "27", "28", "23"], "time": [1094, 1144, 1426, 2359, 3376, 4124, 4191, 4241, 4291, 6538, 6720, 6853]}, "edge": {"target": [], "time": []}}}, "displayed_time": "16.20", "trialTime": 18283, "trial_type": "mouselab-mdp", "trial_index": 28, "time_elapsed": 1631051, "internal_node_id": "0.0-4.0-1.0-13.0"}}, {"uniqueid": "w44568430:a17873500", "current_trial": 29, "dateTime": 1691161125218, "trialdata": {"revealed_states": [], "clicked_states": ["28", "5"], "num_clicks_accrued": [0, 0, 0, 0, 0, 0, 0, 0, 0, 0, 0, 0, 0], "stateRewards": ["", 2, 3, -2, -8, -8, -41, 74, 15, -23, -80, 1, 1, 3, 3, -15, -63, -78, 67, 13, 75, -41, 86, 2, -2, 6, -3, -8, -49, 50, -6, 83, 74, 80], "withholdReward": false, "trial_id": "mdp_trial_15", "block": "test", "trialIndex": 18, "score": 78.7, "costs": -4.3, "simulationMode": [null, null, null, null, null], "rewards": [2, -2, 6, -6, 83], "path": ["0", "0", "23", "24", "25", "30", "31"], "rt": [22216, 325, 203, 365, 202], "actions": ["left", "left", "left", "down", "right"], "actionTimes": [23371, 24205, 24916, 25793, 26511], "queries": {"click": {"state": {"target": ["28", "5"], "time": [1994, 5572]}, "edge": {"target": [], "time": []}}, "mouseover": {"state": {"target": ["28", "1", "18", "17", "16", "6", "5", "4", "18", "13", "22", "21", "24", "29", "33", "33"], "time": [1639, 2372, 2422, 2672, 4654, 4736, 4885, 6184, 6284, 6335, 6450, 6652, 9295, 10112, 10827, 11077]}, "edge": {"target": [], "time": []}}, "mouseout": {"state": {"target": ["22", "0", "28", "1", "18", "17", "16", "6", "5", "5", "4", "18", "13", "22", "21", "24", "29", "33", "33", "30"], "time": [490, 1456, 2201, 2395, 2522, 4621, 4670, 4759, 5775, 6167, 6217, 6318, 6384, 6517, 8815, 9895, 10761, 10943, 41185, 41236]}, "edge": {"target": [], "time": []}}}, "displayed_time": "27.03", "trialTime": 44879, "trial_type": "mouselab-mdp", "trial_index": 29, "time_elapsed": 1676193, "internal_node_id": "0.0-4.0-1.0-14.0"}}, {"uniqueid": "w44568430:a17873500", "current_trial": 30, "dateTime": 1691161147391, "trialdata": {"revealed_states": [], "clicked_states": ["31", "17", "27"], "num_clicks_accrued": [0, 0, 0, 0, 0, 0, 0, 0, 0, 0, 0, 0, 0], "stateRewards": ["", -1, 1, 3, -8, -23, -15, -14, -11, -23, 58, 68, 1, 3, 5, 12, -17, -41, -7, -10, -4, 82, 10, 1, 4, -4, 11, 73, 55, -55, -1, -86, -86, 54], "withholdReward": false, "trial_id": "mdp_trial_16", "block": "test", "trialIndex": 19, "score": 78.55, "costs": -6.449999999999999, "simulationMode": [null, null, null, null, null], "rewards": [1, 4, -4, 11, 73], "path": ["0", "0", "23", "24", "25", "26", "27"], "rt": [15058, 46, 151, 1037, 255], "actions": ["left", "left", "left", "up", "up"], "actionTimes": [16153, 16711, 17380, 18934, 19699], "queries": {"click": {"state": {"target": ["31", "17", "27"], "time": [2474, 5599, 9269]}, "edge": {"target": [], "time": []}}, "mouseover": {"state": {"target": ["23", "31", "13", "17", "14", "13", "12", "28", "27", "11", "9", "11", "26", "25", "23"], "time": [1515, 2231, 3048, 3531, 6209, 6242, 6293, 6659, 7009, 9641, 9805, 10337, 12899, 12949, 13914]}, "edge": {"target": [], "time": []}}, "mouseout": {"state": {"target": ["0", "23", "31", "13", "17", "14", "13", "12", "28", "27", "11", "9", "11", "26", "25"], "time": [1312, 1932, 2848, 3131, 6192, 6226, 6276, 6326, 6709, 9606, 9657, 10237, 12804, 12915, 13814]}, "edge": {"target": [], "time": []}}}, "displayed_time": "20.23", "trialTime": 21851, "trial_type": "mouselab-mdp", "trial_index": 30, "time_elapsed": 1698364, "internal_node_id": "0.0-4.0-1.0-15.0"}}, {"uniqueid": "w44568430:a17873500", "current_trial": 31, "dateTime": 1691161171733, "trialdata": {"revealed_states": [], "clicked_states": ["25", "28", "29", "31"], "num_clicks_accrued": [0, 0, 0, 0, 0, 0, 0, 0, 0, 0, 0, 0, 0], "stateRewards": ["", 2, 4, 7, -6, -76, -81, 2, 5, -66, -3, 36, -2, -4, 6, -2, -69, 4, -49, -6, 67, 38, -67, 2, 1, 1, 6, -68, -21, 52, -16, -16, 6, -70], "withholdReward": false, "trial_id": "mdp_trial_17", "block": "test", "trialIndex": 20, "score": 54.6, "costs": -7.4, "simulationMode": [null, null, null, null, null], "rewards": [2, 1, 1, 6, 52], "path": ["0", "0", "23", "24", "25", "26", "29"], "rt": [12609, 211, 681, 372, 53], "actions": ["left", "left", "left", "up", "left"], "actionTimes": [14226, 14947, 16149, 17040, 17603], "queries": {"click": {"state": {"target": ["25", "28", "29", "31"], "time": [2484, 3775, 6548, 11026]}, "edge": {"target": [], "time": []}}, "mouseover": {"state": {"target": ["23", "24", "25", "26", "27", "28", "26", "29", "27", "11", "10", "23", "24", "31", "31", "23"], "time": [1899, 1948, 2032, 2998, 3098, 3431, 4479, 5429, 7098, 7126, 7392, 7477, 7709, 7908, 10637, 11587]}, "edge": {"target": [], "time": []}}, "mouseout": {"state": {"target": ["23", "0", "23", "24", "25", "26", "27", "28", "26", "29", "27", "11", "10", "23", "24", "31", "31", "23"], "time": [567, 1084, 1933, 1982, 2931, 3031, 3397, 4430, 4697, 7061, 7109, 7143, 7426, 7493, 7875, 10405, 11521, 11604]}, "edge": {"target": [], "time": []}}}, "displayed_time": "18.13", "trialTime": 24064, "trial_type": "mouselab-mdp", "trial_index": 31, "time_elapsed": 1722708, "internal_node_id": "0.0-4.0-1.0-16.0"}}, {"uniqueid": "w44568430:a17873500", "current_trial": 32, "dateTime": 1691161188572, "trialdata": {"revealed_states": [], "clicked_states": ["5"], "num_clicks_accrued": [0, 0, 0, 0, 0, 0, 0, 0, 0, 0, 0, 0, 0], "stateRewards": ["", -1, 3, -4, -14, 78, 67, 2, 13, -32, 28, 39, -2, 1, -4, -4, -4, -42, -86, 11, 64, -29, -32, -1, -4, 2, -7, 5, 68, -61, 2, -21, 85, 50], "withholdReward": false, "trial_id": "mdp_trial_18", "block": "test", "trialIndex": 21, "score": 59.85, "costs": -2.15, "simulationMode": [null, null, null, null, null], "rewards": [-1, 3, -4, -14, 78], "path": ["0", "0", "1", "2", "3", "4", "5"], "rt": [5611, 185, 625, 349, 544], "actions": ["up", "up", "up", "right", "up"], "actionTimes": [6932, 7635, 8792, 9664, 10724], "queries": {"click": {"state": {"target": ["5"], "time": [2291]}, "edge": {"target": [], "time": []}}, "mouseover": {"state": {"target": ["6", "5", "3", "28", "24", "28", "24", "31", "4", "6"], "time": [1638, 1987, 2737, 2854, 3037, 3188, 3603, 3903, 5748, 5815]}, "edge": {"target": [], "time": []}}, "mouseout": {"state": {"target": ["0", "6", "5", "3", "28", "24", "28", "24", "31", "4", "6"], "time": [1521, 1688, 2721, 2755, 2970, 3170, 3571, 3735, 5639, 5782, 6032]}, "edge": {"target": [], "time": []}}}, "displayed_time": "15.32", "trialTime": 16486, "trial_type": "mouselab-mdp", "trial_index": 32, "time_elapsed": 1739545, "internal_node_id": "0.0-4.0-1.0-17.0"}}, {"uniqueid": "w44568430:a17873500", "current_trial": 33, "dateTime": 1691161211955, "trialdata": {"revealed_states": [], "clicked_states": ["21", "5", "32", "31"], "num_clicks_accrued": [0, 0, 0, 0, 0, 0, 0, 0, 0, 0, 0, 0, 0], "stateRewards": ["", 1, 2, -6, -13, -51, 22, -4, -12, -44, -12, 6, -2, -2, -2, -14, -46, -4, -77, -2, 36, -79, 41, 2, -4, 2, -6, -55, 59, 70, -5, 39, -19, 24], "withholdReward": false, "trial_id": "mdp_trial_19", "block": "test", "trialIndex": 22, "score": 25.4, "costs": -8.6, "simulationMode": [null, null, null, null, null], "rewards": [2, -4, 2, -5, 39], "path": ["0", "0", "23", "24", "25", "30", "31"], "rt": [15454, 300, 301, 144, 201], "actions": ["left", "left", "left", "down", "right"], "actionTimes": [17676, 18501, 19316, 19974, 20696], "queries": {"click": {"state": {"target": ["21", "5", "32", "31"], "time": [3125, 6608, 10235, 13361]}, "edge": {"target": [], "time": []}}, "mouseover": {"state": {"target": ["0", "22", "21", "13", "7", "3", "9", "5", "3", "26", "25", "30", "32", "31", "31", "22", "19", "20", "19", "22"], "time": [2473, 2567, 2682, 3516, 3550, 3666, 3883, 5829, 7428, 8077, 8211, 8659, 8975, 10772, 11055, 14285, 14352, 14618, 16780, 16814]}, "edge": {"target": [], "time": []}}, "mouseout": {"state": {"target": ["7", "0", "22", "21", "13", "7", "3", "9", "5", "3", "26", "25", "30", "32", "31", "31", "22", "19", "20", "19", "22"], "time": [402, 2485, 2584, 3483, 3532, 3566, 3716, 5548, 7394, 7471, 8094, 8359, 8776, 10723, 10822, 14186, 14319, 14486, 16765, 16797, 16864]}, "edge": {"target": [], "time": []}}}, "displayed_time": "21.21", "trialTime": 23072, "trial_type": "mouselab-mdp", "trial_index": 33, "time_elapsed": 1762928, "internal_node_id": "0.0-4.0-1.0-18.0"}}, {"uniqueid": "w44568430:a17873500", "current_trial": 34, "dateTime": 1691161229673, "trialdata": {"revealed_states": [], "clicked_states": ["27", "31"], "num_clicks_accrued": [0, 0, 0, 0, 0, 0, 0, 0, 0, 0, 0, 0, 0], "stateRewards": ["", -1, -3, -6, -2, -7, 80, -45, -3, -38, -72, 76, 2, 1, 7, 4, -62, 14, -74, 14, -87, -21, -88, -2, 1, -7, -10, 66, 56, -76, 10, -29, -72, -70], "withholdReward": false, "trial_id": "mdp_trial_20", "block": "test", "trialIndex": 23, "score": 43.7, "costs": -4.3, "simulationMode": [null, null, null, null, null, null], "rewards": [-2, 1, -7, -10, 66], "path": ["0", "0", "23", "24", "25", "26", "27"], "rt": [5124, 2248, 390, 173, 363, 335], "actions": ["left", "left", "left", "left", "up", "up"], "actionTimes": [6470, 8723, 9634, 10314, 11187, 12040], "queries": {"click": {"state": {"target": ["27", "31"], "time": [2237, 5616]}, "edge": {"target": [], "time": []}}, "mouseover": {"state": {"target": ["23", "28", "27", "10", "23", "24", "31"], "time": [1598, 1664, 1964, 2681, 2914, 3115, 3896]}, "edge": {"target": [], "time": []}}, "mouseout": {"state": {"target": ["0", "23", "28", "27", "10", "23", "24", "31"], "time": [515, 1615, 1732, 2615, 2764, 2981, 3762, 5833]}, "edge": {"target": [], "time": []}}}, "displayed_time": "15.35", "trialTime": 17436, "trial_type": "mouselab-mdp", "trial_index": 34, "time_elapsed": 1780647, "internal_node_id": "0.0-4.0-1.0-19.0"}}, {"uniqueid": "w44568430:a17873500", "current_trial": 35, "dateTime": 1691161304021, "trialdata": {"revealed_states": [], "clicked_states": ["20", "28"], "num_clicks_accrued": [0, 0, 0, 0, 0, 0, 0, 0, 0, 0, 0, 0, 0], "stateRewards": ["", -1, -2, -8, 8, -27, -82, 19, -14, -62, 4, 1, -2, 2, 6, 10, 73, -51, -2, 2, 73, -48, 54, -1, 2, -4, 11, -25, 47, 86, 15, 33, 43, -42], "withholdReward": false, "trial_id": "mdp_trial_21", "block": "test", "trialIndex": 24, "score": 76.7, "costs": -4.3, "simulationMode": [null, null, null, null, null], "rewards": [-2, 2, 6, 2, 73], "path": ["0", "0", "12", "13", "14", "19", "20"], "rt": [7115, 748, 1542, 469, 2123], "actions": ["right", "right", "right", "down", "right"], "actionTimes": [9578, 10843, 12901, 13891, 16530], "queries": {"click": {"state": {"target": ["20", "28"], "time": [3338, 6489]}, "edge": {"target": [], "time": []}}, "mouseover": {"state": {"target": ["12", "20", "28", "0", "12", "19"], "time": [2750, 3083, 4199, 7036, 7063, 7179]}, "edge": {"target": [], "time": []}}, "mouseout": {"state": {"target": ["31", "19", "22", "13", "12", "0", "12", "20", "28", "0", "12", "19", "19", "21"], "time": [569, 1052, 1168, 1685, 1801, 2734, 2767, 3562, 7002, 7061, 7080, 7428, 65448, 65515]}, "edge": {"target": [], "time": []}}}, "displayed_time": "17.05", "trialTime": 74046, "trial_type": "mouselab-mdp", "trial_index": 35, "time_elapsed": 1854995, "internal_node_id": "0.0-4.0-1.0-20.0"}}, {"uniqueid": "w44568430:a17873500", "current_trial": 36, "dateTime": 1691161335651, "trialdata": {"revealed_states": [], "clicked_states": ["31", "27", "9", "5", "20", "22"], "num_clicks_accrued": [0, 0, 0, 0, 0, 0, 0, 0, 0, 0, 0, 0, 0], "stateRewards": ["", -1, 3, 8, 9, -53, 20, -84, 2, -28, -62, -31, -1, -2, -7, 2, 51, 58, 45, -4, -17, -41, 36, 2, -2, -7, -15, 29, -54, -37, -16, -43, 65, -17], "withholdReward": false, "trial_id": "mdp_trial_22", "block": "test", "trialIndex": 25, "score": 9.100000000000001, "costs": -12.9, "simulationMode": [null, null, null, null, null], "rewards": [-1, -2, -7, -4, 36], "path": ["0", "0", "12", "13", "14", "19", "22"], "rt": [24059, 364, 636, 170, 193], "actions": ["right", "right", "right", "down", "left"], "actionTimes": [25289, 26168, 27320, 28003, 28708], "queries": {"click": {"state": {"target": ["31", "27", "9", "5", "20", "22"], "time": [2578, 6410, 9488, 12767, 16909, 20955]}, "edge": {"target": [], "time": []}}, "mouseover": {"state": {"target": ["23", "24", "25", "31", "20", "12", "0", "28", "27", "28", "27", "28", "8", "9", "8", "2", "7", "5", "4", "1", "1", "13", "19", "20", "19", "22", "13", "22", "12"], "time": [1515, 1598, 1947, 2230, 3267, 3530, 3549, 3597, 3879, 4379, 6025, 7310, 8473, 8756, 9925, 10022, 10054, 10520, 13584, 14482, 16211, 16361, 16478, 16578, 17627, 18692, 20422, 20588, 22854]}, "edge": {"target": [], "time": []}}, "mouseout": {"state": {"target": ["0", "23", "24", "25", "31", "20", "12", "0", "28", "27", "28", "27", "28", "8", "9", "8", "2", "7", "5", "5", "4", "1", "1", "13", "19", "20", "19", "22", "13", "22", "12"], "time": [1501, 1565, 1848, 2181, 3047, 3498, 3547, 3563, 3630, 4296, 5959, 6859, 8424, 8507, 9905, 9988, 10038, 10071, 12976, 13550, 13599, 14515, 16245, 16395, 16528, 17610, 17644, 20373, 20555, 21822, 22910]}, "edge": {"target": [], "time": []}}}, "displayed_time": "29.21", "trialTime": 31324, "trial_type": "mouselab-mdp", "trial_index": 36, "time_elapsed": 1886625, "internal_node_id": "0.0-4.0-1.0-21.0"}}, {"uniqueid": "w44568430:a17873500", "current_trial": 37, "dateTime": 1691161374852, "trialdata": {"revealed_states": [], "clicked_states": ["16", "31", "27", "9", "5", "7"], "num_clicks_accrued": [0, 0, 0, 0, 0, 0, 0, 0, 0, 0, 0, 0, 0], "stateRewards": ["", 2, -3, -4, -1, 25, -16, 16, 10, -71, -20, -55, 1, 3, -4, -9, 1, 32, 11, -6, 32, -50, -41, -1, 4, 4, -8, 7, -81, 70, 2, -52, 45, -10], "withholdReward": false, "trial_id": "mdp_trial_23", "block": "test", "trialIndex": 26, "score": 6.100000000000001, "costs": -12.9, "simulationMode": [null, null, null, null, null], "rewards": [2, -3, -4, -1, 25], "path": ["0", "0", "1", "2", "3", "4", "5"], "rt": [22364, 114, 52, 129, 13], "actions": ["up", "up", "up", "right", "up"], "actionTimes": [24163, 24799, 25368, 26027, 26562], "queries": {"click": {"state": {"target": ["16", "31", "27", "9", "5", "7"], "time": [3173, 6576, 9921, 13306, 16612, 19721]}, "edge": {"target": [], "time": []}}, "mouseover": {"state": {"target": ["6", "16", "2", "10", "11", "28", "24", "31", "23", "4", "3", "8", "27", "10", "2", "4", "9", "5", "5", "4", "6", "6", "7", "1", "4"], "time": [2609, 2909, 3677, 3727, 3944, 4096, 4264, 4683, 7122, 7373, 7421, 7489, 7954, 10666, 10733, 10800, 11415, 13897, 14246, 17174, 17224, 17507, 19155, 21003, 23232]}, "edge": {"target": [], "time": []}}, "mouseout": {"state": {"target": ["13", "12", "6", "16", "16", "2", "10", "11", "28", "24", "31", "23", "4", "3", "8", "27", "10", "2", "4", "9", "5", "5", "4", "6", "6", "7", "7", "1", "4"], "time": [712, 994, 2743, 3444, 3561, 3710, 3752, 3978, 4126, 4542, 7105, 7138, 7404, 7454, 7504, 10534, 10699, 10749, 10983, 13812, 13976, 17141, 17190, 17291, 19105, 19948, 20886, 23182, 23432]}, "edge": {"target": [], "time": []}}}, "displayed_time": "27.10", "trialTime": 38880, "trial_type": "mouselab-mdp", "trial_index": 37, "time_elapsed": 1925826, "internal_node_id": "0.0-4.0-1.0-22.0"}}, {"uniqueid": "w44568430:a17873500", "current_trial": 38, "dateTime": 1691161393279, "trialdata": {"revealed_states": [], "clicked_states": ["31"], "num_clicks_accrued": [0, 0, 0, 0, 0, 0, 0, 0, 0, 0, 0, 0, 0], "stateRewards": ["", -1, 3, 8, 10, -86, 61, -36, 10, 17, -60, 24, -1, -3, 3, 11, 50, 60, 33, -3, -20, 58, -6, 1, -4, -4, 13, -70, -71, 43, 14, 52, 82, -11], "withholdReward": false, "trial_id": "mdp_trial_24", "block": "test", "trialIndex": 27, "score": 56.85, "costs": -2.15, "simulationMode": [null, null, null, null, null], "rewards": [1, -4, -4, 14, 52], "path": ["0", "0", "23", "24", "25", "30", "31"], "rt": [4896, 320, 393, 546, 101], "actions": ["left", "left", "left", "down", "right"], "actionTimes": [6448, 7291, 8194, 9262, 9883], "queries": {"click": {"state": {"target": ["31"], "time": [2255]}, "edge": {"target": [], "time": []}}, "mouseover": {"state": {"target": ["31", "9"], "time": [1938, 3238]}, "edge": {"target": [], "time": []}}, "mouseout": {"state": {"target": ["0", "0", "31", "9", "3", "12"], "time": [706, 1755, 2722, 16686, 16785, 17118]}, "edge": {"target": [], "time": []}}}, "displayed_time": "15.55", "trialTime": 18104, "trial_type": "mouselab-mdp", "trial_index": 38, "time_elapsed": 1944253, "internal_node_id": "0.0-4.0-1.0-23.0"}}, {"uniqueid": "w44568430:a17873500", "current_trial": 39, "dateTime": 1691161415554, "trialdata": {"revealed_states": [], "clicked_states": ["28", "18", "20", "5"], "num_clicks_accrued": [0, 0, 0, 0, 0, 0, 0, 0, 0, 0, 0, 0, 0], "stateRewards": ["", -2, 2, -5, 1, 42, -63, -58, -6, 2, 16, 81, -2, 4, 7, -10, 33, 3, -33, -2, -52, -84, -27, 2, -3, -3, 15, -74, -14, -5, -5, -84, 79, -31], "withholdReward": false, "trial_id": "mdp_trial_25", "block": "test", "trialIndex": 28, "score": 29.4, "costs": -8.6, "simulationMode": [null, null, null, null, null], "rewards": [-2, 2, -5, 1, 42], "path": ["0", "0", "1", "2", "3", "4", "5"], "rt": [15484, 124, 32, 170, 348], "actions": ["up", "up", "up", "right", "up"], "actionTimes": [16842, 17478, 18018, 18706, 19568], "queries": {"click": {"state": {"target": ["28", "18", "20", "5"], "time": [2184, 5551, 9307, 12559]}, "edge": {"target": [], "time": []}}, "mouseover": {"state": {"target": ["23", "28", "1", "18", "15", "17", "20", "14", "15", "4", "5", "9", "9", "3", "2"], "time": [1721, 1921, 2620, 3086, 5899, 5949, 9011, 9794, 9828, 10127, 10243, 13622, 13898, 16151, 16218]}, "edge": {"target": [], "time": []}}, "mouseout": {"state": {"target": ["0", "23", "28", "1", "18", "15", "17", "20", "14", "15", "4", "5", "9", "9", "3", "2", "1", "0"], "time": [1687, 1754, 2571, 2655, 5883, 5933, 8896, 9778, 9811, 9861, 10143, 13522, 13722, 16102, 16184, 16268, 21228, 21261]}, "edge": {"target": [], "time": []}}}, "displayed_time": "20.08", "trialTime": 21934, "trial_type": "mouselab-mdp", "trial_index": 39, "time_elapsed": 1966527, "internal_node_id": "0.0-4.0-1.0-24.0"}}, {"uniqueid": "w44568430:a17873500", "current_trial": 40, "dateTime": 1691161439884, "trialdata": {"revealed_states": [], "clicked_states": ["32", "28", "11", "6"], "num_clicks_accrued": [0, 0, 0, 0, 0, 0, 0, 0, 0, 0, 0, 0, 0], "stateRewards": ["", -2, 3, -1, 2, -72, 63, 20, -1, 62, -66, 39, -2, 3, -6, 14, 22, 47, 1, 8, -49, -1, -41, 2, 2, -6, -16, -64, -60, -34, 16, 54, 22, -7], "withholdReward": false, "trial_id": "mdp_trial_26", "block": "test", "trialIndex": 29, "score": 56.4, "costs": -8.6, "simulationMode": [null, null, null, null, null], "rewards": [-2, 3, -1, 2, 63], "path": ["0", "0", "1", "2", "3", "4", "6"], "rt": [15569, 124, 375, 1209, 339], "actions": ["up", "up", "up", "right", "right"], "actionTimes": [17407, 18042, 18923, 20656, 21517], "queries": {"click": {"state": {"target": ["32", "28", "11", "6"], "time": [2700, 5933, 9649, 13142]}, "edge": {"target": [], "time": []}}, "mouseover": {"state": {"target": ["0", "32", "31", "23", "31", "24", "28", "10", "8", "9", "8", "11", "8", "3", "6", "2", "10", "10", "10", "2", "1"], "time": [2052, 2334, 3002, 3085, 3473, 3667, 3950, 6330, 6381, 6546, 9258, 9357, 10524, 10656, 11040, 13670, 13728, 13952, 14369, 14586, 14868]}, "edge": {"target": [], "time": []}}, "mouseout": {"state": {"target": ["0", "0", "32", "31", "23", "31", "24", "28", "10", "8", "9", "8", "11", "11", "8", "3", "6", "2", "10", "10", "10", "2", "1"], "time": [1401, 2087, 2984, 3018, 3103, 3600, 3869, 6314, 6346, 6397, 9175, 9307, 9854, 10458, 10623, 10690, 13620, 13713, 13738, 14019, 14518, 14751, 15368]}, "edge": {"target": [], "time": []}}}, "displayed_time": "22.03", "trialTime": 24010, "trial_type": "mouselab-mdp", "trial_index": 40, "time_elapsed": 1990857, "internal_node_id": "0.0-4.0-1.0-25.0"}}, {"uniqueid": "w44568430:a17873500", "current_trial": 41, "dateTime": 1691161464209, "trialdata": {"revealed_states": [], "clicked_states": ["27", "31", "17", "18"], "num_clicks_accrued": [0, 0, 0, 0, 0, 0, 0, 0, 0, 0, 0, 0, 0], "stateRewards": ["", -1, -3, 1, -4, -48, -63, -49, -2, -84, -19, 65, 2, -2, -2, -12, -4, 59, 9, 6, 75, 69, -13, -1, -3, -3, -2, -37, -68, -36, 13, 32, 18, -14], "withholdReward": false, "trial_id": "mdp_trial_27", "block": "test", "trialIndex": 30, "score": 36.4, "costs": -8.6, "simulationMode": [null, null, null, null, null], "rewards": [2, -2, -2, -12, 59], "path": ["0", "0", "12", "13", "14", "15", "17"], "rt": [15760, 302, 171, 1237, 581], "actions": ["right", "right", "right", "up", "right"], "actionTimes": [17090, 17916, 18599, 20346, 21440], "queries": {"click": {"state": {"target": ["27", "31", "17", "18"], "time": [2978, 6329, 9744, 13313]}, "edge": {"target": [], "time": []}}, "mouseover": {"state": {"target": ["1", "23", "24", "24", "26", "27", "6", "2", "28", "24", "31", "14", "17", "16", "18"], "time": [1963, 2064, 2113, 2296, 2462, 2664, 3782, 5526, 5592, 5642, 5925, 6957, 7541, 10157, 11967]}, "edge": {"target": [], "time": []}}, "mouseout": {"state": {"target": ["2", "23", "0", "1", "23", "24", "24", "26", "27", "6", "2", "28", "24", "31", "14", "17", "16", "18", "18"], "time": [315, 398, 1850, 2013, 2081, 2163, 2329, 2512, 3413, 5493, 5542, 5609, 5660, 6908, 6974, 10105, 11801, 13514, 14255]}, "edge": {"target": [], "time": []}}}, "displayed_time": "21.96", "trialTime": 23996, "trial_type": "mouselab-mdp", "trial_index": 41, "time_elapsed": 2015182, "internal_node_id": "0.0-4.0-1.0-26.0"}}, {"uniqueid": "w44568430:a17873500", "current_trial": 42, "dateTime": 1691161486332, "trialdata": {"revealed_states": [], "clicked_states": ["22", "11", "29"], "num_clicks_accrued": [0, 0, 0, 0, 0, 0, 0, 0, 0, 0, 0, 0, 0], "stateRewards": ["", -1, 4, 3, 12, -27, 34, -33, 3, -63, 1, 6, 2, 2, -6, -11, -77, -85, 68, -6, 51, 81, -60, -2, -2, 1, 15, 20, 15, 68, -10, -14, 6, -4], "withholdReward": false, "trial_id": "mdp_trial_28", "block": "test", "trialIndex": 31, "score": 73.55, "costs": -6.449999999999999, "simulationMode": [null, null, null, null, null], "rewards": [-2, -2, 1, 15, 68], "path": ["0", "0", "23", "24", "25", "26", "29"], "rt": [12491, 165, 154, 648, 1547], "actions": ["left", "left", "left", "up", "left"], "actionTimes": [13571, 14253, 14925, 16084, 18148], "queries": {"click": {"state": {"target": ["22", "11", "29"], "time": [1989, 5286, 8413]}, "edge": {"target": [], "time": []}}, "mouseover": {"state": {"target": ["22", "28", "11", "31", "24", "28", "26", "29", "10", "6", "7", "1", "24"], "time": [1716, 2500, 2718, 5913, 6129, 6229, 7177, 7493, 9008, 9491, 12023, 12055, 12153]}, "edge": {"target": [], "time": []}}, "mouseout": {"state": {"target": ["13", "12", "0", "22", "28", "11", "31", "24", "28", "26", "29", "10", "6", "7", "1", "24", "24"], "time": [490, 518, 1319, 2334, 2516, 5612, 6112, 6162, 7110, 7278, 8978, 9025, 12013, 12053, 12070, 12202, 21506]}, "edge": {"target": [], "time": []}}}, "displayed_time": "18.66", "trialTime": 21824, "trial_type": "mouselab-mdp", "trial_index": 42, "time_elapsed": 2037306, "internal_node_id": "0.0-4.0-1.0-27.0"}}, {"uniqueid": "w44568430:a17873500", "current_trial": 43, "dateTime": 1691161511900, "trialdata": {"revealed_states": [], "clicked_states": ["29", "20", "11", "31", "6"], "num_clicks_accrued": [0, 0, 0, 0, 0, 0, 0, 0, 0, 0, 0, 0, 0], "stateRewards": ["", -2, 3, 3, -14, 62, 36, 49, 16, 11, 17, -84, 2, -1, 6, 2, -82, -73, 49, -6, -87, 48, 50, -1, -2, -1, -16, -11, 37, -44, 4, 55, 73, -10], "withholdReward": false, "trial_id": "mdp_trial_29", "block": "test", "trialIndex": 32, "score": 44.25, "costs": -10.75, "simulationMode": [null, null, null, null, null], "rewards": [-1, -2, -1, 4, 55], "path": ["0", "0", "23", "24", "25", "30", "31"], "rt": [18371, 202, 316, 260, 734], "actions": ["left", "left", "left", "down", "right"], "actionTimes": [19683, 20404, 21248, 22024, 23265], "queries": {"click": {"state": {"target": ["29", "20", "11", "31", "6"], "time": [2306, 5686, 8957, 12181, 15852]}, "edge": {"target": [], "time": []}}, "mouseover": {"state": {"target": ["23", "24", "26", "29", "28", "22", "19", "20", "14", "18", "7", "2", "8", "11", "28", "24", "31", "23", "1", "7", "6", "18", "13", "22"], "time": [1574, 1656, 1840, 1972, 2674, 2805, 3005, 3238, 6051, 6151, 6217, 6301, 6434, 6667, 9362, 9430, 9778, 12575, 12610, 12692, 13108, 16403, 16452, 16556]}, "edge": {"target": [], "time": []}}, "mouseout": {"state": {"target": ["23", "0", "23", "24", "26", "29", "28", "22", "19", "20", "14", "18", "7", "2", "8", "11", "11", "28", "24", "31", "23", "1", "7", "6", "18", "13"], "time": [707, 1557, 1623, 1706, 1873, 2519, 2690, 2889, 3117, 5895, 6086, 6167, 6267, 6317, 6584, 9171, 9279, 9396, 9447, 12543, 12593, 12626, 12943, 16336, 16436, 16469]}, "edge": {"target": [], "time": []}}}, "displayed_time": "23.78", "trialTime": 25281, "trial_type": "mouselab-mdp", "trial_index": 43, "time_elapsed": 2062875, "internal_node_id": "0.0-4.0-1.0-28.0"}}, {"uniqueid": "w44568430:a17873500", "current_trial": 44, "dateTime": 1691161536968, "trialdata": {"revealed_states": [], "clicked_states": ["5", "10", "32", "29", "31"], "num_clicks_accrued": [0, 0, 0, 0, 0, 0, 0, 0, 0, 0, 0, 0, 0], "stateRewards": ["", 2, -1, -2, -5, -47, -57, -33, -11, 31, -18, -72, -2, 1, -4, -8, -46, -53, -50, 15, -85, -9, 39, -2, -2, 1, 14, -1, -8, 53, -12, -41, -74, 62], "withholdReward": false, "trial_id": "mdp_trial_30", "block": "test", "trialIndex": 33, "score": 53.25, "costs": -10.75, "simulationMode": [null, null, null, null, null], "rewards": [-2, -2, 1, 14, 53], "path": ["0", "0", "23", "24", "25", "26", "29"], "rt": [16847, 56, 14, 1075, 1066], "actions": ["left", "left", "left", "up", "left"], "actionTimes": [18423, 18999, 19544, 21133, 22706], "queries": {"click": {"state": {"target": ["5", "10", "32", "29", "31"], "time": [2539, 5825, 8990, 12150, 15155]}, "edge": {"target": [], "time": []}}, "mouseover": {"state": {"target": ["1", "2", "5", "3", "10", "28", "24", "25", "31", "32", "31", "25", "29", "30", "31"], "time": [1830, 1880, 2196, 3030, 3468, 6293, 6557, 6857, 7040, 7289, 9653, 9820, 10236, 12466, 12865]}, "edge": {"target": [], "time": []}}, "mouseout": {"state": {"target": ["22", "0", "0", "1", "2", "5", "3", "10", "28", "24", "25", "31", "32", "31", "25", "29", "30", "31"], "time": [431, 698, 1788, 1863, 1897, 2996, 3146, 6241, 6361, 6673, 6923, 7108, 9199, 9687, 9986, 12417, 12500, 15728]}, "edge": {"target": [], "time": []}}}, "displayed_time": "23.22", "trialTime": 24771, "trial_type": "mouselab-mdp", "trial_index": 44, "time_elapsed": 2087942, "internal_node_id": "0.0-4.0-1.0-29.0"}}, {"uniqueid": "w44568430:a17873500", "current_trial": 45, "dateTime": 1691161565191, "trialdata": {"revealed_states": [], "clicked_states": ["20", "17", "28", "31", "5", "11"], "num_clicks_accrued": [0, 0, 0, 0, 0, 0, 0, 0, 0, 0, 0, 0, 0], "stateRewards": ["", 1, -1, -7, -7, -22, 15, -13, 13, 26, -32, 38, -1, 1, -7, -4, 16, -62, 86, 12, -54, 56, 64, -2, -1, 6, 14, -57, 37, 62, -6, -25, 50, -70], "withholdReward": false, "trial_id": "mdp_trial_31", "block": "test", "trialIndex": 34, "score": 31.1, "costs": -12.9, "simulationMode": [null, null, null, null, null], "rewards": [1, -1, -7, 13, 38], "path": ["0", "0", "1", "2", "3", "8", "11"], "rt": [21460, 361, 322, 4, 215], "actions": ["up", "up", "up", "left", "left"], "actionTimes": [22968, 23845, 24684, 25199, 25942], "queries": {"click": {"state": {"target": ["20", "17", "28", "31", "5", "11"], "time": [2270, 5565, 8751, 12038, 15265, 18456]}, "edge": {"target": [], "time": []}}, "mouseover": {"state": {"target": ["12", "19", "20", "21", "12", "18", "15", "17", "28", "24", "31", "3", "5", "3", "28", "8", "9", "9", "11", "8", "1", "0", "24", "28", "10"], "time": [1688, 1838, 1920, 2737, 3304, 3404, 3436, 3752, 6182, 9129, 9345, 12458, 12691, 15771, 16052, 16202, 16286, 16652, 17068, 19132, 19283, 19384, 19781, 20047, 22044]}, "edge": {"target": [], "time": []}}, "mouseout": {"state": {"target": ["0", "12", "19", "20", "21", "12", "18", "15", "17", "28", "24", "31", "3", "5", "3", "28", "8", "9", "9", "11", "8", "1", "0", "24", "28", "10", "0"], "time": [1675, 1722, 1853, 2654, 2754, 3388, 3419, 3453, 5882, 9078, 9230, 12391, 12474, 15724, 15786, 16069, 16252, 16402, 16968, 19099, 19167, 19332, 19498, 19981, 21911, 22095, 27287]}, "edge": {"target": [], "time": []}}}, "displayed_time": "26.46", "trialTime": 27938, "trial_type": "mouselab-mdp", "trial_index": 45, "time_elapsed": 2116165, "internal_node_id": "0.0-4.0-1.0-30.0"}}, {"uniqueid": "w44568430:a17873500", "current_trial": 46, "dateTime": 1691161581972, "trialdata": {"revealed_states": [], "clicked_states": ["32", "28"], "num_clicks_accrued": [0, 0, 0, 0, 0, 0, 0, 0, 0, 0, 0, 0, 0], "stateRewards": ["", 2, 3, -6, -5, -3, 55, 40, 11, 61, 11, 51, 2, -4, -6, 9, -25, 29, -15, -6, 7, -77, -2, -2, -4, 1, 14, -43, -1, 56, -12, -54, 41, -74], "withholdReward": false, "trial_id": "mdp_trial_32", "block": "test", "trialIndex": 35, "score": 19.7, "costs": -4.3, "simulationMode": [null, null, null, null, null], "rewards": [-2, -4, 1, -12, 41], "path": ["0", "0", "23", "24", "25", "30", "32"], "rt": [6769, 370, 11, 549, 315], "actions": ["left", "left", "left", "down", "down"], "actionTimes": [8281, 9158, 9681, 10769, 11603], "queries": {"click": {"state": {"target": ["32", "28"], "time": [2300, 5200]}, "edge": {"target": [], "time": []}}, "mouseover": {"state": {"target": ["31", "32", "31", "28", "24"], "time": [1861, 2060, 3026, 3444, 5906]}, "edge": {"target": [], "time": []}}, "mouseout": {"state": {"target": ["0", "31", "32", "31", "28", "24"], "time": [1755, 1910, 2993, 3060, 5856, 5956]}, "edge": {"target": [], "time": []}}}, "displayed_time": "15.51", "trialTime": 16511, "trial_type": "mouselab-mdp", "trial_index": 46, "time_elapsed": 2132946, "internal_node_id": "0.0-4.0-1.0-31.0"}}, {"uniqueid": "w44568430:a17873500", "current_trial": 47, "dateTime": 1691161605424, "trialdata": {"revealed_states": [], "clicked_states": ["11"], "num_clicks_accrued": [0, 0, 0, 0, 0, 0, 0, 0, 0, 0, 0, 0, 0], "stateRewards": ["", -1, 1, 8, -8, -49, 62, -78, 16, 28, -81, 78, -2, -3, -1, -4, 67, 49, -2, -13, -16, -39, 83, 1, -4, 4, -5, -20, 7, 84, 7, -32, -59, 19], "withholdReward": false, "trial_id": "mdp_trial_33", "block": "test", "trialIndex": 36, "score": 99.85, "costs": -2.15, "simulationMode": [null, null, null, null, null], "rewards": [-1, 1, 8, 16, 78], "path": ["0", "0", "1", "2", "3", "8", "11"], "rt": [6505, 22, 643, 476, 71], "actions": ["up", "up", "up", "left", "left"], "actionTimes": [8394, 8935, 10090, 11090, 11679], "queries": {"click": {"state": {"target": ["11"], "time": [3992]}, "edge": {"target": [], "time": []}}, "mouseover": {"state": {"target": ["10", "11", "28", "24", "25", "28"], "time": [2218, 3566, 4434, 4632, 4717, 5008]}, "edge": {"target": [], "time": []}}, "mouseout": {"state": {"target": ["0", "10", "11", "28", "24", "25", "28", "18", "7", "6", "12"], "time": [1169, 2351, 4207, 4467, 4699, 4949, 7511, 19894, 20193, 22408, 22458]}, "edge": {"target": [], "time": []}}}, "displayed_time": "15.90", "trialTime": 23142, "trial_type": "mouselab-mdp", "trial_index": 47, "time_elapsed": 2156397, "internal_node_id": "0.0-4.0-1.0-32.0"}}, {"uniqueid": "w44568430:a17873500", "current_trial": 48, "dateTime": 1691161622536, "trialdata": {"revealed_states": [], "clicked_states": ["6", "11"], "num_clicks_accrued": [0, 0, 0, 0, 0, 0, 0, 0, 0, 0, 0, 0, 0], "stateRewards": ["", -1, 1, -5, -6, -78, 47, -13, 12, 48, -88, 20, 2, -3, -2, 13, -20, 37, -57, 14, -38, 30, 31, -2, -2, 8, 2, -23, 78, 28, 12, -74, -88, 8], "withholdReward": false, "trial_id": "mdp_trial_34", "block": "test", "trialIndex": 37, "score": 31.7, "costs": -4.3, "simulationMode": [null, null, null, null, null], "rewards": [-1, 1, -5, -6, 47], "path": ["0", "0", "1", "2", "3", "4", "6"], "rt": [8235, 81, 143, 315, 224], "actions": ["up", "up", "up", "right", "right"], "actionTimes": [9799, 10409, 11069, 11906, 12646], "queries": {"click": {"state": {"target": ["6", "11"], "time": [2326, 5631]}, "edge": {"target": [], "time": []}}, "mouseover": {"state": {"target": ["6", "4", "3", "11", "28", "24", "31", "23"], "time": [1985, 2620, 2651, 2969, 5946, 6030, 6229, 9141]}, "edge": {"target": [], "time": []}}, "mouseout": {"state": {"target": ["0", "6", "4", "3", "11", "28", "24", "31", "23"], "time": [1673, 2618, 2635, 2667, 5898, 5997, 6179, 9074, 9158]}, "edge": {"target": [], "time": []}}}, "displayed_time": "15.56", "trialTime": 16787, "trial_type": "mouselab-mdp", "trial_index": 48, "time_elapsed": 2173510, "internal_node_id": "0.0-4.0-1.0-33.0"}}, {"uniqueid": "w44568430:a17873500", "current_trial": 49, "dateTime": 1691161650431, "trialdata": {"revealed_states": [], "clicked_states": ["28", "20", "18", "31", "33"], "num_clicks_accrued": [0, 0, 0, 0, 0, 0, 0, 0, 0, 0, 0, 0, 0], "stateRewards": ["", -2, 2, 2, -6, 9, 37, 50, -13, -7, -18, -75, -2, -4, 4, 7, 23, -57, -66, -7, -81, -48, -76, 1, 1, -8, 1, 51, -2, 70, 14, 59, 71, -37], "withholdReward": false, "trial_id": "mdp_trial_35", "block": "test", "trialIndex": 38, "score": 68.25, "costs": -10.75, "simulationMode": [null, null, null, null, null, null], "rewards": [1, 1, -8, 14, 71], "path": ["0", "0", "23", "24", "25", "30", "32"], "rt": [15839, 1910, 72, 293, 39, 4], "actions": ["left", "left", "left", "left", "down", "down"], "actionTimes": [17225, 19138, 19727, 20531, 21108, 21622], "queries": {"click": {"state": {"target": ["28", "20", "18", "31", "33"], "time": [2411, 5185, 8652, 11839, 15220]}, "edge": {"target": [], "time": []}}, "mouseover": {"state": {"target": ["23", "24", "28", "8", "3", "4", "6", "20", "20", "19", "22", "13", "13", "18", "12", "0", "23", "31", "30", "33", "30"], "time": [1624, 1741, 2059, 2923, 2973, 3023, 3256, 3855, 4122, 6070, 6203, 6519, 6868, 7001, 9082, 9100, 9117, 9448, 12287, 12543, 15640]}, "edge": {"target": [], "time": []}}, "mouseout": {"state": {"target": ["0", "23", "23", "0", "23", "24", "28", "8", "3", "4", "6", "20", "20", "19", "22", "13", "13", "18", "12", "0", "23", "31", "30", "33", "30"], "time": [383, 458, 708, 1591, 1690, 2057, 2757, 2957, 3007, 3127, 3757, 3922, 6053, 6105, 6402, 6718, 6935, 9065, 9098, 9114, 9148, 12052, 12443, 15624, 15707]}, "edge": {"target": [], "time": []}}}, "displayed_time": "22.15", "trialTime": 27544, "trial_type": "mouselab-mdp", "trial_index": 49, "time_elapsed": 2201404, "internal_node_id": "0.0-4.0-1.0-34.0"}}, {"uniqueid": "w44568430:a17873500", "current_trial": 50, "dateTime": 1691161670209, "trialdata": {"revealed_states": [], "clicked_states": ["6", "9"], "num_clicks_accrued": [0, 0, 0, 0, 0, 0, 0, 0, 0, 0, 0, 0, 0], "stateRewards": ["", -1, -3, -6, 14, 41, 18, 63, -14, 80, 21, 17, -2, -4, -2, -5, 13, 70, 8, -4, -64, -10, -20, 2, -1, 4, -1, -17, -55, 42, -7, 47, 54, 15], "withholdReward": false, "trial_id": "mdp_trial_36", "block": "test", "trialIndex": 39, "score": 51.7, "costs": -4.3, "simulationMode": [null, null, null, null, null], "rewards": [-1, -3, -6, -14, 80], "path": ["0", "0", "1", "2", "3", "8", "9"], "rt": [8943, 345, 75, 551, 952], "actions": ["up", "up", "up", "left", "up"], "actionTimes": [10654, 11518, 12111, 13171, 14639], "queries": {"click": {"state": {"target": ["6", "9"], "time": [3201, 6410]}, "edge": {"target": [], "time": []}}, "mouseover": {"state": {"target": ["6", "6", "9", "31"], "time": [2213, 2997, 3847, 7225]}, "edge": {"target": [], "time": []}}, "mouseout": {"state": {"target": ["31", "24", "1", "6", "6", "9"], "time": [267, 766, 865, 2347, 3390, 6792]}, "edge": {"target": [], "time": []}}}, "displayed_time": "15.71", "trialTime": 19386, "trial_type": "mouselab-mdp", "trial_index": 50, "time_elapsed": 2221183, "internal_node_id": "0.0-4.0-1.0-35.0"}}, {"uniqueid": "w44568430:a17873500", "current_trial": 51, "dateTime": 1691161693086, "trialdata": {"revealed_states": [], "clicked_states": ["20", "28", "11", "18"], "num_clicks_accrued": [0, 0, 0, 0, 0, 0, 0, 0, 0, 0, 0, 0, 0], "stateRewards": ["", 1, -2, -8, -13, 4, 34, -84, -4, -49, 88, -70, -1, 3, -4, 10, -77, 13, -34, 15, -21, -16, 27, 1, -2, 8, -8, -6, 38, -26, 6, -15, 66, -3], "withholdReward": false, "trial_id": "mdp_trial_37", "block": "test", "trialIndex": 40, "score": 28.4, "costs": -8.6, "simulationMode": [null, null, null, null, null], "rewards": [1, -2, 8, -8, 38], "path": ["0", "0", "23", "24", "25", "26", "28"], "rt": [15537, 183, 97, 584, 957], "actions": ["left", "left", "left", "up", "right"], "actionTimes": [16861, 17565, 18180, 19282, 20753], "queries": {"click": {"state": {"target": ["20", "28", "11", "18"], "time": [2302, 5577, 9130, 12348]}, "edge": {"target": [], "time": []}}, "mouseover": {"state": {"target": ["0", "19", "20", "22", "24", "26", "28", "11", "1", "18", "15", "17", "18", "23"], "time": [1444, 1781, 2081, 2664, 2764, 2897, 3031, 6278, 9607, 9723, 9858, 10056, 10678, 12970]}, "edge": {"target": [], "time": []}}, "mouseout": {"state": {"target": ["31", "0", "0", "19", "20", "22", "24", "26", "28", "11", "1", "18", "15", "17", "18", "23"], "time": [453, 832, 1468, 1915, 2651, 2681, 2781, 2999, 5962, 9476, 9641, 9807, 9973, 10306, 12886, 13036]}, "edge": {"target": [], "time": []}}}, "displayed_time": "21.26", "trialTime": 22422, "trial_type": "mouselab-mdp", "trial_index": 51, "time_elapsed": 2244059, "internal_node_id": "0.0-4.0-1.0-36.0"}}, {"uniqueid": "w44568430:a17873500", "current_trial": 52, "dateTime": 1691161711824, "trialdata": {"revealed_states": [], "clicked_states": ["31"], "num_clicks_accrued": [0, 0, 0, 0, 0, 0, 0, 0, 0, 0, 0, 0, 0], "stateRewards": ["", -1, -4, -1, -5, -28, -23, -15, -15, -38, 59, -87, 2, 2, -5, 9, -55, -39, -71, -6, 85, -85, -11, -1, -2, 5, -10, 1, 25, 41, -4, 69, -35, 86], "withholdReward": false, "trial_id": "mdp_trial_38", "block": "test", "trialIndex": 41, "score": 64.85, "costs": -2.15, "simulationMode": [null, null, null, null, null], "rewards": [-1, -2, 5, -4, 69], "path": ["0", "0", "23", "24", "25", "30", "31"], "rt": [7171, 44, 311, 872, 85], "actions": ["left", "left", "left", "down", "right"], "actionTimes": [9253, 9807, 10655, 12048, 12649], "queries": {"click": {"state": {"target": ["31"], "time": [3337]}, "edge": {"target": [], "time": []}}, "mouseover": {"state": {"target": ["0", "23", "24", "25", "31", "24", "28", "28"], "time": [2306, 2352, 2402, 2535, 2652, 3753, 3884, 4117]}, "edge": {"target": [], "time": []}}, "mouseout": {"state": {"target": ["23", "0", "0", "0", "23", "24", "25", "31", "24", "28"], "time": [654, 687, 1703, 2335, 2385, 2452, 2568, 3559, 3769, 3934]}, "edge": {"target": [], "time": []}}}, "displayed_time": "16.08", "trialTime": 18345, "trial_type": "mouselab-mdp", "trial_index": 52, "time_elapsed": 2262797, "internal_node_id": "0.0-4.0-1.0-37.0"}}, {"uniqueid": "w44568430:a17873500", "current_trial": 53, "dateTime": 1691161731199, "trialdata": {"revealed_states": [], "clicked_states": ["11", "31", "29"], "num_clicks_accrued": [0, 0, 0, 0, 0, 0, 0, 0, 0, 0, 0, 0, 0], "stateRewards": ["", -2, -3, 8, 14, -73, 73, 84, -12, -2, -50, -17, 2, 1, -2, -9, -44, -27, -33, 16, -63, -47, -66, -2, 1, 4, -5, -33, -11, 50, 9, 38, -79, 31], "withholdReward": false, "trial_id": "mdp_trial_39", "block": "test", "trialIndex": 42, "score": 41.55, "costs": -6.449999999999999, "simulationMode": [null, null, null, null, null], "rewards": [-2, 1, 4, -5, 50], "path": ["0", "0", "23", "24", "25", "26", "29"], "rt": [11340, 4, 56, 132, 94], "actions": ["left", "left", "left", "up", "left"], "actionTimes": [12354, 12874, 13458, 14115, 14730], "queries": {"click": {"state": {"target": ["11", "31", "29"], "time": [2268, 5411, 8290]}, "edge": {"target": [], "time": []}}, "mouseover": {"state": {"target": ["3", "8", "11", "28", "24", "31", "25", "29", "24"], "time": [1631, 1800, 1963, 2754, 2897, 3166, 5843, 6026, 11285]}, "edge": {"target": [], "time": []}}, "mouseout": {"state": {"target": ["28", "0", "3", "8", "11", "28", "24", "31", "25", "29", "24"], "time": [420, 1227, 1798, 1831, 2649, 2865, 2931, 5731, 5876, 11218, 11317]}, "edge": {"target": [], "time": []}}}, "displayed_time": "15.27", "trialTime": 19076, "trial_type": "mouselab-mdp", "trial_index": 53, "time_elapsed": 2282173, "internal_node_id": "0.0-4.0-1.0-38.0"}}, {"uniqueid": "w44568430:a17873500", "current_trial": 54, "dateTime": 1691161752873, "trialdata": {"revealed_states": [], "clicked_states": ["18"], "num_clicks_accrued": [0, 0, 0, 0, 0, 0, 0, 0, 0, 0, 0, 0, 0], "stateRewards": ["", 2, 4, 4, -8, -36, -33, 38, 16, -51, 57, 57, 1, 3, 4, -6, 45, 68, 87, 1, 63, 24, -55, -2, 2, -6, -13, -63, -50, 8, 2, 80, 6, 60], "withholdReward": false, "trial_id": "mdp_trial_40", "block": "test", "trialIndex": 43, "score": 86.85, "costs": -2.15, "simulationMode": [null, null, null, null, null], "rewards": [1, 3, 4, -6, 87], "path": ["0", "0", "12", "13", "14", "15", "18"], "rt": [5594, 129, 666, 1165, 492], "actions": ["right", "right", "right", "up", "left"], "actionTimes": [7112, 7747, 8934, 10617, 11622], "queries": {"click": {"state": {"target": ["18"], "time": [2871]}, "edge": {"target": [], "time": []}}, "mouseover": {"state": {"target": ["18", "12", "31"], "time": [2155, 3238, 3604]}, "edge": {"target": [], "time": []}}, "mouseout": {"state": {"target": ["19", "20", "14", "13", "12", "0", "18", "12", "31"], "time": [474, 524, 707, 723, 740, 1838, 3188, 3256, 6401]}, "edge": {"target": [], "time": []}}}, "displayed_time": "15.52", "trialTime": 21200, "trial_type": "mouselab-mdp", "trial_index": 54, "time_elapsed": 2303847, "internal_node_id": "0.0-4.0-1.0-39.0"}}, {"uniqueid": "w44568430:a17873500", "current_trial": 55, "dateTime": 1691161842278, "trialdata": {"rt": 89379, "response": {"Q0": "$-2 to $2", "Q1": "$-16 to $16", "Q2": "$-88 to $88", "Q3": "The cost for clicking on nodes varied between nodes.", "Q4": "Very motivated"}, "question_order": [0, 1, 2, 3, 4], "trial_id": "final_quiz_control", "trial_type": "survey-multi-choice", "trial_index": 55, "time_elapsed": 2393252, "internal_node_id": "0.0-4.0-2.0"}}, {"uniqueid": "w44568430:a17873500", "current_trial": 56, "dateTime": 1691161952475, "trialdata": {"rt": 110158, "response": {"Q0": "I used my nodes inspector on the last nodes because no matter the price of checking the first steps the important ones was the last one. ", "Q1": "I randomly chose the last nodes as I saw they varied in reward", "Q2": "Not so difficult. "}, "trial_id": "self_report_control", "trial_type": "survey-text", "trial_index": 56, "time_elapsed": 2503448, "internal_node_id": "0.0-4.0-3.0"}}, {"uniqueid": "w44568430:a17873500", "current_trial": 57, "dateTime": 1691162010517, "trialdata": {"rt": 58030, "response": {"Q0": "Disagree", "Q1": "Disagree", "Q2": "Disagree", "Q3": "Agree", "Q4": "Agree", "Q5": "Disagree", "Q6": "Agree"}, "question_order": [0, 1, 2, 3, 4, 5, 6], "trial_id": "self_report_2", "trial_type": "survey-multi-choice", "trial_index": 57, "time_elapsed": 2561492, "internal_node_id": "0.0-4.0-4.0"}}, {"uniqueid": "w44568430:a17873500", "current_trial": 58, "dateTime": 1691162050156, "trialdata": {"rt": 39619, "response": {"gender": "female", "age": "21", "colorblind": "0", "effort": "0"}, "trial_type": "survey-html-form", "trial_index": 58, "time_elapsed": 2601131, "internal_node_id": "0.0-4.0-5.0"}}, {"uniqueid": "w44568430:a17873500", "current_trial": 59, "dateTime": 1691162080754, "trialdata": {"rt": 30589, "response": {"Q0": "Nothing was confusing", "Q1": "I have not i think", "Q2": ""}, "trial_type": "survey-text", "trial_index": 59, "time_elapsed": 2631729, "internal_node_id": "0.0-4.0-6.0"}}, {"uniqueid": "w44568430:a17873500", "current_trial": 60, "dateTime": 1691162088771, "trialdata": {"rt": 8004, "stimulus": "Press 'Finish HIT' in order to reach the completion code. Once the data has been saved, you will receive the code either in this window or in the original browser window where you started the experiment.\n", "response": 0, "trial_type": "html-button-response", "trial_index": 60, "time_elapsed": 2639746, "internal_node_id": "0.0-5.0"}}, {"uniqueid": "w44568430:a17873500", "current_trial": 61, "dateTime": 1691162089784, "trialdata": {"success": true, "trial_type": "fullscreen", "trial_index": 61, "time_elapsed": 2640759, "internal_node_id": "0.0-6.0"}}], "questiondata": {"params": {"CODE": "C6DMOQA6", "MIN_TIME": 14, "inspectCost": 1, "startTime": "Fri Aug 04 2023 16:30:47 GMT+0200 (Central Africa Time)", "bonusRate": 0.002, "variance": "1_2_4_8_44", "branching": "31123"}}, "eventdata": [{"eventtype": "initialized", "value": null, "timestamp": 1691159446784, "interval": 0}, {"eventtype": "window_resize", "value": [1028, 744], "timestamp": 1691159446784, "interval": 0}, {"eventtype": "window_resize", "value": [1028, 744], "timestamp": 1691159447253, "interval": 469}, {"eventtype": "window_resize", "value": [1536, 864], "timestamp": 1691159453120, "interval": 5867}, {"eventtype": "focus", "value": "off", "timestamp": 1691160129079, "interval": 675959}, {"eventtype": "focus", "value": "on", "timestamp": 1691160129079, "interval": 0}, {"eventtype": "window_resize", "value": [1028, 744], "timestamp": 1691160129292, "interval": 213}, {"eventtype": "window_resize", "value": [1536, 864], "timestamp": 1691160132954, "interval": 3662}, {"eventtype": "window_resize", "value": [1028, 744], "timestamp": 1691162089058, "interval": 1956104}], "useragent": "Mozilla/5.0 (Windows NT 10.0; Win64; x64) AppleWebKit/537.36 (KHTML, like Gecko) Chrome/115.0.0.0 Safari/537.36", "mode": "live", "id": "w44568430:a17873500", "status": "user data saved", "Beginhit": "2023-08-04 14:30:43.385759", "Beginexp": "2023-08-04 14:30:53.782265", "Endhit": "2023-08-04 15:14:50.140561", "psiturkStatus": 3, "browser": "<redacted>", "platform": "windows", "language": "en-US", "excludeReason": "invalidClickStrats"}