{"condition": 0, "counterbalance": 0, "assignmentId": "a72714800", "workerId": "w66010444", "hitId": "h82185491", "currenttrial": 61, "bonus": 0, "data": [{"uniqueid": "w66010444:a72714800", "current_trial": 0, "dateTime": 1691141988435, "trialdata": {"success": true, "trial_type": "fullscreen", "trial_index": 0, "time_elapsed": 5298, "internal_node_id": "0.0-0.0"}}, {"uniqueid": "w66010444:a72714800", "current_trial": 1, "dateTime": 1691142030183, "trialdata": {"view_history": [{"page_index": 0, "viewing_time": 41742}], "rt": 41742, "trial_id": "exp_instructions_control", "trial_type": "instructions", "trial_index": 1, "time_elapsed": 47047, "internal_node_id": "0.0-1.0"}}, {"uniqueid": "w66010444:a72714800", "current_trial": 2, "dateTime": 1691142034103, "trialdata": {"success": true, "trial_type": "fullscreen", "trial_index": 2, "time_elapsed": 50967, "internal_node_id": "0.0-2.0-0.0"}}, {"uniqueid": "w66010444:a72714800", "current_trial": 3, "dateTime": 1691142423752, "trialdata": {"view_history": [{"page_index": 0, "viewing_time": 151229}, {"page_index": 1, "viewing_time": 161792}, {"page_index": 2, "viewing_time": 44640}, {"page_index": 3, "viewing_time": 31984}], "rt": 389646, "trial_id": "mouselab_instructions_1_control", "trial_type": "instructions", "trial_index": 3, "time_elapsed": 440616, "internal_node_id": "0.0-2.0-1.0"}}, {"uniqueid": "w66010444:a72714800", "current_trial": 4, "dateTime": 1691142458022, "trialdata": {"revealed_states": [], "clicked_states": ["3"], "num_clicks_accrued": [0, 0, 0, 0, 0, 0, 0, 0, 0, 0, 0, 0, 0], "stateRewards": ["", -10, 10, 10, 10, -10, 10, 10, 10, 10, -10, 10, -10, 10, 10, 10, 10, -10, 10, -10, -10, 10, -10, 10, -10, -10, 10, 10, -10, 10, -10, -10, -10, 10], "withholdReward": false, "trial_id": "practice_1", "block": "test", "trialIndex": 0, "score": 33, "costs": -0.5, "simulationMode": [null, null, null, null, null], "rewards": [-10, 10, 10, 10, 10], "path": ["0", "0", "1", "2", "3", "8", "9"], "rt": [10511, 3219, 1230, 2986, 2703], "actions": ["up", "up", "up", "left", "up"], "actionTimes": [16045, 19778, 21523, 25027, 28245], "queries": {"click": {"state": {"target": ["3"], "time": [12381]}, "edge": {"target": [], "time": []}}, "mouseover": {"state": {"target": ["18", "18", "1", "2", "3", "7"], "time": [6656, 8822, 11221, 11404, 11937, 14223]}, "edge": {"target": [], "time": []}}, "mouseout": {"state": {"target": ["12", "7", "4", "3", "2", "1", "0", "18", "18", "1", "2", "3", "7", "1", "10", "8", "10", "0"], "time": [null, 175, 240, 2144, 2210, 2261, 6573, 6674, 8904, 11305, 11671, 14126, 14270, 24069, 24368, 30632, 30785, 31998]}, "edge": {"target": [], "time": []}}}, "displayed_time": "28.76", "trialTime": 33261, "trial_type": "mouselab-mdp", "trial_index": 4, "time_elapsed": 474885, "internal_node_id": "0.0-2.0-2.0-0.0"}}, {"uniqueid": "w66010444:a72714800", "current_trial": 5, "dateTime": 1691142473649, "trialdata": {"revealed_states": [], "clicked_states": ["15"], "num_clicks_accrued": [0, 0, 0, 0, 0, 0, 0, 0, 0, 0, 0, 0, 0], "stateRewards": ["", 10, -10, -10, 10, -10, 10, -10, 10, 10, 10, 10, 10, -10, -10, 10, -10, -10, 10, 10, -10, -10, 10, 10, -10, -10, -10, -10, -10, 10, -10, -10, 10, 10], "withholdReward": false, "trial_id": "practice_2", "block": "test", "trialIndex": 1, "score": -7, "costs": -0.5, "simulationMode": [null, null, null, null, null], "rewards": [10, -10, -10, 10, -10], "path": ["0", "0", "12", "13", "14", "15", "16"], "rt": [5801, 275, 219, 201, 460], "actions": ["right", "right", "right", "up", "up"], "actionTimes": [7756, 8554, 9291, 10012, 10987], "queries": {"click": {"state": {"target": ["15"], "time": [5579]}, "edge": {"target": [], "time": []}}, "mouseover": {"state": {"target": ["18", "15"], "time": [4446, 5221]}, "edge": {"target": [], "time": []}}, "mouseout": {"state": {"target": ["0", "18", "15", "20", "21"], "time": [4146, 4640, 6530, 14836, 14869]}, "edge": {"target": [], "time": []}}}, "displayed_time": "11.51", "trialTime": 15282, "trial_type": "mouselab-mdp", "trial_index": 5, "time_elapsed": 490512, "internal_node_id": "0.0-2.0-2.0-1.0"}}, {"uniqueid": "w66010444:a72714800", "current_trial": 6, "dateTime": 1691142719561, "trialdata": {"view_history": [{"page_index": 0, "viewing_time": 78996}, {"page_index": 1, "viewing_time": 4672}, {"page_index": 0, "viewing_time": 119464}, {"page_index": 1, "viewing_time": 42776}], "rt": 245909, "trial_id": "mouselab_instructions_2_control", "trial_type": "instructions", "trial_index": 6, "time_elapsed": 736425, "internal_node_id": "0.0-2.0-3.0"}}, {"uniqueid": "w66010444:a72714800", "current_trial": 7, "dateTime": 1691142902121, "trialdata": {"rt": 182554, "response": {"Q0": "There is no cost for clicking on nodes.", "Q1": "The better I perform the higher my bonus will be.", "Q2": "No, the amount of cash at each node of the web may be different each time.", "Q3": "To get the highest total score.", "Q4": "Any time during the round.", "Q5": "3 seconds"}, "question_order": [0, 1, 2, 3, 4, 5], "correct": {"Q0": "The cost for clicking on nodes may vary between nodes.", "Q1": "The better I perform the higher my bonus will be.", "Q2": "No, the amount of cash at each node of the web may be different each time.", "Q3": "To get the highest total score.", "Q4": "Only before moving the spider.", "Q5": "3 seconds"}, "trial_id": "mouselab_quiz_control", "trial_type": "survey-multi-choice", "trial_index": 7, "time_elapsed": 918985, "internal_node_id": "0.0-2.0-4.0"}}, {"uniqueid": "w66010444:a72714800", "current_trial": 8, "dateTime": 1691142911721, "trialdata": {"success": true, "trial_type": "fullscreen", "trial_index": 8, "time_elapsed": 928585, "internal_node_id": "0.0-2.1-0.1"}}, {"uniqueid": "w66010444:a72714800", "current_trial": 9, "dateTime": 1691143030832, "trialdata": {"view_history": [{"page_index": 0, "viewing_time": 70444}, {"page_index": 1, "viewing_time": 43504}, {"page_index": 2, "viewing_time": 3649}, {"page_index": 3, "viewing_time": 1512}], "rt": 119109, "trial_id": "mouselab_instructions_1_control", "trial_type": "instructions", "trial_index": 9, "time_elapsed": 1047696, "internal_node_id": "0.0-2.1-1.1"}}, {"uniqueid": "w66010444:a72714800", "current_trial": 10, "dateTime": 1691143040371, "trialdata": {"revealed_states": [], "clicked_states": [], "num_clicks_accrued": [0, 0, 0, 0, 0, 0, 0, 0, 0, 0, 0, 0, 0], "stateRewards": ["", -10, 10, 10, 10, -10, 10, 10, 10, 10, -10, 10, -10, 10, 10, 10, 10, -10, 10, -10, -10, 10, -10, 10, -10, -10, 10, 10, -10, 10, -10, -10, -10, 10], "withholdReward": false, "trial_id": "practice_1", "block": "test", "trialIndex": 2, "score": 33.5, "costs": 0, "simulationMode": [null, null, null, null, null], "rewards": [-10, 10, 10, 10, 10], "path": ["0", "0", "1", "2", "3", "8", "9"], "rt": [762, 688, 94, 674, 166], "actions": ["up", "up", "up", "left", "up"], "actionTimes": [3284, 4516, 5132, 6324, 7004], "queries": {"click": {"state": {"target": [], "time": []}, "edge": {"target": [], "time": []}}, "mouseover": {"state": {"target": ["1", "2"], "time": [2764, 3220]}, "edge": {"target": [], "time": []}}, "mouseout": {"state": {"target": ["12", "18", "0", "1", "2", "1", "1", "2", "3", "2", "1", "0"], "time": [1415, 1685, 2731, 2797, 3457, 3486, 3756, 3833, 8680, 8731, 8754, 8829]}, "edge": {"target": [], "time": []}}}, "displayed_time": "7.52", "trialTime": 9244, "trial_type": "mouselab-mdp", "trial_index": 10, "time_elapsed": 1057234, "internal_node_id": "0.0-2.1-2.1-0.1"}}, {"uniqueid": "w66010444:a72714800", "current_trial": 11, "dateTime": 1691143049522, "trialdata": {"revealed_states": [], "clicked_states": ["15"], "num_clicks_accrued": [0, 0, 0, 0, 0, 0, 0, 0, 0, 0, 0, 0, 0], "stateRewards": ["", 10, -10, -10, 10, -10, 10, -10, 10, 10, 10, 10, 10, -10, -10, 10, -10, -10, 10, 10, -10, -10, 10, 10, -10, -10, -10, -10, -10, 10, -10, -10, 10, 10], "withholdReward": false, "trial_id": "practice_2", "block": "test", "trialIndex": 3, "score": -7, "costs": -0.5, "simulationMode": [null, null, null, null, null, null], "rewards": [10, -10, -10, 10, -10], "path": ["0", "0", "12", "13", "14", "15", "17"], "rt": [1299, 301, 225, 138, 151, 74], "actions": ["right", "right", "right", "right", "up", "right"], "actionTimes": [2350, 2663, 3423, 4088, 4765, 5357], "queries": {"click": {"state": {"target": ["15"], "time": [1901]}, "edge": {"target": [], "time": []}}, "mouseover": {"state": {"target": ["12", "18", "15"], "time": [1423, 1590, 1690]}, "edge": {"target": [], "time": []}}, "mouseout": {"state": {"target": ["0", "12", "18", "15", "13", "22"], "time": [1074, 1506, 1656, 2096, 7921, 7954]}, "edge": {"target": [], "time": []}}}, "displayed_time": "5.88", "trialTime": 8757, "trial_type": "mouselab-mdp", "trial_index": 11, "time_elapsed": 1066385, "internal_node_id": "0.0-2.1-2.1-1.1"}}, {"uniqueid": "w66010444:a72714800", "current_trial": 12, "dateTime": 1691143054425, "trialdata": {"view_history": [{"page_index": 0, "viewing_time": 3684}, {"page_index": 1, "viewing_time": 1216}], "rt": 4901, "trial_id": "mouselab_instructions_2_control", "trial_type": "instructions", "trial_index": 12, "time_elapsed": 1071289, "internal_node_id": "0.0-2.1-3.1"}}, {"uniqueid": "w66010444:a72714800", "current_trial": 13, "dateTime": 1691143325865, "trialdata": {"rt": 271438, "response": {"Q0": "The cost for clicking on nodes may vary between nodes.", "Q1": "The better I perform the higher my bonus will be.", "Q2": "No, the amount of cash at each node of the web may be different each time.", "Q3": "To get the highest total score.", "Q4": "Only before moving the spider.", "Q5": "3 seconds"}, "question_order": [0, 1, 2, 3, 4, 5], "correct": {"Q0": "The cost for clicking on nodes may vary between nodes.", "Q1": "The better I perform the higher my bonus will be.", "Q2": "No, the amount of cash at each node of the web may be different each time.", "Q3": "To get the highest total score.", "Q4": "Only before moving the spider.", "Q5": "3 seconds"}, "trial_id": "mouselab_quiz_control", "trial_type": "survey-multi-choice", "trial_index": 13, "time_elapsed": 1342729, "internal_node_id": "0.0-2.1-4.1"}}, {"uniqueid": "w66010444:a72714800", "current_trial": 14, "dateTime": 1691143346197, "trialdata": {"rt": 20322, "stimulus": "\n<h1> Get ready to start the game! </h1>\n\nThank you for reading the instructions. Get ready start with the 40 rounds of this game.\n<br><br>\nIf you need to take a break, feel free to take one after the end of a round, before continuing to the next one.\n<br><br>\nRemember, the more money the spider gets, the bigger your bonus will be!\n<br><br>\n<div style='text-align: center;'>Press <code>space</code> to begin.</div>\n\n<br><br>\n(If, at any point, the <code>space</code> key does not take you to the next page, click once on the text and try again.)", "response": " ", "trial_id": "mdp_ready", "trial_type": "html-keyboard-response", "trial_index": 14, "time_elapsed": 1363060, "internal_node_id": "0.0-4.0-0.0"}}, {"uniqueid": "w66010444:a72714800", "current_trial": 15, "dateTime": 1691143364663, "trialdata": {"revealed_states": [], "clicked_states": [], "num_clicks_accrued": [0, 0, 0, 0, 0, 0, 0, 0, 0, 0, 0, 0, 0], "stateRewards": ["", 1, 1, -5, 8, -6, 45, 16, -6, -7, -22, -38, -1, -4, 8, -11, -16, 21, -45, -15, -59, -32, 42, -1, 3, 6, 11, -7, 34, -27, -8, 85, 43, -9], "withholdReward": false, "trial_id": "mdp_trial_1", "block": "test", "trialIndex": 4, "score": -1, "costs": 0, "simulationMode": [null, null, null, null, null], "rewards": [1, 1, -5, 8, -6], "path": ["0", "0", "1", "2", "3", "4", "5"], "rt": [5098, 522, 569, 147, 658], "actions": ["up", "up", "up", "right", "up"], "actionTimes": [6979, 8023, 9118, 9783, 10959], "queries": {"click": {"state": {"target": [], "time": []}, "edge": {"target": [], "time": []}}, "mouseover": {"state": {"target": [], "time": []}, "edge": {"target": [], "time": []}}, "mouseout": {"state": {"target": ["4", "1", "0"], "time": [892, 1060, 13073]}, "edge": {"target": [], "time": []}}}, "displayed_time": "15.88", "trialTime": 18129, "trial_type": "mouselab-mdp", "trial_index": 15, "time_elapsed": 1381526, "internal_node_id": "0.0-4.0-1.0-0.0"}}, {"uniqueid": "w66010444:a72714800", "current_trial": 16, "dateTime": 1691143383596, "trialdata": {"revealed_states": [], "clicked_states": ["26"], "num_clicks_accrued": [0, 0, 0, 0, 0, 0, 0, 0, 0, 0, 0, 0, 0], "stateRewards": ["", 1, 1, 1, -3, -7, -1, -41, -10, 20, -72, -63, 1, -4, -2, 2, -66, 30, -84, -2, 49, 23, 71, -1, -4, 4, -12, 67, 5, 18, -16, 88, 56, -5], "withholdReward": false, "trial_id": "mdp_trial_2", "block": "test", "trialIndex": 5, "score": -70.4, "costs": -1.4, "simulationMode": [null, null, null, null, null], "rewards": [1, -4, -2, 2, -66], "path": ["0", "0", "12", "13", "14", "15", "16"], "rt": [5592, 156, 22, 614, 144], "actions": ["right", "right", "right", "up", "up"], "actionTimes": [7150, 7819, 8362, 9492, 10154], "queries": {"click": {"state": {"target": ["26"], "time": [3563]}, "edge": {"target": [], "time": []}}, "mouseover": {"state": {"target": ["1", "26", "28", "1"], "time": [3041, 3339, 4693, 4843]}, "edge": {"target": [], "time": []}}, "mouseout": {"state": {"target": ["0", "1", "26", "28", "1", "1", "10", "8"], "time": [2892, 3062, 4633, 4761, 5083, 12369, 12939, 12974]}, "edge": {"target": [], "time": []}}}, "displayed_time": "15.56", "trialTime": 18548, "trial_type": "mouselab-mdp", "trial_index": 16, "time_elapsed": 1400459, "internal_node_id": "0.0-4.0-1.0-1.0"}}, {"uniqueid": "w66010444:a72714800", "current_trial": 17, "dateTime": 1691143403085, "trialdata": {"revealed_states": [], "clicked_states": ["8"], "num_clicks_accrued": [0, 0, 0, 0, 0, 0, 0, 0, 0, 0, 0, 0, 0], "stateRewards": ["", 2, -2, 7, -11, -76, -65, -23, 16, -58, 30, 81, 1, 2, 7, 14, 9, 55, -2, 6, 11, -15, 31, -1, -1, -3, 2, 15, 2, 46, 15, 18, 45, -34], "withholdReward": false, "trial_id": "mdp_trial_3", "block": "test", "trialIndex": 6, "score": -36.4, "costs": -1.4, "simulationMode": [null, null, null, null, null], "rewards": [2, -2, 7, 16, -58], "path": ["0", "0", "1", "2", "3", "8", "9"], "rt": [3688, 772, 261, 98, 555], "actions": ["up", "up", "up", "left", "up"], "actionTimes": [5659, 6954, 7734, 8350, 9422], "queries": {"click": {"state": {"target": ["8"], "time": [3258]}, "edge": {"target": [], "time": []}}, "mouseover": {"state": {"target": ["1", "8", "3", "7"], "time": [2562, 2962, 4919, 4949]}, "edge": {"target": [], "time": []}}, "mouseout": {"state": {"target": ["18", "12", "0", "0", "1", "8", "3", "7"], "time": [1212, 1259, 1397, 2492, 2610, 4893, 4932, 4963]}, "edge": {"target": [], "time": []}}}, "displayed_time": "15.97", "trialTime": 19128, "trial_type": "mouselab-mdp", "trial_index": 17, "time_elapsed": 1419948, "internal_node_id": "0.0-4.0-1.0-2.0"}}, {"uniqueid": "w66010444:a72714800", "current_trial": 18, "dateTime": 1691143421319, "trialdata": {"revealed_states": [], "clicked_states": [], "num_clicks_accrued": [0, 0, 0, 0, 0, 0, 0, 0, 0, 0, 0, 0, 0], "stateRewards": ["", 1, 2, -5, 14, 54, -14, -25, 16, -5, -87, 78, -1, 1, 3, -3, 52, 53, 53, -10, 73, -69, -48, 2, 3, 1, 8, -62, -7, 85, 7, 82, 52, -28], "withholdReward": false, "trial_id": "mdp_trial_4", "block": "test", "trialIndex": 7, "score": -13, "costs": 0, "simulationMode": [null, null, null, null, null], "rewards": [1, 2, -5, 14, -25], "path": ["0", "0", "1", "2", "3", "4", "7"], "rt": [4397, 471, 306, 745, 161], "actions": ["up", "up", "up", "right", "down"], "actionTimes": [6578, 7566, 8391, 9662, 10333], "queries": {"click": {"state": {"target": [], "time": []}, "edge": {"target": [], "time": []}}, "mouseover": {"state": {"target": ["1", "1", "1", "2", "4"], "time": [3051, 3151, 3751, 3867, 4118]}, "edge": {"target": [], "time": []}}, "mouseout": {"state": {"target": ["0", "1", "1", "1", "2"], "time": [2967, 3084, 3318, 3819, 4002]}, "edge": {"target": [], "time": []}}}, "displayed_time": "16.18", "trialTime": 17823, "trial_type": "mouselab-mdp", "trial_index": 18, "time_elapsed": 1438181, "internal_node_id": "0.0-4.0-1.0-3.0"}}, {"uniqueid": "w66010444:a72714800", "current_trial": 19, "dateTime": 1691143439616, "trialdata": {"revealed_states": [], "clicked_states": ["30"], "num_clicks_accrued": [0, 0, 0, 0, 0, 0, 0, 0, 0, 0, 0, 0, 0], "stateRewards": ["", 1, 4, 7, -16, -84, -6, -46, -12, -7, -49, -26, -1, 2, -4, 2, 22, 37, -64, 1, 88, -13, -10, 1, -4, -2, 5, 2, -10, -34, 9, 66, 55, 38], "withholdReward": false, "trial_id": "mdp_trial_5", "block": "test", "trialIndex": 8, "score": 40.6, "costs": -1.4, "simulationMode": [null, null, null, null, null], "rewards": [1, -4, -2, 9, 38], "path": ["0", "0", "23", "24", "25", "30", "33"], "rt": [3498, 77, 125, 13, 885], "actions": ["left", "left", "left", "down", "left"], "actionTimes": [5167, 5762, 6410, 6948, 8355], "queries": {"click": {"state": {"target": ["30"], "time": [2755]}, "edge": {"target": [], "time": []}}, "mouseover": {"state": {"target": ["23", "24", "30"], "time": [2079, 2113, 2528]}, "edge": {"target": [], "time": []}}, "mouseout": {"state": {"target": ["4", "1", "0", "23", "24", "30"], "time": [812, 1063, 2061, 2111, 2144, 3136]}, "edge": {"target": [], "time": []}}}, "displayed_time": "15.67", "trialTime": 17885, "trial_type": "mouselab-mdp", "trial_index": 19, "time_elapsed": 1456479, "internal_node_id": "0.0-4.0-1.0-4.0"}}, {"uniqueid": "w66010444:a72714800", "current_trial": 20, "dateTime": 1691143457198, "trialdata": {"revealed_states": [], "clicked_states": [], "num_clicks_accrued": [0, 0, 0, 0, 0, 0, 0, 0, 0, 0, 0, 0, 0], "stateRewards": ["", -2, 4, -5, -12, 85, -24, -18, -15, -78, -22, 26, -1, -1, 2, 14, -45, 52, -23, 7, -33, 24, -6, -2, -4, 5, -7, -16, 36, -39, 5, 71, -87, -23], "withholdReward": false, "trial_id": "mdp_trial_6", "block": "test", "trialIndex": 9, "score": -33, "costs": 0, "simulationMode": [null, null, null, null, null], "rewards": [-2, 4, -5, -12, -18], "path": ["0", "0", "1", "2", "3", "4", "7"], "rt": [4741, 1227, 397, 98, 130], "actions": ["up", "up", "up", "right", "down"], "actionTimes": [6383, 8141, 9053, 9669, 10317], "queries": {"click": {"state": {"target": [], "time": []}, "edge": {"target": [], "time": []}}, "mouseover": {"state": {"target": ["2", "3", "4", "5", "4", "2"], "time": [2611, 2713, 2963, 3198, 3680, 6129]}, "edge": {"target": [], "time": []}}, "mouseout": {"state": {"target": ["29", "23", "0", "0", "2", "3", "4", "5", "4", "2"], "time": [663, 748, 863, 2296, 2649, 2830, 3000, 3546, 6030, 6233]}, "edge": {"target": [], "time": []}}}, "displayed_time": "15.64", "trialTime": 17158, "trial_type": "mouselab-mdp", "trial_index": 20, "time_elapsed": 1474061, "internal_node_id": "0.0-4.0-1.0-5.0"}}, {"uniqueid": "w66010444:a72714800", "current_trial": 21, "dateTime": 1691143475099, "trialdata": {"revealed_states": [], "clicked_states": ["19"], "num_clicks_accrued": [0, 0, 0, 0, 0, 0, 0, 0, 0, 0, 0, 0, 0], "stateRewards": ["", 2, 3, 8, 11, 25, -80, 6, -4, -56, 84, -23, -2, -4, -3, 4, -51, -9, -61, -15, -64, 67, -35, 1, -1, -7, -6, 83, 59, -15, 12, -79, 56, 41], "withholdReward": false, "trial_id": "mdp_trial_7", "block": "test", "trialIndex": 10, "score": 68.6, "costs": -1.4, "simulationMode": [null, null, null, null, null], "rewards": [1, -1, -7, -6, 83], "path": ["0", "0", "23", "24", "25", "26", "27"], "rt": [5498, 5, 369, 4, 67], "actions": ["left", "left", "left", "up", "up"], "actionTimes": [6974, 7534, 8438, 8959, 9566], "queries": {"click": {"state": {"target": ["19"], "time": [2790]}, "edge": {"target": [], "time": []}}, "mouseover": {"state": {"target": ["12", "13", "14", "19", "14"], "time": [1997, 2061, 2261, 2610, 3101]}, "edge": {"target": [], "time": []}}, "mouseout": {"state": {"target": ["0", "12", "13", "14", "19", "14", "18"], "time": [1061, 2035, 2213, 2510, 2984, 3147, 9782]}, "edge": {"target": [], "time": []}}}, "displayed_time": "15.48", "trialTime": 17462, "trial_type": "mouselab-mdp", "trial_index": 21, "time_elapsed": 1491962, "internal_node_id": "0.0-4.0-1.0-6.0"}}, {"uniqueid": "w66010444:a72714800", "current_trial": 22, "dateTime": 1691143492612, "trialdata": {"revealed_states": [], "clicked_states": ["8"], "num_clicks_accrued": [0, 0, 0, 0, 0, 0, 0, 0, 0, 0, 0, 0, 0], "stateRewards": ["", -2, -1, -2, -15, 87, 57, 29, -10, 77, -80, -7, 1, -3, 6, 14, -11, 87, -59, 4, -71, 16, -11, 2, 2, -7, 2, -47, 61, 50, 14, -20, 17, 81], "withholdReward": false, "trial_id": "mdp_trial_8", "block": "test", "trialIndex": 11, "score": -10.4, "costs": -1.4, "simulationMode": [null, null, null, null, null], "rewards": [2, 2, -7, 14, -20], "path": ["0", "0", "23", "24", "25", "30", "31"], "rt": [3983, 533, 696, 28, 141], "actions": ["left", "left", "left", "down", "right"], "actionTimes": [5667, 6728, 7935, 8479, 9159], "queries": {"click": {"state": {"target": ["8"], "time": [2480]}, "edge": {"target": [], "time": []}}, "mouseover": {"state": {"target": ["1", "8", "3", "2"], "time": [2068, 2339, 2661, 5115]}, "edge": {"target": [], "time": []}}, "mouseout": {"state": {"target": ["0", "1", "8", "8", "3", "2"], "time": [2017, 2102, 2526, 2612, 2678, 5233]}, "edge": {"target": [], "time": []}}}, "displayed_time": "15.69", "trialTime": 17120, "trial_type": "mouselab-mdp", "trial_index": 22, "time_elapsed": 1509476, "internal_node_id": "0.0-4.0-1.0-7.0"}}, {"uniqueid": "w66010444:a72714800", "current_trial": 23, "dateTime": 1691143510730, "trialdata": {"revealed_states": [], "clicked_states": ["4"], "num_clicks_accrued": [0, 0, 0, 0, 0, 0, 0, 0, 0, 0, 0, 0, 0], "stateRewards": ["", 2, -4, 1, -12, -59, -53, -74, 16, -88, -66, 66, 1, -2, 8, -9, -14, 22, 25, -1, -39, 47, -14, -1, -1, -2, 1, -4, 52, -26, 15, -7, 46, 43], "withholdReward": false, "trial_id": "mdp_trial_9", "block": "test", "trialIndex": 12, "score": 79.6, "costs": -1.4, "simulationMode": [null, null, null, null, null], "rewards": [2, -4, 1, 16, 66], "path": ["0", "0", "1", "2", "3", "8", "11"], "rt": [6890, 1287, 778, 142, 810], "actions": ["up", "up", "up", "left", "left"], "actionTimes": [8396, 10234, 11530, 12192, 13529], "queries": {"click": {"state": {"target": ["4"], "time": [3975]}, "edge": {"target": [], "time": []}}, "mouseover": {"state": {"target": ["1", "4", "7"], "time": [3546, 3881, 4168]}, "edge": {"target": [], "time": []}}, "mouseout": {"state": {"target": ["1", "1", "4", "7"], "time": [813, 3581, 4120, 4219]}, "edge": {"target": [], "time": []}}}, "displayed_time": "15.51", "trialTime": 17657, "trial_type": "mouselab-mdp", "trial_index": 23, "time_elapsed": 1527594, "internal_node_id": "0.0-4.0-1.0-8.0"}}, {"uniqueid": "w66010444:a72714800", "current_trial": 24, "dateTime": 1691143536795, "trialdata": {"revealed_states": [], "clicked_states": [], "num_clicks_accrued": [0, 0, 0, 0, 0, 0, 0, 0, 0, 0, 0, 0, 0], "stateRewards": ["", 1, -4, 6, -3, 40, 76, -51, 5, -24, -63, 44, -2, -2, 8, 1, 76, -85, -58, 10, 59, 20, 11, -2, 3, -3, 3, -82, -10, 54, -7, -57, -6, -32], "withholdReward": false, "trial_id": "mdp_trial_10", "block": "test", "trialIndex": 13, "score": 55, "costs": 0, "simulationMode": [null, null, null, null, null], "rewards": [-2, 3, -3, 3, 54], "path": ["0", "0", "23", "24", "25", "26", "29"], "rt": [10956, 638, 3387, 311, 311], "actions": ["left", "left", "left", "up", "left"], "actionTimes": [16395, 17554, 21468, 22306, 23139], "queries": {"click": {"state": {"target": [], "time": []}, "edge": {"target": [], "time": []}}, "mouseover": {"state": {"target": ["7", "4", "9", "8", "10", "28", "26", "26", "29", "26", "29", "26"], "time": [9542, 9596, 9993, 10241, 10327, 10474, 10926, 11357, 13391, 13725, 15508, 16125]}, "edge": {"target": [], "time": []}}, "mouseout": {"state": {"target": ["7", "4", "9", "8", "10", "28", "26", "26", "29", "26", "29", "26", "1"], "time": [9577, 9614, 10158, 10308, 10375, 10540, 11157, 13307, 13661, 15474, 16078, 16157, 17055]}, "edge": {"target": [], "time": []}}}, "displayed_time": "23.66", "trialTime": 25522, "trial_type": "mouselab-mdp", "trial_index": 24, "time_elapsed": 1553658, "internal_node_id": "0.0-4.0-1.0-9.0"}}, {"uniqueid": "w66010444:a72714800", "current_trial": 25, "dateTime": 1691143555109, "trialdata": {"revealed_states": [], "clicked_states": ["4"], "num_clicks_accrued": [0, 0, 0, 0, 0, 0, 0, 0, 0, 0, 0, 0, 0], "stateRewards": ["", 2, -1, 5, 8, 75, -35, -77, 1, -9, -81, -58, 1, 2, -7, 5, 77, -16, 19, 16, -10, -18, 40, -2, 3, 7, -5, 64, 1, -62, 10, 27, 10, 65], "withholdReward": false, "trial_id": "mdp_trial_11", "block": "test", "trialIndex": 14, "score": -22.4, "costs": -1.4, "simulationMode": [null, null, null, null, null], "rewards": [2, -1, 5, 8, -35], "path": ["0", "0", "1", "2", "3", "4", "6"], "rt": [4402, 277, 69, 15, 4528], "actions": ["up", "up", "up", "right", "right"], "actionTimes": [6794, 7592, 8182, 8713, 13776], "queries": {"click": {"state": {"target": ["4"], "time": [4711]}, "edge": {"target": [], "time": []}}, "mouseover": {"state": {"target": ["1", "2", "7", "4"], "time": [4194, 4292, 4428, 4576]}, "edge": {"target": [], "time": []}}, "mouseout": {"state": {"target": ["1", "1", "2", "7", "4", "7"], "time": [1744, 4244, 4327, 4450, 14359, 17208]}, "edge": {"target": [], "time": []}}}, "displayed_time": "16.39", "trialTime": 17605, "trial_type": "mouselab-mdp", "trial_index": 25, "time_elapsed": 1571972, "internal_node_id": "0.0-4.0-1.0-10.0"}}, {"uniqueid": "w66010444:a72714800", "current_trial": 26, "dateTime": 1691143572834, "trialdata": {"revealed_states": [], "clicked_states": ["27"], "num_clicks_accrued": [0, 0, 0, 0, 0, 0, 0, 0, 0, 0, 0, 0, 0], "stateRewards": ["", -1, 3, -5, -2, -13, -9, -34, -7, -81, 32, 35, -2, -2, 1, -14, -32, 81, 7, 4, 82, 56, -8, -1, 3, -8, 6, -24, -24, -53, 2, 38, 61, 54], "withholdReward": false, "trial_id": "mdp_trial_12", "block": "test", "trialIndex": 15, "score": 55.6, "costs": -1.4, "simulationMode": [null, null, null, null, null], "rewards": [-1, 3, -8, 2, 61], "path": ["0", "0", "23", "24", "25", "30", "32"], "rt": [4575, 45, 365, 56, 144], "actions": ["left", "left", "left", "down", "down"], "actionTimes": [6507, 7073, 7977, 8545, 9212], "queries": {"click": {"state": {"target": ["27"], "time": [3391]}, "edge": {"target": [], "time": []}}, "mouseover": {"state": {"target": ["28", "27", "12", "0", "23"], "time": [2651, 2916, 4128, 6090, 6217]}, "edge": {"target": [], "time": []}}, "mouseout": {"state": {"target": ["0", "0", "28", "27", "12", "0", "23", "12", "10", "9", "5", "16", "15", "14", "20", "20", "19", "22"], "time": [1067, 1972, 2717, 3971, 4158, 6186, 6236, 7271, 11297, 11685, 11881, 15349, 15446, 15616, 15930, 16913, 16947, 16982]}, "edge": {"target": [], "time": []}}}, "displayed_time": "15.93", "trialTime": 17297, "trial_type": "mouselab-mdp", "trial_index": 26, "time_elapsed": 1589698, "internal_node_id": "0.0-4.0-1.0-11.0"}}, {"uniqueid": "w66010444:a72714800", "current_trial": 27, "dateTime": 1691143590331, "trialdata": {"revealed_states": [], "clicked_states": ["17"], "num_clicks_accrued": [0, 0, 0, 0, 0, 0, 0, 0, 0, 0, 0, 0, 0], "stateRewards": ["", 2, -4, -4, 13, -80, 62, 13, -11, 57, -13, -44, 1, 4, 3, -4, -29, -88, 15, 16, -58, 68, -45, -1, -3, -1, -9, -44, -86, -19, -7, -36, 59, 66], "withholdReward": false, "trial_id": "mdp_trial_13", "block": "test", "trialIndex": 16, "score": -34.4, "costs": -1.4, "simulationMode": [null, null, null, null, null], "rewards": [-1, -3, -1, -9, -19], "path": ["0", "0", "23", "24", "25", "26", "29"], "rt": [4612, 211, 584, 3, 64], "actions": ["left", "left", "left", "up", "left"], "actionTimes": [6209, 6944, 8065, 8581, 9174], "queries": {"click": {"state": {"target": ["17"], "time": [2410]}, "edge": {"target": [], "time": []}}, "mouseover": {"state": {"target": ["12", "15", "17", "24"], "time": [1944, 2057, 2241, 5942]}, "edge": {"target": [], "time": []}}, "mouseout": {"state": {"target": ["0", "12", "15", "17", "24"], "time": [1911, 1960, 2157, 2580, 6461]}, "edge": {"target": [], "time": []}}}, "displayed_time": "15.60", "trialTime": 16854, "trial_type": "mouselab-mdp", "trial_index": 27, "time_elapsed": 1607195, "internal_node_id": "0.0-4.0-1.0-12.0"}}, {"uniqueid": "w66010444:a72714800", "current_trial": 28, "dateTime": 1691143607250, "trialdata": {"revealed_states": [], "clicked_states": ["10"], "num_clicks_accrued": [0, 0, 0, 0, 0, 0, 0, 0, 0, 0, 0, 0, 0], "stateRewards": ["", -1, 1, -5, -6, -78, 47, -13, 12, 48, -88, 20, 2, -3, -2, 13, -20, 37, -57, 14, -38, 30, 31, -2, -2, 8, 2, -23, 78, 28, 12, -74, -88, 8], "withholdReward": false, "trial_id": "mdp_trial_14", "block": "test", "trialIndex": 17, "score": -90.4, "costs": -1.4, "simulationMode": [null, null, null, null, null], "rewards": [-1, 1, -5, -6, -78], "path": ["0", "0", "1", "2", "3", "4", "5"], "rt": [5015, 315, 771, 108, 598], "actions": ["up", "up", "up", "right", "up"], "actionTimes": [6412, 7255, 8557, 9189, 10325], "queries": {"click": {"state": {"target": ["10"], "time": [3766]}, "edge": {"target": [], "time": []}}, "mouseover": {"state": {"target": ["27", "11", "9", "10", "2", "7"], "time": [2125, 2389, 2707, 3424, 4044, 6009]}, "edge": {"target": [], "time": []}}, "mouseout": {"state": {"target": ["23", "0", "27", "11", "9", "10", "2", "7"], "time": [722, 1527, 2273, 2471, 2874, 4027, 4063, 6072]}, "edge": {"target": [], "time": []}}}, "displayed_time": "15.40", "trialTime": 16461, "trial_type": "mouselab-mdp", "trial_index": 28, "time_elapsed": 1624114, "internal_node_id": "0.0-4.0-1.0-13.0"}}, {"uniqueid": "w66010444:a72714800", "current_trial": 29, "dateTime": 1691143624978, "trialdata": {"revealed_states": [], "clicked_states": ["21"], "num_clicks_accrued": [0, 0, 0, 0, 0, 0, 0, 0, 0, 0, 0, 0, 0], "stateRewards": ["", 1, 2, -3, 6, -88, 74, -45, 7, -46, 40, -77, 1, -4, 4, 3, 22, -25, -59, 8, -83, 19, -60, -1, -1, -1, -8, 26, -29, 64, -7, -88, -51, -55], "withholdReward": false, "trial_id": "mdp_trial_15", "block": "test", "trialIndex": 18, "score": 26.6, "costs": -1.4, "simulationMode": [null, null, null, null, null], "rewards": [1, -4, 4, 8, 19], "path": ["0", "0", "12", "13", "14", "19", "21"], "rt": [3681, 116, 369, 34, 365], "actions": ["right", "right", "right", "down", "down"], "actionTimes": [5739, 6377, 7273, 7833, 8714], "queries": {"click": {"state": {"target": ["21"], "time": [3517]}, "edge": {"target": [], "time": []}}, "mouseover": {"state": {"target": ["12", "18", "19", "21", "22"], "time": [2398, 2560, 3109, 3194, 3941]}, "edge": {"target": [], "time": []}}, "mouseout": {"state": {"target": ["12", "0", "0", "12", "18", "19", "21", "22", "0", "23", "23", "0", "23", "24"], "time": [1295, 1392, 2226, 2463, 2594, 3143, 3905, 3972, 9496, 9609, 10026, 10509, 10925, 10958]}, "edge": {"target": [], "time": []}}}, "displayed_time": "16.06", "trialTime": 17297, "trial_type": "mouselab-mdp", "trial_index": 29, "time_elapsed": 1641841, "internal_node_id": "0.0-4.0-1.0-14.0"}}, {"uniqueid": "w66010444:a72714800", "current_trial": 30, "dateTime": 1691143643058, "trialdata": {"revealed_states": [], "clicked_states": ["29"], "num_clicks_accrued": [0, 0, 0, 0, 0, 0, 0, 0, 0, 0, 0, 0, 0], "stateRewards": ["", 1, -2, -3, 14, -42, -87, -37, -11, -50, 33, -44, -2, 4, -7, 13, 48, -75, -66, 12, 23, -2, 82, 1, -4, 3, 12, 51, -15, -26, -11, -52, -29, 82], "withholdReward": false, "trial_id": "mdp_trial_16", "block": "test", "trialIndex": 19, "score": 54.6, "costs": -1.4, "simulationMode": [null, null, null, null, null], "rewards": [-2, 4, -7, 13, 48], "path": ["0", "0", "12", "13", "14", "15", "16"], "rt": [4490, 42, 679, 3, 37], "actions": ["right", "right", "right", "up", "up"], "actionTimes": [6190, 6754, 7970, 8492, 9066], "queries": {"click": {"state": {"target": ["29"], "time": [2569]}, "edge": {"target": [], "time": []}}, "mouseover": {"state": {"target": ["23", "29", "24", "23", "0", "14", "14"], "time": [2165, 2372, 2747, 2776, 2794, 3024, 3075]}, "edge": {"target": [], "time": []}}, "mouseout": {"state": {"target": ["18", "15", "0", "23", "29", "24", "23", "0", "14"], "time": [704, 871, 2127, 2177, 2715, 2762, 2790, 2809, 3043]}, "edge": {"target": [], "time": []}}}, "displayed_time": "15.70", "trialTime": 17394, "trial_type": "mouselab-mdp", "trial_index": 30, "time_elapsed": 1659921, "internal_node_id": "0.0-4.0-1.0-15.0"}}, {"uniqueid": "w66010444:a72714800", "current_trial": 31, "dateTime": 1691143660491, "trialdata": {"revealed_states": [], "clicked_states": ["5"], "num_clicks_accrued": [0, 0, 0, 0, 0, 0, 0, 0, 0, 0, 0, 0, 0], "stateRewards": ["", 1, -1, 4, -2, -75, -75, 84, -9, -60, -79, 59, 2, -4, 8, 9, -17, -82, 80, 14, -4, 49, 49, -1, 3, 6, -11, -33, 34, 55, 9, -57, 5, 59], "withholdReward": false, "trial_id": "mdp_trial_17", "block": "test", "trialIndex": 20, "score": 29.6, "costs": -1.4, "simulationMode": [null, null, null, null, null], "rewards": [-1, 3, 6, -11, 34], "path": ["0", "0", "23", "24", "25", "26", "28"], "rt": [4392, 515, 23, 172, 530], "actions": ["left", "left", "left", "up", "right"], "actionTimes": [5679, 6708, 7269, 7988, 9045], "queries": {"click": {"state": {"target": ["5"], "time": [2137]}, "edge": {"target": [], "time": []}}, "mouseover": {"state": {"target": ["5"], "time": [1956]}, "edge": {"target": [], "time": []}}, "mouseout": {"state": {"target": ["14", "13", "12", "0", "5", "5", "6", "7", "2"], "time": [676, 721, 771, 1298, 2208, 2325, 9291, 9340, 9390]}, "edge": {"target": [], "time": []}}}, "displayed_time": "15.29", "trialTime": 16980, "trial_type": "mouselab-mdp", "trial_index": 31, "time_elapsed": 1677354, "internal_node_id": "0.0-4.0-1.0-16.0"}}, {"uniqueid": "w66010444:a72714800", "current_trial": 32, "dateTime": 1691143677983, "trialdata": {"revealed_states": [], "clicked_states": ["29"], "num_clicks_accrued": [0, 0, 0, 0, 0, 0, 0, 0, 0, 0, 0, 0, 0], "stateRewards": ["", 1, 4, -8, -5, -15, -7, 21, 13, -30, 40, -65, 1, 1, 5, -14, 35, 27, -38, -11, 36, -58, -47, -2, 4, -3, 13, -16, -49, 22, 15, -56, -44, -10], "withholdReward": false, "trial_id": "mdp_trial_18", "block": "test", "trialIndex": 21, "score": 32.6, "costs": -1.4, "simulationMode": [null, null, null, null, null], "rewards": [-2, 4, -3, 13, 22], "path": ["0", "0", "23", "24", "25", "26", "29"], "rt": [3579, 88, 322, 120, 9], "actions": ["left", "left", "left", "up", "left"], "actionTimes": [5187, 5811, 6652, 7298, 7820], "queries": {"click": {"state": {"target": ["29"], "time": [3005]}, "edge": {"target": [], "time": []}}, "mouseover": {"state": {"target": ["23", "24", "26", "29", "26", "28"], "time": [2057, 2157, 2471, 2693, 3379, 3416]}, "edge": {"target": [], "time": []}}, "mouseout": {"state": {"target": ["28", "23", "24", "26", "29", "29", "26", "28"], "time": [838, 2123, 2221, 2538, 3071, 3360, 3398, 3433]}, "edge": {"target": [], "time": []}}}, "displayed_time": "15.61", "trialTime": 16893, "trial_type": "mouselab-mdp", "trial_index": 32, "time_elapsed": 1694846, "internal_node_id": "0.0-4.0-1.0-17.0"}}, {"uniqueid": "w66010444:a72714800", "current_trial": 33, "dateTime": 1691143696632, "trialdata": {"revealed_states": [], "clicked_states": ["16", "25", "29", "32", "31", "20"], "num_clicks_accrued": [0, 0, 0, 0, 0, 0, 0, 0, 0, 0, 0, 0, 0], "stateRewards": ["", -1, 2, -6, 6, -82, -19, -39, -16, -83, 11, -33, -2, -2, 4, -6, -82, -1, -19, -6, -10, -67, -41, -2, 1, -7, 16, -23, -78, -52, 14, 31, -71, 74], "withholdReward": false, "trial_id": "mdp_trial_19", "block": "test", "trialIndex": 22, "score": 28.6, "costs": -8.4, "simulationMode": [null, null, null, null, null, null], "rewards": [-2, 1, -7, 14, 31], "path": ["0", "0", "23", "24", "25", "30", "31"], "rt": [12047, 224, 64, 356, 136, 51], "actions": ["left", "left", "left", "left", "down", "right"], "actionTimes": [13360, 13589, 14195, 15081, 15737, 16303], "queries": {"click": {"state": {"target": ["16", "25", "29", "32", "31", "20"], "time": [2118, 5102, 7042, 8899, 10815, 12422]}, "edge": {"target": [], "time": []}}, "mouseover": {"state": {"target": ["2", "4", "6", "16", "18", "1", "28", "28", "25", "29", "1", "18", "15", "13", "12", "31", "32", "32", "31", "19", "20", "19", "22"], "time": [1335, 1466, 1550, 1885, 2274, 2474, 4400, 4566, 4766, 5520, 7319, 7360, 7424, 7517, 7552, 7669, 7787, 7954, 9937, 11368, 11802, 13100, 13153]}, "edge": {"target": [], "time": []}}, "mouseout": {"state": {"target": ["17", "14", "18", "7", "1", "1", "2", "4", "6", "16", "18", "1", "28", "28", "25", "29", "1", "18", "15", "13", "12", "31", "32", "32", "31", "19", "20", "19", "22", "0", "18", "15", "17", "19"], "time": [201, 353, 418, 533, 618, 684, 1370, 1500, 1683, 2227, 2305, 4252, 4484, 4586, 5253, 7236, 7336, 7398, 7472, 7535, 7570, 7684, 7819, 9233, 11003, 11769, 13051, 13134, 13167, 17235, 17420, 17449, 17513, 17579]}, "edge": {"target": [], "time": []}}}, "displayed_time": "16.84", "trialTime": 18073, "trial_type": "mouselab-mdp", "trial_index": 33, "time_elapsed": 1713494, "internal_node_id": "0.0-4.0-1.0-18.0"}}, {"uniqueid": "w66010444:a72714800", "current_trial": 34, "dateTime": 1691143715183, "trialdata": {"revealed_states": [], "clicked_states": ["17", "18", "29", "27", "32"], "num_clicks_accrued": [0, 0, 0, 0, 0, 0, 0, 0, 0, 0, 0, 0, 0], "stateRewards": ["", 2, -2, -3, 10, -4, -1, -11, -8, -9, -36, -78, 2, 1, 7, -7, 44, -1, -31, -1, 26, 47, 83, 2, -4, -4, -6, -52, -76, -81, -1, -59, 45, 67], "withholdReward": false, "trial_id": "mdp_trial_20", "block": "test", "trialIndex": 23, "score": 31, "costs": -7, "simulationMode": [null, null, null, null, null], "rewards": [2, -4, -4, -1, 45], "path": ["0", "0", "23", "24", "25", "30", "32"], "rt": [10821, 305, 409, 288, 309], "actions": ["left", "left", "left", "down", "down"], "actionTimes": [12336, 13175, 14111, 14916, 15744], "queries": {"click": {"state": {"target": ["17", "18", "29", "27", "32"], "time": [2199, 4124, 6813, 8711, 10310]}, "edge": {"target": [], "time": []}}, "mouseover": {"state": {"target": ["18", "15", "17", "15", "18", "1", "28", "26", "29", "29", "27", "28", "10", "28", "24", "32"], "time": [1629, 1852, 2012, 2617, 3132, 4498, 4722, 4779, 5311, 6710, 7149, 9017, 9149, 9498, 9547, 9800]}, "edge": {"target": [], "time": []}}, "mouseout": {"state": {"target": ["22", "0", "18", "15", "17", "17", "15", "18", "1", "28", "26", "29", "29", "27", "28", "10", "28", "24", "32"], "time": [629, 1045, 1662, 1929, 2267, 2568, 2814, 4315, 4585, 4746, 5060, 6527, 6890, 8932, 9084, 9466, 9514, 9597, 15615]}, "edge": {"target": [], "time": []}}}, "displayed_time": "16.28", "trialTime": 18024, "trial_type": "mouselab-mdp", "trial_index": 34, "time_elapsed": 1732045, "internal_node_id": "0.0-4.0-1.0-19.0"}}, {"uniqueid": "w66010444:a72714800", "current_trial": 35, "dateTime": 1691143736596, "trialdata": {"revealed_states": [], "clicked_states": ["14", "27", "5", "33"], "num_clicks_accrued": [0, 0, 0, 0, 0, 0, 0, 0, 0, 0, 0, 0, 0], "stateRewards": ["", -1, 2, 5, -6, 13, -64, -47, 8, -79, -80, -33, 1, 2, -2, -16, 56, -71, -10, 3, 29, 44, 85, -1, 4, 5, 4, -36, -56, 19, 8, 52, -13, -2], "withholdReward": false, "trial_id": "mdp_trial_21", "block": "test", "trialIndex": 24, "score": 7.4, "costs": -5.6, "simulationMode": [null, null, null, null, null], "rewards": [-1, 2, 5, -6, 13], "path": ["0", "0", "1", "2", "3", "4", "5"], "rt": [9806, 132, 213, 3, 635], "actions": ["up", "up", "up", "right", "up"], "actionTimes": [15255, 15917, 16644, 17167, 18332], "queries": {"click": {"state": {"target": ["14", "27", "5", "33"], "time": [7270, 9738, 11618, 13211]}, "edge": {"target": [], "time": []}}, "mouseover": {"state": {"target": ["12", "14", "13", "1", "28", "27", "10", "2", "4", "6", "5", "4", "2", "23", "24", "30", "30", "33", "30", "31", "23", "2", "4"], "time": [5984, 6311, 9180, 9237, 9327, 9560, 10046, 10077, 10164, 10333, 10530, 11835, 11919, 12063, 12131, 12282, 12399, 12531, 13701, 13792, 14651, 14875, 15058]}, "edge": {"target": [], "time": []}}, "mouseout": {"state": {"target": ["0", "12", "14", "14", "13", "1", "28", "27", "10", "2", "4", "6", "5", "4", "2", "23", "24", "30", "30", "33", "30", "31", "23", "2", "4"], "time": [5963, 5999, 7520, 9162, 9205, 9248, 9361, 9930, 10066, 10115, 10280, 10396, 11786, 11875, 11949, 12079, 12164, 12348, 12447, 13682, 13761, 14539, 14718, 14959, 15580]}, "edge": {"target": [], "time": []}}}, "displayed_time": "19.45", "trialTime": 20844, "trial_type": "mouselab-mdp", "trial_index": 35, "time_elapsed": 1753459, "internal_node_id": "0.0-4.0-1.0-20.0"}}, {"uniqueid": "w66010444:a72714800", "current_trial": 36, "dateTime": 1691143766387, "trialdata": {"revealed_states": [], "clicked_states": ["17", "31"], "num_clicks_accrued": [0, 0, 0, 0, 0, 0, 0, 0, 0, 0, 0, 0, 0], "stateRewards": ["", -1, 4, -8, 12, 14, 69, -8, 5, -72, -14, 56, -1, -1, -1, 9, 67, 19, 11, -9, -88, -58, 3, 2, -4, -8, 4, 62, 77, -74, 5, -31, 65, 88], "withholdReward": false, "trial_id": "mdp_trial_22", "block": "test", "trialIndex": 25, "score": 22.2, "costs": -2.8, "simulationMode": [null, null, null, null, null, null], "rewards": [-1, -1, -1, 9, 19], "path": ["0", "0", "12", "13", "14", "15", "17"], "rt": [5110, 235, 30, 56, 188, 859], "actions": ["right", "right", "right", "right", "up", "right"], "actionTimes": [6568, 6807, 7386, 7977, 8698, 10075], "queries": {"click": {"state": {"target": ["17", "31"], "time": [3089, 5592]}, "edge": {"target": [], "time": []}}, "mouseover": {"state": {"target": ["12", "15", "18", "17", "15", "13", "12", "30", "33", "31", "18", "15"], "time": [1635, 1991, 2184, 2733, 3303, 3337, 3388, 3553, 3659, 4898, 5971, 6468]}, "edge": {"target": [], "time": []}}, "mouseout": {"state": {"target": ["6", "0", "12", "15", "18", "17", "15", "13", "12", "30", "33", "31", "18", "15", "17", "14", "15", "17", "17", "12"], "time": [599, 1517, 1974, 2120, 2435, 3286, 3319, 3367, 3400, 3616, 4607, 5726, 6036, 6739, 12384, 27018, 27095, 27693, 28278, 28343]}, "edge": {"target": [], "time": []}}}, "displayed_time": "15.46", "trialTime": 29346, "trial_type": "mouselab-mdp", "trial_index": 36, "time_elapsed": 1783250, "internal_node_id": "0.0-4.0-1.0-21.0"}}, {"uniqueid": "w66010444:a72714800", "current_trial": 37, "dateTime": 1691143797371, "trialdata": {"revealed_states": [], "clicked_states": ["29"], "num_clicks_accrued": [0, 0, 0, 0, 0, 0, 0, 0, 0, 0, 0, 0, 0], "stateRewards": ["", 1, -3, 4, 13, -72, 52, 5, 5, -58, 5, 14, 2, 1, 3, -14, -86, -4, 73, 6, -58, -50, 49, 2, -3, -4, 2, 33, -41, 42, -11, 81, 45, 53], "withholdReward": false, "trial_id": "mdp_trial_23", "block": "test", "trialIndex": 26, "score": 37.6, "costs": -1.4, "simulationMode": [null, null, null, null, null], "rewards": [2, -3, -4, 2, 42], "path": ["0", "0", "23", "24", "25", "26", "29"], "rt": [5237, 153, 89, 216, 581], "actions": ["left", "left", "left", "up", "left"], "actionTimes": [10510, 11186, 11786, 12515, 13612], "queries": {"click": {"state": {"target": ["29"], "time": [7474]}, "edge": {"target": [], "time": []}}, "mouseover": {"state": {"target": ["23", "28", "27", "29", "26", "24", "23", "31", "24"], "time": [6592, 6630, 6775, 7059, 7818, 7908, 7977, 8742, 9674]}, "edge": {"target": [], "time": []}}, "mouseout": {"state": {"target": ["0", "23", "28", "27", "29", "26", "24", "23", "31", "24", "29"], "time": [6558, 6610, 6647, 6881, 7795, 7835, 7926, 8081, 9609, 9709, 9858]}, "edge": {"target": [], "time": []}}}, "displayed_time": "19.27", "trialTime": 30498, "trial_type": "mouselab-mdp", "trial_index": 37, "time_elapsed": 1814235, "internal_node_id": "0.0-4.0-1.0-22.0"}}, {"uniqueid": "w66010444:a72714800", "current_trial": 38, "dateTime": 1691143820044, "trialdata": {"revealed_states": [], "clicked_states": ["17", "29", "27"], "num_clicks_accrued": [0, 0, 0, 0, 0, 0, 0, 0, 0, 0, 0, 0, 0], "stateRewards": ["", -2, 1, -5, 2, -68, 80, 33, 10, 67, -59, 20, -1, -3, 3, 14, 74, -2, 24, -16, 63, 80, 46, -1, 4, 6, 12, 83, -38, -43, -4, 43, 14, -79], "withholdReward": false, "trial_id": "mdp_trial_24", "block": "test", "trialIndex": 27, "score": 99.8, "costs": -4.199999999999999, "simulationMode": [null, null, null, null, null], "rewards": [-1, 4, 6, 12, 83], "path": ["0", "0", "23", "24", "25", "26", "27"], "rt": [8583, 14, 108, 245, 333], "actions": ["left", "left", "left", "up", "up"], "actionTimes": [15130, 15665, 16305, 17073, 17930], "queries": {"click": {"state": {"target": ["17", "29", "27"], "time": [8327, 10273, 12250]}, "edge": {"target": [], "time": []}}, "mouseover": {"state": {"target": ["14", "17", "17", "14", "13", "1", "28", "26", "29", "27", "27", "11", "8", "8", "10", "24", "31", "32", "32", "30", "25", "26"], "time": [6982, 7294, 7947, 8796, 9007, 9231, 9292, 9351, 9448, 10666, 10719, 12508, 12570, 13095, 13129, 13196, 13229, 13294, 13481, 14340, 14379, 14474]}, "edge": {"target": [], "time": []}}, "mouseout": {"state": {"target": ["29", "25", "24", "0", "14", "17", "17", "14", "13", "1", "28", "26", "29", "27", "27", "11", "8", "8", "10", "24", "31", "32", "32", "30", "25"], "time": [5478, 5797, 5818, 6570, 7062, 7694, 8714, 8914, 9163, 9253, 9331, 9410, 10368, 10683, 12411, 12530, 12610, 13112, 13143, 13211, 13248, 13344, 14290, 14362, 14407]}, "edge": {"target": [], "time": []}}}, "displayed_time": "20.55", "trialTime": 22145, "trial_type": "mouselab-mdp", "trial_index": 38, "time_elapsed": 1836907, "internal_node_id": "0.0-4.0-1.0-23.0"}}, {"uniqueid": "w66010444:a72714800", "current_trial": 39, "dateTime": 1691143851942, "trialdata": {"revealed_states": [], "clicked_states": ["5", "32", "21", "20", "22", "29", "28", "25"], "num_clicks_accrued": [0, 0, 0, 0, 0, 0, 0, 0, 0, 0, 0, 0, 0], "stateRewards": ["", -2, 4, 3, 5, -61, 4, 30, 1, -47, 83, 10, 1, 4, 7, -14, 19, -74, -83, 6, -2, -2, -65, -1, -2, 4, -11, 12, -1, -68, 11, -38, -28, 66], "withholdReward": false, "trial_id": "mdp_trial_25", "block": "test", "trialIndex": 28, "score": -9.200000000000003, "costs": -11.200000000000001, "simulationMode": [null, null, null, null, null], "rewards": [-1, -2, 4, -11, 12], "path": ["0", "0", "23", "24", "25", "26", "27"], "rt": [17550, 149, 57, 5843, 3], "actions": ["left", "left", "left", "up", "up"], "actionTimes": [21774, 22443, 23019, 29404, 29942], "queries": {"click": {"state": {"target": ["5", "32", "21", "20", "22", "29", "28", "25"], "time": [5142, 6910, 8796, 10741, 12530, 15099, 16999, 19507]}, "edge": {"target": [], "time": []}}, "mouseover": {"state": {"target": ["7", "4", "5", "2", "1", "23", "31", "32", "21", "20", "19", "22", "29", "26", "28", "27", "26", "25", "33"], "time": [4491, 4624, 4874, 5465, 5496, 5545, 5617, 5899, 7634, 9043, 10896, 11111, 13793, 15441, 15525, 17375, 17576, 17615, 20461]}, "edge": {"target": [], "time": []}}, "mouseout": {"state": {"target": ["26", "28", "7", "4", "5", "2", "1", "23", "31", "32", "21", "20", "19", "22", "29", "26", "28", "27", "26", "25", "33", "29"], "time": [760, 824, 4525, 4675, 5396, 5492, 5528, 5573, 5633, 7090, 8945, 10863, 11047, 13313, 15408, 15476, 17211, 17545, 17597, 19861, 27205, 27524]}, "edge": {"target": [], "time": []}}}, "displayed_time": "30.49", "trialTime": 31396, "trial_type": "mouselab-mdp", "trial_index": 39, "time_elapsed": 1868805, "internal_node_id": "0.0-4.0-1.0-24.0"}}, {"uniqueid": "w66010444:a72714800", "current_trial": 40, "dateTime": 1691143869914, "trialdata": {"revealed_states": [], "clicked_states": ["29"], "num_clicks_accrued": [0, 0, 0, 0, 0, 0, 0, 0, 0, 0, 0, 0, 0], "stateRewards": ["", -2, 1, -3, -16, -39, -52, 30, -7, -41, -59, 11, 2, 1, 8, 2, -11, -26, -42, -13, 87, -59, -48, -1, -1, -1, 16, -79, 31, 50, -1, -84, 34, -82], "withholdReward": false, "trial_id": "mdp_trial_26", "block": "test", "trialIndex": 29, "score": 61.6, "costs": -1.4, "simulationMode": [null, null, null, null, null], "rewards": [-1, -1, -1, 16, 50], "path": ["0", "0", "23", "24", "25", "26", "29"], "rt": [3228, 165, 110, 105, 594], "actions": ["left", "left", "left", "up", "left"], "actionTimes": [4616, 5311, 5943, 6575, 7695], "queries": {"click": {"state": {"target": ["29"], "time": [2333]}, "edge": {"target": [], "time": []}}, "mouseover": {"state": {"target": ["26", "29", "27", "8", "5"], "time": [1794, 2076, 2816, 3132, 3368]}, "edge": {"target": [], "time": []}}, "mouseout": {"state": {"target": ["28", "12", "12", "0", "26", "29", "27", "8", "5", "3"], "time": [176, 360, 715, 1450, 1879, 2651, 3061, 3146, 4583, 4679]}, "edge": {"target": [], "time": []}}}, "displayed_time": "15.39", "trialTime": 17431, "trial_type": "mouselab-mdp", "trial_index": 40, "time_elapsed": 1886778, "internal_node_id": "0.0-4.0-1.0-25.0"}}, {"uniqueid": "w66010444:a72714800", "current_trial": 41, "dateTime": 1691143887296, "trialdata": {"revealed_states": [], "clicked_states": ["5", "21", "31"], "num_clicks_accrued": [0, 0, 0, 0, 0, 0, 0, 0, 0, 0, 0, 0, 0], "stateRewards": ["", 2, -2, -8, 9, -20, 55, -58, 14, 42, 2, 36, 1, -3, -5, 5, -58, 57, 60, 16, 57, 30, -70, -2, 1, 3, 10, 59, 23, 77, -13, -26, 88, -72], "withholdReward": false, "trial_id": "mdp_trial_27", "block": "test", "trialIndex": 30, "score": 34.8, "costs": -4.199999999999999, "simulationMode": [null, null, null, null, null, null], "rewards": [1, -3, -5, 16, 30], "path": ["0", "0", "12", "13", "14", "19", "21"], "rt": [6521, 210, 61, 454, 241, 199], "actions": ["right", "right", "right", "right", "down", "down"], "actionTimes": [8028, 8245, 8871, 9861, 10613, 11318], "queries": {"click": {"state": {"target": ["5", "21", "31"], "time": [3330, 5603, 7660]}, "edge": {"target": [], "time": []}}, "mouseover": {"state": {"target": ["2", "3", "5", "4", "7", "12", "21", "21", "32", "30", "30", "31"], "time": [2186, 2852, 3186, 3543, 3612, 3792, 4089, 4515, 6054, 6308, 6622, 6987]}, "edge": {"target": [], "time": []}}, "mouseout": {"state": {"target": ["1", "2", "3", "5", "4", "7", "12", "21", "21", "32", "30", "30", "31", "31"], "time": [784, 2704, 3003, 3498, 3607, 3644, 3837, 4211, 5821, 6187, 6362, 6687, 7724, 7857]}, "edge": {"target": [], "time": []}}}, "displayed_time": "15.51", "trialTime": 16855, "trial_type": "mouselab-mdp", "trial_index": 41, "time_elapsed": 1904159, "internal_node_id": "0.0-4.0-1.0-26.0"}}, {"uniqueid": "w66010444:a72714800", "current_trial": 42, "dateTime": 1691143905086, "trialdata": {"revealed_states": [], "clicked_states": ["17", "21", "20"], "num_clicks_accrued": [0, 0, 0, 0, 0, 0, 0, 0, 0, 0, 0, 0, 0], "stateRewards": ["", 1, 2, -8, 9, 18, -83, -11, 6, -64, -48, 17, -2, -2, -5, -3, -24, -3, -86, -2, 48, -41, -22, -2, 4, 7, 8, 81, 13, -48, 10, 61, 19, 57], "withholdReward": false, "trial_id": "mdp_trial_28", "block": "test", "trialIndex": 31, "score": 32.8, "costs": -4.199999999999999, "simulationMode": [null, null, null, null, null], "rewards": [-2, -2, -5, -2, 48], "path": ["0", "0", "12", "13", "14", "19", "20"], "rt": [8922, 76, 512, 40, 127], "actions": ["right", "right", "right", "down", "right"], "actionTimes": [11057, 11654, 12686, 13254, 13920], "queries": {"click": {"state": {"target": ["17", "21", "20"], "time": [3781, 6181, 9008]}, "edge": {"target": [], "time": []}}, "mouseover": {"state": {"target": ["12", "13", "14", "17", "14", "21", "19", "13", "18", "13", "22", "19", "20", "19", "22", "31", "30", "33"], "time": [2676, 2748, 3289, 3539, 4302, 6024, 7062, 7112, 7192, 8272, 8523, 8759, 8805, 9276, 9323, 9628, 9825, 10080]}, "edge": {"target": [], "time": []}}, "mouseout": {"state": {"target": ["21", "0", "23", "0", "12", "13", "14", "17", "17", "14", "21", "19", "13", "18", "13", "22", "19", "20", "19", "22", "31", "30"], "time": [790, 923, 990, 2642, 2725, 2825, 3472, 3831, 4061, 4445, 7015, 7086, 7130, 7215, 8505, 8730, 8777, 9229, 9307, 9360, 9760, 9962]}, "edge": {"target": [], "time": []}}}, "displayed_time": "16.14", "trialTime": 17239, "trial_type": "mouselab-mdp", "trial_index": 42, "time_elapsed": 1921948, "internal_node_id": "0.0-4.0-1.0-27.0"}}, {"uniqueid": "w66010444:a72714800", "current_trial": 43, "dateTime": 1691143922387, "trialdata": {"revealed_states": [], "clicked_states": ["29", "32", "16"], "num_clicks_accrued": [0, 0, 0, 0, 0, 0, 0, 0, 0, 0, 0, 0, 0], "stateRewards": ["", 2, 4, 7, 7, -79, -2, -21, -5, -53, 47, -21, 1, -3, -1, 7, 83, 7, 84, -7, 80, -37, 69, 2, -4, 5, 2, 4, -20, -30, 7, 71, 44, -81], "withholdReward": false, "trial_id": "mdp_trial_29", "block": "test", "trialIndex": 32, "score": 49.8, "costs": -4.199999999999999, "simulationMode": [null, null, null, null, null, null], "rewards": [2, -4, 5, 7, 44], "path": ["0", "0", "23", "24", "25", "30", "32"], "rt": [5572, 165, 35, 52, 195, 161], "actions": ["left", "left", "left", "left", "down", "down"], "actionTimes": [7261, 7431, 7999, 8581, 9303, 9989], "queries": {"click": {"state": {"target": ["29", "32", "16"], "time": [2965, 5004, 6947]}, "edge": {"target": [], "time": []}}, "mouseover": {"state": {"target": ["25", "29", "24", "22", "19", "17", "15", "14", "21", "32", "31", "0", "18", "16"], "time": [2540, 2840, 3113, 3212, 3261, 3594, 3881, 3977, 4332, 4589, 5275, 5429, 5477, 5832]}, "edge": {"target": [], "time": []}}, "mouseout": {"state": {"target": ["33", "30", "31", "0", "25", "29", "24", "22", "19", "17", "15", "14", "21", "32", "31", "0", "18", "16", "15", "16", "16", "13"], "time": [940, 990, 1007, 1711, 2707, 3067, 3130, 3244, 3277, 3660, 3962, 4011, 4398, 5137, 5395, 5451, 5499, 7572, 10921, 11088, 11210, 11288]}, "edge": {"target": [], "time": []}}}, "displayed_time": "15.69", "trialTime": 16597, "trial_type": "mouselab-mdp", "trial_index": 43, "time_elapsed": 1939251, "internal_node_id": "0.0-4.0-1.0-28.0"}}, {"uniqueid": "w66010444:a72714800", "current_trial": 44, "dateTime": 1691143942634, "trialdata": {"revealed_states": [], "clicked_states": ["16", "11", "31", "22", "20"], "num_clicks_accrued": [0, 0, 0, 0, 0, 0, 0, 0, 0, 0, 0, 0, 0], "stateRewards": ["", -2, 1, -8, 12, -65, -79, 16, 7, -80, -17, -45, -2, 2, -5, -2, -85, 23, -4, -7, 48, 27, -76, 2, 3, 5, 2, 43, 71, -13, 7, -49, 59, -31], "withholdReward": false, "trial_id": "mdp_trial_30", "block": "test", "trialIndex": 33, "score": 29, "costs": -7, "simulationMode": [null, null, null, null, null], "rewards": [-2, 2, -5, -7, 48], "path": ["0", "0", "12", "13", "14", "19", "20"], "rt": [11808, 7, 2404, 279, 179], "actions": ["right", "right", "right", "down", "right"], "actionTimes": [13124, 13662, 16600, 17402, 18099], "queries": {"click": {"state": {"target": ["16", "11", "31", "22", "20"], "time": [2310, 5103, 7036, 9121, 11088]}, "edge": {"target": [], "time": []}}, "mouseover": {"state": {"target": ["15", "18", "13", "15", "16", "4", "9", "11", "27", "11", "24", "31", "31", "22", "22", "19", "20", "21"], "time": [1350, 1472, 1775, 1824, 2054, 2531, 2600, 3046, 4404, 4953, 5891, 5975, 6374, 8140, 8596, 9260, 9671, 11596]}, "edge": {"target": [], "time": []}}, "mouseout": {"state": {"target": ["22", "0", "15", "18", "13", "15", "16", "4", "9", "11", "27", "11", "24", "31", "31", "22", "22", "19", "20", "21", "19"], "time": [489, 1346, 1420, 1541, 1809, 1887, 2465, 2554, 2649, 4324, 4843, 5352, 5924, 6024, 7907, 8255, 9224, 9419, 11292, 16553, 16822]}, "edge": {"target": [], "time": []}}}, "displayed_time": "18.62", "trialTime": 19730, "trial_type": "mouselab-mdp", "trial_index": 44, "time_elapsed": 1959498, "internal_node_id": "0.0-4.0-1.0-29.0"}}, {"uniqueid": "w66010444:a72714800", "current_trial": 45, "dateTime": 1691143960268, "trialdata": {"revealed_states": [], "clicked_states": [], "num_clicks_accrued": [0, 0, 0, 0, 0, 0, 0, 0, 0, 0, 0, 0, 0], "stateRewards": ["", 2, -3, -2, 14, -4, 85, 46, 15, -28, 41, 31, -1, -1, -1, 5, 62, 79, 57, 12, -73, -64, 86, -1, 1, -3, -5, 68, 11, -32, 8, -80, -21, -56], "withholdReward": false, "trial_id": "mdp_trial_31", "block": "test", "trialIndex": 34, "score": 81, "costs": 0, "simulationMode": [null, null, null, null, null], "rewards": [-1, -1, -1, 5, 79], "path": ["0", "0", "12", "13", "14", "15", "17"], "rt": [951, 88, 137, 1877, 49], "actions": ["right", "right", "right", "up", "right"], "actionTimes": [2602, 3212, 3911, 6323, 6882], "queries": {"click": {"state": {"target": [], "time": []}, "edge": {"target": [], "time": []}}, "mouseover": {"state": {"target": ["12", "13", "14", "14"], "time": [2145, 2197, 2247, 2461]}, "edge": {"target": [], "time": []}}, "mouseout": {"state": {"target": ["14", "13", "12", "0", "12", "13", "14", "14", "15", "16", "15", "15", "16", "15", "13"], "time": [631, 712, 950, 2111, 2178, 2228, 2294, 3335, 4213, 4645, 4947, 5094, 7710, 7931, 8010]}, "edge": {"target": [], "time": []}}}, "displayed_time": "15.65", "trialTime": 17059, "trial_type": "mouselab-mdp", "trial_index": 45, "time_elapsed": 1977131, "internal_node_id": "0.0-4.0-1.0-30.0"}}, {"uniqueid": "w66010444:a72714800", "current_trial": 46, "dateTime": 1691143977353, "trialdata": {"revealed_states": [], "clicked_states": ["9", "32", "18", "17"], "num_clicks_accrued": [0, 0, 0, 0, 0, 0, 0, 0, 0, 0, 0, 0, 0], "stateRewards": ["", 2, 4, 4, -8, -36, -33, 38, 16, -51, 57, 57, 1, 3, 4, -6, 45, 68, 87, 1, 63, 24, -55, -2, 2, -6, -13, -63, -50, 8, 2, 80, 6, 60], "withholdReward": false, "trial_id": "mdp_trial_32", "block": "test", "trialIndex": 35, "score": 83.4, "costs": -5.6, "simulationMode": [null, null, null, null, null, null], "rewards": [1, 3, 4, -6, 87], "path": ["0", "0", "12", "13", "14", "15", "18"], "rt": [7553, 224, 18, 115, 122, 47], "actions": ["right", "right", "right", "right", "up", "left"], "actionTimes": [8982, 9213, 9773, 10409, 11050, 11609], "queries": {"click": {"state": {"target": ["9", "32", "18", "17"], "time": [2619, 4748, 6569, 8399]}, "edge": {"target": [], "time": []}}, "mouseover": {"state": {"target": ["1", "2", "8", "9", "8", "24", "30", "32", "21", "20", "17", "15", "18", "15", "17"], "time": [1876, 1943, 2057, 2459, 2878, 3135, 3428, 3931, 5211, 5360, 5842, 6074, 6440, 7337, 7463]}, "edge": {"target": [], "time": []}}, "mouseout": {"state": {"target": ["0", "1", "2", "8", "9", "8", "24", "30", "32", "32", "21", "20", "17", "15", "18", "15", "17", "14"], "time": [1826, 1908, 1990, 2243, 2805, 2929, 3195, 3446, 4783, 5010, 5293, 5477, 6045, 6127, 7165, 7398, 9593, 16173]}, "edge": {"target": [], "time": []}}}, "displayed_time": "15.43", "trialTime": 16524, "trial_type": "mouselab-mdp", "trial_index": 46, "time_elapsed": 1994216, "internal_node_id": "0.0-4.0-1.0-31.0"}}, {"uniqueid": "w66010444:a72714800", "current_trial": 47, "dateTime": 1691143994451, "trialdata": {"revealed_states": [], "clicked_states": ["29"], "num_clicks_accrued": [0, 0, 0, 0, 0, 0, 0, 0, 0, 0, 0, 0, 0], "stateRewards": ["", 1, -1, 1, 13, 31, -56, 72, 2, 41, 5, 63, -2, -3, -2, 3, -71, -26, 52, 13, -31, 24, -67, 2, -2, 5, 4, 66, 43, 72, 9, 86, -26, 44], "withholdReward": false, "trial_id": "mdp_trial_33", "block": "test", "trialIndex": 36, "score": 79.6, "costs": -1.4, "simulationMode": [null, null, null, null, null], "rewards": [2, -2, 5, 4, 72], "path": ["0", "0", "23", "24", "25", "26", "29"], "rt": [2969, 4, 8, 61, 576], "actions": ["left", "left", "left", "up", "left"], "actionTimes": [4282, 4823, 5367, 5969, 7081], "queries": {"click": {"state": {"target": ["29"], "time": [2050]}, "edge": {"target": [], "time": []}}, "mouseover": {"state": {"target": ["26", "28", "26", "29", "25", "30", "31"], "time": [1482, 1700, 1739, 1785, 2327, 2410, 2620]}, "edge": {"target": [], "time": []}}, "mouseout": {"state": {"target": ["12", "0", "26", "28", "26", "29", "25", "30", "31"], "time": [516, 1337, 1532, 1719, 1766, 2228, 2361, 2426, 8160]}, "edge": {"target": [], "time": []}}}, "displayed_time": "15.31", "trialTime": 16505, "trial_type": "mouselab-mdp", "trial_index": 47, "time_elapsed": 2011314, "internal_node_id": "0.0-4.0-1.0-32.0"}}, {"uniqueid": "w66010444:a72714800", "current_trial": 48, "dateTime": 1691144011390, "trialdata": {"revealed_states": [], "clicked_states": ["5"], "num_clicks_accrued": [0, 0, 0, 0, 0, 0, 0, 0, 0, 0, 0, 0, 0], "stateRewards": ["", -1, 2, 7, 8, 75, 67, -11, 6, 52, -17, 38, -1, 4, -8, 14, 74, -37, -17, -12, 52, 55, 71, -2, -1, -5, 2, 21, 6, -88, -14, 64, -61, -47], "withholdReward": false, "trial_id": "mdp_trial_34", "block": "test", "trialIndex": 37, "score": 89.6, "costs": -1.4, "simulationMode": [null, null, null, null, null], "rewards": [-1, 2, 7, 8, 75], "path": ["0", "0", "1", "2", "3", "4", "5"], "rt": [2881, 6, 292, 604, 46], "actions": ["up", "up", "up", "right", "up"], "actionTimes": [4229, 4743, 5574, 6703, 7261], "queries": {"click": {"state": {"target": ["5"], "time": [2052]}, "edge": {"target": [], "time": []}}, "mouseover": {"state": {"target": ["6", "4", "4", "5", "9", "8", "7", "15", "18"], "time": [1371, 1642, 1764, 1859, 2761, 3016, 3135, 3693, 4042]}, "edge": {"target": [], "time": []}}, "mouseout": {"state": {"target": ["0", "6", "4", "4", "5", "5", "9", "8", "7", "15", "18", "2", "4", "5", "6", "7", "1"], "time": [927, 1442, 1676, 1811, 2105, 2289, 2961, 3060, 3154, 3861, 12261, 12507, 12799, 13242, 15956, 15990, 16039]}, "edge": {"target": [], "time": []}}}, "displayed_time": "15.35", "trialTime": 16390, "trial_type": "mouselab-mdp", "trial_index": 48, "time_elapsed": 2028253, "internal_node_id": "0.0-4.0-1.0-33.0"}}, {"uniqueid": "w66010444:a72714800", "current_trial": 49, "dateTime": 1691144028597, "trialdata": {"revealed_states": [], "clicked_states": ["17", "29", "32", "22"], "num_clicks_accrued": [0, 0, 0, 0, 0, 0, 0, 0, 0, 0, 0, 0, 0], "stateRewards": ["", 2, -4, -8, -15, 71, -43, -41, 7, -17, 20, 67, -1, -1, -4, 6, 37, -24, -47, 9, 34, 57, 45, 1, 2, -4, -5, -23, 88, -5, 13, -40, 43, 44], "withholdReward": false, "trial_id": "mdp_trial_35", "block": "test", "trialIndex": 38, "score": 49.4, "costs": -5.6, "simulationMode": [null, null, null, null, null, null], "rewards": [1, 2, -4, 13, 43], "path": ["0", "0", "23", "24", "25", "30", "32"], "rt": [7651, 197, 107, 1215, 5, 53], "actions": ["left", "left", "left", "left", "down", "down"], "actionTimes": [8637, 8839, 9492, 11238, 11759, 12340], "queries": {"click": {"state": {"target": ["17", "29", "32", "22"], "time": [2046, 4469, 6284, 7940]}, "edge": {"target": [], "time": []}}, "mouseover": {"state": {"target": ["17", "17", "14", "13", "12", "0", "23", "24", "26", "29", "29", "30", "32", "21", "22"], "time": [1442, 1818, 2300, 2417, 2489, 2544, 2598, 2659, 2869, 3041, 4299, 4716, 4787, 7145, 7401]}, "edge": {"target": [], "time": []}}, "mouseout": {"state": {"target": ["1", "12", "17", "17", "14", "13", "12", "0", "23", "24", "26", "29", "29", "29", "30", "32", "21", "22"], "time": [101, 468, 1551, 2228, 2384, 2461, 2513, 2590, 2621, 2699, 2941, 4199, 4555, 4645, 4751, 6870, 7285, 8621]}, "edge": {"target": [], "time": []}}}, "displayed_time": "14.99", "trialTime": 16676, "trial_type": "mouselab-mdp", "trial_index": 49, "time_elapsed": 2045460, "internal_node_id": "0.0-4.0-1.0-34.0"}}, {"uniqueid": "w66010444:a72714800", "current_trial": 50, "dateTime": 1691144046620, "trialdata": {"revealed_states": [], "clicked_states": ["25", "27", "33"], "num_clicks_accrued": [0, 0, 0, 0, 0, 0, 0, 0, 0, 0, 0, 0, 0], "stateRewards": ["", 1, 1, 7, -11, 80, -20, -53, -14, 3, 31, 27, 2, -1, -8, -10, 33, 41, 86, 9, 78, -37, -13, -1, -2, -6, -8, -80, 75, 4, -16, -49, -74, 24], "withholdReward": false, "trial_id": "mdp_trial_36", "block": "test", "trialIndex": 39, "score": -5.199999999999999, "costs": -4.199999999999999, "simulationMode": [null, null, null, null, null], "rewards": [-1, -2, -6, -16, 24], "path": ["0", "0", "23", "24", "25", "30", "33"], "rt": [8316, 372, 214, 111, 65], "actions": ["left", "left", "left", "down", "left"], "actionTimes": [10016, 10924, 11684, 12325, 12916], "queries": {"click": {"state": {"target": ["25", "27", "33"], "time": [4614, 6346, 7963]}, "edge": {"target": [], "time": []}}, "mouseover": {"state": {"target": ["1", "16", "17", "15", "17", "14", "13", "28", "26", "24", "23", "23", "23", "0", "23", "24", "25", "26", "28", "27", "29", "33", "30", "32"], "time": [2246, 2382, 2433, 2647, 2764, 2864, 2903, 3214, 3280, 3414, 3435, 3529, 3696, 4096, 4163, 4286, 4479, 5017, 5315, 5804, 7200, 7680, 8360, 8703]}, "edge": {"target": [], "time": []}}, "mouseout": {"state": {"target": ["0", "12", "0", "1", "16", "17", "15", "17", "14", "13", "28", "26", "24", "23", "23", "23", "0", "23", "24", "25", "26", "28", "27", "29", "33", "30"], "time": [813, 964, 2167, 2281, 2414, 2480, 2731, 2815, 2888, 2920, 3236, 3363, 3433, 3464, 3580, 3730, 4130, 4196, 4379, 4915, 5129, 5721, 6850, 7384, 8290, 8377]}, "edge": {"target": [], "time": []}}}, "displayed_time": "15.70", "trialTime": 17485, "trial_type": "mouselab-mdp", "trial_index": 50, "time_elapsed": 2063483, "internal_node_id": "0.0-4.0-1.0-35.0"}}, {"uniqueid": "w66010444:a72714800", "current_trial": 51, "dateTime": 1691144063435, "trialdata": {"revealed_states": [], "clicked_states": ["20", "16", "18"], "num_clicks_accrued": [0, 0, 0, 0, 0, 0, 0, 0, 0, 0, 0, 0, 0], "stateRewards": ["", 2, 2, 3, -15, 23, -14, 73, -7, -32, -20, -6, 1, 1, -5, -12, 73, 6, -84, 11, -81, -57, 13, -2, -1, -4, -8, -52, -58, 49, 13, 5, -41, -41], "withholdReward": false, "trial_id": "mdp_trial_37", "block": "test", "trialIndex": 40, "score": 53.8, "costs": -4.199999999999999, "simulationMode": [null, null, null, null, null, null], "rewards": [1, 1, -5, -12, 73], "path": ["0", "0", "12", "13", "14", "15", "16"], "rt": [5337, 262, 67, 545, 51, 350], "actions": ["right", "right", "right", "right", "up", "up"], "actionTimes": [6377, 6642, 7245, 8319, 8907, 9790], "queries": {"click": {"state": {"target": ["20", "16", "18"], "time": [2437, 4094, 5822]}, "edge": {"target": [], "time": []}}, "mouseover": {"state": {"target": ["0", "12", "13", "14", "19", "20", "17", "16", "16", "18", "15"], "time": [1435, 1503, 1585, 1784, 2019, 2286, 2787, 3058, 3390, 4474, 6272]}, "edge": {"target": [], "time": []}}, "mouseout": {"state": {"target": ["32", "31", "0", "0", "12", "13", "14", "19", "20", "17", "16", "16", "16", "18"], "time": [168, 361, 1053, 1470, 1551, 1651, 1975, 2136, 2497, 2888, 3130, 4187, 4375, 6237]}, "edge": {"target": [], "time": []}}}, "displayed_time": "15.04", "trialTime": 16309, "trial_type": "mouselab-mdp", "trial_index": 51, "time_elapsed": 2080299, "internal_node_id": "0.0-4.0-1.0-36.0"}}, {"uniqueid": "w66010444:a72714800", "current_trial": 52, "dateTime": 1691144080188, "trialdata": {"revealed_states": [], "clicked_states": ["5", "11", "9", "10"], "num_clicks_accrued": [0, 0, 0, 0, 0, 0, 0, 0, 0, 0, 0, 0, 0], "stateRewards": ["", 1, -3, -1, 9, -34, -40, 22, -7, 45, 53, -11, 2, 4, 5, 15, 21, 37, -49, -3, 80, -28, -34, 1, -3, 1, 1, -40, -6, -5, -16, -85, -86, 59], "withholdReward": false, "trial_id": "mdp_trial_38", "block": "test", "trialIndex": 41, "score": 37.4, "costs": -5.6, "simulationMode": [null, null, null, null, null, null], "rewards": [1, -3, -1, -7, 53], "path": ["0", "0", "1", "2", "3", "8", "10"], "rt": [8260, 225, 48, 9, 635, 117], "actions": ["up", "up", "up", "up", "left", "down"], "actionTimes": [9503, 9731, 10311, 10852, 12028, 12659], "queries": {"click": {"state": {"target": ["5", "11", "9", "10"], "time": [2870, 4805, 6821, 9189]}, "edge": {"target": [], "time": []}}, "mouseover": {"state": {"target": ["7", "2", "10", "3", "5", "9", "11", "9", "8", "10"], "time": [1522, 1608, 1941, 2456, 2738, 3361, 4263, 5125, 7100, 7365]}, "edge": {"target": [], "time": []}}, "mouseout": {"state": {"target": ["15", "18", "12", "0", "7", "2", "10", "3", "5", "9", "11", "9", "8", "10", "10", "16"], "time": [408, 472, 572, 1295, 1572, 1627, 2055, 2622, 3045, 4081, 4974, 7046, 7216, 9434, 14087, 14253]}, "edge": {"target": [], "time": []}}}, "displayed_time": "15.24", "trialTime": 16216, "trial_type": "mouselab-mdp", "trial_index": 52, "time_elapsed": 2097051, "internal_node_id": "0.0-4.0-1.0-37.0"}}, {"uniqueid": "w66010444:a72714800", "current_trial": 53, "dateTime": 1691144097699, "trialdata": {"revealed_states": [], "clicked_states": ["17"], "num_clicks_accrued": [0, 0, 0, 0, 0, 0, 0, 0, 0, 0, 0, 0, 0], "stateRewards": ["", -2, -4, 2, 10, -17, 18, 73, 11, -32, 23, -13, -2, -4, 7, 12, -25, 66, -23, 15, 40, -76, -9, 1, 2, -7, -5, -20, 24, 3, -5, 16, -73, 70], "withholdReward": false, "trial_id": "mdp_trial_39", "block": "test", "trialIndex": 42, "score": 77.6, "costs": -1.4, "simulationMode": [null, null, null, null, null], "rewards": [-2, -4, 7, 12, 66], "path": ["0", "0", "12", "13", "14", "15", "17"], "rt": [3638, 14, 8, 60, 678], "actions": ["right", "right", "right", "up", "right"], "actionTimes": [5385, 5943, 6492, 7085, 8318], "queries": {"click": {"state": {"target": ["17"], "time": [3030]}, "edge": {"target": [], "time": []}}, "mouseover": {"state": {"target": ["12", "13", "14", "17", "14", "31", "30", "33", "33"], "time": [2223, 2288, 2372, 2886, 3228, 3395, 3470, 3595, 3758]}, "edge": {"target": [], "time": []}}, "mouseout": {"state": {"target": ["2", "12", "13", "14", "17", "14", "31", "30", "33", "33", "30", "31", "12", "13", "14"], "time": [720, 2256, 2337, 2720, 3147, 3282, 3437, 3535, 3643, 5352, 5548, 5593, 5736, 5759, 5780]}, "edge": {"target": [], "time": []}}}, "displayed_time": "15.75", "trialTime": 16917, "trial_type": "mouselab-mdp", "trial_index": 53, "time_elapsed": 2114562, "internal_node_id": "0.0-4.0-1.0-38.0"}}, {"uniqueid": "w66010444:a72714800", "current_trial": 54, "dateTime": 1691144116236, "trialdata": {"revealed_states": [], "clicked_states": ["21", "29"], "num_clicks_accrued": [0, 0, 0, 0, 0, 0, 0, 0, 0, 0, 0, 0, 0], "stateRewards": ["", -2, -4, 6, 14, -34, 49, 36, -8, -3, 32, -4, 1, -2, 1, -8, -20, -71, -57, -7, -86, -62, -16, -2, -3, -5, 11, 23, -21, 53, 5, -5, 85, 73], "withholdReward": false, "trial_id": "mdp_trial_40", "block": "test", "trialIndex": 43, "score": 51.2, "costs": -2.8, "simulationMode": [null, null, null, null, null], "rewards": [-2, -3, -5, 11, 53], "path": ["0", "0", "23", "24", "25", "26", "29"], "rt": [5010, 9, 36, 116, 347], "actions": ["left", "left", "left", "up", "left"], "actionTimes": [6513, 7064, 7637, 8286, 9149], "queries": {"click": {"state": {"target": ["21", "29"], "time": [2428, 4261]}, "edge": {"target": [], "time": []}}, "mouseover": {"state": {"target": ["22", "21", "23", "28", "26", "29", "25", "30", "33", "25", "24"], "time": [2016, 2296, 2732, 2767, 2805, 3004, 4666, 4716, 5015, 6396, 6432]}, "edge": {"target": [], "time": []}}, "mouseout": {"state": {"target": ["14", "13", "12", "0", "22", "21", "23", "28", "26", "29", "25", "30", "33", "25", "24"], "time": [631, 680, 730, 1933, 2048, 2617, 2750, 2785, 2954, 4604, 4690, 4797, 6331, 6430, 6504]}, "edge": {"target": [], "time": []}}}, "displayed_time": "15.51", "trialTime": 17702, "trial_type": "mouselab-mdp", "trial_index": 54, "time_elapsed": 2133099, "internal_node_id": "0.0-4.0-1.0-39.0"}}, {"uniqueid": "w66010444:a72714800", "current_trial": 55, "dateTime": 1691144175211, "trialdata": {"rt": 58968, "response": {"Q0": "$-16 to 16", "Q1": "$-32 to $32", "Q2": "$-16 to $16", "Q3": "The cost was always $1.4.", "Q4": "Very motivated"}, "question_order": [0, 1, 2, 3, 4], "trial_id": "final_quiz_control", "trial_type": "survey-multi-choice", "trial_index": 55, "time_elapsed": 2192075, "internal_node_id": "0.0-4.0-2.0"}}, {"uniqueid": "w66010444:a72714800", "current_trial": 56, "dateTime": 1691144274434, "trialdata": {"rt": 99213, "response": {"Q0": "To click on all the outer nodes to see what values are there first", "Q1": "i ended up having a up down first the left and right strategy.", "Q2": "Not knowing how much more you have to spend before finding a node with the most value"}, "trial_id": "self_report_control", "trial_type": "survey-text", "trial_index": 56, "time_elapsed": 2291298, "internal_node_id": "0.0-4.0-3.0"}}, {"uniqueid": "w66010444:a72714800", "current_trial": 57, "dateTime": 1691144298956, "trialdata": {"rt": 24515, "response": {"gender": "male", "age": "27", "colorblind": "0", "effort": "0"}, "trial_type": "survey-html-form", "trial_index": 57, "time_elapsed": 2315820, "internal_node_id": "0.0-4.0-4.0"}}, {"uniqueid": "w66010444:a72714800", "current_trial": 58, "dateTime": 1691144347194, "trialdata": {"rt": 48230, "response": {"Q0": "No, straight foward", "Q1": "No , i don't recall ever doing this before", "Q2": ""}, "trial_type": "survey-text", "trial_index": 58, "time_elapsed": 2364058, "internal_node_id": "0.0-4.0-5.0"}}, {"uniqueid": "w66010444:a72714800", "current_trial": 59, "dateTime": 1691144352171, "trialdata": {"rt": 4972, "stimulus": "Press 'Finish HIT' in order to reach the completion code. Once the data has been saved, you will receive the code either in this window or in the original browser window where you started the experiment.\n", "response": 0, "trial_type": "html-button-response", "trial_index": 59, "time_elapsed": 2369035, "internal_node_id": "0.0-5.0"}}, {"uniqueid": "w66010444:a72714800", "current_trial": 60, "dateTime": 1691144353175, "trialdata": {"success": true, "trial_type": "fullscreen", "trial_index": 60, "time_elapsed": 2370039, "internal_node_id": "0.0-6.0"}}], "questiondata": {"params": {"CODE": "C6DMOQA6", "MIN_TIME": 14, "inspectCost": 1, "startTime": "Fri Aug 04 2023 11:39:41 GMT+0200 (South Africa Standard Time)", "bonusRate": 0.002, "variance": "1_2_4_8_44", "branching": "31123"}, "final_score": 1154.6}, "eventdata": [{"eventtype": "initialized", "value": null, "timestamp": 1691141980998, "interval": 0}, {"eventtype": "window_resize", "value": [1024, 767], "timestamp": 1691141980998, "interval": 0}, {"eventtype": "window_resize", "value": [1024, 767], "timestamp": 1691141981468, "interval": 470}, {"eventtype": "window_resize", "value": [1600, 900], "timestamp": 1691141987669, "interval": 6201}, {"eventtype": "focus", "value": "off", "timestamp": 1691141997301, "interval": 9632}, {"eventtype": "focus", "value": "on", "timestamp": 1691141999450, "interval": 2149}, {"eventtype": "focus", "value": "off", "timestamp": 1691142224491, "interval": 225041}, {"eventtype": "focus", "value": "on", "timestamp": 1691142226922, "interval": 2431}, {"eventtype": "focus", "value": "off", "timestamp": 1691142908245, "interval": 681323}, {"eventtype": "focus", "value": "on", "timestamp": 1691142908246, "interval": 1}, {"eventtype": "window_resize", "value": [1024, 767], "timestamp": 1691142908461, "interval": 215}, {"eventtype": "window_resize", "value": [1600, 900], "timestamp": 1691142910951, "interval": 2490}, {"eventtype": "window_resize", "value": [1024, 767], "timestamp": 1691144352428, "interval": 1441477}], "useragent": "Mozilla/5.0 (Windows NT 10.0; Win64; x64) AppleWebKit/537.36 (KHTML, like Gecko) Chrome/114.0.0.0 Safari/537.36", "mode": "live", "id": "w66010444:a72714800", "status": "user data saved", "Beginhit": "2023-08-04 09:39:38.612563", "Beginexp": "2023-08-04 09:39:49.189482", "Endhit": "2023-08-04 10:19:15.205553", "psiturkStatus": 3, "browser": "<redacted>", "platform": "windows", "language": "en-GB"}