{"condition": 1, "counterbalance": 0, "assignmentId": "a63579773", "workerId": "w26894460", "hitId": "h30794988", "currenttrial": 68, "bonus": 0, "data": [{"uniqueid": "w26894460:a63579773", "current_trial": 0, "dateTime": 1691158927598, "trialdata": {"success": true, "trial_type": "fullscreen", "trial_index": 0, "time_elapsed": 7972, "internal_node_id": "0.0-0.0"}}, {"uniqueid": "w26894460:a63579773", "current_trial": 1, "dateTime": 1691158960032, "trialdata": {"view_history": [{"page_index": 0, "viewing_time": 32427}], "rt": 32428, "trial_id": "exp_instructions_misaligned", "trial_type": "instructions", "trial_index": 1, "time_elapsed": 40407, "internal_node_id": "0.0-1.0"}}, {"uniqueid": "w26894460:a63579773", "current_trial": 2, "dateTime": 1691158963939, "trialdata": {"success": true, "trial_type": "fullscreen", "trial_index": 2, "time_elapsed": 44314, "internal_node_id": "0.0-2.0-0.0"}}, {"uniqueid": "w26894460:a63579773", "current_trial": 3, "dateTime": 1691159165717, "trialdata": {"view_history": [{"page_index": 0, "viewing_time": 76892}, {"page_index": 1, "viewing_time": 73280}, {"page_index": 2, "viewing_time": 26238}, {"page_index": 3, "viewing_time": 25366}], "rt": 201776, "trial_id": "mouselab_instructions_1_misaligned", "trial_type": "instructions", "trial_index": 3, "time_elapsed": 246092, "internal_node_id": "0.0-2.0-1.0"}}, {"uniqueid": "w26894460:a63579773", "current_trial": 4, "dateTime": 1691159195320, "trialdata": {"revealed_states": [], "clicked_states": [], "num_clicks_accrued": [0, 0, 0, 0, 0, 0, 0, 0, 0, 0, 0, 0, 0], "stateRewards": ["", -10, -10, 10, 10, 10, 10, -10, 10, -10, 10, -10, -10, 10, 10, 10, 10, 10, 10, -10, 10, 10, -10, -10, 10, 10, 10, 10, 10, 10, -10, 10, 10, 10], "withholdReward": false, "trial_id": "practice_1", "block": "test", "trialIndex": 0, "score": 13.5, "costs": 0, "simulationMode": [null, null, null, null, null], "rewards": [-10, -10, 10, 10, 10], "path": ["0", "0", "1", "2", "3", "4", "5"], "rt": [4613, 4133, 8368, 435, 116], "actions": ["up", "up", "up", "right", "up"], "actionTimes": [8556, 13180, 22049, 22988, 23596], "queries": {"click": {"state": {"target": [], "time": []}, "edge": {"target": [], "time": []}}, "mouseover": {"state": {"target": [], "time": []}, "edge": {"target": [], "time": []}}, "mouseout": {"state": {"target": ["23", "0", "0", "1", "2", "3", "9"], "time": [2906, 5508, 16395, 16459, 16506, 16620, 20589]}, "edge": {"target": [], "time": []}}}, "displayed_time": "24.10", "trialTime": 28771, "trial_type": "mouselab-mdp", "trial_index": 4, "time_elapsed": 275695, "internal_node_id": "0.0-2.0-2.0-0.0"}}, {"uniqueid": "w26894460:a63579773", "current_trial": 5, "dateTime": 1691159213194, "trialdata": {"revealed_states": [], "clicked_states": ["8"], "num_clicks_accrued": [0, 0, 0, 0, 0, 0, 0, 0, 0, 0, 0, 0, 0], "stateRewards": ["", 10, -10, 10, -10, 10, 10, 10, -10, 10, -10, 10, 10, 10, -10, 10, 10, 10, 10, 10, -10, 10, 10, -10, -10, 10, 10, 10, -10, 10, 10, 10, -10, -10], "withholdReward": false, "trial_id": "practice_2", "block": "test", "trialIndex": 1, "score": 33, "costs": -0.5, "simulationMode": [null, null, null, null, null], "rewards": [10, 10, -10, 10, 10], "path": ["0", "0", "12", "13", "14", "19", "22"], "rt": [5114, 1257, 630, 335, 637], "actions": ["right", "right", "right", "down", "left"], "actionTimes": [8406, 10158, 11285, 12117, 13253], "queries": {"click": {"state": {"target": ["8"], "time": [4448]}, "edge": {"target": [], "time": []}}, "mouseover": {"state": {"target": ["1", "2", "8", "2"], "time": [3897, 3948, 4134, 6235]}, "edge": {"target": [], "time": []}}, "mouseout": {"state": {"target": ["4", "7", "0", "1", "2", "8", "2", "13"], "time": [1431, 1464, 3013, 3938, 3972, 5964, 6364, 9031]}, "edge": {"target": [], "time": []}}}, "displayed_time": "13.75", "trialTime": 17446, "trial_type": "mouselab-mdp", "trial_index": 5, "time_elapsed": 293568, "internal_node_id": "0.0-2.0-2.0-1.0"}}, {"uniqueid": "w26894460:a63579773", "current_trial": 6, "dateTime": 1691159227719, "trialdata": {"view_history": [{"page_index": 0, "viewing_time": 8227}, {"page_index": 1, "viewing_time": 6295}], "rt": 14523, "trial_id": "mouselab_instructions_2_misaligned", "trial_type": "instructions", "trial_index": 6, "time_elapsed": 308094, "internal_node_id": "0.0-2.0-3.0"}}, {"uniqueid": "w26894460:a63579773", "current_trial": 7, "dateTime": 1691159276506, "trialdata": {"rt": 48780, "response": {"Q0": "There is no cost for clicking on nodes.", "Q1": "The better I perform the higher my bonus will be.", "Q2": "Yes.", "Q3": "To finish the game in the shortest amount of time.", "Q4": "Only before moving the spider.", "Q5": "3 seconds"}, "question_order": [0, 1, 2, 3, 4, 5], "correct": {"Q0": "The cost for clicking on nodes may vary between nodes.", "Q1": "The better I perform the higher my bonus will be.", "Q2": "No, the amount of cash at each node of the web may be different each time.", "Q3": "To get the highest total score.", "Q4": "Only before moving the spider.", "Q5": "3 seconds"}, "trial_id": "mouselab_quiz_misaligned", "trial_type": "survey-multi-choice", "trial_index": 7, "time_elapsed": 356881, "internal_node_id": "0.0-2.0-4.0"}}, {"uniqueid": "w26894460:a63579773", "current_trial": 8, "dateTime": 1691159286619, "trialdata": {"success": true, "trial_type": "fullscreen", "trial_index": 8, "time_elapsed": 366994, "internal_node_id": "0.0-2.1-0.1"}}, {"uniqueid": "w26894460:a63579773", "current_trial": 9, "dateTime": 1691159302686, "trialdata": {"view_history": [{"page_index": 0, "viewing_time": 9683}, {"page_index": 1, "viewing_time": 3386}, {"page_index": 2, "viewing_time": 1471}, {"page_index": 3, "viewing_time": 1526}], "rt": 16066, "trial_id": "mouselab_instructions_1_misaligned", "trial_type": "instructions", "trial_index": 9, "time_elapsed": 383061, "internal_node_id": "0.0-2.1-1.1"}}, {"uniqueid": "w26894460:a63579773", "current_trial": 10, "dateTime": 1691159320035, "trialdata": {"revealed_states": [], "clicked_states": ["12", "14", "15"], "num_clicks_accrued": [0, 0, 0, 0, 0, 0, 0, 0, 0, 0, 0, 0, 0], "stateRewards": ["", -10, -10, 10, 10, 10, 10, -10, 10, -10, 10, -10, -10, 10, 10, 10, 10, 10, 10, -10, 10, 10, -10, -10, 10, 10, 10, 10, 10, 10, -10, 10, 10, 10], "withholdReward": false, "trial_id": "practice_1", "block": "test", "trialIndex": 2, "score": 12, "costs": -1.5, "simulationMode": [null, null, null, null, null], "rewards": [-10, -10, 10, 10, 10], "path": ["0", "0", "1", "2", "3", "4", "5"], "rt": [7546, 180, 1333, 598, 138], "actions": ["up", "up", "up", "right", "up"], "actionTimes": [9182, 9877, 11708, 12814, 13474], "queries": {"click": {"state": {"target": ["12", "14", "15"], "time": [3611, 4750, 6001]}, "edge": {"target": [], "time": []}}, "mouseover": {"state": {"target": ["0", "12", "13", "14", "15", "13", "22"], "time": [2516, 3221, 3910, 4682, 5233, 6851, 7066]}, "edge": {"target": [], "time": []}}, "mouseout": {"state": {"target": ["12", "0", "0", "12", "13", "14", "15", "13", "22", "12"], "time": [1179, 1288, 3166, 3851, 4555, 4883, 6614, 6992, 7549, 7632]}, "edge": {"target": [], "time": []}}}, "displayed_time": "13.98", "trialTime": 16894, "trial_type": "mouselab-mdp", "trial_index": 10, "time_elapsed": 400399, "internal_node_id": "0.0-2.1-2.1-0.1"}}, {"uniqueid": "w26894460:a63579773", "current_trial": 11, "dateTime": 1691159333225, "trialdata": {"revealed_states": [], "clicked_states": ["23", "24", "28"], "num_clicks_accrued": [0, 0, 0, 0, 0, 0, 0, 0, 0, 0, 0, 0, 0], "stateRewards": ["", 10, -10, 10, -10, 10, 10, 10, -10, 10, -10, 10, 10, 10, -10, 10, 10, 10, 10, 10, -10, 10, 10, -10, -10, 10, 10, 10, -10, 10, 10, 10, -10, -10], "withholdReward": false, "trial_id": "practice_2", "block": "test", "trialIndex": 3, "score": 32, "costs": -1.5, "simulationMode": [null, null, null, null, null], "rewards": [10, 10, -10, 10, 10], "path": ["0", "0", "12", "13", "14", "15", "16"], "rt": [6013, 85, 222, 108, 363], "actions": ["right", "right", "right", "up", "up"], "actionTimes": [7583, 8168, 8901, 9510, 10372], "queries": {"click": {"state": {"target": ["23", "24", "28"], "time": [2270, 4064, 5429]}, "edge": {"target": [], "time": []}}, "mouseover": {"state": {"target": ["0", "23", "24", "28", "28", "24", "28"], "time": [1700, 2123, 2482, 2893, 3856, 4041, 4424]}, "edge": {"target": [], "time": []}}, "mouseout": {"state": {"target": ["0", "0", "23", "24", "28", "28", "24", "28"], "time": [1280, 1973, 2445, 2824, 3558, 3995, 4074, 6010]}, "edge": {"target": [], "time": []}}}, "displayed_time": "10.88", "trialTime": 12734, "trial_type": "mouselab-mdp", "trial_index": 11, "time_elapsed": 413599, "internal_node_id": "0.0-2.1-2.1-1.1"}}, {"uniqueid": "w26894460:a63579773", "current_trial": 12, "dateTime": 1691159346239, "trialdata": {"view_history": [{"page_index": 0, "viewing_time": 9776}, {"page_index": 1, "viewing_time": 3235}], "rt": 13011, "trial_id": "mouselab_instructions_2_misaligned", "trial_type": "instructions", "trial_index": 12, "time_elapsed": 426614, "internal_node_id": "0.0-2.1-3.1"}}, {"uniqueid": "w26894460:a63579773", "current_trial": 13, "dateTime": 1691159399809, "trialdata": {"rt": 53566, "response": {"Q0": "There is no cost for clicking on nodes.", "Q1": "The better I perform the higher my bonus will be.", "Q2": "Yes.", "Q3": "To get the highest total score.", "Q4": "Only before moving the spider.", "Q5": "3 seconds"}, "question_order": [0, 1, 2, 3, 4, 5], "correct": {"Q0": "The cost for clicking on nodes may vary between nodes.", "Q1": "The better I perform the higher my bonus will be.", "Q2": "No, the amount of cash at each node of the web may be different each time.", "Q3": "To get the highest total score.", "Q4": "Only before moving the spider.", "Q5": "3 seconds"}, "trial_id": "mouselab_quiz_misaligned", "trial_type": "survey-multi-choice", "trial_index": 13, "time_elapsed": 480184, "internal_node_id": "0.0-2.1-4.1"}}, {"uniqueid": "w26894460:a63579773", "current_trial": 14, "dateTime": 1691159407656, "trialdata": {"success": true, "trial_type": "fullscreen", "trial_index": 14, "time_elapsed": 488031, "internal_node_id": "0.0-2.2-0.2"}}, {"uniqueid": "w26894460:a63579773", "current_trial": 15, "dateTime": 1691159527073, "trialdata": {"view_history": [{"page_index": 0, "viewing_time": 28010}, {"page_index": 1, "viewing_time": 51964}, {"page_index": 2, "viewing_time": 5962}, {"page_index": 3, "viewing_time": 33477}], "rt": 119414, "trial_id": "mouselab_instructions_1_misaligned", "trial_type": "instructions", "trial_index": 15, "time_elapsed": 607448, "internal_node_id": "0.0-2.2-1.2"}}, {"uniqueid": "w26894460:a63579773", "current_trial": 16, "dateTime": 1691159539561, "trialdata": {"revealed_states": [], "clicked_states": ["23", "1", "28"], "num_clicks_accrued": [0, 0, 0, 0, 0, 0, 0, 0, 0, 0, 0, 0, 0], "stateRewards": ["", -10, -10, 10, 10, 10, 10, -10, 10, -10, 10, -10, -10, 10, 10, 10, 10, 10, 10, -10, 10, 10, -10, -10, 10, 10, 10, 10, 10, 10, -10, 10, 10, 10], "withholdReward": false, "trial_id": "practice_1", "block": "test", "trialIndex": 4, "score": 32, "costs": -1.5, "simulationMode": [null, null, null, null, null], "rewards": [-10, 10, 10, 10, 10], "path": ["0", "0", "12", "13", "14", "15", "17"], "rt": [4733, 149, 357, 42, 13], "actions": ["right", "right", "right", "up", "right"], "actionTimes": [6737, 7407, 8263, 8799, 9303], "queries": {"click": {"state": {"target": ["23", "1", "28"], "time": [2618, 3692, 4861]}, "edge": {"target": [], "time": []}}, "mouseover": {"state": {"target": ["23", "24", "28", "1", "2", "10", "28", "28", "12"], "time": [2489, 3002, 3357, 3486, 4058, 4451, 4605, 4797, 5811]}, "edge": {"target": [], "time": []}}, "mouseout": {"state": {"target": ["0", "23", "24", "28", "1", "2", "10", "28", "28", "12"], "time": [1641, 2961, 3306, 3391, 3792, 4323, 4539, 4672, 5690, 6056]}, "edge": {"target": [], "time": []}}}, "displayed_time": "9.85", "trialTime": 12017, "trial_type": "mouselab-mdp", "trial_index": 16, "time_elapsed": 619936, "internal_node_id": "0.0-2.2-2.2-0.2"}}, {"uniqueid": "w26894460:a63579773", "current_trial": 17, "dateTime": 1691159552172, "trialdata": {"revealed_states": [], "clicked_states": ["1", "2", "3"], "num_clicks_accrued": [0, 0, 0, 0, 0, 0, 0, 0, 0, 0, 0, 0, 0], "stateRewards": ["", 10, -10, 10, -10, 10, 10, 10, -10, 10, -10, 10, 10, 10, -10, 10, 10, 10, 10, 10, -10, 10, 10, -10, -10, 10, 10, 10, -10, 10, 10, 10, -10, -10], "withholdReward": false, "trial_id": "practice_2", "block": "test", "trialIndex": 5, "score": -8, "costs": -1.5, "simulationMode": [null, null, null, null, null], "rewards": [-10, -10, 10, 10, -10], "path": ["0", "0", "23", "24", "25", "30", "33"], "rt": [5601, 435, 359, 101, 96], "actions": ["left", "left", "left", "down", "left"], "actionTimes": [6774, 7701, 8558, 9161, 9763], "queries": {"click": {"state": {"target": ["1", "2", "3"], "time": [2290, 3580, 5281]}, "edge": {"target": [], "time": []}}, "mouseover": {"state": {"target": ["1", "2", "2", "7", "4", "3", "22"], "time": [2151, 2587, 3211, 4383, 5069, 5214, 5698]}, "edge": {"target": [], "time": []}}, "mouseout": {"state": {"target": ["0", "1", "2", "2", "7", "4", "3", "22"], "time": [2037, 2337, 2736, 4148, 4980, 5080, 5525, 5740]}, "edge": {"target": [], "time": []}}}, "displayed_time": "10.27", "trialTime": 11984, "trial_type": "mouselab-mdp", "trial_index": 17, "time_elapsed": 632546, "internal_node_id": "0.0-2.2-2.2-1.2"}}, {"uniqueid": "w26894460:a63579773", "current_trial": 18, "dateTime": 1691159558199, "trialdata": {"view_history": [{"page_index": 0, "viewing_time": 3816}, {"page_index": 1, "viewing_time": 2205}], "rt": 6021, "trial_id": "mouselab_instructions_2_misaligned", "trial_type": "instructions", "trial_index": 18, "time_elapsed": 638574, "internal_node_id": "0.0-2.2-3.2"}}, {"uniqueid": "w26894460:a63579773", "current_trial": 19, "dateTime": 1691159580686, "trialdata": {"rt": 22485, "response": {"Q0": "The cost for clicking on nodes may vary between nodes.", "Q1": "The better I perform the higher my bonus will be.", "Q2": "No, the amount of cash at each node of the web may be different each time.", "Q3": "To get the highest total score.", "Q4": "Only before moving the spider.", "Q5": "3 seconds"}, "question_order": [0, 1, 2, 3, 4, 5], "correct": {"Q0": "The cost for clicking on nodes may vary between nodes.", "Q1": "The better I perform the higher my bonus will be.", "Q2": "No, the amount of cash at each node of the web may be different each time.", "Q3": "To get the highest total score.", "Q4": "Only before moving the spider.", "Q5": "3 seconds"}, "trial_id": "mouselab_quiz_misaligned", "trial_type": "survey-multi-choice", "trial_index": 19, "time_elapsed": 661061, "internal_node_id": "0.0-2.2-4.2"}}, {"uniqueid": "w26894460:a63579773", "current_trial": 20, "dateTime": 1691159593384, "trialdata": {"rt": 12692, "stimulus": "\n<h1> Get ready to start the game! </h1>\n\nThank you for reading the instructions. Get ready start with the 40 rounds of this game.\n<br><br>\nIf you need to take a break, feel free to take one after the end of a round, before continuing to the next one.\n<br><br>\nRemember, the more money the spider gets, the bigger your bonus will be!\n<br><br>\n<div style='text-align: center;'>Press <code>space</code> to begin.</div>\n\n<br><br>\n(If, at any point, the <code>space</code> key does not take you to the next page, click once on the text and try again.)", "response": " ", "trial_id": "mdp_ready", "trial_type": "html-keyboard-response", "trial_index": 20, "time_elapsed": 673759, "internal_node_id": "0.0-4.0-0.0"}}, {"uniqueid": "w26894460:a63579773", "current_trial": 21, "dateTime": 1691159612176, "trialdata": {"revealed_states": [], "clicked_states": [], "num_clicks_accrued": [0, 0, 0, 0, 0, 0, 0, 0, 0, 0, 0, 0, 0], "stateRewards": ["", 1, -1, 8, 4, 76, -33, -17, -3, -1, -54, -74, -2, 2, -5, 13, -51, 63, 83, 1, 84, 29, -36, 2, -1, 7, -12, -10, -44, -43, -14, 8, -69, 19], "withholdReward": false, "trial_id": "mdp_trial_1", "block": "test", "trialIndex": 6, "score": 71, "costs": 0, "simulationMode": [null, null, null, null, null], "rewards": [-2, 2, -5, 13, 63], "path": ["0", "0", "12", "13", "14", "15", "17"], "rt": [1275, 113, 139, 609, 95], "actions": ["right", "right", "right", "up", "right"], "actionTimes": [2909, 3531, 4179, 5291, 5879], "queries": {"click": {"state": {"target": [], "time": []}, "edge": {"target": [], "time": []}}, "mouseover": {"state": {"target": [], "time": []}, "edge": {"target": [], "time": []}}, "mouseout": {"state": {"target": [], "time": []}, "edge": {"target": [], "time": []}}}, "displayed_time": "15.63", "trialTime": 18355, "trial_type": "mouselab-mdp", "trial_index": 21, "time_elapsed": 692550, "internal_node_id": "0.0-4.0-1.0-0.0"}}, {"uniqueid": "w26894460:a63579773", "current_trial": 22, "dateTime": 1691159630368, "trialdata": {"revealed_states": [], "clicked_states": [], "num_clicks_accrued": [0, 0, 0, 0, 0, 0, 0, 0, 0, 0, 0, 0, 0], "stateRewards": ["", 1, 1, 7, -11, 80, -20, -53, -14, 3, 31, 27, 2, -1, -8, -10, 33, 41, 86, 9, 78, -37, -13, -1, -2, -6, -8, -80, 75, 4, -16, -49, -74, 24], "withholdReward": false, "trial_id": "mdp_trial_2", "block": "test", "trialIndex": 7, "score": 26, "costs": 0, "simulationMode": [null, null, null, null, null], "rewards": [1, 1, 7, -14, 31], "path": ["0", "0", "1", "2", "3", "8", "10"], "rt": [664, 307, 88, 475, 44], "actions": ["up", "up", "up", "left", "down"], "actionTimes": [2027, 2847, 3445, 4427, 4975], "queries": {"click": {"state": {"target": [], "time": []}, "edge": {"target": [], "time": []}}, "mouseover": {"state": {"target": [], "time": []}, "edge": {"target": [], "time": []}}, "mouseout": {"state": {"target": [], "time": []}, "edge": {"target": [], "time": []}}}, "displayed_time": "15.37", "trialTime": 17747, "trial_type": "mouselab-mdp", "trial_index": 22, "time_elapsed": 710743, "internal_node_id": "0.0-4.0-1.0-1.0"}}, {"uniqueid": "w26894460:a63579773", "current_trial": 23, "dateTime": 1691159646841, "trialdata": {"revealed_states": [], "clicked_states": ["12", "13", "14", "15"], "num_clicks_accrued": [0, 0, 0, 0, 0, 0, 0, 0, 0, 0, 0, 0, 0], "stateRewards": ["", 1, -3, -2, 14, 49, -40, -39, 2, 26, -61, 73, 1, -4, -8, 12, 79, 29, -65, -13, 55, -26, 27, -1, 3, 3, 9, -17, -60, -18, -8, 35, -88, 69], "withholdReward": false, "trial_id": "mdp_trial_3", "block": "test", "trialIndex": 8, "score": -66.6, "costs": -2.5999999999999996, "simulationMode": [null, null, null, null, null], "rewards": [1, -4, -8, 12, -65], "path": ["0", "0", "12", "13", "14", "15", "18"], "rt": [3185, 64, 137, 57, 24], "actions": ["right", "right", "right", "up", "left"], "actionTimes": [4170, 4758, 5430, 5984, 6518], "queries": {"click": {"state": {"target": ["12", "13", "14", "15"], "time": [1537, 1882, 2877, 3427]}, "edge": {"target": [], "time": []}}, "mouseover": {"state": {"target": ["12", "13", "14", "18", "14", "15", "19"], "time": [1439, 1799, 2220, 2477, 2825, 3344, 4051]}, "edge": {"target": [], "time": []}}, "mouseout": {"state": {"target": ["0", "12", "12", "13", "14", "18", "14", "15", "14", "19", "22", "18", "18", "22", "13"], "time": [1368, 1585, 1738, 2113, 2378, 2670, 2884, 3837, 4003, 8291, 8384, 8451, 8630, 9391, 9724]}, "edge": {"target": [], "time": []}}}, "displayed_time": "14.99", "trialTime": 16048, "trial_type": "mouselab-mdp", "trial_index": 23, "time_elapsed": 727215, "internal_node_id": "0.0-4.0-1.0-2.0"}}, {"uniqueid": "w26894460:a63579773", "current_trial": 24, "dateTime": 1691159664961, "trialdata": {"revealed_states": [], "clicked_states": ["1", "2", "3", "4", "5"], "num_clicks_accrued": [0, 0, 0, 0, 0, 0, 0, 0, 0, 0, 0, 0, 0], "stateRewards": ["", -2, 4, -7, -3, -76, 39, -28, 10, 14, 12, 60, 2, -3, 6, -10, 88, -34, -41, -3, 72, -13, -56, 1, 3, 2, 8, -51, 23, -57, 1, 14, -46, -16], "withholdReward": false, "trial_id": "mdp_trial_4", "block": "test", "trialIndex": 9, "score": -47.75, "costs": -4.75, "simulationMode": [null, null, null, null, null, null], "rewards": [1, 3, 2, 8, -57], "path": ["0", "0", "23", "24", "25", "26", "29"], "rt": [3578, 684, 117, 72, 69, 427], "actions": ["left", "left", "left", "left", "up", "left"], "actionTimes": [5497, 6184, 6836, 7434, 8033, 8969], "queries": {"click": {"state": {"target": ["1", "2", "3", "4", "5"], "time": [2428, 3297, 3730, 4205, 4840]}, "edge": {"target": [], "time": []}}, "mouseover": {"state": {"target": ["1", "2", "3", "4", "5", "7"], "time": [2347, 3140, 3640, 4132, 4776, 5349]}, "edge": {"target": [], "time": []}}, "mouseout": {"state": {"target": ["15", "12", "0", "1", "2", "3", "4", "5", "4", "7"], "time": [908, 1365, 2232, 2725, 3526, 4020, 4693, 5231, 5325, 5380]}, "edge": {"target": [], "time": []}}}, "displayed_time": "15.93", "trialTime": 17666, "trial_type": "mouselab-mdp", "trial_index": 24, "time_elapsed": 745336, "internal_node_id": "0.0-4.0-1.0-3.0"}}, {"uniqueid": "w26894460:a63579773", "current_trial": 25, "dateTime": 1691159682124, "trialdata": {"revealed_states": [], "clicked_states": ["12", "13"], "num_clicks_accrued": [0, 0, 0, 0, 0, 0, 0, 0, 0, 0, 0, 0, 0], "stateRewards": ["", -1, 3, 8, 10, -86, 61, -36, 10, 17, -60, 24, -1, -3, 3, 11, 50, 60, 33, -3, -20, 58, -6, 1, -4, -4, 13, -70, -71, 43, 14, 52, 82, -11], "withholdReward": false, "trial_id": "mdp_trial_5", "block": "test", "trialIndex": 10, "score": 69.9, "costs": -0.09999999999999998, "simulationMode": [null, null, null, null, null], "rewards": [-1, -3, 3, 11, 60], "path": ["0", "0", "12", "13", "14", "15", "17"], "rt": [1557, 66, 96, 25, 16], "actions": ["right", "right", "right", "up", "right"], "actionTimes": [2627, 3203, 3822, 4351, 4883], "queries": {"click": {"state": {"target": ["12", "13"], "time": [1634, 2333]}, "edge": {"target": [], "time": []}}, "mouseover": {"state": {"target": ["12", "13"], "time": [1533, 1999]}, "edge": {"target": [], "time": []}}, "mouseout": {"state": {"target": ["12", "13", "15", "14", "21"], "time": [1702, 7648, 7732, 7998, 8147]}, "edge": {"target": [], "time": []}}}, "displayed_time": "15.07", "trialTime": 16702, "trial_type": "mouselab-mdp", "trial_index": 25, "time_elapsed": 762498, "internal_node_id": "0.0-4.0-1.0-4.0"}}, {"uniqueid": "w26894460:a63579773", "current_trial": 26, "dateTime": 1691159699863, "trialdata": {"revealed_states": [], "clicked_states": ["1", "18", "13", "12", "14"], "num_clicks_accrued": [0, 0, 0, 0, 0, 0, 0, 0, 0, 0, 0, 0, 0], "stateRewards": ["", -1, 1, -2, 5, 73, 15, 61, 8, 7, 38, 76, 2, 2, -4, -6, -6, -26, 43, -5, -45, -85, -35, -2, 1, -4, 15, -10, 69, 72, -11, 84, -49, -38], "withholdReward": false, "trial_id": "mdp_trial_6", "block": "test", "trialIndex": 11, "score": 34.05, "costs": -2.95, "simulationMode": [null, null, null, null, null, null], "rewards": [2, 2, -4, -6, 43], "path": ["0", "0", "12", "13", "14", "15", "18"], "rt": [2717, 3478, 12, 75, 17, 506], "actions": ["right", "right", "right", "right", "up", "left"], "actionTimes": [4159, 7639, 8183, 8783, 9311, 10343], "queries": {"click": {"state": {"target": ["1", "18", "13", "12", "14"], "time": [2344, 3359, 5188, 5873, 6569]}, "edge": {"target": [], "time": []}}, "mouseover": {"state": {"target": ["1", "18", "13", "12", "14"], "time": [2235, 3174, 4003, 5669, 6259]}, "edge": {"target": [], "time": []}}, "mouseout": {"state": {"target": ["22", "12", "1", "18", "13", "12", "13", "14", "13", "12", "13", "14", "15", "18", "13", "22"], "time": [694, 1068, 2703, 3935, 5610, 6108, 6197, 7385, 11344, 11729, 11986, 12244, 12454, 12744, 12786, 16832]}, "edge": {"target": [], "time": []}}}, "displayed_time": "15.44", "trialTime": 17247, "trial_type": "mouselab-mdp", "trial_index": 26, "time_elapsed": 780238, "internal_node_id": "0.0-4.0-1.0-5.0"}}, {"uniqueid": "w26894460:a63579773", "current_trial": 27, "dateTime": 1691159717791, "trialdata": {"revealed_states": [], "clicked_states": ["12", "1", "23", "24", "13", "18"], "num_clicks_accrued": [0, 0, 0, 0, 0, 0, 0, 0, 0, 0, 0, 0, 0], "stateRewards": ["", -2, 4, 3, 5, -61, 4, 30, 1, -47, 83, 10, 1, 4, 7, -14, 19, -74, -83, 6, -2, -2, -65, -1, -2, 4, -11, 12, -1, -68, 11, -38, -28, 66], "withholdReward": false, "trial_id": "mdp_trial_7", "block": "test", "trialIndex": 12, "score": -13.1, "costs": -2.0999999999999996, "simulationMode": [null, null, null, null, null, null], "rewards": [-1, -2, 4, -11, -1], "path": ["0", "0", "23", "24", "25", "26", "28"], "rt": [6593, 1554, 485, 157, 78, 172], "actions": ["right", "left", "left", "left", "up", "right"], "actionTimes": [8736, 10292, 11304, 11952, 12531, 13201], "queries": {"click": {"state": {"target": ["12", "1", "23", "24", "13", "18"], "time": [3025, 3848, 4317, 5753, 6659, 7195]}, "edge": {"target": [], "time": []}}, "mouseover": {"state": {"target": ["12", "1", "23", "24", "13", "13", "18", "1", "28", "0", "12"], "time": [2926, 3709, 4238, 5653, 6295, 6576, 7102, 7530, 7760, 8630, 8669]}, "edge": {"target": [], "time": []}}, "mouseout": {"state": {"target": ["0", "12", "1", "23", "24", "13", "13", "18", "1", "28", "0", "12", "18", "13"], "time": [2885, 3442, 4111, 5497, 6156, 6377, 7028, 7393, 7567, 8529, 8643, 8697, 16786, 16893]}, "edge": {"target": [], "time": []}}}, "displayed_time": "16.15", "trialTime": 17432, "trial_type": "mouselab-mdp", "trial_index": 27, "time_elapsed": 798166, "internal_node_id": "0.0-4.0-1.0-6.0"}}, {"uniqueid": "w26894460:a63579773", "current_trial": 28, "dateTime": 1691159738026, "trialdata": {"revealed_states": [], "clicked_states": ["23", "24", "1", "12", "13", "14", "19", "20"], "num_clicks_accrued": [0, 0, 0, 0, 0, 0, 0, 0, 0, 0, 0, 0, 0], "stateRewards": ["", -2, -4, -2, -13, -15, 87, -19, -6, -80, 30, 12, 1, 1, -8, 2, 55, 56, 15, 11, -68, -7, 55, -2, 3, -3, -3, 48, 62, 4, 1, -3, 69, -33], "withholdReward": false, "trial_id": "mdp_trial_8", "block": "test", "trialIndex": 13, "score": -40.6, "costs": -4.6, "simulationMode": [null, null, null, null, null, null], "rewards": [-2, -4, -2, -13, -15], "path": ["0", "0", "1", "2", "3", "4", "5"], "rt": [8597, 1890, 85, 85, 38, 117], "actions": ["right", "up", "up", "up", "right", "up"], "actionTimes": [9708, 11604, 12187, 12773, 13306, 13930], "queries": {"click": {"state": {"target": ["23", "24", "1", "12", "13", "14", "19", "20"], "time": [3110, 3645, 4253, 4793, 5895, 6677, 7320, 7949]}, "edge": {"target": [], "time": []}}, "mouseover": {"state": {"target": ["23", "23", "24", "1", "12", "13", "14", "19", "20", "21", "21", "22", "12", "1"], "time": [2408, 2958, 3494, 4139, 4634, 5786, 6486, 7271, 7881, 8354, 8884, 9199, 10916, 11217]}, "edge": {"target": [], "time": []}}, "mouseout": {"state": {"target": ["22", "0", "23", "23", "24", "1", "12", "13", "14", "19", "20", "21", "21", "22", "12", "1", "1", "1"], "time": [90, 2365, 2470, 3319, 3705, 4449, 5705, 6442, 7218, 7791, 8312, 8467, 9112, 10783, 11016, 11237, 14982, 19666]}, "edge": {"target": [], "time": []}}}, "displayed_time": "15.11", "trialTime": 19773, "trial_type": "mouselab-mdp", "trial_index": 28, "time_elapsed": 818401, "internal_node_id": "0.0-4.0-1.0-7.0"}}, {"uniqueid": "w26894460:a63579773", "current_trial": 29, "dateTime": 1691159755672, "trialdata": {"revealed_states": [], "clicked_states": ["1", "2", "23", "24", "12"], "num_clicks_accrued": [0, 0, 0, 0, 0, 0, 0, 0, 0, 0, 0, 0, 0], "stateRewards": ["", 1, -1, 4, -2, -75, -75, 84, -9, -60, -79, 59, 2, -4, 8, 9, -17, -82, 80, 14, -4, 49, 49, -1, 3, 6, -11, -33, 34, 55, 9, -57, 5, 59], "withholdReward": false, "trial_id": "mdp_trial_9", "block": "test", "trialIndex": 14, "score": 95.05, "costs": 0.050000000000000044, "simulationMode": [null, null, null, null, null], "rewards": [2, -4, 8, 9, 80], "path": ["0", "0", "12", "13", "14", "15", "18"], "rt": [3912, 3, 107, 50, 235], "actions": ["right", "right", "right", "up", "left"], "actionTimes": [4903, 5422, 6056, 6609, 7359], "queries": {"click": {"state": {"target": ["1", "2", "23", "24", "12"], "time": [1527, 1902, 2541, 2823, 3834]}, "edge": {"target": [], "time": []}}, "mouseover": {"state": {"target": ["1", "2", "23", "24", "0", "12", "12"], "time": [1406, 1823, 2426, 2741, 3033, 3122, 3757]}, "edge": {"target": [], "time": []}}, "mouseout": {"state": {"target": ["1", "2", "23", "23", "24", "23", "0", "12", "12"], "time": [1591, 2184, 2590, 2713, 2952, 3022, 3085, 3163, 8789]}, "edge": {"target": [], "time": []}}}, "displayed_time": "14.99", "trialTime": 17174, "trial_type": "mouselab-mdp", "trial_index": 29, "time_elapsed": 836046, "internal_node_id": "0.0-4.0-1.0-8.0"}}, {"uniqueid": "w26894460:a63579773", "current_trial": 30, "dateTime": 1691159772776, "trialdata": {"revealed_states": [], "clicked_states": ["23", "24", "12", "13", "1", "2"], "num_clicks_accrued": [0, 0, 0, 0, 0, 0, 0, 0, 0, 0, 0, 0, 0], "stateRewards": ["", -2, 2, 3, -7, 76, 63, 21, 15, 35, -8, -44, 1, 1, -2, -12, 23, 24, 76, -9, 46, 66, -49, -2, -1, 7, 12, 40, -71, -45, -6, 38, -49, 46], "withholdReward": false, "trial_id": "mdp_trial_10", "block": "test", "trialIndex": 15, "score": 56.7, "costs": -0.29999999999999993, "simulationMode": [null, null, null, null, null], "rewards": [1, 1, -2, -9, 66], "path": ["0", "0", "12", "13", "14", "19", "21"], "rt": [4774, 447, 26, 527, 127], "actions": ["right", "right", "right", "down", "down"], "actionTimes": [5819, 6772, 7291, 8335, 8963], "queries": {"click": {"state": {"target": ["23", "24", "12", "13", "1", "2"], "time": [1988, 2306, 3026, 3295, 3949, 4320]}, "edge": {"target": [], "time": []}}, "mouseover": {"state": {"target": ["23", "24", "0", "12", "12", "13", "1", "2"], "time": [1879, 2181, 2587, 2652, 2947, 3220, 3782, 4287]}, "edge": {"target": [], "time": []}}, "mouseout": {"state": {"target": ["12", "0", "23", "24", "23", "0", "12", "12", "13", "1", "2", "1"], "time": [596, 1736, 2149, 2325, 2573, 2619, 2707, 3157, 3582, 4106, 4502, 4685]}, "edge": {"target": [], "time": []}}}, "displayed_time": "15.05", "trialTime": 16620, "trial_type": "mouselab-mdp", "trial_index": 30, "time_elapsed": 853151, "internal_node_id": "0.0-4.0-1.0-9.0"}}, {"uniqueid": "w26894460:a63579773", "current_trial": 31, "dateTime": 1691159790577, "trialdata": {"revealed_states": [], "clicked_states": ["23", "24", "1", "12", "13", "2"], "num_clicks_accrued": [0, 0, 0, 0, 0, 0, 0, 0, 0, 0, 0, 0, 0], "stateRewards": ["", -1, 2, -2, 13, -56, -28, 10, 14, 53, -80, -29, 1, -3, -3, -14, 14, 9, -40, -9, 18, 18, 48, 1, 1, 1, -9, 64, -39, -9, 7, -52, -78, 7], "withholdReward": false, "trial_id": "mdp_trial_11", "block": "test", "trialIndex": 16, "score": 16.7, "costs": -0.29999999999999993, "simulationMode": [null, null, null, null, null], "rewards": [1, 1, 1, 7, 7], "path": ["0", "0", "23", "24", "25", "30", "33"], "rt": [4318, 228, 18, 519, 59], "actions": ["left", "left", "left", "down", "left"], "actionTimes": [6219, 6955, 7476, 8515, 9067], "queries": {"click": {"state": {"target": ["23", "24", "1", "12", "13", "2"], "time": [2318, 2617, 3045, 3392, 4263, 4860]}, "edge": {"target": [], "time": []}}, "mouseover": {"state": {"target": ["23", "24", "1", "12", "13", "13", "13", "2"], "time": [2222, 2527, 2926, 3321, 3588, 3827, 4182, 4698]}, "edge": {"target": [], "time": []}}, "mouseout": {"state": {"target": ["0", "23", "24", "1", "12", "13", "13", "13", "2", "2", "0", "23", "24", "30", "31", "23", "30", "31"], "time": [1925, 2389, 2733, 3224, 3525, 3693, 3932, 4385, 4869, 5018, 11770, 11777, 11806, 11901, 11942, 12000, 12347, 12441]}, "edge": {"target": [], "time": []}}}, "displayed_time": "15.90", "trialTime": 17212, "trial_type": "mouselab-mdp", "trial_index": 31, "time_elapsed": 870951, "internal_node_id": "0.0-4.0-1.0-10.0"}}, {"uniqueid": "w26894460:a63579773", "current_trial": 32, "dateTime": 1691159807950, "trialdata": {"revealed_states": [], "clicked_states": ["23", "1", "2", "24", "12", "13"], "num_clicks_accrued": [0, 0, 0, 0, 0, 0, 0, 0, 0, 0, 0, 0, 0], "stateRewards": ["", -1, 3, 1, -11, -22, -36, 19, -5, -70, -52, 50, -2, -4, 4, -2, -41, -83, 29, -2, 22, 10, -6, -2, 3, -2, 14, 54, 44, 77, -9, -65, -37, -40], "withholdReward": false, "trial_id": "mdp_trial_12", "block": "test", "trialIndex": 17, "score": 47.7, "costs": -0.29999999999999993, "simulationMode": [null, null, null, null, null], "rewards": [-1, 3, 1, -5, 50], "path": ["0", "0", "1", "2", "3", "8", "11"], "rt": [5346, 127, 138, 115, 61], "actions": ["up", "up", "up", "left", "left"], "actionTimes": [6911, 7571, 8215, 8833, 9402], "queries": {"click": {"state": {"target": ["23", "1", "2", "24", "12", "13"], "time": [2092, 2629, 3200, 4355, 5507, 5983]}, "edge": {"target": [], "time": []}}, "mouseover": {"state": {"target": ["23", "1", "12", "2", "24", "23", "0", "12", "13"], "time": [1998, 2403, 2915, 3101, 4165, 5265, 5317, 5375, 5943]}, "edge": {"target": [], "time": []}}, "mouseout": {"state": {"target": ["0", "23", "1", "12", "2", "2", "24", "23", "0", "12", "13", "14", "14", "14", "13", "12", "0", "23", "24", "24", "23"], "time": [1947, 2274, 2875, 3001, 3300, 3991, 5252, 5287, 5352, 5885, 6649, 12681, 12855, 13004, 13015, 13052, 13069, 13082, 13141, 13314, 13359]}, "edge": {"target": [], "time": []}}}, "displayed_time": "15.57", "trialTime": 16877, "trial_type": "mouselab-mdp", "trial_index": 32, "time_elapsed": 888324, "internal_node_id": "0.0-4.0-1.0-11.0"}}, {"uniqueid": "w26894460:a63579773", "current_trial": 33, "dateTime": 1691159824695, "trialdata": {"revealed_states": [], "clicked_states": ["23", "24", "1", "12", "13", "2"], "num_clicks_accrued": [0, 0, 0, 0, 0, 0, 0, 0, 0, 0, 0, 0, 0], "stateRewards": ["", 2, -4, 7, 3, 23, -42, 4, 7, -81, -33, 7, -2, -4, 5, -1, 50, -57, -14, -13, -14, 44, 55, -2, -2, 5, -2, 33, 1, 57, -13, -7, 58, 87], "withholdReward": false, "trial_id": "mdp_trial_13", "block": "test", "trialIndex": 18, "score": -0.2999999999999998, "costs": -0.29999999999999993, "simulationMode": [null, null, null, null, null], "rewards": [-2, -2, 5, -2, 1], "path": ["0", "0", "23", "24", "25", "26", "28"], "rt": [6135, 7, 32, 43, 167], "actions": ["left", "left", "left", "up", "right"], "actionTimes": [7263, 7792, 8334, 8894, 9568], "queries": {"click": {"state": {"target": ["23", "24", "1", "12", "13", "2"], "time": [1610, 2924, 3349, 3781, 4192, 4730]}, "edge": {"target": [], "time": []}}, "mouseover": {"state": {"target": ["23", "1", "24", "1", "12", "13", "2"], "time": [1432, 2286, 2883, 3188, 3633, 3990, 4676]}, "edge": {"target": [], "time": []}}, "mouseout": {"state": {"target": ["0", "23", "23", "1", "24", "1", "12", "13", "2", "12", "0"], "time": [1216, 1766, 2124, 2404, 2937, 3357, 3921, 4241, 5056, 15883, 16167]}, "edge": {"target": [], "time": []}}}, "displayed_time": "15.13", "trialTime": 16191, "trial_type": "mouselab-mdp", "trial_index": 33, "time_elapsed": 905070, "internal_node_id": "0.0-4.0-1.0-12.0"}}, {"uniqueid": "w26894460:a63579773", "current_trial": 34, "dateTime": 1691159842056, "trialdata": {"revealed_states": [], "clicked_states": ["23", "24", "28"], "num_clicks_accrued": [0, 0, 0, 0, 0, 0, 0, 0, 0, 0, 0, 0, 0], "stateRewards": ["", 2, -1, -4, -13, 74, 77, 3, 2, -43, -2, -11, 2, 3, 7, 11, -26, -29, -33, -3, -3, -13, -3, 1, 3, -7, 14, -59, 33, 9, -5, 34, 79, 68], "withholdReward": false, "trial_id": "mdp_trial_14", "block": "test", "trialIndex": 19, "score": 41.75, "costs": -2.25, "simulationMode": [null, null, null, null, null, null], "rewards": [1, 3, -7, 14, 33], "path": ["0", "0", "23", "24", "25", "26", "28"], "rt": [3868, 170, 28, 505, 65, 94], "actions": ["left", "left", "left", "left", "up", "right"], "actionTimes": [4798, 4970, 5491, 6518, 7078, 7683], "queries": {"click": {"state": {"target": ["23", "24", "28"], "time": [1357, 1761, 2102]}, "edge": {"target": [], "time": []}}, "mouseover": {"state": {"target": ["23", "24", "28", "1", "18", "18", "13", "12", "1", "2", "1"], "time": [1317, 1627, 1997, 2401, 2829, 2999, 3353, 3635, 4020, 4415, 4666]}, "edge": {"target": [], "time": []}}, "mouseout": {"state": {"target": ["0", "23", "24", "28", "1", "18", "18", "13", "12", "1", "2"], "time": [1045, 1563, 1891, 2132, 2626, 2880, 3243, 3597, 3962, 4351, 4576]}, "edge": {"target": [], "time": []}}}, "displayed_time": "14.94", "trialTime": 16811, "trial_type": "mouselab-mdp", "trial_index": 34, "time_elapsed": 922430, "internal_node_id": "0.0-4.0-1.0-13.0"}}, {"uniqueid": "w26894460:a63579773", "current_trial": 35, "dateTime": 1691159859985, "trialdata": {"revealed_states": [], "clicked_states": ["28"], "num_clicks_accrued": [0, 0, 0, 0, 0, 0, 0, 0, 0, 0, 0, 0, 0], "stateRewards": ["", -2, 1, -7, -8, -37, -76, -87, 11, 30, -63, 80, -1, 4, 2, -1, 42, 17, 52, -3, -75, -80, -68, 2, -3, -5, -15, -48, 82, 24, -7, 5, -22, -71], "withholdReward": false, "trial_id": "mdp_trial_15", "block": "test", "trialIndex": 20, "score": 58.85, "costs": -2.15, "simulationMode": [null, null, null, null, null], "rewards": [2, -3, -5, -15, 82], "path": ["0", "0", "23", "24", "25", "26", "28"], "rt": [4331, 119, 777, 130, 57], "actions": ["left", "left", "left", "up", "right"], "actionTimes": [5930, 6587, 7872, 8497, 9058], "queries": {"click": {"state": {"target": ["28"], "time": [2203]}, "edge": {"target": [], "time": []}}, "mouseover": {"state": {"target": ["28", "11", "8", "3", "4", "5", "4", "2", "26", "27", "26", "29", "25", "26", "24"], "time": [2118, 2535, 2810, 2849, 2936, 3267, 3669, 3733, 4133, 4239, 4515, 4700, 5082, 5265, 5848]}, "edge": {"target": [], "time": []}}, "mouseout": {"state": {"target": ["1", "1", "23", "0", "28", "11", "8", "3", "4", "5", "4", "2", "28", "26", "27", "26", "29", "25", "26", "24", "23"], "time": [21, 315, 439, 539, 2273, 2782, 2838, 2903, 2969, 3634, 3701, 3761, 4091, 4176, 4494, 4538, 4923, 5170, 5785, 5873, 10443]}, "edge": {"target": [], "time": []}}}, "displayed_time": "15.61", "trialTime": 17379, "trial_type": "mouselab-mdp", "trial_index": 35, "time_elapsed": 940359, "internal_node_id": "0.0-4.0-1.0-14.0"}}, {"uniqueid": "w26894460:a63579773", "current_trial": 36, "dateTime": 1691159887199, "trialdata": {"revealed_states": [], "clicked_states": ["29", "28", "16", "18", "22", "31"], "num_clicks_accrued": [0, 0, 0, 0, 0, 0, 0, 0, 0, 0, 0, 0, 0], "stateRewards": ["", 1, 1, -3, 7, 49, 78, 26, -5, 26, 48, -43, -1, -3, 2, -5, 4, -1, -60, 10, -35, 51, 81, -2, 1, -7, -5, -39, -86, -54, 4, -3, 74, 77], "withholdReward": false, "trial_id": "mdp_trial_16", "block": "test", "trialIndex": 21, "score": 76.1, "costs": -12.9, "simulationMode": [null, null, null, null, null, null], "rewards": [-1, -3, 2, 10, 81], "path": ["0", "0", "12", "13", "14", "19", "22"], "rt": [16487, 208, 505, 90, 76, 32], "actions": ["right", "right", "right", "right", "down", "left"], "actionTimes": [20638, 20850, 21910, 22526, 23126, 23647], "queries": {"click": {"state": {"target": ["29", "28", "16", "18", "22", "31"], "time": [4710, 7918, 10755, 14084, 17210, 20171]}, "edge": {"target": [], "time": []}}, "mouseover": {"state": {"target": ["29", "27", "28", "27", "10", "7", "16", "16", "18", "13", "22", "31"], "time": [4599, 5141, 7298, 8200, 8757, 8798, 8905, 9342, 11548, 16448, 17173, 18169]}, "edge": {"target": [], "time": []}}, "mouseout": {"state": {"target": ["26", "25", "24", "23", "23", "24", "25", "25", "24", "23", "0", "29", "27", "28", "27", "10", "7", "16", "16", "18", "13", "22", "31"], "time": [1296, 2354, 2380, 2513, 2821, 2863, 3014, 3480, 3516, 3563, 4163, 5039, 7182, 8097, 8709, 8779, 8821, 8954, 11232, 14465, 17080, 17219, 24498]}, "edge": {"target": [], "time": []}}}, "displayed_time": "24.17", "trialTime": 26558, "trial_type": "mouselab-mdp", "trial_index": 36, "time_elapsed": 967573, "internal_node_id": "0.0-4.0-1.0-15.0"}}, {"uniqueid": "w26894460:a63579773", "current_trial": 37, "dateTime": 1691159907606, "trialdata": {"revealed_states": [], "clicked_states": ["32", "21", "20"], "num_clicks_accrued": [0, 0, 0, 0, 0, 0, 0, 0, 0, 0, 0, 0, 0], "stateRewards": ["", 1, 3, -2, 15, 51, 15, -19, 11, 67, -45, -73, 2, 4, -2, -13, 36, 9, -28, 10, -30, 31, 16, 1, 2, -1, -16, 14, -22, 36, -1, 88, -5, 45], "withholdReward": false, "trial_id": "mdp_trial_17", "block": "test", "trialIndex": 22, "score": 38.55, "costs": -6.449999999999999, "simulationMode": [null, null, null, null, null], "rewards": [2, 4, -2, 10, 31], "path": ["0", "0", "12", "13", "14", "19", "21"], "rt": [11371, 381, 700, 90, 4], "actions": ["right", "right", "right", "down", "down"], "actionTimes": [14620, 15497, 16715, 17305, 17801], "queries": {"click": {"state": {"target": ["32", "21", "20"], "time": [4610, 7676, 11312]}, "edge": {"target": [], "time": []}}, "mouseover": {"state": {"target": ["23", "24", "25", "30", "32", "21", "19", "14", "15", "6", "4", "5", "17", "20", "14", "18", "4", "4", "7", "13", "22"], "time": [3663, 3746, 3964, 4263, 4496, 5279, 7948, 8017, 8050, 8208, 8415, 8580, 10506, 10829, 11535, 11657, 11742, 12473, 12531, 12790, 13339]}, "edge": {"target": [], "time": []}}, "mouseout": {"state": {"target": ["0", "23", "23", "23", "24", "25", "30", "32", "21", "19", "14", "15", "6", "4", "5", "17", "20", "14", "18", "4", "4", "7", "13", "22"], "time": [1545, 2189, 2317, 3700, 3853, 4190, 4396, 4827, 7880, 8005, 8041, 8085, 8239, 8463, 10230, 10551, 11446, 11566, 11677, 11764, 12510, 12556, 12837, 19063]}, "edge": {"target": [], "time": []}}}, "displayed_time": "18.33", "trialTime": 19881, "trial_type": "mouselab-mdp", "trial_index": 37, "time_elapsed": 987981, "internal_node_id": "0.0-4.0-1.0-16.0"}}, {"uniqueid": "w26894460:a63579773", "current_trial": 38, "dateTime": 1691159929996, "trialdata": {"revealed_states": [], "clicked_states": ["9", "7"], "num_clicks_accrued": [0, 0, 0, 0, 0, 0, 0, 0, 0, 0, 0, 0, 0], "stateRewards": ["", -2, 3, -1, 2, -72, 63, 20, -1, 62, -66, 39, -2, 3, -6, 14, 22, 47, 1, 8, -49, -1, -41, 2, 2, -6, -16, -64, -60, -34, 16, 54, 22, -7], "withholdReward": false, "trial_id": "mdp_trial_18", "block": "test", "trialIndex": 23, "score": 56.7, "costs": -4.3, "simulationMode": [null, null, null, null, null], "rewards": [-2, 3, -1, -1, 62], "path": ["0", "0", "1", "2", "3", "8", "9"], "rt": [7077, 50, 233, 28, 3], "actions": ["up", "up", "up", "left", "up"], "actionTimes": [13850, 14410, 15164, 15700, 16209], "queries": {"click": {"state": {"target": ["9", "7"], "time": [7638, 10933]}, "edge": {"target": [], "time": []}}, "mouseover": {"state": {"target": ["1", "2", "3", "9", "4", "7"], "time": [7162, 7200, 7232, 7504, 8397, 8440]}, "edge": {"target": [], "time": []}}, "mouseout": {"state": {"target": ["23", "0", "0", "1", "2", "3", "9", "4", "7"], "time": [587, 654, 6173, 7198, 7209, 7304, 7844, 8409, 11428]}, "edge": {"target": [], "time": []}}}, "displayed_time": "20.78", "trialTime": 21911, "trial_type": "mouselab-mdp", "trial_index": 38, "time_elapsed": 1010371, "internal_node_id": "0.0-4.0-1.0-17.0"}}, {"uniqueid": "w26894460:a63579773", "current_trial": 39, "dateTime": 1691159948967, "trialdata": {"revealed_states": [], "clicked_states": ["27", "32"], "num_clicks_accrued": [0, 0, 0, 0, 0, 0, 0, 0, 0, 0, 0, 0, 0], "stateRewards": ["", 2, 4, 4, 9, -88, -10, 44, 16, -54, 64, 78, 1, 2, 5, 16, 80, 36, 7, -4, 9, -47, -70, -1, -3, 6, -16, 11, 80, 28, 8, -1, 34, -17], "withholdReward": false, "trial_id": "mdp_trial_19", "block": "test", "trialIndex": 24, "score": 39.7, "costs": -4.3, "simulationMode": [null, null, null, null, null], "rewards": [-1, -3, 6, 8, 34], "path": ["0", "0", "23", "24", "25", "30", "32"], "rt": [7660, 33, 57, 4, 386], "actions": ["left", "left", "left", "down", "down"], "actionTimes": [10225, 10752, 11313, 11849, 12753], "queries": {"click": {"state": {"target": ["27", "32"], "time": [3261, 6653]}, "edge": {"target": [], "time": []}}, "mouseover": {"state": {"target": ["28", "27", "10", "2", "6", "16", "28", "24", "31", "32", "21"], "time": [2992, 3150, 3511, 3553, 3818, 4178, 6223, 6277, 6322, 6417, 7227]}, "edge": {"target": [], "time": []}}, "mouseout": {"state": {"target": ["0", "28", "27", "10", "2", "6", "16", "28", "24", "31", "32", "21", "19", "13"], "time": [2882, 3033, 3452, 3538, 3588, 4053, 4537, 6250, 6300, 6336, 6752, 13384, 13417, 14450]}, "edge": {"target": [], "time": []}}}, "displayed_time": "16.57", "trialTime": 18346, "trial_type": "mouselab-mdp", "trial_index": 39, "time_elapsed": 1029342, "internal_node_id": "0.0-4.0-1.0-18.0"}}, {"uniqueid": "w26894460:a63579773", "current_trial": 40, "dateTime": 1691159970254, "trialdata": {"revealed_states": [], "clicked_states": ["9", "7", "6", "11"], "num_clicks_accrued": [0, 0, 0, 0, 0, 0, 0, 0, 0, 0, 0, 0, 0], "stateRewards": ["", -1, 1, 8, -8, -49, 62, -78, 16, 28, -81, 78, -2, -3, -1, -4, 67, 49, -2, -13, -16, -39, 83, 1, -4, 4, -5, -20, 7, 84, 7, -32, -59, 19], "withholdReward": false, "trial_id": "mdp_trial_20", "block": "test", "trialIndex": 25, "score": 93.4, "costs": -8.6, "simulationMode": [null, null, null, null, null], "rewards": [-1, 1, 8, 16, 78], "path": ["0", "0", "1", "2", "3", "8", "11"], "rt": [13822, 130, 104, 44, 496], "actions": ["up", "up", "up", "left", "left"], "actionTimes": [15406, 16050, 16654, 17205, 18190], "queries": {"click": {"state": {"target": ["9", "7", "6", "11"], "time": [2425, 5618, 9200, 12318]}, "edge": {"target": [], "time": []}}, "mouseover": {"state": {"target": ["1", "8", "9", "8", "11", "27", "3", "4", "7", "12", "13", "22", "21", "13", "18", "6", "4", "3", "10", "11", "28", "11", "8"], "time": [1759, 2221, 2381, 2745, 3197, 3362, 3933, 4297, 4435, 6466, 6909, 7042, 7377, 8775, 8807, 9125, 9445, 9519, 9704, 10304, 10947, 11416, 12586]}, "edge": {"target": [], "time": []}}, "mouseout": {"state": {"target": ["0", "1", "8", "9", "8", "11", "27", "3", "4", "7", "12", "13", "22", "21", "13", "18", "6", "4", "3", "10", "11", "28", "11", "8"], "time": [1225, 1858, 2250, 2704, 2860, 3296, 3421, 3981, 4376, 5992, 6847, 6992, 7177, 8725, 8793, 8815, 9300, 9480, 9544, 10103, 10546, 11259, 12534, 12616]}, "edge": {"target": [], "time": []}}}, "displayed_time": "18.72", "trialTime": 20758, "trial_type": "mouselab-mdp", "trial_index": 40, "time_elapsed": 1050628, "internal_node_id": "0.0-4.0-1.0-19.0"}}, {"uniqueid": "w26894460:a63579773", "current_trial": 41, "dateTime": 1691159988054, "trialdata": {"revealed_states": [], "clicked_states": ["11", "27", "16"], "num_clicks_accrued": [0, 0, 0, 0, 0, 0, 0, 0, 0, 0, 0, 0, 0], "stateRewards": ["", -2, 2, -5, -6, 10, -66, -58, -10, -11, -63, -70, -1, -4, -5, 7, 66, -64, -43, -3, 45, -37, 4, -2, -2, -6, -4, -30, 33, 43, 15, -32, -65, -59], "withholdReward": false, "trial_id": "mdp_trial_21", "block": "test", "trialIndex": 26, "score": 56.55, "costs": -6.449999999999999, "simulationMode": [null, null, null, null, null], "rewards": [-1, -4, -5, 7, 66], "path": ["0", "0", "12", "13", "14", "15", "16"], "rt": [11580, 53, 21, 136, 40], "actions": ["right", "right", "right", "up", "up"], "actionTimes": [13027, 13612, 14153, 14809, 15345], "queries": {"click": {"state": {"target": ["11", "27", "16"], "time": [2447, 5918, 9835]}, "edge": {"target": [], "time": []}}, "mouseover": {"state": {"target": ["1", "2", "3", "8", "11", "8", "10", "27", "18", "15", "16", "15", "14"], "time": [1887, 1950, 2046, 2187, 2412, 2742, 2872, 5841, 9548, 9637, 9770, 10176, 10361]}, "edge": {"target": [], "time": []}}, "mouseout": {"state": {"target": ["6", "1", "2", "3", "8", "11", "8", "10", "27", "18", "15", "16", "15"], "time": [653, 1909, 1987, 2120, 2221, 2497, 2791, 2896, 6043, 9594, 9657, 10126, 10233]}, "edge": {"target": [], "time": []}}}, "displayed_time": "15.84", "trialTime": 17186, "trial_type": "mouselab-mdp", "trial_index": 41, "time_elapsed": 1068428, "internal_node_id": "0.0-4.0-1.0-20.0"}}, {"uniqueid": "w26894460:a63579773", "current_trial": 42, "dateTime": 1691160010279, "trialdata": {"revealed_states": [], "clicked_states": ["16", "32"], "num_clicks_accrued": [0, 0, 0, 0, 0, 0, 0, 0, 0, 0, 0, 0, 0], "stateRewards": ["", -1, 2, 6, 11, 21, -21, -21, -6, 48, -71, 88, -1, -3, 3, 7, 64, 2, 9, -4, 37, -67, 72, 2, 2, -8, -8, -10, 71, -40, -3, 73, 80, 47], "withholdReward": false, "trial_id": "mdp_trial_22", "block": "test", "trialIndex": 27, "score": 68.7, "costs": -4.3, "simulationMode": [null, null, null, null, null, null], "rewards": [2, 2, -8, -3, 80], "path": ["0", "0", "23", "24", "25", "30", "32"], "rt": [5701, 1747, 164, 292, 147, 132], "actions": ["right", "left", "left", "left", "down", "down"], "actionTimes": [12034, 13786, 14453, 15251, 15933, 16563], "queries": {"click": {"state": {"target": ["16", "32"], "time": [7034, 10352]}, "edge": {"target": [], "time": []}}, "mouseover": {"state": {"target": ["0", "12", "18", "16", "0", "31", "32", "12", "13"], "time": [6338, 6697, 6759, 6931, 9604, 9667, 9997, 10726, 10739]}, "edge": {"target": [], "time": []}}, "mouseout": {"state": {"target": ["14", "13", "12", "0", "0", "12", "18", "16", "0", "31", "32", "12", "13", "16"], "time": [5595, 5691, 5829, 5981, 6344, 6725, 6769, 9542, 9624, 9693, 10608, 10736, 10749, 11830]}, "edge": {"target": [], "time": []}}}, "displayed_time": "20.34", "trialTime": 21628, "trial_type": "mouselab-mdp", "trial_index": 42, "time_elapsed": 1090653, "internal_node_id": "0.0-4.0-1.0-21.0"}}, {"uniqueid": "w26894460:a63579773", "current_trial": 43, "dateTime": 1691160033800, "trialdata": {"revealed_states": [], "clicked_states": ["32", "16", "9"], "num_clicks_accrued": [0, 0, 0, 0, 0, 0, 0, 0, 0, 0, 0, 0, 0], "stateRewards": ["", 1, 2, 8, -2, 23, -69, -18, -16, 54, -21, 71, -1, -4, 7, 11, 43, -6, 88, 6, -55, 72, 43, 1, -3, -2, -1, 68, -31, -54, 4, -8, 25, -2], "withholdReward": false, "trial_id": "mdp_trial_23", "block": "test", "trialIndex": 28, "score": 42.55, "costs": -6.449999999999999, "simulationMode": [null, null, null, null, null], "rewards": [1, 2, 8, -16, 54], "path": ["0", "0", "1", "2", "3", "8", "9"], "rt": [10852, 37, 88, 19, 115], "actions": ["up", "up", "up", "left", "up"], "actionTimes": [12252, 12794, 13402, 13933, 14578], "queries": {"click": {"state": {"target": ["32", "16", "9"], "time": [2272, 5447, 8966]}, "edge": {"target": [], "time": []}}, "mouseover": {"state": {"target": ["23", "31", "32", "12", "15", "16", "3", "9", "4", "6"], "time": [1896, 1949, 2163, 2519, 2567, 2955, 5823, 6045, 9533, 9567]}, "edge": {"target": [], "time": []}}, "mouseout": {"state": {"target": ["16", "18", "12", "0", "23", "31", "32", "12", "15", "16", "3", "9", "4", "6", "16", "23", "31", "32", "26"], "time": [634, 728, 786, 994, 1911, 1964, 2387, 2535, 2602, 5691, 5865, 9465, 9553, 9580, 16289, 16385, 16411, 16717, 16978]}, "edge": {"target": [], "time": []}}}, "displayed_time": "15.40", "trialTime": 22972, "trial_type": "mouselab-mdp", "trial_index": 43, "time_elapsed": 1114175, "internal_node_id": "0.0-4.0-1.0-22.0"}}, {"uniqueid": "w26894460:a63579773", "current_trial": 44, "dateTime": 1691160052383, "trialdata": {"revealed_states": [], "clicked_states": ["27"], "num_clicks_accrued": [0, 0, 0, 0, 0, 0, 0, 0, 0, 0, 0, 0, 0], "stateRewards": ["", 1, 4, 5, -5, 58, -80, 75, 6, 25, -39, 46, 2, -2, 4, 2, 59, 31, -22, -12, -61, 15, 72, 1, -2, -7, 8, 77, 76, -23, -7, 71, -15, -3], "withholdReward": false, "trial_id": "mdp_trial_24", "block": "test", "trialIndex": 29, "score": 74.85, "costs": -2.15, "simulationMode": [null, null, null, null, null], "rewards": [1, -2, -7, 8, 77], "path": ["0", "0", "23", "24", "25", "26", "27"], "rt": [4225, 57, 514, 94, 15], "actions": ["left", "left", "left", "up", "up"], "actionTimes": [6443, 7027, 8040, 8640, 9152], "queries": {"click": {"state": {"target": ["27"], "time": [2857]}, "edge": {"target": [], "time": []}}, "mouseover": {"state": {"target": ["0", "27", "3", "5", "18", "13", "19", "21"], "time": [2228, 2658, 3579, 3743, 4482, 4531, 4659, 4735]}, "edge": {"target": [], "time": []}}, "mouseout": {"state": {"target": ["27", "0", "27", "3", "5", "18", "13", "19", "21", "22"], "time": [1374, 2233, 3144, 3659, 4397, 4513, 4573, 4680, 6180, 12476]}, "edge": {"target": [], "time": []}}}, "displayed_time": "16.22", "trialTime": 17984, "trial_type": "mouselab-mdp", "trial_index": 44, "time_elapsed": 1132757, "internal_node_id": "0.0-4.0-1.0-23.0"}}, {"uniqueid": "w26894460:a63579773", "current_trial": 45, "dateTime": 1691160069104, "trialdata": {"revealed_states": [], "clicked_states": ["27"], "num_clicks_accrued": [0, 0, 0, 0, 0, 0, 0, 0, 0, 0, 0, 0, 0], "stateRewards": ["", -2, 2, 5, -14, -56, 64, 84, -5, 52, 39, 85, -2, 1, 7, 8, 21, 29, -78, -9, -10, -69, 10, -2, -1, -7, 15, 72, 20, 41, -2, 52, 80, 22], "withholdReward": false, "trial_id": "mdp_trial_25", "block": "test", "trialIndex": 30, "score": 74.85, "costs": -2.15, "simulationMode": [null, null, null, null, null], "rewards": [-2, -1, -7, 15, 72], "path": ["0", "0", "23", "24", "25", "26", "27"], "rt": [4114, 134, 89, 117, 151], "actions": ["left", "left", "left", "up", "up"], "actionTimes": [5422, 6052, 6660, 7275, 7940], "queries": {"click": {"state": {"target": ["27"], "time": [1972]}, "edge": {"target": [], "time": []}}, "mouseover": {"state": {"target": ["11", "27", "1", "13", "19", "21", "21", "22", "21"], "time": [1765, 1915, 2204, 2297, 2339, 2398, 2556, 2903, 3167]}, "edge": {"target": [], "time": []}}, "mouseout": {"state": {"target": ["12", "0", "0", "11", "27", "1", "13", "19", "21", "21", "22"], "time": [556, 785, 1335, 1798, 2103, 2236, 2307, 2364, 2458, 2627, 2950]}, "edge": {"target": [], "time": []}}}, "displayed_time": "15.31", "trialTime": 16045, "trial_type": "mouselab-mdp", "trial_index": 45, "time_elapsed": 1149478, "internal_node_id": "0.0-4.0-1.0-24.0"}}, {"uniqueid": "w26894460:a63579773", "current_trial": 46, "dateTime": 1691160086931, "trialdata": {"revealed_states": [], "clicked_states": ["27", "21"], "num_clicks_accrued": [0, 0, 0, 0, 0, 0, 0, 0, 0, 0, 0, 0, 0], "stateRewards": ["", 1, 2, -3, -6, 50, -7, 7, -7, -80, 21, -1, 2, 2, 4, -1, 33, 84, 1, 14, -53, 81, 6, -2, -2, -3, -9, -87, -38, -59, -5, -74, -3, -71], "withholdReward": false, "trial_id": "mdp_trial_26", "block": "test", "trialIndex": 31, "score": 98.7, "costs": -4.3, "simulationMode": [null, null, null, null, null], "rewards": [2, 2, 4, 14, 81], "path": ["0", "0", "12", "13", "14", "19", "21"], "rt": [7114, 136, 30, 150, 153], "actions": ["right", "right", "right", "down", "down"], "actionTimes": [9555, 10186, 10713, 11366, 12025], "queries": {"click": {"state": {"target": ["27", "21"], "time": [2937, 6127]}, "edge": {"target": [], "time": []}}, "mouseover": {"state": {"target": ["28", "27", "1", "13", "19", "21"], "time": [2564, 2826, 3287, 3336, 3400, 3914]}, "edge": {"target": [], "time": []}}, "mouseout": {"state": {"target": ["21", "22", "28", "27", "27", "1", "13", "19", "21"], "time": [318, 422, 2647, 3031, 3201, 3303, 3354, 3419, 6449]}, "edge": {"target": [], "time": []}}}, "displayed_time": "16.44", "trialTime": 17253, "trial_type": "mouselab-mdp", "trial_index": 46, "time_elapsed": 1167305, "internal_node_id": "0.0-4.0-1.0-25.0"}}, {"uniqueid": "w26894460:a63579773", "current_trial": 47, "dateTime": 1691160110747, "trialdata": {"revealed_states": [], "clicked_states": ["9", "21", "32", "28"], "num_clicks_accrued": [0, 0, 0, 0, 0, 0, 0, 0, 0, 0, 0, 0, 0], "stateRewards": ["", -1, -2, 8, -6, -79, -6, 87, 9, -5, -66, -38, 2, 2, 5, -6, -82, 74, 85, -8, 67, -30, -15, 1, -2, -2, -2, 87, 64, 49, 7, 2, -38, -9], "withholdReward": false, "trial_id": "mdp_trial_27", "block": "test", "trialIndex": 32, "score": 50.4, "costs": -8.6, "simulationMode": [null, null, null, null, null], "rewards": [1, -2, -2, -2, 64], "path": ["0", "0", "23", "24", "25", "26", "28"], "rt": [13696, 116, 43, 138, 62], "actions": ["left", "left", "left", "up", "right"], "actionTimes": [18620, 19244, 19787, 20460, 21020], "queries": {"click": {"state": {"target": ["9", "21", "32", "28"], "time": [5987, 9108, 12286, 15449]}, "edge": {"target": [], "time": []}}, "mouseover": {"state": {"target": ["1", "2", "9", "4", "18", "19", "21", "31", "32", "27", "26", "25", "24", "28", "23"], "time": [5538, 5628, 5878, 6420, 8190, 8471, 8780, 9690, 9923, 13031, 14586, 14794, 14942, 15220, 15862]}, "edge": {"target": [], "time": []}}, "mouseout": {"state": {"target": ["14", "12", "0", "1", "2", "9", "4", "18", "19", "21", "31", "32", "27", "26", "25", "24", "28", "23"], "time": [4129, 4203, 5437, 5587, 5675, 6272, 6455, 8257, 8642, 9165, 9723, 12571, 13391, 14688, 14855, 14993, 15797, 15947]}, "edge": {"target": [], "time": []}}}, "displayed_time": "21.54", "trialTime": 23175, "trial_type": "mouselab-mdp", "trial_index": 47, "time_elapsed": 1191121, "internal_node_id": "0.0-4.0-1.0-26.0"}}, {"uniqueid": "w26894460:a63579773", "current_trial": 48, "dateTime": 1691160130423, "trialdata": {"revealed_states": [], "clicked_states": ["27", "11", "6", "7"], "num_clicks_accrued": [0, 0, 0, 0, 0, 0, 0, 0, 0, 0, 0, 0, 0], "stateRewards": ["", -1, -3, -6, 14, 41, 18, 63, -14, 80, 21, 17, -2, -4, -2, -5, 13, 70, 8, -4, -64, -10, -20, 2, -1, 4, -1, -17, -55, 42, -7, 47, 54, 15], "withholdReward": false, "trial_id": "mdp_trial_28", "block": "test", "trialIndex": 33, "score": 58.4, "costs": -8.6, "simulationMode": [null, null, null, null, null], "rewards": [-1, -3, -6, 14, 63], "path": ["0", "0", "1", "2", "3", "4", "7"], "rt": [13532, 49, 60, 151, 130], "actions": ["up", "up", "up", "right", "down"], "actionTimes": [15159, 15705, 16277, 16934, 17573], "queries": {"click": {"state": {"target": ["27", "11", "6", "7"], "time": [2296, 5568, 8785, 11991]}, "edge": {"target": [], "time": []}}, "mouseover": {"state": {"target": ["23", "26", "27", "10", "1", "12", "13", "19", "22", "0", "11", "8", "3", "4", "6", "16", "17", "15", "7", "15", "17"], "time": [1814, 2065, 2197, 2519, 2588, 2677, 2714, 3073, 3750, 3831, 5458, 5741, 5787, 7945, 8154, 9100, 9244, 10938, 11207, 12298, 12385]}, "edge": {"target": [], "time": []}}, "mouseout": {"state": {"target": ["23", "0", "23", "26", "27", "10", "1", "12", "13", "19", "22", "0", "11", "8", "3", "4", "6", "16", "17", "15", "7", "15", "17"], "time": [192, 1731, 1887, 2131, 2468, 2540, 2601, 2689, 2739, 3090, 3784, 3857, 5729, 5783, 5813, 8009, 9080, 9122, 10918, 10953, 12176, 12323, 12424]}, "edge": {"target": [], "time": []}}}, "displayed_time": "18.07", "trialTime": 19062, "trial_type": "mouselab-mdp", "trial_index": 48, "time_elapsed": 1210797, "internal_node_id": "0.0-4.0-1.0-27.0"}}, {"uniqueid": "w26894460:a63579773", "current_trial": 49, "dateTime": 1691160148319, "trialdata": {"revealed_states": [], "clicked_states": ["32"], "num_clicks_accrued": [0, 0, 0, 0, 0, 0, 0, 0, 0, 0, 0, 0, 0], "stateRewards": ["", -1, 3, -5, -2, -13, -9, -34, -7, -81, 32, 35, -2, -2, 1, -14, -32, 81, 7, 4, 82, 56, -8, -1, 3, -8, 6, -24, -24, -53, 2, 38, 61, 54], "withholdReward": false, "trial_id": "mdp_trial_29", "block": "test", "trialIndex": 34, "score": 54.85, "costs": -2.15, "simulationMode": [null, null, null, null, null], "rewards": [-1, 3, -8, 2, 61], "path": ["0", "0", "23", "24", "25", "30", "32"], "rt": [4249, 4, 189, 116, 163], "actions": ["left", "left", "left", "down", "down"], "actionTimes": [6466, 6973, 7690, 8308, 8979], "queries": {"click": {"state": {"target": ["32"], "time": [2964]}, "edge": {"target": [], "time": []}}, "mouseover": {"state": {"target": ["23", "24", "32", "31", "23", "2", "3", "8", "10"], "time": [2543, 2611, 2853, 3234, 3342, 3427, 3526, 4036, 4094]}, "edge": {"target": [], "time": []}}, "mouseout": {"state": {"target": ["14", "13", "23", "0", "23", "24", "32", "31", "23", "2", "3", "8", "10"], "time": [1381, 1398, 1681, 1814, 2581, 2632, 3069, 3304, 3366, 3450, 3648, 4049, 14931]}, "edge": {"target": [], "time": []}}}, "displayed_time": "16.22", "trialTime": 17293, "trial_type": "mouselab-mdp", "trial_index": 49, "time_elapsed": 1228694, "internal_node_id": "0.0-4.0-1.0-28.0"}}, {"uniqueid": "w26894460:a63579773", "current_trial": 50, "dateTime": 1691160165499, "trialdata": {"revealed_states": [], "clicked_states": ["27"], "num_clicks_accrued": [0, 0, 0, 0, 0, 0, 0, 0, 0, 0, 0, 0, 0], "stateRewards": ["", -1, -4, 8, 8, -68, 47, 24, -7, -61, 49, -69, -1, -1, 8, -7, 42, 1, -45, -11, 10, -63, -6, 1, 4, 6, -16, 79, -37, -58, -12, 81, 18, -53], "withholdReward": false, "trial_id": "mdp_trial_30", "block": "test", "trialIndex": 35, "score": 71.85, "costs": -2.15, "simulationMode": [null, null, null, null, null], "rewards": [1, 4, 6, -16, 79], "path": ["0", "0", "23", "24", "25", "26", "27"], "rt": [4164, 263, 81, 125, 4], "actions": ["left", "left", "left", "up", "up"], "actionTimes": [5263, 6023, 6612, 7244, 7764], "queries": {"click": {"state": {"target": ["27"], "time": [1760]}, "edge": {"target": [], "time": []}}, "mouseover": {"state": {"target": ["28", "27", "1", "13", "19", "21"], "time": [1485, 1713, 2060, 2129, 2197, 2494]}, "edge": {"target": [], "time": []}}, "mouseout": {"state": {"target": ["10", "0", "28", "27", "27", "1", "13", "19", "21"], "time": [425, 1401, 1551, 1800, 1919, 2075, 2164, 2352, 15694]}, "edge": {"target": [], "time": []}}}, "displayed_time": "15.10", "trialTime": 16532, "trial_type": "mouselab-mdp", "trial_index": 50, "time_elapsed": 1245874, "internal_node_id": "0.0-4.0-1.0-29.0"}}, {"uniqueid": "w26894460:a63579773", "current_trial": 51, "dateTime": 1691160191518, "trialdata": {"revealed_states": [], "clicked_states": ["9", "20", "21", "32"], "num_clicks_accrued": [0, 0, 0, 0, 0, 0, 0, 0, 0, 0, 0, 0, 0], "stateRewards": ["", 1, 1, 1, 15, -76, 52, -32, 14, -57, 37, 49, 1, -4, -3, 6, 83, -76, 25, 9, 36, -1, -17, -1, 4, 4, -2, -22, -21, 58, -15, -57, 49, -24], "withholdReward": false, "trial_id": "mdp_trial_31", "block": "test", "trialIndex": 36, "score": 32.4, "costs": -8.6, "simulationMode": [null, null, null, null, null], "rewards": [-1, 4, 4, -15, 49], "path": ["0", "0", "23", "24", "25", "30", "32"], "rt": [15052, 42, 48, 28, 66], "actions": ["left", "left", "left", "down", "down"], "actionTimes": [17960, 18520, 19066, 19608, 20202], "queries": {"click": {"state": {"target": ["9", "20", "21", "32"], "time": [3508, 6679, 10150, 14315]}, "edge": {"target": [], "time": []}}, "mouseover": {"state": {"target": ["10", "9", "7", "12", "22", "21", "19", "14", "20", "21", "22", "0", "23", "24", "31", "32", "32", "24"], "time": [3041, 3463, 3845, 3933, 4046, 4563, 4880, 5076, 5324, 7124, 10591, 10650, 10677, 10727, 10792, 11058, 14291, 17525]}, "edge": {"target": [], "time": []}}, "mouseout": {"state": {"target": ["0", "1", "0", "0", "10", "9", "7", "12", "22", "21", "19", "14", "20", "21", "22", "0", "23", "24", "31", "32", "21", "21", "32"], "time": [507, 667, 1129, 2942, 3069, 3668, 3880, 3969, 4179, 4819, 4944, 5198, 6978, 10233, 10616, 10675, 10716, 10751, 10861, 11216, 11884, 13878, 14425]}, "edge": {"target": [], "time": []}}}, "displayed_time": "20.72", "trialTime": 25416, "trial_type": "mouselab-mdp", "trial_index": 51, "time_elapsed": 1271892, "internal_node_id": "0.0-4.0-1.0-30.0"}}, {"uniqueid": "w26894460:a63579773", "current_trial": 52, "dateTime": 1691160212909, "trialdata": {"revealed_states": [], "clicked_states": ["27", "20", "21", "9"], "num_clicks_accrued": [0, 0, 0, 0, 0, 0, 0, 0, 0, 0, 0, 0, 0], "stateRewards": ["", 1, 2, 7, 13, 88, -71, 27, 3, 60, 5, -53, -2, 2, -6, -1, -30, 79, 47, -4, -14, 46, 68, 1, 1, 8, 10, -14, 86, 48, -11, -67, -44, 5], "withholdReward": false, "trial_id": "mdp_trial_32", "block": "test", "trialIndex": 37, "score": 64.4, "costs": -8.6, "simulationMode": [null, null, null, null, null], "rewards": [1, 2, 7, 3, 60], "path": ["0", "0", "1", "2", "3", "8", "9"], "rt": [14147, 17, 575, 126, 55], "actions": ["up", "up", "up", "left", "up"], "actionTimes": [15613, 16124, 17242, 17866, 18423], "queries": {"click": {"state": {"target": ["27", "20", "21", "9"], "time": [2263, 5499, 8766, 12330]}, "edge": {"target": [], "time": []}}, "mouseover": {"state": {"target": ["28", "27", "19", "20", "21", "22", "0", "23", "24", "31", "31", "10", "8", "9", "4", "18", "14", "19"], "time": [1995, 2221, 3495, 3705, 6995, 9094, 9162, 9199, 9305, 9393, 11855, 12029, 12056, 12159, 12559, 12694, 12749, 12823]}, "edge": {"target": [], "time": []}}, "mouseout": {"state": {"target": ["24", "23", "0", "28", "27", "19", "20", "21", "22", "0", "23", "24", "31", "31", "10", "8", "9", "9", "4", "18", "14", "19", "21", "33", "32"], "time": [764, 788, 1905, 2044, 2546, 3578, 6892, 9019, 9118, 9173, 9237, 9359, 9505, 11966, 12043, 12105, 12392, 12478, 12580, 12707, 12796, 12834, 19021, 19328, 19384]}, "edge": {"target": [], "time": []}}}, "displayed_time": "18.95", "trialTime": 20722, "trial_type": "mouselab-mdp", "trial_index": 52, "time_elapsed": 1293284, "internal_node_id": "0.0-4.0-1.0-31.0"}}, {"uniqueid": "w26894460:a63579773", "current_trial": 53, "dateTime": 1691160243423, "trialdata": {"revealed_states": [], "clicked_states": ["1", "16", "21", "11", "28", "32", "31"], "num_clicks_accrued": [0, 0, 0, 0, 0, 0, 0, 0, 0, 0, 0, 0, 0], "stateRewards": ["", -2, 2, -4, -4, -59, 88, 62, -3, 69, -15, -34, 1, -2, -5, 7, -54, -20, 78, -16, -74, -53, -21, 2, -4, 2, 13, -8, -44, 26, 9, 72, 4, 17], "withholdReward": false, "trial_id": "mdp_trial_33", "block": "test", "trialIndex": 38, "score": 68.35, "costs": -12.65, "simulationMode": [null, null, null, null, null], "rewards": [2, -4, 2, 9, 72], "path": ["0", "0", "23", "24", "25", "30", "31"], "rt": [23666, 126, 22, 6, 160], "actions": ["left", "left", "left", "down", "right"], "actionTimes": [25127, 25755, 26282, 26798, 27478], "queries": {"click": {"state": {"target": ["1", "16", "21", "11", "28", "32", "31"], "time": [2175, 3110, 6773, 10024, 14539, 18432, 21917]}, "edge": {"target": [], "time": []}}, "mouseover": {"state": {"target": ["1", "15", "16", "17", "20", "21", "22", "11", "11", "24", "25", "26", "28", "24", "31", "32", "31"], "time": [1990, 2674, 3079, 3634, 6557, 6712, 6996, 7189, 7622, 13465, 13941, 14093, 14474, 16474, 16550, 18273, 20046]}, "edge": {"target": [], "time": []}}, "mouseout": {"state": {"target": ["0", "1", "1", "15", "16", "17", "20", "21", "22", "11", "11", "24", "25", "26", "28", "24", "31", "32"], "time": [1805, 2224, 2426, 2723, 3452, 3680, 6579, 6795, 7033, 7297, 10457, 13908, 14040, 14109, 16380, 16507, 18133, 18764]}, "edge": {"target": [], "time": []}}}, "displayed_time": "27.99", "trialTime": 29920, "trial_type": "mouselab-mdp", "trial_index": 53, "time_elapsed": 1323797, "internal_node_id": "0.0-4.0-1.0-32.0"}}, {"uniqueid": "w26894460:a63579773", "current_trial": 54, "dateTime": 1691160260685, "trialdata": {"revealed_states": [], "clicked_states": ["27", "32", "21"], "num_clicks_accrued": [0, 0, 0, 0, 0, 0, 0, 0, 0, 0, 0, 0, 0], "stateRewards": ["", -1, -3, 1, -4, -48, -63, -49, -2, -84, -19, 65, 2, -2, -2, -12, -4, 59, 9, 6, 75, 69, -13, -1, -3, -3, -2, -37, -68, -36, 13, 32, 18, -14], "withholdReward": false, "trial_id": "mdp_trial_34", "block": "test", "trialIndex": 39, "score": 66.55, "costs": -6.449999999999999, "simulationMode": [null, null, null, null, null], "rewards": [2, -2, -2, 6, 69], "path": ["0", "0", "12", "13", "14", "19", "21"], "rt": [10595, 99, 350, 228, 108], "actions": ["right", "right", "right", "down", "down"], "actionTimes": [11978, 12599, 13451, 14184, 14800], "queries": {"click": {"state": {"target": ["27", "32", "21"], "time": [1891, 5082, 8492]}, "edge": {"target": [], "time": []}}, "mouseover": {"state": {"target": ["28", "27", "27", "28", "12", "32", "21", "21", "19", "15", "16", "18", "31"], "time": [1403, 1463, 1780, 2218, 2354, 3024, 5489, 7609, 8752, 8880, 9016, 9732, 10167]}, "edge": {"target": [], "time": []}}, "mouseout": {"state": {"target": ["31", "0", "28", "27", "27", "28", "12", "32", "21", "21", "19", "15", "16", "18", "31"], "time": [713, 1397, 1447, 1571, 2185, 2258, 2411, 5306, 5524, 8684, 8774, 8946, 9600, 9769, 11846]}, "edge": {"target": [], "time": []}}}, "displayed_time": "15.39", "trialTime": 16656, "trial_type": "mouselab-mdp", "trial_index": 54, "time_elapsed": 1341060, "internal_node_id": "0.0-4.0-1.0-33.0"}}, {"uniqueid": "w26894460:a63579773", "current_trial": 55, "dateTime": 1691160284861, "trialdata": {"revealed_states": [], "clicked_states": ["9", "21", "32", "29", "17"], "num_clicks_accrued": [0, 0, 0, 0, 0, 0, 0, 0, 0, 0, 0, 0, 0], "stateRewards": ["", 2, 4, 4, -8, -36, -33, 38, 16, -51, 57, 57, 1, 3, 4, -6, 45, 68, 87, 1, 63, 24, -55, -2, 2, -6, -13, -63, -50, 8, 2, 80, 6, 60], "withholdReward": false, "trial_id": "mdp_trial_35", "block": "test", "trialIndex": 40, "score": 59.25, "costs": -10.75, "simulationMode": [null, null, null, null, null], "rewards": [1, 3, 4, -6, 68], "path": ["0", "0", "12", "13", "14", "15", "17"], "rt": [17940, 149, 68, 157, 92], "actions": ["right", "right", "right", "up", "right"], "actionTimes": [19274, 19913, 20491, 21146, 21749], "queries": {"click": {"state": {"target": ["9", "21", "32", "29", "17"], "time": [2203, 5891, 9235, 12791, 15983]}, "edge": {"target": [], "time": []}}, "mouseover": {"state": {"target": ["8", "9", "8", "10", "1", "12", "13", "19", "21", "19", "22", "12", "23", "31", "32", "31", "24", "25", "29", "26", "28", "17", "17", "15", "18", "1", "10"], "time": [1990, 2161, 2872, 2929, 3012, 5467, 5511, 5645, 5828, 6245, 6293, 6338, 6432, 6537, 6833, 9878, 12462, 12501, 12711, 13000, 13037, 13728, 14049, 16501, 16568, 16735, 18064]}, "edge": {"target": [], "time": []}}, "mouseout": {"state": {"target": ["23", "0", "8", "9", "8", "10", "1", "12", "13", "19", "21", "19", "22", "12", "23", "31", "32", "31", "24", "25", "29", "26", "28", "17", "17", "15", "18", "1", "10", "23"], "time": [677, 1345, 2032, 2516, 2916, 2952, 5422, 5495, 5555, 5724, 5902, 6272, 6304, 6364, 6453, 6602, 9565, 10098, 12478, 12529, 12978, 13035, 13072, 13768, 16445, 16551, 16605, 16832, 22907, 22946]}, "edge": {"target": [], "time": []}}}, "displayed_time": "22.24", "trialTime": 23530, "trial_type": "mouselab-mdp", "trial_index": 55, "time_elapsed": 1365236, "internal_node_id": "0.0-4.0-1.0-34.0"}}, {"uniqueid": "w26894460:a63579773", "current_trial": 56, "dateTime": 1691160302143, "trialdata": {"revealed_states": [], "clicked_states": ["27"], "num_clicks_accrued": [0, 0, 0, 0, 0, 0, 0, 0, 0, 0, 0, 0, 0], "stateRewards": ["", 2, -1, 5, 8, 75, -35, -77, 1, -9, -81, -58, 1, 2, -7, 5, 77, -16, 19, 16, -10, -18, 40, -2, 3, 7, -5, 64, 1, -62, 10, 27, 10, 65], "withholdReward": false, "trial_id": "mdp_trial_36", "block": "test", "trialIndex": 41, "score": 64.85, "costs": -2.15, "simulationMode": [null, null, null, null, null], "rewards": [-2, 3, 7, -5, 64], "path": ["0", "0", "23", "24", "25", "26", "27"], "rt": [4471, 113, 89, 29, 459], "actions": ["left", "left", "left", "up", "up"], "actionTimes": [6010, 6635, 7226, 7778, 8748], "queries": {"click": {"state": {"target": ["27"], "time": [2530]}, "edge": {"target": [], "time": []}}, "mouseover": {"state": {"target": ["28", "27", "0", "0"], "time": [2303, 2436, 2983, 5770]}, "edge": {"target": [], "time": []}}, "mouseout": {"state": {"target": ["0", "28", "27", "0", "0"], "time": [2187, 2352, 2818, 3020, 13986]}, "edge": {"target": [], "time": []}}}, "displayed_time": "15.54", "trialTime": 16652, "trial_type": "mouselab-mdp", "trial_index": 56, "time_elapsed": 1382517, "internal_node_id": "0.0-4.0-1.0-35.0"}}, {"uniqueid": "w26894460:a63579773", "current_trial": 57, "dateTime": 1691160318787, "trialdata": {"revealed_states": [], "clicked_states": ["9", "32"], "num_clicks_accrued": [0, 0, 0, 0, 0, 0, 0, 0, 0, 0, 0, 0, 0], "stateRewards": ["", 2, -2, -8, 9, -20, 55, -58, 14, 42, 2, 36, 1, -3, -5, 5, -58, 57, 60, 16, 57, 30, -70, -2, 1, 3, 10, 59, 23, 77, -13, -26, 88, -72], "withholdReward": false, "trial_id": "mdp_trial_37", "block": "test", "trialIndex": 42, "score": 72.7, "costs": -4.3, "simulationMode": [null, null, null, null, null], "rewards": [-2, 1, 3, -13, 88], "path": ["0", "0", "23", "24", "25", "30", "32"], "rt": [8045, 4, 132, 8, 110], "actions": ["left", "left", "left", "down", "down"], "actionTimes": [9304, 9815, 10464, 10968, 11600], "queries": {"click": {"state": {"target": ["9", "32"], "time": [2102, 5817]}, "edge": {"target": [], "time": []}}, "mouseover": {"state": {"target": ["1", "9", "8", "10", "24", "32", "19", "17", "22", "12", "7", "6"], "time": [1723, 1959, 2409, 2478, 2571, 2744, 6436, 6811, 8009, 8056, 8199, 8837]}, "edge": {"target": [], "time": []}}, "mouseout": {"state": {"target": ["0", "1", "9", "8", "10", "24", "32", "19", "17", "22", "12", "7", "6", "12"], "time": [1670, 1795, 2340, 2466, 2505, 2594, 6149, 6545, 7145, 8034, 8080, 8246, 9672, 13537]}, "edge": {"target": [], "time": []}}}, "displayed_time": "15.26", "trialTime": 16013, "trial_type": "mouselab-mdp", "trial_index": 57, "time_elapsed": 1399161, "internal_node_id": "0.0-4.0-1.0-36.0"}}, {"uniqueid": "w26894460:a63579773", "current_trial": 58, "dateTime": 1691160356325, "trialdata": {"revealed_states": [], "clicked_states": ["9", "32", "21", "18", "29", "28", "6", "7"], "num_clicks_accrued": [0, 0, 0, 0, 0, 0, 0, 0, 0, 0, 0, 0, 0], "stateRewards": ["", 2, 3, -1, 16, -78, -11, 46, 2, -20, 79, -67, 2, 3, 2, 11, -83, -42, -58, -11, -67, -22, 55, 2, -1, -1, -16, -83, -82, 23, -11, -29, 13, 13], "withholdReward": false, "trial_id": "mdp_trial_38", "block": "test", "trialIndex": 43, "score": -75.2, "costs": -17.2, "simulationMode": [null, null, null, null, null], "rewards": [2, 3, -1, 16, -78], "path": ["0", "0", "1", "2", "3", "4", "5"], "rt": [28856, 120, 89, 117, 899], "actions": ["up", "up", "up", "right", "up"], "actionTimes": [30301, 30924, 31524, 32148, 33540], "queries": {"click": {"state": {"target": ["9", "32", "21", "18", "29", "28", "6", "7"], "time": [2697, 6015, 9304, 12463, 16756, 20227, 23420, 27078]}, "edge": {"target": [], "time": []}}, "mouseover": {"state": {"target": ["10", "9", "8", "2", "32", "21", "20", "18", "1", "28", "26", "29", "29", "26", "28", "10", "4", "6", "7", "12"], "time": [1903, 2356, 3173, 3239, 4052, 6804, 9733, 10326, 15824, 15940, 16051, 16175, 16417, 19955, 20075, 20891, 21058, 21321, 26884, 29311]}, "edge": {"target": [], "time": []}}, "mouseout": {"state": {"target": ["0", "10", "9", "8", "2", "32", "21", "20", "18", "1", "28", "26", "29", "29", "26", "28", "10", "4", "6", "7", "7", "12"], "time": [1795, 1934, 3136, 3208, 3268, 6251, 9640, 9821, 15776, 15853, 15985, 16149, 16283, 19324, 20001, 20814, 20928, 21073, 26773, 27115, 29141, 29438]}, "edge": {"target": [], "time": []}}}, "displayed_time": "34.04", "trialTime": 36932, "trial_type": "mouselab-mdp", "trial_index": 58, "time_elapsed": 1436700, "internal_node_id": "0.0-4.0-1.0-37.0"}}, {"uniqueid": "w26894460:a63579773", "current_trial": 59, "dateTime": 1691160373662, "trialdata": {"revealed_states": [], "clicked_states": ["9", "32"], "num_clicks_accrued": [0, 0, 0, 0, 0, 0, 0, 0, 0, 0, 0, 0, 0], "stateRewards": ["", -1, 1, -1, 2, 19, 85, -18, 2, -3, -26, 36, 2, 4, 7, -9, -18, 70, 72, -5, 35, -20, -28, 1, -2, -4, -3, -59, -11, -63, -2, -72, 59, -69], "withholdReward": false, "trial_id": "mdp_trial_39", "block": "test", "trialIndex": 44, "score": 47.7, "costs": -4.3, "simulationMode": [null, null, null, null, null], "rewards": [1, -2, -4, -2, 59], "path": ["0", "0", "23", "24", "25", "30", "32"], "rt": [7780, 37, 370, 70, 121], "actions": ["left", "left", "left", "down", "down"], "actionTimes": [8975, 9508, 10383, 10944, 11569], "queries": {"click": {"state": {"target": ["9", "32"], "time": [2414, 5624]}, "edge": {"target": [], "time": []}}, "mouseover": {"state": {"target": ["0", "10", "8", "9", "8", "31", "32"], "time": [1421, 1782, 1821, 2303, 2853, 3021, 3752]}, "edge": {"target": [], "time": []}}, "mouseout": {"state": {"target": ["0", "0", "10", "8", "9", "8", "31", "32", "22"], "time": [752, 1611, 1793, 1937, 2827, 2865, 3055, 5948, 13203]}, "edge": {"target": [], "time": []}}}, "displayed_time": "15.20", "trialTime": 16703, "trial_type": "mouselab-mdp", "trial_index": 59, "time_elapsed": 1454036, "internal_node_id": "0.0-4.0-1.0-38.0"}}, {"uniqueid": "w26894460:a63579773", "current_trial": 60, "dateTime": 1691160396107, "trialdata": {"revealed_states": [], "clicked_states": ["5", "9", "29", "32"], "num_clicks_accrued": [0, 0, 0, 0, 0, 0, 0, 0, 0, 0, 0, 0, 0], "stateRewards": ["", 1, -3, -6, -5, 47, 80, -29, 11, -71, 10, -29, -2, 3, -6, 12, 2, -78, -6, 8, 34, -16, -5, -1, 3, 3, -13, 84, -36, -62, -3, -27, 66, 15], "withholdReward": false, "trial_id": "mdp_trial_40", "block": "test", "trialIndex": 45, "score": 59.4, "costs": -8.6, "simulationMode": [null, null, null, null, null], "rewards": [-1, 3, 3, -3, 66], "path": ["0", "0", "23", "24", "25", "30", "32"], "rt": [14721, 96, 38, 225, 122], "actions": ["left", "left", "left", "down", "down"], "actionTimes": [17560, 18156, 18720, 19464, 20113], "queries": {"click": {"state": {"target": ["5", "9", "29", "32"], "time": [3505, 7888, 11129, 14354]}, "edge": {"target": [], "time": []}}, "mouseover": {"state": {"target": ["1", "2", "5", "9", "8", "10", "8", "9", "8", "10", "28", "25", "26", "29", "33", "33", "32", "31", "5", "9"], "time": [3171, 3229, 3358, 3929, 4670, 5243, 7772, 7879, 8209, 8300, 8373, 8926, 9059, 9151, 11421, 11784, 12224, 14654, 14963, 15321]}, "edge": {"target": [], "time": []}}, "mouseout": {"state": {"target": ["0", "0", "1", "2", "5", "5", "9", "8", "10", "8", "9", "8", "10", "28", "25", "26", "29", "33", "33", "32", "31", "5", "9", "8", "10", "0"], "time": [891, 3037, 3218, 3254, 3571, 3741, 4603, 4682, 7739, 7832, 8128, 8255, 8337, 8441, 8978, 9093, 11350, 11467, 12128, 14612, 14665, 15025, 20389, 20459, 20513, 20582]}, "edge": {"target": [], "time": []}}}, "displayed_time": "20.62", "trialTime": 21749, "trial_type": "mouselab-mdp", "trial_index": 60, "time_elapsed": 1476481, "internal_node_id": "0.0-4.0-1.0-39.0"}}, {"uniqueid": "w26894460:a63579773", "current_trial": 61, "dateTime": 1691160467969, "trialdata": {"rt": 71855, "response": {"Q0": "$-16 to 16", "Q1": "$-32 to $32", "Q2": "$-88 to $88", "Q3": "The cost for clicking on nodes varied between nodes.", "Q4": "Very motivated"}, "question_order": [0, 1, 2, 3, 4], "trial_id": "final_quiz_control", "trial_type": "survey-multi-choice", "trial_index": 61, "time_elapsed": 1548344, "internal_node_id": "0.0-4.0-2.0"}}, {"uniqueid": "w26894460:a63579773", "current_trial": 62, "dateTime": 1691160702397, "trialdata": {"rt": 234417, "response": {"Q0": "I first checked the closest nodes and they always yield less cashout, so I went to check the edges and realized that t they had higher yields or losses so I decided to check the further one's only.", "Q1": "I checked the average loss that the closest nodes and the edges, so if the bode is 60 or above it is good to go. It will compensate for the loses of the inspector or yields higher.", "Q2": "Not really difficult I juts had to understand the basic strategy first, then from there everything was easy or seemed easy."}, "trial_id": "self_report_control", "trial_type": "survey-text", "trial_index": 62, "time_elapsed": 1782772, "internal_node_id": "0.0-4.0-3.0"}}, {"uniqueid": "w26894460:a63579773", "current_trial": 63, "dateTime": 1691160765210, "trialdata": {"rt": 62807, "response": {"Q0": "Neither disagree nor agree", "Q1": "Disagree", "Q2": "Agree", "Q3": "Disagree", "Q4": "Strongly agree", "Q5": "Strongly agree", "Q6": "Neither disagree nor agree"}, "question_order": [0, 1, 2, 3, 4, 5, 6], "trial_id": "self_report_2", "trial_type": "survey-multi-choice", "trial_index": 63, "time_elapsed": 1845584, "internal_node_id": "0.0-4.0-4.0"}}, {"uniqueid": "w26894460:a63579773", "current_trial": 64, "dateTime": 1691160784490, "trialdata": {"rt": 19272, "response": {"gender": "male", "age": "25", "colorblind": "2", "effort": "0"}, "trial_type": "survey-html-form", "trial_index": 64, "time_elapsed": 1864865, "internal_node_id": "0.0-4.0-5.0"}}, {"uniqueid": "w26894460:a63579773", "current_trial": 65, "dateTime": 1691160853617, "trialdata": {"rt": 69120, "response": {"Q0": "Not really, sometimes it felt like it stuck but it was just the animation delay.", "Q1": "no.", "Q2": "Nothing really."}, "trial_type": "survey-text", "trial_index": 65, "time_elapsed": 1933991, "internal_node_id": "0.0-4.0-6.0"}}, {"uniqueid": "w26894460:a63579773", "current_trial": 66, "dateTime": 1691160856249, "trialdata": {"rt": 2627, "stimulus": "Press 'Finish HIT' in order to reach the completion code. Once the data has been saved, you will receive the code either in this window or in the original browser window where you started the experiment.\n", "response": 0, "trial_type": "html-button-response", "trial_index": 66, "time_elapsed": 1936624, "internal_node_id": "0.0-5.0"}}, {"uniqueid": "w26894460:a63579773", "current_trial": 67, "dateTime": 1691160857260, "trialdata": {"success": true, "trial_type": "fullscreen", "trial_index": 67, "time_elapsed": 1937635, "internal_node_id": "0.0-6.0"}}], "questiondata": {"params": {"CODE": "C6DMOQA6", "MIN_TIME": 14, "inspectCost": 1, "startTime": "Fri Aug 04 2023 16:21:57 GMT+0200 (South Africa Standard Time)", "bonusRate": 0.002, "variance": "1_2_4_8_44", "branching": "31123"}, "final_score": 1765.9}, "eventdata": [{"eventtype": "initialized", "value": null, "timestamp": 1691158916498, "interval": 0}, {"eventtype": "window_resize", "value": [1920, 1024], "timestamp": 1691158916498, "interval": 0}, {"eventtype": "window_resize", "value": [1920, 1024], "timestamp": 1691158917022, "interval": 524}, {"eventtype": "window_resize", "value": [1920, 1080], "timestamp": 1691158923302, "interval": 6280}, {"eventtype": "focus", "value": "off", "timestamp": 1691159282371, "interval": 359069}, {"eventtype": "focus", "value": "on", "timestamp": 1691159282371, "interval": 0}, {"eventtype": "focus", "value": "off", "timestamp": 1691159404386, "interval": 122015}, {"eventtype": "focus", "value": "on", "timestamp": 1691159404386, "interval": 0}], "useragent": "Mozilla/5.0 (Windows NT 10.0; Win64; x64) AppleWebKit/537.36 (KHTML, like Gecko) Chrome/115.0.0.0 Safari/537.36 Edg/115.0.1901.188", "mode": "live", "id": "w26894460:a63579773", "status": "user data saved", "Beginhit": "2023-08-04 14:21:52.578543", "Beginexp": "2023-08-04 14:22:07.545653", "Endhit": "2023-08-04 14:54:18.415763", "psiturkStatus": 3, "browser": "<redacted>", "platform": "windows", "language": "en-US"}