{"condition": 1, "counterbalance": 0, "assignmentId": "a71809966", "workerId": "w18251777", "hitId": "h69755689", "currenttrial": 56, "bonus": 0, "data": [{"uniqueid": "w18251777:a71809966", "current_trial": 0, "dateTime": 1691159401599, "trialdata": {"success": true, "trial_type": "fullscreen", "trial_index": 0, "time_elapsed": 3001, "internal_node_id": "0.0-0.0"}}, {"uniqueid": "w18251777:a71809966", "current_trial": 1, "dateTime": 1691159413901, "trialdata": {"view_history": [{"page_index": 0, "viewing_time": 12286}], "rt": 12288, "trial_id": "exp_instructions_misaligned", "trial_type": "instructions", "trial_index": 1, "time_elapsed": 15303, "internal_node_id": "0.0-1.0"}}, {"uniqueid": "w18251777:a71809966", "current_trial": 2, "dateTime": 1691159419651, "trialdata": {"success": true, "trial_type": "fullscreen", "trial_index": 2, "time_elapsed": 21053, "internal_node_id": "0.0-2.0-0.0"}}, {"uniqueid": "w18251777:a71809966", "current_trial": 3, "dateTime": 1691159455268, "trialdata": {"view_history": [{"page_index": 0, "viewing_time": 4004}, {"page_index": 1, "viewing_time": 21024}, {"page_index": 2, "viewing_time": 3757}, {"page_index": 3, "viewing_time": 6824}], "rt": 35610, "trial_id": "mouselab_instructions_1_misaligned", "trial_type": "instructions", "trial_index": 3, "time_elapsed": 56670, "internal_node_id": "0.0-2.0-1.0"}}, {"uniqueid": "w18251777:a71809966", "current_trial": 4, "dateTime": 1691159471429, "trialdata": {"revealed_states": [], "clicked_states": ["29", "27"], "num_clicks_accrued": [0, 0, 0, 0, 0, 0, 0, 0, 0, 0, 0, 0, 0], "stateRewards": ["", 10, -10, 10, 10, -10, -10, 10, 10, -10, -10, 10, 10, -10, 10, 10, 10, -10, 10, 10, -10, -10, 10, 10, 10, 10, -10, 10, 10, -10, -10, -10, -10, -10], "withholdReward": false, "trial_id": "practice_1", "block": "test", "trialIndex": 0, "score": 32.5, "costs": -1, "simulationMode": [null, null, null, null, null], "rewards": [10, 10, 10, -10, 10], "path": ["0", "0", "23", "24", "25", "26", "27"], "rt": [7947, 477, 199, 533, 176], "actions": ["left", "left", "left", "up", "up"], "actionTimes": [9239, 10256, 10986, 12084, 12804], "queries": {"click": {"state": {"target": ["29", "27"], "time": [3352, 6215]}, "edge": {"target": [], "time": []}}, "mouseover": {"state": {"target": ["24", "25", "29", "25", "23", "28", "27", "28"], "time": [2129, 2349, 2976, 5382, 5510, 5635, 5790, 7050]}, "edge": {"target": [], "time": []}}, "mouseout": {"state": {"target": ["0", "24", "25", "29", "25", "23", "28", "27", "28"], "time": [1740, 2192, 2852, 4872, 5419, 5573, 5664, 7046, 7089]}, "edge": {"target": [], "time": []}}}, "displayed_time": "13.34", "trialTime": 15079, "trial_type": "mouselab-mdp", "trial_index": 4, "time_elapsed": 72831, "internal_node_id": "0.0-2.0-2.0-0.0"}}, {"uniqueid": "w18251777:a71809966", "current_trial": 5, "dateTime": 1691159483311, "trialdata": {"revealed_states": [], "clicked_states": ["9"], "num_clicks_accrued": [0, 0, 0, 0, 0, 0, 0, 0, 0, 0, 0, 0, 0], "stateRewards": ["", 10, -10, 10, -10, 10, 10, -10, 10, 10, 10, -10, 10, 10, -10, 10, -10, 10, 10, 10, -10, 10, 10, 10, 10, -10, -10, 10, 10, -10, -10, -10, -10, -10], "withholdReward": false, "trial_id": "practice_2", "block": "test", "trialIndex": 1, "score": 33, "costs": -0.5, "simulationMode": [null, null, null, null, null], "rewards": [10, -10, 10, 10, 10], "path": ["0", "0", "1", "2", "3", "8", "9"], "rt": [4258, 102, 102, 436, 243], "actions": ["up", "up", "up", "left", "up"], "actionTimes": [6782, 7433, 8084, 9048, 9833], "queries": {"click": {"state": {"target": ["9"], "time": [3498]}, "edge": {"target": [], "time": []}}, "mouseover": {"state": {"target": ["10", "8", "9"], "time": [2874, 2943, 3124]}, "edge": {"target": [], "time": []}}, "mouseout": {"state": {"target": ["0", "0", "0", "10", "8", "9"], "time": [1011, 1856, 2753, 2938, 2979, 4397]}, "edge": {"target": [], "time": []}}}, "displayed_time": "10.37", "trialTime": 11486, "trial_type": "mouselab-mdp", "trial_index": 5, "time_elapsed": 84713, "internal_node_id": "0.0-2.0-2.0-1.0"}}, {"uniqueid": "w18251777:a71809966", "current_trial": 6, "dateTime": 1691159505029, "trialdata": {"view_history": [{"page_index": 0, "viewing_time": 11249}, {"page_index": 1, "viewing_time": 10461}], "rt": 21712, "trial_id": "mouselab_instructions_2_misaligned", "trial_type": "instructions", "trial_index": 6, "time_elapsed": 106431, "internal_node_id": "0.0-2.0-3.0"}}, {"uniqueid": "w18251777:a71809966", "current_trial": 7, "dateTime": 1691159522362, "trialdata": {"rt": 17324, "response": {"Q0": "The cost for clicking on nodes may vary between nodes.", "Q1": "The better I perform the higher my bonus will be.", "Q2": "No, the amount of cash at each node of the web may be different each time.", "Q3": "To get the highest total score.", "Q4": "Only before moving the spider.", "Q5": "3 seconds"}, "question_order": [0, 1, 2, 3, 4, 5], "correct": {"Q0": "The cost for clicking on nodes may vary between nodes.", "Q1": "The better I perform the higher my bonus will be.", "Q2": "No, the amount of cash at each node of the web may be different each time.", "Q3": "To get the highest total score.", "Q4": "Only before moving the spider.", "Q5": "3 seconds"}, "trial_id": "mouselab_quiz_misaligned", "trial_type": "survey-multi-choice", "trial_index": 7, "time_elapsed": 123764, "internal_node_id": "0.0-2.0-4.0"}}, {"uniqueid": "w18251777:a71809966", "current_trial": 8, "dateTime": 1691159525891, "trialdata": {"rt": 3515, "stimulus": "\n<h1> Get ready to start the game! </h1>\n\nThank you for reading the instructions. Get ready start with the 40 rounds of this game.\n<br><br>\nIf you need to take a break, feel free to take one after the end of a round, before continuing to the next one.\n<br><br>\nRemember, the more money the spider gets, the bigger your bonus will be!\n<br><br>\n<div style='text-align: center;'>Press <code>space</code> to begin.</div>\n\n<br><br>\n(If, at any point, the <code>space</code> key does not take you to the next page, click once on the text and try again.)", "response": " ", "trial_id": "mdp_ready", "trial_type": "html-keyboard-response", "trial_index": 8, "time_elapsed": 127292, "internal_node_id": "0.0-4.0-0.0"}}, {"uniqueid": "w18251777:a71809966", "current_trial": 9, "dateTime": 1691159543928, "trialdata": {"revealed_states": [], "clicked_states": ["32"], "num_clicks_accrued": [0, 0, 0, 0, 0, 0, 0, 0, 0, 0, 0, 0, 0], "stateRewards": ["", -2, 3, -1, 2, -72, 63, 20, -1, 62, -66, 39, -2, 3, -6, 14, 22, 47, 1, 8, -49, -1, -41, 2, 2, -6, -16, -64, -60, -34, 16, 54, 22, -7], "withholdReward": false, "trial_id": "mdp_trial_1", "block": "test", "trialIndex": 2, "score": 33.85, "costs": -2.15, "simulationMode": [null, null, null, null, null], "rewards": [2, 2, -6, 16, 22], "path": ["0", "0", "23", "24", "25", "30", "32"], "rt": [4942, 88, 95, 201, 186], "actions": ["left", "left", "left", "down", "down"], "actionTimes": [7591, 8217, 8877, 9627, 10347], "queries": {"click": {"state": {"target": ["32"], "time": [3597]}, "edge": {"target": [], "time": []}}, "mouseover": {"state": {"target": ["0", "32"], "time": [2892, 3048]}, "edge": {"target": [], "time": []}}, "mouseout": {"state": {"target": ["0", "32"], "time": [2924, 4154]}, "edge": {"target": [], "time": []}}}, "displayed_time": "16.67", "trialTime": 17609, "trial_type": "mouselab-mdp", "trial_index": 9, "time_elapsed": 145329, "internal_node_id": "0.0-4.0-1.0-0.0"}}, {"uniqueid": "w18251777:a71809966", "current_trial": 10, "dateTime": 1691159562787, "trialdata": {"revealed_states": [], "clicked_states": ["21", "20"], "num_clicks_accrued": [0, 0, 0, 0, 0, 0, 0, 0, 0, 0, 0, 0, 0], "stateRewards": ["", 1, 4, 7, -16, -84, -6, -46, -12, -7, -49, -26, -1, 2, -4, 2, 22, 37, -64, 1, 88, -13, -10, 1, -4, -2, 5, 2, -10, -34, 9, 66, 55, 38], "withholdReward": false, "trial_id": "mdp_trial_2", "block": "test", "trialIndex": 3, "score": 81.7, "costs": -4.3, "simulationMode": [null, null, null, null, null], "rewards": [-1, 2, -4, 1, 88], "path": ["0", "0", "12", "13", "14", "19", "20"], "rt": [9597, 77, 162, 245, 253], "actions": ["right", "right", "right", "down", "right"], "actionTimes": [12290, 12906, 13602, 14404, 15182], "queries": {"click": {"state": {"target": ["21", "20"], "time": [3953, 8211]}, "edge": {"target": [], "time": []}}, "mouseover": {"state": {"target": ["21", "20"], "time": [3611, 7898]}, "edge": {"target": [], "time": []}}, "mouseout": {"state": {"target": ["21", "20"], "time": [7698, 8856]}, "edge": {"target": [], "time": []}}}, "displayed_time": "16.70", "trialTime": 18410, "trial_type": "mouselab-mdp", "trial_index": 10, "time_elapsed": 164188, "internal_node_id": "0.0-4.0-1.0-1.0"}}, {"uniqueid": "w18251777:a71809966", "current_trial": 11, "dateTime": 1691159584194, "trialdata": {"revealed_states": [], "clicked_states": ["17", "28"], "num_clicks_accrued": [0, 0, 0, 0, 0, 0, 0, 0, 0, 0, 0, 0, 0], "stateRewards": ["", -1, 3, 1, -11, -22, -36, 19, -5, -70, -52, 50, -2, -4, 4, -2, -41, -83, 29, -2, 22, 10, -6, -2, 3, -2, 14, 54, 44, 77, -9, -65, -37, -40], "withholdReward": false, "trial_id": "mdp_trial_3", "block": "test", "trialIndex": 4, "score": 52.7, "costs": -4.3, "simulationMode": [null, null, null, null, null], "rewards": [-2, 3, -2, 14, 44], "path": ["0", "0", "23", "24", "25", "26", "28"], "rt": [8917, 103, 74, 391, 378], "actions": ["left", "left", "left", "up", "right"], "actionTimes": [13708, 14337, 14982, 15921, 16855], "queries": {"click": {"state": {"target": ["17", "28"], "time": [5582, 9909]}, "edge": {"target": [], "time": []}}, "mouseover": {"state": {"target": ["12", "17", "15", "18", "27", "28"], "time": [4979, 5216, 9111, 9153, 9298, 9518]}, "edge": {"target": [], "time": []}}, "mouseout": {"state": {"target": ["0", "0", "0", "12", "17", "15", "18", "27", "28"], "time": [630, 925, 4947, 5023, 7215, 9147, 9192, 9330, 10533]}, "edge": {"target": [], "time": []}}}, "displayed_time": "18.80", "trialTime": 20977, "trial_type": "mouselab-mdp", "trial_index": 11, "time_elapsed": 185596, "internal_node_id": "0.0-4.0-1.0-2.0"}}, {"uniqueid": "w18251777:a71809966", "current_trial": 12, "dateTime": 1691159602593, "trialdata": {"revealed_states": [], "clicked_states": ["27", "29"], "num_clicks_accrued": [0, 0, 0, 0, 0, 0, 0, 0, 0, 0, 0, 0, 0], "stateRewards": ["", 1, 2, 7, 13, 88, -71, 27, 3, 60, 5, -53, -2, 2, -6, -1, -30, 79, 47, -4, -14, 46, 68, 1, 1, 8, 10, -14, 86, 48, -11, -67, -44, 5], "withholdReward": false, "trial_id": "mdp_trial_4", "block": "test", "trialIndex": 5, "score": 63.7, "costs": -4.3, "simulationMode": [null, null, null, null, null], "rewards": [1, 1, 8, 10, 48], "path": ["0", "0", "23", "24", "25", "26", "29"], "rt": [8838, 182, 136, 346, 104], "actions": ["left", "left", "left", "up", "left"], "actionTimes": [11308, 12029, 12699, 13588, 14234], "queries": {"click": {"state": {"target": ["27", "29"], "time": [3404, 7243]}, "edge": {"target": [], "time": []}}, "mouseover": {"state": {"target": ["28", "26", "29", "27", "29"], "time": [2612, 2650, 2692, 3049, 6899]}, "edge": {"target": [], "time": []}}, "mouseout": {"state": {"target": ["0", "28", "26", "29", "27", "29"], "time": [2559, 2646, 2687, 2970, 3620, 8927]}, "edge": {"target": [], "time": []}}}, "displayed_time": "16.48", "trialTime": 17984, "trial_type": "mouselab-mdp", "trial_index": 12, "time_elapsed": 203994, "internal_node_id": "0.0-4.0-1.0-3.0"}}, {"uniqueid": "w18251777:a71809966", "current_trial": 13, "dateTime": 1691159625474, "trialdata": {"revealed_states": [], "clicked_states": ["16", "21", "9"], "num_clicks_accrued": [0, 0, 0, 0, 0, 0, 0, 0, 0, 0, 0, 0, 0], "stateRewards": ["", -1, 2, -6, 6, 43, 78, 78, -2, 55, -29, -17, -2, -4, 1, -15, 13, 7, -79, 8, -28, -68, 36, -1, -3, 3, -16, 84, -18, 87, 10, 32, 13, -81], "withholdReward": false, "trial_id": "mdp_trial_5", "block": "test", "trialIndex": 6, "score": 41.55, "costs": -6.449999999999999, "simulationMode": [null, null, null, null, null], "rewards": [-1, 2, -6, -2, 55], "path": ["0", "0", "1", "2", "3", "8", "9"], "rt": [13783, 43, 133, 298, 83], "actions": ["up", "up", "up", "left", "up"], "actionTimes": [17716, 18322, 19011, 19836, 20472], "queries": {"click": {"state": {"target": ["16", "21", "9"], "time": [4894, 9416, 13917]}, "edge": {"target": [], "time": []}}, "mouseover": {"state": {"target": ["15", "16", "14", "22", "21", "0", "1", "2", "9"], "time": [4403, 4574, 8676, 8753, 9082, 12963, 13004, 13052, 13399]}, "edge": {"target": [], "time": []}}, "mouseout": {"state": {"target": ["29", "23", "0", "12", "0", "0", "15", "16", "14", "22", "21", "0", "1", "2", "9"], "time": [599, 646, 709, 974, 1310, 4159, 4467, 5979, 8710, 8910, 9997, 12997, 13046, 13212, 14870]}, "edge": {"target": [], "time": []}}}, "displayed_time": "21.00", "trialTime": 22444, "trial_type": "mouselab-mdp", "trial_index": 13, "time_elapsed": 226875, "internal_node_id": "0.0-4.0-1.0-4.0"}}, {"uniqueid": "w18251777:a71809966", "current_trial": 14, "dateTime": 1691159644328, "trialdata": {"revealed_states": [], "clicked_states": ["16"], "num_clicks_accrued": [0, 0, 0, 0, 0, 0, 0, 0, 0, 0, 0, 0, 0], "stateRewards": ["", -2, 1, -7, -8, -37, -76, -87, 11, 30, -63, 80, -1, 4, 2, -1, 42, 17, 52, -3, -75, -80, -68, 2, -3, -5, -15, -48, 82, 24, -7, 5, -22, -71], "withholdReward": false, "trial_id": "mdp_trial_6", "block": "test", "trialIndex": 7, "score": 43.85, "costs": -2.15, "simulationMode": [null, null, null, null, null], "rewards": [-1, 4, 2, -1, 42], "path": ["0", "0", "12", "13", "14", "15", "16"], "rt": [4930, 24, 119, 219, 86], "actions": ["right", "right", "right", "up", "up"], "actionTimes": [7577, 8157, 8803, 9568, 10224], "queries": {"click": {"state": {"target": ["16"], "time": [3907]}, "edge": {"target": [], "time": []}}, "mouseover": {"state": {"target": ["12", "13", "15", "16"], "time": [3058, 3109, 3377, 3550]}, "edge": {"target": [], "time": []}}, "mouseout": {"state": {"target": ["0", "0", "12", "13", "15", "16", "16"], "time": [1023, 3022, 3103, 3146, 3441, 4152, 4602]}, "edge": {"target": [], "time": []}}}, "displayed_time": "16.68", "trialTime": 18418, "trial_type": "mouselab-mdp", "trial_index": 14, "time_elapsed": 245729, "internal_node_id": "0.0-4.0-1.0-5.0"}}, {"uniqueid": "w18251777:a71809966", "current_trial": 15, "dateTime": 1691159663262, "trialdata": {"revealed_states": [], "clicked_states": ["9", "5"], "num_clicks_accrued": [0, 0, 0, 0, 0, 0, 0, 0, 0, 0, 0, 0, 0], "stateRewards": ["", -1, 3, 1, -7, 56, 76, 57, 3, 11, -9, 14, 1, -2, 2, 8, -77, -3, 79, -5, 88, 24, -66, -2, -1, 7, -7, -30, 14, -76, 11, -36, 28, -6], "withholdReward": false, "trial_id": "mdp_trial_7", "block": "test", "trialIndex": 8, "score": 47.7, "costs": -4.3, "simulationMode": [null, null, null, null, null], "rewards": [-1, 3, 1, -7, 56], "path": ["0", "0", "1", "2", "3", "4", "5"], "rt": [8320, 132, 167, 295, 690], "actions": ["up", "up", "up", "right", "up"], "actionTimes": [10508, 11186, 11905, 12756, 14002], "queries": {"click": {"state": {"target": ["9", "5"], "time": [3011, 7131]}, "edge": {"target": [], "time": []}}, "mouseover": {"state": {"target": ["10", "8", "9", "5"], "time": [2352, 2568, 2665, 6777]}, "edge": {"target": [], "time": []}}, "mouseout": {"state": {"target": ["0", "10", "8", "9", "5"], "time": [2301, 2426, 2618, 5016, 8266]}, "edge": {"target": [], "time": []}}}, "displayed_time": "16.19", "trialTime": 18532, "trial_type": "mouselab-mdp", "trial_index": 15, "time_elapsed": 264663, "internal_node_id": "0.0-4.0-1.0-6.0"}}, {"uniqueid": "w18251777:a71809966", "current_trial": 16, "dateTime": 1691159681619, "trialdata": {"revealed_states": [], "clicked_states": ["27", "29"], "num_clicks_accrued": [0, 0, 0, 0, 0, 0, 0, 0, 0, 0, 0, 0, 0], "stateRewards": ["", -2, -1, 3, -3, 71, -58, -21, 7, -10, -75, -37, 2, 4, -1, -12, -79, -29, -48, 3, -41, -10, -30, -1, -2, 1, -15, 13, 66, 22, -1, -42, -86, -55], "withholdReward": false, "trial_id": "mdp_trial_8", "block": "test", "trialIndex": 9, "score": 0.6999999999999993, "costs": -4.3, "simulationMode": [null, null, null, null, null], "rewards": [-1, -2, 1, -15, 22], "path": ["0", "0", "23", "24", "25", "26", "29"], "rt": [8918, 45, 111, 238, 137], "actions": ["left", "left", "left", "up", "left"], "actionTimes": [11185, 11762, 12440, 13248, 13907], "queries": {"click": {"state": {"target": ["27", "29"], "time": [3498, 7398]}, "edge": {"target": [], "time": []}}, "mouseover": {"state": {"target": ["23", "27", "29"], "time": [2853, 3179, 6996]}, "edge": {"target": [], "time": []}}, "mouseout": {"state": {"target": ["6", "7", "23", "27", "29"], "time": [1255, 1294, 2889, 3722, 8248]}, "edge": {"target": [], "time": []}}}, "displayed_time": "16.28", "trialTime": 17940, "trial_type": "mouselab-mdp", "trial_index": 16, "time_elapsed": 283020, "internal_node_id": "0.0-4.0-1.0-7.0"}}, {"uniqueid": "w18251777:a71809966", "current_trial": 17, "dateTime": 1691159699172, "trialdata": {"revealed_states": [], "clicked_states": ["17"], "num_clicks_accrued": [0, 0, 0, 0, 0, 0, 0, 0, 0, 0, 0, 0, 0], "stateRewards": ["", -1, -3, -6, 14, 41, 18, 63, -14, 80, 21, 17, -2, -4, -2, -5, 13, 70, 8, -4, -64, -10, -20, 2, -1, 4, -1, -17, -55, 42, -7, 47, 54, 15], "withholdReward": false, "trial_id": "mdp_trial_9", "block": "test", "trialIndex": 10, "score": 54.85, "costs": -2.15, "simulationMode": [null, null, null, null, null], "rewards": [-2, -4, -2, -5, 70], "path": ["0", "0", "12", "13", "14", "15", "17"], "rt": [6032, 58, 125, 68, 193], "actions": ["right", "right", "right", "up", "right"], "actionTimes": [8227, 8819, 9494, 10116, 10865], "queries": {"click": {"state": {"target": ["17"], "time": [3873]}, "edge": {"target": [], "time": []}}, "mouseover": {"state": {"target": ["0", "13", "14", "15", "17", "32", "32"], "time": [2590, 3136, 3219, 3417, 3576, 6501, 6800]}, "edge": {"target": [], "time": []}}, "mouseout": {"state": {"target": ["25", "23", "0", "0", "13", "14", "15", "17", "32", "32"], "time": [539, 742, 1491, 2633, 3185, 3324, 3527, 4805, 6578, 15966]}, "edge": {"target": [], "time": []}}}, "displayed_time": "16.24", "trialTime": 17104, "trial_type": "mouselab-mdp", "trial_index": 17, "time_elapsed": 300573, "internal_node_id": "0.0-4.0-1.0-8.0"}}, {"uniqueid": "w18251777:a71809966", "current_trial": 18, "dateTime": 1691159718581, "trialdata": {"revealed_states": [], "clicked_states": ["9", "27"], "num_clicks_accrued": [0, 0, 0, 0, 0, 0, 0, 0, 0, 0, 0, 0, 0], "stateRewards": ["", -1, -3, -5, -14, -13, -47, 79, 8, -60, -64, 41, -1, 2, 3, 13, -46, 61, -79, -11, -64, -65, 23, 1, -2, 6, -14, 46, 32, 21, 7, 75, -66, 15], "withholdReward": false, "trial_id": "mdp_trial_10", "block": "test", "trialIndex": 11, "score": 32.7, "costs": -4.3, "simulationMode": [null, null, null, null, null], "rewards": [1, -2, 6, -14, 46], "path": ["0", "0", "23", "24", "25", "26", "27"], "rt": [8867, 81, 148, 480, 108], "actions": ["left", "left", "left", "up", "up"], "actionTimes": [11143, 11764, 12446, 13459, 14108], "queries": {"click": {"state": {"target": ["9", "27"], "time": [3402, 7719]}, "edge": {"target": [], "time": []}}, "mouseover": {"state": {"target": ["7", "3", "9", "27", "27"], "time": [2817, 2897, 3081, 6931, 7417]}, "edge": {"target": [], "time": []}}, "mouseout": {"state": {"target": ["30", "31", "23", "0", "7", "3", "9", "27", "27"], "time": [715, 765, 1120, 1782, 2853, 2935, 4442, 6983, 8634]}, "edge": {"target": [], "time": []}}}, "displayed_time": "16.28", "trialTime": 18966, "trial_type": "mouselab-mdp", "trial_index": 18, "time_elapsed": 319982, "internal_node_id": "0.0-4.0-1.0-9.0"}}, {"uniqueid": "w18251777:a71809966", "current_trial": 19, "dateTime": 1691159752228, "trialdata": {"revealed_states": [], "clicked_states": ["16", "17", "29"], "num_clicks_accrued": [0, 0, 0, 0, 0, 0, 0, 0, 0, 0, 0, 0, 0], "stateRewards": ["", 1, 4, -8, -13, -13, -87, -77, -10, -44, 54, 42, 2, -3, -4, 12, -9, -80, 52, 9, 84, -2, -65, 1, -4, -5, -6, 8, 80, 32, 13, -59, -5, -13], "withholdReward": false, "trial_id": "mdp_trial_11", "block": "test", "trialIndex": 12, "score": 11.55, "costs": -6.449999999999999, "simulationMode": [null, null, null, null, null], "rewards": [1, -4, -5, -6, 32], "path": ["0", "0", "23", "24", "25", "26", "29"], "rt": [13457, 693, 194, 420, 167], "actions": ["left", "left", "left", "up", "left"], "actionTimes": [18025, 19287, 20017, 20990, 21675], "queries": {"click": {"state": {"target": ["16", "17", "29"], "time": [6281, 10562, 14734]}, "edge": {"target": [], "time": []}}, "mouseover": {"state": {"target": ["14", "15", "16", "17", "15", "26", "29"], "time": [5437, 5721, 5893, 10177, 13946, 14241, 14445]}, "edge": {"target": [], "time": []}}, "mouseout": {"state": {"target": ["0", "14", "15", "16", "17", "15", "26", "29"], "time": [5383, 5476, 5753, 7313, 10788, 13982, 14281, 15805]}, "edge": {"target": [], "time": []}}}, "displayed_time": "22.22", "trialTime": 33212, "trial_type": "mouselab-mdp", "trial_index": 19, "time_elapsed": 353629, "internal_node_id": "0.0-4.0-1.0-10.0"}}, {"uniqueid": "w18251777:a71809966", "current_trial": 20, "dateTime": 1691159771279, "trialdata": {"revealed_states": [], "clicked_states": ["32", "29"], "num_clicks_accrued": [0, 0, 0, 0, 0, 0, 0, 0, 0, 0, 0, 0, 0], "stateRewards": ["", -1, 2, -2, 5, 80, -61, -27, 12, 44, -26, -75, -2, -4, 1, -16, 42, -49, -50, 4, -44, 2, 80, -2, -2, 5, -2, 59, 10, 24, 7, -48, -86, -44], "withholdReward": false, "trial_id": "mdp_trial_12", "block": "test", "trialIndex": 13, "score": 18.7, "costs": -4.3, "simulationMode": [null, null, null, null, null], "rewards": [-2, -2, 5, -2, 24], "path": ["0", "0", "23", "24", "25", "26", "29"], "rt": [10231, 49, 177, 78, 188], "actions": ["left", "left", "left", "up", "left"], "actionTimes": [13252, 13859, 14589, 15225, 15966], "queries": {"click": {"state": {"target": ["32", "29"], "time": [4128, 8394]}, "edge": {"target": [], "time": []}}, "mouseover": {"state": {"target": ["31", "32", "25", "29"], "time": [3625, 3720, 7805, 8069]}, "edge": {"target": [], "time": []}}, "mouseout": {"state": {"target": ["0", "31", "32", "25", "29"], "time": [3586, 3675, 5128, 7843, 9381]}, "edge": {"target": [], "time": []}}}, "displayed_time": "17.03", "trialTime": 18613, "trial_type": "mouselab-mdp", "trial_index": 20, "time_elapsed": 372681, "internal_node_id": "0.0-4.0-1.0-11.0"}}, {"uniqueid": "w18251777:a71809966", "current_trial": 21, "dateTime": 1691159790144, "trialdata": {"revealed_states": [], "clicked_states": ["9", "5", "6"], "num_clicks_accrued": [0, 0, 0, 0, 0, 0, 0, 0, 0, 0, 0, 0, 0], "stateRewards": ["", 1, -3, 4, 13, -72, 52, 5, 5, -58, 5, 14, 2, 1, 3, -14, -86, -4, 73, 6, -58, -50, 49, 2, -3, -4, 2, 33, -41, 42, -11, 81, 45, 53], "withholdReward": false, "trial_id": "mdp_trial_13", "block": "test", "trialIndex": 14, "score": 60.55, "costs": -6.449999999999999, "simulationMode": [null, null, null, null, null], "rewards": [1, -3, 4, 13, 52], "path": ["0", "0", "1", "2", "3", "4", "6"], "rt": [11414, 28, 75, 322, 84], "actions": ["up", "up", "up", "right", "right"], "actionTimes": [13619, 14184, 14787, 15660, 16291], "queries": {"click": {"state": {"target": ["9", "5", "6"], "time": [3237, 6582, 9913]}, "edge": {"target": [], "time": []}}, "mouseover": {"state": {"target": ["1", "9", "5", "6", "4", "3", "8", "11"], "time": [2657, 2859, 3968, 7570, 10554, 10599, 10643, 10903]}, "edge": {"target": [], "time": []}}, "mouseout": {"state": {"target": ["0", "1", "9", "5", "6", "4", "3", "8", "11"], "time": [1561, 2692, 3445, 7237, 10506, 10595, 10639, 10682, 17274]}, "edge": {"target": [], "time": []}}}, "displayed_time": "16.83", "trialTime": 18343, "trial_type": "mouselab-mdp", "trial_index": 21, "time_elapsed": 391546, "internal_node_id": "0.0-4.0-1.0-12.0"}}, {"uniqueid": "w18251777:a71809966", "current_trial": 22, "dateTime": 1691159810159, "trialdata": {"revealed_states": [], "clicked_states": ["11"], "num_clicks_accrued": [0, 0, 0, 0, 0, 0, 0, 0, 0, 0, 0, 0, 0], "stateRewards": ["", 2, -4, 1, -12, -59, -53, -74, 16, -88, -66, 66, 1, -2, 8, -9, -14, 22, 25, -1, -39, 47, -14, -1, -1, -2, 1, -4, 52, -26, 15, -7, 46, 43], "withholdReward": false, "trial_id": "mdp_trial_14", "block": "test", "trialIndex": 15, "score": 78.85, "costs": -2.15, "simulationMode": [null, null, null, null, null], "rewards": [2, -4, 1, 16, 66], "path": ["0", "0", "1", "2", "3", "8", "11"], "rt": [5131, 29, 252, 195, 219], "actions": ["up", "up", "up", "left", "left"], "actionTimes": [7437, 8016, 8798, 9523, 10283], "queries": {"click": {"state": {"target": ["11"], "time": [3714]}, "edge": {"target": [], "time": []}}, "mouseover": {"state": {"target": ["28", "11"], "time": [2963, 3259]}, "edge": {"target": [], "time": []}}, "mouseout": {"state": {"target": ["10", "1", "0", "28", "11", "26", "32"], "time": [1052, 1091, 2467, 3000, 4491, 11956, 17762]}, "edge": {"target": [], "time": []}}}, "displayed_time": "16.34", "trialTime": 19560, "trial_type": "mouselab-mdp", "trial_index": 22, "time_elapsed": 411560, "internal_node_id": "0.0-4.0-1.0-13.0"}}, {"uniqueid": "w18251777:a71809966", "current_trial": 23, "dateTime": 1691159830709, "trialdata": {"revealed_states": [], "clicked_states": ["27"], "num_clicks_accrued": [0, 0, 0, 0, 0, 0, 0, 0, 0, 0, 0, 0, 0], "stateRewards": ["", 2, -1, 3, -12, -83, 6, -33, 9, 28, 24, -50, -2, -1, -2, -5, -87, 37, 82, 12, 80, -5, 10, -2, -3, -6, 9, 22, -1, 16, 9, 77, -62, 58], "withholdReward": false, "trial_id": "mdp_trial_15", "block": "test", "trialIndex": 16, "score": 17.85, "costs": -2.15, "simulationMode": [null, null, null, null, null], "rewards": [-2, -3, -6, 9, 22], "path": ["0", "0", "23", "24", "25", "26", "27"], "rt": [5205, 34, 64, 128, 99], "actions": ["left", "left", "left", "up", "up"], "actionTimes": [10269, 10852, 11482, 12157, 12808], "queries": {"click": {"state": {"target": ["27"], "time": [6195]}, "edge": {"target": [], "time": []}}, "mouseover": {"state": {"target": ["28", "27"], "time": [5499, 5850]}, "edge": {"target": [], "time": []}}, "mouseout": {"state": {"target": ["0", "28", "27", "27"], "time": [5451, 5552, 6434, 7068]}, "edge": {"target": [], "time": []}}}, "displayed_time": "19.09", "trialTime": 20095, "trial_type": "mouselab-mdp", "trial_index": 23, "time_elapsed": 432111, "internal_node_id": "0.0-4.0-1.0-14.0"}}, {"uniqueid": "w18251777:a71809966", "current_trial": 24, "dateTime": 1691159851961, "trialdata": {"revealed_states": [], "clicked_states": ["16", "18"], "num_clicks_accrued": [0, 0, 0, 0, 0, 0, 0, 0, 0, 0, 0, 0, 0], "stateRewards": ["", 1, -2, -2, 10, -31, -77, 35, 9, -47, 8, 48, -2, 1, -4, -3, -26, -50, 43, -11, 76, -38, 17, 1, -1, 6, 10, 15, -9, 12, -8, 85, 11, -55], "withholdReward": false, "trial_id": "mdp_trial_16", "block": "test", "trialIndex": 17, "score": 30.7, "costs": -4.3, "simulationMode": [null, null, null, null, null], "rewards": [-2, 1, -4, -3, 43], "path": ["0", "0", "12", "13", "14", "15", "18"], "rt": [8352, 88, 149, 129, 95], "actions": ["right", "right", "right", "up", "left"], "actionTimes": [11269, 11904, 12601, 13271, 13901], "queries": {"click": {"state": {"target": ["16", "18"], "time": [3912, 7299]}, "edge": {"target": [], "time": []}}, "mouseover": {"state": {"target": ["12", "15", "16", "18"], "time": [3217, 3376, 3544, 5638]}, "edge": {"target": [], "time": []}}, "mouseout": {"state": {"target": ["0", "12", "15", "16", "18", "18"], "time": [2231, 3252, 3497, 4497, 7514, 7894]}, "edge": {"target": [], "time": []}}}, "displayed_time": "16.92", "trialTime": 20631, "trial_type": "mouselab-mdp", "trial_index": 24, "time_elapsed": 453363, "internal_node_id": "0.0-4.0-1.0-15.0"}}, {"uniqueid": "w18251777:a71809966", "current_trial": 25, "dateTime": 1691159882983, "trialdata": {"revealed_states": [], "clicked_states": ["21", "22", "31", "32", "27"], "num_clicks_accrued": [0, 0, 0, 0, 0, 0, 0, 0, 0, 0, 0, 0, 0], "stateRewards": ["", -2, 1, -7, 9, 8, 25, 61, -7, -17, 69, -81, 1, 4, -4, -11, 16, 67, 44, 3, 6, -45, -54, -2, 3, 6, -11, -15, 32, -47, 3, -39, -6, -88], "withholdReward": false, "trial_id": "mdp_trial_17", "block": "test", "trialIndex": 18, "score": -1.75, "costs": -10.75, "simulationMode": [null, null, null, null, null], "rewards": [-2, 1, -7, 9, 8], "path": ["0", "0", "1", "2", "3", "4", "5"], "rt": [22226, 28, 149, 184, 361], "actions": ["up", "up", "up", "right", "up"], "actionTimes": [24435, 25000, 25701, 26438, 27351], "queries": {"click": {"state": {"target": ["21", "22", "31", "32", "27"], "time": [3316, 7023, 11390, 15499, 19981]}, "edge": {"target": [], "time": []}}, "mouseover": {"state": {"target": ["22", "21", "22", "31", "32", "31", "29", "27", "23"], "time": [2707, 2962, 6686, 11002, 15121, 19051, 19391, 19625, 20722]}, "edge": {"target": [], "time": []}}, "mouseout": {"state": {"target": ["0", "22", "21", "22", "31", "31", "32", "31", "29", "27", "23"], "time": [2669, 2754, 5201, 7819, 12117, 14823, 15712, 19091, 19425, 20593, 20850]}, "edge": {"target": [], "time": []}}}, "displayed_time": "27.89", "trialTime": 30505, "trial_type": "mouselab-mdp", "trial_index": 25, "time_elapsed": 484385, "internal_node_id": "0.0-4.0-1.0-16.0"}}, {"uniqueid": "w18251777:a71809966", "current_trial": 26, "dateTime": 1691159909221, "trialdata": {"revealed_states": [], "clicked_states": ["27", "9", "11", "10"], "num_clicks_accrued": [0, 0, 0, 0, 0, 0, 0, 0, 0, 0, 0, 0, 0], "stateRewards": ["", -1, -2, 4, 9, 10, -75, 39, 16, -43, 88, -19, -1, 1, 2, 4, -31, 10, 73, 12, 41, -64, -81, -2, 2, -6, 1, -81, -1, -26, 3, -59, -3, -20], "withholdReward": false, "trial_id": "mdp_trial_18", "block": "test", "trialIndex": 19, "score": 96.4, "costs": -8.6, "simulationMode": [null, null, null, null, null], "rewards": [-1, -2, 4, 16, 88], "path": ["0", "0", "1", "2", "3", "8", "10"], "rt": [18021, 109, 69, 92, 105], "actions": ["up", "up", "up", "left", "down"], "actionTimes": [20492, 21142, 21738, 22378, 23029], "queries": {"click": {"state": {"target": ["27", "9", "11", "10"], "time": [3667, 7986, 12131, 16758]}, "edge": {"target": [], "time": []}}, "mouseover": {"state": {"target": ["23", "26", "27", "10", "6", "5", "9", "8", "10", "11", "10", "10"], "time": [2855, 2935, 3340, 7160, 7266, 7391, 7579, 9485, 9526, 11833, 15569, 16537]}, "edge": {"target": [], "time": []}}, "mouseout": {"state": {"target": ["0", "0", "23", "26", "27", "10", "6", "5", "9", "8", "10", "11", "10", "10", "10"], "time": [1453, 1884, 2889, 2976, 4323, 7193, 7329, 7440, 9481, 9523, 9602, 13265, 15649, 16996, 17677]}, "edge": {"target": [], "time": []}}}, "displayed_time": "23.57", "trialTime": 25781, "trial_type": "mouselab-mdp", "trial_index": 26, "time_elapsed": 510622, "internal_node_id": "0.0-4.0-1.0-17.0"}}, {"uniqueid": "w18251777:a71809966", "current_trial": 27, "dateTime": 1691159947581, "trialdata": {"revealed_states": [], "clicked_states": ["10", "7", "5", "29", "16", "21"], "num_clicks_accrued": [0, 0, 0, 0, 0, 0, 0, 0, 0, 0, 0, 0, 0], "stateRewards": ["", 1, 1, 5, 6, -29, -7, 3, -16, 9, -46, 65, -1, 4, -1, -16, -63, -77, -87, 8, 80, -50, 43, -1, -1, -5, 5, -38, -71, -62, 9, 81, -50, -52], "withholdReward": false, "trial_id": "mdp_trial_19", "block": "test", "trialIndex": 20, "score": -60.9, "costs": -12.9, "simulationMode": [null, null, null, null, null], "rewards": [-1, -1, -5, 9, -50], "path": ["0", "0", "23", "24", "25", "30", "32"], "rt": [26976, 50, 122, 134, 76], "actions": ["left", "left", "left", "down", "down"], "actionTimes": [32653, 33230, 33910, 34570, 35176], "queries": {"click": {"state": {"target": ["10", "7", "5", "29", "16", "21"], "time": [6919, 11023, 15253, 20042, 24240, 28415]}, "edge": {"target": [], "time": []}}, "mouseover": {"state": {"target": ["10", "2", "4", "7", "4", "5", "4", "12", "0", "23", "24", "25", "29", "13", "18", "16", "21"], "time": [6489, 10431, 10556, 10742, 14764, 14847, 16392, 19031, 19235, 19281, 19326, 19406, 19673, 23613, 23692, 23955, 28119]}, "edge": {"target": [], "time": []}}, "mouseout": {"state": {"target": ["0", "10", "2", "4", "7", "7", "4", "5", "4", "7", "12", "0", "23", "24", "25", "29", "13", "18", "16", "21"], "time": [6181, 7121, 10466, 10634, 13300, 14729, 14807, 16388, 16433, 16548, 19202, 19276, 19320, 19365, 19447, 20603, 23650, 23800, 24871, 28980]}, "edge": {"target": [], "time": []}}}, "displayed_time": "35.70", "trialTime": 37834, "trial_type": "mouselab-mdp", "trial_index": 27, "time_elapsed": 548983, "internal_node_id": "0.0-4.0-1.0-18.0"}}, {"uniqueid": "w18251777:a71809966", "current_trial": 28, "dateTime": 1691159966085, "trialdata": {"revealed_states": [], "clicked_states": ["18"], "num_clicks_accrued": [0, 0, 0, 0, 0, 0, 0, 0, 0, 0, 0, 0, 0], "stateRewards": ["", -2, -1, -3, -1, -78, -6, 2, -1, 22, -88, 32, 2, 2, -7, -8, -51, -17, 54, 2, -44, 54, 75, 2, -2, -8, -15, -29, 12, -67, 15, -1, -47, -47], "withholdReward": false, "trial_id": "mdp_trial_20", "block": "test", "trialIndex": 21, "score": 40.85, "costs": -2.15, "simulationMode": [null, null, null, null, null], "rewards": [2, 2, -7, -8, 54], "path": ["0", "0", "12", "13", "14", "15", "18"], "rt": [4778, 30, 68, 205, 94], "actions": ["right", "right", "right", "up", "left"], "actionTimes": [7277, 7860, 8484, 9258, 9889], "queries": {"click": {"state": {"target": ["18"], "time": [3494]}, "edge": {"target": [], "time": []}}, "mouseover": {"state": {"target": ["18", "15", "18"], "time": [2843, 2948, 3203]}, "edge": {"target": [], "time": []}}, "mouseout": {"state": {"target": ["0", "18", "15", "18", "12"], "time": [2703, 2905, 3172, 10711, 11183]}, "edge": {"target": [], "time": []}}}, "displayed_time": "16.52", "trialTime": 18034, "trial_type": "mouselab-mdp", "trial_index": 28, "time_elapsed": 567486, "internal_node_id": "0.0-4.0-1.0-19.0"}}, {"uniqueid": "w18251777:a71809966", "current_trial": 29, "dateTime": 1691159982900, "trialdata": {"revealed_states": [], "clicked_states": ["17"], "num_clicks_accrued": [0, 0, 0, 0, 0, 0, 0, 0, 0, 0, 0, 0, 0], "stateRewards": ["", -2, 2, -2, -7, -50, -62, -45, 7, 36, -24, -72, -1, -1, 8, -1, -67, 20, -52, 2, 35, -50, 80, -1, 1, 6, -6, -70, 6, 88, 8, -47, 74, -19], "withholdReward": false, "trial_id": "mdp_trial_21", "block": "test", "trialIndex": 22, "score": 22.85, "costs": -2.15, "simulationMode": [null, null, null, null, null], "rewards": [-1, -1, 8, -1, 20], "path": ["0", "0", "12", "13", "14", "15", "17"], "rt": [8274, 677, 188, 67, 91], "actions": ["right", "right", "right", "up", "right"], "actionTimes": [9681, 10888, 11613, 12224, 12850], "queries": {"click": {"state": {"target": ["17"], "time": [2713]}, "edge": {"target": [], "time": []}}, "mouseover": {"state": {"target": ["12", "13", "22", "22", "13", "15", "17", "12", "18", "18"], "time": [1637, 1746, 1816, 2012, 2105, 2247, 2371, 7487, 7599, 8446]}, "edge": {"target": [], "time": []}}, "mouseout": {"state": {"target": ["0", "12", "13", "22", "22", "13", "15", "17", "12", "18", "18"], "time": [1591, 1687, 1779, 1855, 2046, 2186, 2308, 3314, 7553, 7660, 14154]}, "edge": {"target": [], "time": []}}}, "displayed_time": "15.42", "trialTime": 16361, "trial_type": "mouselab-mdp", "trial_index": 29, "time_elapsed": 584301, "internal_node_id": "0.0-4.0-1.0-20.0"}}, {"uniqueid": "w18251777:a71809966", "current_trial": 30, "dateTime": 1691160000441, "trialdata": {"revealed_states": [], "clicked_states": ["27", "29", "28"], "num_clicks_accrued": [0, 0, 0, 0, 0, 0, 0, 0, 0, 0, 0, 0, 0], "stateRewards": ["", 2, 4, -6, -13, -75, -81, 30, 7, 5, 59, -65, -1, -1, 7, 14, -38, 36, -41, 1, -54, -5, 64, 2, -1, 5, 6, -19, 79, 11, 16, -33, -50, 58], "withholdReward": false, "trial_id": "mdp_trial_22", "block": "test", "trialIndex": 23, "score": 84.55, "costs": -6.449999999999999, "simulationMode": [null, null, null, null, null], "rewards": [2, -1, 5, 6, 79], "path": ["0", "0", "23", "24", "25", "26", "28"], "rt": [11317, 77, 136, 142, 42], "actions": ["left", "left", "left", "up", "right"], "actionTimes": [12666, 13293, 13968, 14668, 15249], "queries": {"click": {"state": {"target": ["27", "29", "28"], "time": [2140, 5499, 9224]}, "edge": {"target": [], "time": []}}, "mouseover": {"state": {"target": ["28", "26", "27", "30", "29", "26", "28", "23"], "time": [1499, 1549, 1875, 3683, 3998, 6112, 6478, 10124]}, "edge": {"target": [], "time": []}}, "mouseout": {"state": {"target": ["0", "28", "26", "27", "30", "29", "26", "28", "23"], "time": [1456, 1544, 1583, 2521, 3724, 6106, 6152, 10082, 10164]}, "edge": {"target": [], "time": []}}}, "displayed_time": "15.78", "trialTime": 17036, "trial_type": "mouselab-mdp", "trial_index": 30, "time_elapsed": 601842, "internal_node_id": "0.0-4.0-1.0-21.0"}}, {"uniqueid": "w18251777:a71809966", "current_trial": 31, "dateTime": 1691160025902, "trialdata": {"revealed_states": [], "clicked_states": ["28", "18", "9", "5"], "num_clicks_accrued": [0, 0, 0, 0, 0, 0, 0, 0, 0, 0, 0, 0, 0], "stateRewards": ["", 2, -2, -3, 10, -4, -1, -11, -8, -9, -36, -78, 2, 1, 7, -7, 44, -1, -31, -1, 26, 47, 83, 2, -4, -4, -6, -52, -76, -81, -1, -59, 45, 67], "withholdReward": false, "trial_id": "mdp_trial_23", "block": "test", "trialIndex": 24, "score": -5.6, "costs": -8.6, "simulationMode": [null, null, null, null, null], "rewards": [2, -2, -3, 10, -4], "path": ["0", "0", "1", "2", "3", "4", "5"], "rt": [18538, 184, 162, 556, 160], "actions": ["up", "up", "up", "right", "up"], "actionTimes": [19981, 20708, 21424, 22537, 23236], "queries": {"click": {"state": {"target": ["28", "18", "9", "5"], "time": [2434, 6740, 11095, 15480]}, "edge": {"target": [], "time": []}}, "mouseover": {"state": {"target": ["28", "24", "12", "18", "18", "12", "9", "2", "0", "12", "7", "4", "5", "4"], "time": [2147, 2970, 5977, 6016, 6369, 7557, 10766, 11825, 11943, 14647, 14785, 14991, 15113, 19056]}, "edge": {"target": [], "time": []}}, "mouseout": {"state": {"target": ["0", "28", "24", "12", "18", "18", "12", "9", "2", "0", "12", "7", "4", "5", "4"], "time": [1782, 2959, 3400, 6011, 6055, 7547, 7640, 11783, 11864, 12167, 14682, 14958, 15030, 16649, 19092]}, "edge": {"target": [], "time": []}}}, "displayed_time": "23.78", "trialTime": 24957, "trial_type": "mouselab-mdp", "trial_index": 31, "time_elapsed": 627303, "internal_node_id": "0.0-4.0-1.0-22.0"}}, {"uniqueid": "w18251777:a71809966", "current_trial": 32, "dateTime": 1691160047489, "trialdata": {"revealed_states": [], "clicked_states": ["17", "16", "21"], "num_clicks_accrued": [0, 0, 0, 0, 0, 0, 0, 0, 0, 0, 0, 0, 0], "stateRewards": ["", 2, 3, 8, 11, 25, -80, 6, -4, -56, 84, -23, -2, -4, -3, 4, -51, -9, -61, -15, -64, 67, -35, 1, -1, -7, -6, 83, 59, -15, 12, -79, 56, 41], "withholdReward": false, "trial_id": "mdp_trial_24", "block": "test", "trialIndex": 25, "score": 36.55, "costs": -6.449999999999999, "simulationMode": [null, null, null, null, null], "rewards": [-2, -4, -3, -15, 67], "path": ["0", "0", "12", "13", "14", "19", "21"], "rt": [13128, 95, 80, 136, 131], "actions": ["right", "right", "right", "down", "down"], "actionTimes": [16280, 16925, 17560, 18239, 18917], "queries": {"click": {"state": {"target": ["17", "16", "21"], "time": [4039, 8165, 12533]}, "edge": {"target": [], "time": []}}, "mouseover": {"state": {"target": ["12", "15", "17", "16", "14", "19", "21"], "time": [3275, 3556, 3696, 7853, 11778, 11871, 12070]}, "edge": {"target": [], "time": []}}, "mouseout": {"state": {"target": ["1", "0", "12", "15", "17", "16", "14", "19", "21", "19", "22"], "time": [1785, 3272, 3304, 3633, 4828, 8405, 11814, 12042, 13317, 20071, 20108]}, "edge": {"target": [], "time": []}}}, "displayed_time": "19.45", "trialTime": 21092, "trial_type": "mouselab-mdp", "trial_index": 32, "time_elapsed": 648890, "internal_node_id": "0.0-4.0-1.0-23.0"}}, {"uniqueid": "w18251777:a71809966", "current_trial": 33, "dateTime": 1691160064919, "trialdata": {"revealed_states": [], "clicked_states": ["32"], "num_clicks_accrued": [0, 0, 0, 0, 0, 0, 0, 0, 0, 0, 0, 0, 0], "stateRewards": ["", -2, -4, 6, 14, -34, 49, 36, -8, -3, 32, -4, 1, -2, 1, -8, -20, -71, -57, -7, -86, -62, -16, -2, -3, -5, 11, 23, -21, 53, 5, -5, 85, 73], "withholdReward": false, "trial_id": "mdp_trial_25", "block": "test", "trialIndex": 26, "score": 77.85, "costs": -2.15, "simulationMode": [null, null, null, null, null], "rewards": [-2, -3, -5, 5, 85], "path": ["0", "0", "23", "24", "25", "30", "32"], "rt": [5734, 87, 205, 92, 200], "actions": ["left", "left", "left", "down", "down"], "actionTimes": [7574, 8196, 8955, 9616, 10382], "queries": {"click": {"state": {"target": ["32"], "time": [3460]}, "edge": {"target": [], "time": []}}, "mouseover": {"state": {"target": ["32", "32"], "time": [2782, 3126]}, "edge": {"target": [], "time": []}}, "mouseout": {"state": {"target": ["26", "32", "32"], "time": [953, 2817, 4397]}, "edge": {"target": [], "time": []}}}, "displayed_time": "15.87", "trialTime": 16947, "trial_type": "mouselab-mdp", "trial_index": 33, "time_elapsed": 666321, "internal_node_id": "0.0-4.0-1.0-24.0"}}, {"uniqueid": "w18251777:a71809966", "current_trial": 34, "dateTime": 1691160081765, "trialdata": {"revealed_states": [], "clicked_states": ["29", "28"], "num_clicks_accrued": [0, 0, 0, 0, 0, 0, 0, 0, 0, 0, 0, 0, 0], "stateRewards": ["", 1, -2, 7, -14, 88, -56, -44, -14, 64, -51, -57, -2, 3, -4, -9, -11, 19, -77, -1, 68, 75, -67, -1, 1, -2, 5, -37, 70, -34, -10, -72, 63, -41], "withholdReward": false, "trial_id": "mdp_trial_26", "block": "test", "trialIndex": 27, "score": 68.7, "costs": -4.3, "simulationMode": [null, null, null, null, null], "rewards": [-1, 1, -2, 5, 70], "path": ["0", "0", "23", "24", "25", "26", "28"], "rt": [9224, 116, 34, 74, 69], "actions": ["left", "left", "left", "up", "right"], "actionTimes": [10753, 11431, 12035, 12675, 13305], "queries": {"click": {"state": {"target": ["29", "28"], "time": [3157, 6557]}, "edge": {"target": [], "time": []}}, "mouseover": {"state": {"target": ["24", "26", "27", "29", "28", "7"], "time": [2128, 2179, 2492, 2714, 6044, 9451]}, "edge": {"target": [], "time": []}}, "mouseout": {"state": {"target": ["0", "24", "26", "27", "29", "28"], "time": [2088, 2174, 2215, 2650, 3761, 7202]}, "edge": {"target": [], "time": []}}}, "displayed_time": "15.53", "trialTime": 16385, "trial_type": "mouselab-mdp", "trial_index": 34, "time_elapsed": 683167, "internal_node_id": "0.0-4.0-1.0-25.0"}}, {"uniqueid": "w18251777:a71809966", "current_trial": 35, "dateTime": 1691160100316, "trialdata": {"revealed_states": [], "clicked_states": ["28"], "num_clicks_accrued": [0, 0, 0, 0, 0, 0, 0, 0, 0, 0, 0, 0, 0], "stateRewards": ["", 2, -1, -1, 7, 11, -40, -22, -2, 69, 37, 8, -2, 4, -8, -12, -2, -72, -3, -12, 17, 63, 12, 1, 3, -7, 6, 25, 61, 61, -9, 28, -17, 27], "withholdReward": false, "trial_id": "mdp_trial_27", "block": "test", "trialIndex": 28, "score": 61.85, "costs": -2.15, "simulationMode": [null, null, null, null, null], "rewards": [1, 3, -7, 6, 61], "path": ["0", "0", "23", "24", "25", "26", "28"], "rt": [5375, 43, 88, 66, 59], "actions": ["left", "left", "left", "up", "right"], "actionTimes": [8214, 8804, 9454, 10055, 10661], "queries": {"click": {"state": {"target": ["28"], "time": [4053]}, "edge": {"target": [], "time": []}}, "mouseover": {"state": {"target": ["28"], "time": [3657]}, "edge": {"target": [], "time": []}}, "mouseout": {"state": {"target": ["4", "1", "0", "28", "23"], "time": [767, 1100, 3458, 4626, 16196]}, "edge": {"target": [], "time": []}}}, "displayed_time": "16.86", "trialTime": 18050, "trial_type": "mouselab-mdp", "trial_index": 35, "time_elapsed": 701717, "internal_node_id": "0.0-4.0-1.0-26.0"}}, {"uniqueid": "w18251777:a71809966", "current_trial": 36, "dateTime": 1691160117865, "trialdata": {"revealed_states": [], "clicked_states": ["18", "16"], "num_clicks_accrued": [0, 0, 0, 0, 0, 0, 0, 0, 0, 0, 0, 0, 0], "stateRewards": ["", -1, 2, 5, -6, 13, -64, -47, 8, -79, -80, -33, 1, 2, -2, -16, 56, -71, -10, 3, 29, 44, 85, -1, 4, 5, 4, -36, -56, 19, 8, 52, -13, -2], "withholdReward": false, "trial_id": "mdp_trial_28", "block": "test", "trialIndex": 29, "score": 36.7, "costs": -4.3, "simulationMode": [null, null, null, null, null], "rewards": [1, 2, -2, -16, 56], "path": ["0", "0", "12", "13", "14", "15", "16"], "rt": [8955, 256, 189, 112, 95], "actions": ["right", "right", "right", "up", "up"], "actionTimes": [11121, 11921, 12646, 13307, 13957], "queries": {"click": {"state": {"target": ["18", "16"], "time": [3600, 7586]}, "edge": {"target": [], "time": []}}, "mouseover": {"state": {"target": ["18", "22", "15", "16"], "time": [3031, 7065, 7145, 7226]}, "edge": {"target": [], "time": []}}, "mouseout": {"state": {"target": ["0", "0", "18", "22", "15", "16"], "time": [1123, 1606, 5108, 7100, 7187, 7792]}, "edge": {"target": [], "time": []}}}, "displayed_time": "16.18", "trialTime": 17021, "trial_type": "mouselab-mdp", "trial_index": 36, "time_elapsed": 719267, "internal_node_id": "0.0-4.0-1.0-27.0"}}, {"uniqueid": "w18251777:a71809966", "current_trial": 37, "dateTime": 1691160137114, "trialdata": {"revealed_states": [], "clicked_states": ["32", "31"], "num_clicks_accrued": [0, 0, 0, 0, 0, 0, 0, 0, 0, 0, 0, 0, 0], "stateRewards": ["", -2, 1, 6, -2, -10, -78, -69, 14, -15, 7, -1, 1, -1, -2, 13, 77, 32, 87, 5, -74, 30, -26, 1, 3, 4, 12, 39, 54, -43, 2, 10, 23, 13], "withholdReward": false, "trial_id": "mdp_trial_29", "block": "test", "trialIndex": 30, "score": 28.7, "costs": -4.3, "simulationMode": [null, null, null, null, null], "rewards": [1, 3, 4, 2, 23], "path": ["0", "0", "23", "24", "25", "30", "32"], "rt": [10035, 49, 57, 185, 155], "actions": ["left", "left", "left", "down", "down"], "actionTimes": [11252, 11821, 12435, 13179, 13874], "queries": {"click": {"state": {"target": ["32", "31"], "time": [3686, 7522]}, "edge": {"target": [], "time": []}}, "mouseover": {"state": {"target": ["23", "32", "31"], "time": [1842, 3399, 6443]}, "edge": {"target": [], "time": []}}, "mouseout": {"state": {"target": ["0", "23", "32", "31"], "time": [1807, 1890, 4228, 8240]}, "edge": {"target": [], "time": []}}}, "displayed_time": "15.23", "trialTime": 18702, "trial_type": "mouselab-mdp", "trial_index": 37, "time_elapsed": 738515, "internal_node_id": "0.0-4.0-1.0-28.0"}}, {"uniqueid": "w18251777:a71809966", "current_trial": 38, "dateTime": 1691160165699, "trialdata": {"revealed_states": [], "clicked_states": ["22", "10", "7", "16", "27"], "num_clicks_accrued": [0, 0, 0, 0, 0, 0, 0, 0, 0, 0, 0, 0, 0], "stateRewards": ["", -1, 4, 3, 12, -27, 34, -33, 3, -63, 1, 6, 2, 2, -6, -11, -77, -85, 68, -6, 51, 81, -60, -2, -2, 1, 15, 20, 15, 68, -10, -14, 6, -4], "withholdReward": false, "trial_id": "mdp_trial_30", "block": "test", "trialIndex": 31, "score": 21.25, "costs": -10.75, "simulationMode": [null, null, null, null, null], "rewards": [-2, -2, 1, 15, 20], "path": ["0", "0", "23", "24", "25", "26", "27"], "rt": [21560, 223, 157, 228, 110], "actions": ["left", "left", "left", "up", "up"], "actionTimes": [23419, 24183, 24869, 25613, 26279], "queries": {"click": {"state": {"target": ["22", "10", "7", "16", "27"], "time": [2771, 6986, 11096, 15324, 19906]}, "edge": {"target": [], "time": []}}, "mouseover": {"state": {"target": ["22", "1", "2", "10", "12", "7", "16", "24", "27", "23"], "time": [2328, 6300, 6398, 6617, 10554, 10820, 14914, 18872, 19658, 20629]}, "edge": {"target": [], "time": []}}, "mouseout": {"state": {"target": ["0", "22", "1", "2", "10", "12", "7", "16", "24", "27", "23"], "time": [2044, 3610, 6337, 6567, 7583, 10590, 11855, 15881, 18906, 20548, 20670]}, "edge": {"target": [], "time": []}}}, "displayed_time": "26.83", "trialTime": 28047, "trial_type": "mouselab-mdp", "trial_index": 38, "time_elapsed": 767100, "internal_node_id": "0.0-4.0-1.0-29.0"}}, {"uniqueid": "w18251777:a71809966", "current_trial": 39, "dateTime": 1691160183785, "trialdata": {"revealed_states": [], "clicked_states": ["31", "16"], "num_clicks_accrued": [0, 0, 0, 0, 0, 0, 0, 0, 0, 0, 0, 0, 0], "stateRewards": ["", 1, -1, 4, 5, -32, 18, 20, 6, -88, -74, 9, -2, 1, -2, -14, 34, -77, -38, -1, 80, -36, 73, 2, 3, -8, 10, -48, -73, -71, -11, -22, 20, 54], "withholdReward": false, "trial_id": "mdp_trial_31", "block": "test", "trialIndex": 32, "score": 12.7, "costs": -4.3, "simulationMode": [null, null, null, null, null], "rewards": [-2, 1, -2, -14, 34], "path": ["0", "0", "12", "13", "14", "15", "16"], "rt": [9656, 711, 172, 282, 127], "actions": ["right", "right", "right", "up", "up"], "actionTimes": [11890, 13153, 13882, 14713, 15403], "queries": {"click": {"state": {"target": ["31", "16"], "time": [3482, 8397]}, "edge": {"target": [], "time": []}}, "mouseover": {"state": {"target": ["0", "31", "31", "12", "13", "14", "16", "16", "12"], "time": [2789, 2879, 3155, 7079, 7270, 7352, 7796, 8094, 9391]}, "edge": {"target": [], "time": []}}, "mouseout": {"state": {"target": ["0", "0", "31", "31", "12", "13", "14", "16", "16", "12"], "time": [1651, 2830, 2922, 6327, 7235, 7312, 7593, 7905, 9388, 9422]}, "edge": {"target": [], "time": []}}}, "displayed_time": "16.24", "trialTime": 17583, "trial_type": "mouselab-mdp", "trial_index": 39, "time_elapsed": 785186, "internal_node_id": "0.0-4.0-1.0-30.0"}}, {"uniqueid": "w18251777:a71809966", "current_trial": 40, "dateTime": 1691160212080, "trialdata": {"revealed_states": [], "clicked_states": ["11", "6", "9", "10", "27"], "num_clicks_accrued": [0, 0, 0, 0, 0, 0, 0, 0, 0, 0, 0, 0, 0], "stateRewards": ["", -1, -2, 8, -6, -79, -6, 87, 9, -5, -66, -38, 2, 2, 5, -6, -82, 74, 85, -8, 67, -30, -15, 1, -2, -2, -2, 87, 64, 49, 7, 2, -38, -9], "withholdReward": false, "trial_id": "mdp_trial_32", "block": "test", "trialIndex": 33, "score": 71.25, "costs": -10.75, "simulationMode": [null, null, null, null, null], "rewards": [1, -2, -2, -2, 87], "path": ["0", "0", "23", "24", "25", "26", "27"], "rt": [21378, 52, 79, 109, 148], "actions": ["left", "left", "left", "up", "up"], "actionTimes": [23558, 24158, 24784, 25446, 26126], "queries": {"click": {"state": {"target": ["11", "6", "9", "10", "27"], "time": [3382, 7596, 11628, 15710, 20195]}, "edge": {"target": [], "time": []}}, "mouseover": {"state": {"target": ["9", "11", "10", "3", "5", "6", "4", "9", "8", "10", "10", "10", "27"], "time": [2652, 3026, 6816, 6859, 6909, 7211, 11127, 11203, 13836, 13882, 15068, 15349, 19557]}, "edge": {"target": [], "time": []}}, "mouseout": {"state": {"target": ["0", "0", "9", "11", "11", "10", "3", "5", "6", "4", "9", "8", "10", "10", "10", "27"], "time": [1106, 2448, 2948, 3620, 4367, 6854, 6903, 6947, 8877, 11163, 13795, 13878, 13923, 15116, 17495, 20663]}, "edge": {"target": [], "time": []}}}, "displayed_time": "26.66", "trialTime": 27820, "trial_type": "mouselab-mdp", "trial_index": 40, "time_elapsed": 813482, "internal_node_id": "0.0-4.0-1.0-31.0"}}, {"uniqueid": "w18251777:a71809966", "current_trial": 41, "dateTime": 1691160230120, "trialdata": {"revealed_states": [], "clicked_states": ["16"], "num_clicks_accrued": [0, 0, 0, 0, 0, 0, 0, 0, 0, 0, 0, 0, 0], "stateRewards": ["", -2, 2, 8, -6, -25, 3, 87, 2, -62, -2, 74, -2, -1, 2, -1, 79, 49, -37, -14, 5, 67, -9, -1, 2, -2, 5, 15, 38, 32, -14, -38, -38, 30], "withholdReward": false, "trial_id": "mdp_trial_33", "block": "test", "trialIndex": 34, "score": 74.85, "costs": -2.15, "simulationMode": [null, null, null, null, null], "rewards": [-2, -1, 2, -1, 79], "path": ["0", "0", "12", "13", "14", "15", "16"], "rt": [5361, 33, 124, 129, 104], "actions": ["right", "right", "right", "up", "up"], "actionTimes": [7762, 8333, 9019, 9699, 10349], "queries": {"click": {"state": {"target": ["16"], "time": [3990]}, "edge": {"target": [], "time": []}}, "mouseover": {"state": {"target": ["12", "18", "16", "0"], "time": [3340, 3424, 3653, 4890]}, "edge": {"target": [], "time": []}}, "mouseout": {"state": {"target": ["10", "1", "0", "0", "12", "18", "16", "0"], "time": [881, 943, 1036, 3065, 3378, 3470, 4726, 4935]}, "edge": {"target": [], "time": []}}}, "displayed_time": "16.41", "trialTime": 17536, "trial_type": "mouselab-mdp", "trial_index": 41, "time_elapsed": 831522, "internal_node_id": "0.0-4.0-1.0-32.0"}}, {"uniqueid": "w18251777:a71809966", "current_trial": 42, "dateTime": 1691160247781, "trialdata": {"revealed_states": [], "clicked_states": ["17"], "num_clicks_accrued": [0, 0, 0, 0, 0, 0, 0, 0, 0, 0, 0, 0, 0], "stateRewards": ["", -2, 1, -8, 12, -65, -79, 16, 7, -80, -17, -45, -2, 2, -5, -2, -85, 23, -4, -7, 48, 27, -76, 2, 3, 5, 2, 43, 71, -13, 7, -49, 59, -31], "withholdReward": false, "trial_id": "mdp_trial_34", "block": "test", "trialIndex": 35, "score": 13.85, "costs": -2.15, "simulationMode": [null, null, null, null, null], "rewards": [-2, 2, -5, -2, 23], "path": ["0", "0", "12", "13", "14", "15", "17"], "rt": [5308, 127, 231, 211, 209], "actions": ["right", "right", "right", "up", "right"], "actionTimes": [7450, 8116, 8904, 9651, 10395], "queries": {"click": {"state": {"target": ["17"], "time": [3687]}, "edge": {"target": [], "time": []}}, "mouseover": {"state": {"target": ["18", "16", "17"], "time": [2738, 2925, 3299]}, "edge": {"target": [], "time": []}}, "mouseout": {"state": {"target": ["0", "18", "16", "17"], "time": [1389, 2772, 3206, 3930]}, "edge": {"target": [], "time": []}}}, "displayed_time": "16.16", "trialTime": 17095, "trial_type": "mouselab-mdp", "trial_index": 42, "time_elapsed": 849183, "internal_node_id": "0.0-4.0-1.0-33.0"}}, {"uniqueid": "w18251777:a71809966", "current_trial": 43, "dateTime": 1691160266156, "trialdata": {"revealed_states": [], "clicked_states": ["27"], "num_clicks_accrued": [0, 0, 0, 0, 0, 0, 0, 0, 0, 0, 0, 0, 0], "stateRewards": ["", -1, 1, 6, -6, 70, 66, 67, -16, -75, -35, 37, -1, 4, 4, -6, 47, -9, 63, 15, 21, -63, 13, 1, 3, -6, 10, 79, -29, 18, -15, 9, -67, -19], "withholdReward": false, "trial_id": "mdp_trial_35", "block": "test", "trialIndex": 36, "score": 84.85, "costs": -2.15, "simulationMode": [null, null, null, null, null], "rewards": [1, 3, -6, 10, 79], "path": ["0", "0", "23", "24", "25", "26", "27"], "rt": [5692, 44, 151, 89, 119], "actions": ["left", "left", "left", "up", "up"], "actionTimes": [7884, 8471, 9151, 9786, 10461], "queries": {"click": {"state": {"target": ["27"], "time": [3474]}, "edge": {"target": [], "time": []}}, "mouseover": {"state": {"target": ["28", "26", "26", "29", "27"], "time": [2432, 2500, 2716, 2875, 3156]}, "edge": {"target": [], "time": []}}, "mouseout": {"state": {"target": ["0", "28", "26", "26", "29", "27"], "time": [2370, 2462, 2638, 2812, 3093, 4088]}, "edge": {"target": [], "time": []}}}, "displayed_time": "16.20", "trialTime": 17782, "trial_type": "mouselab-mdp", "trial_index": 43, "time_elapsed": 867558, "internal_node_id": "0.0-4.0-1.0-34.0"}}, {"uniqueid": "w18251777:a71809966", "current_trial": 44, "dateTime": 1691160287706, "trialdata": {"revealed_states": [], "clicked_states": ["29", "32", "21"], "num_clicks_accrued": [0, 0, 0, 0, 0, 0, 0, 0, 0, 0, 0, 0, 0], "stateRewards": ["", -2, 4, -5, -12, 85, -24, -18, -15, -78, -22, 26, -1, -1, 2, 14, -45, 52, -23, 7, -33, 24, -6, -2, -4, 5, -7, -16, 36, -39, 5, 71, -87, -23], "withholdReward": false, "trial_id": "mdp_trial_36", "block": "test", "trialIndex": 37, "score": 24.55, "costs": -6.449999999999999, "simulationMode": [null, null, null, null, null], "rewards": [-1, -1, 2, 7, 24], "path": ["0", "0", "12", "13", "14", "19", "21"], "rt": [13927, 91, 65, 96, 161], "actions": ["right", "right", "right", "down", "down"], "actionTimes": [16665, 17320, 17941, 18586, 19282], "queries": {"click": {"state": {"target": ["29", "32", "21"], "time": [4384, 8921, 13430]}, "edge": {"target": [], "time": []}}, "mouseover": {"state": {"target": ["28", "29", "33", "32", "21"], "time": [3633, 4034, 8343, 8587, 13062]}, "edge": {"target": [], "time": []}}, "mouseout": {"state": {"target": ["0", "28", "29", "33", "32", "21"], "time": [3586, 3692, 5001, 8384, 9912, 15188]}, "edge": {"target": [], "time": []}}}, "displayed_time": "19.82", "trialTime": 20985, "trial_type": "mouselab-mdp", "trial_index": 44, "time_elapsed": 889107, "internal_node_id": "0.0-4.0-1.0-35.0"}}, {"uniqueid": "w18251777:a71809966", "current_trial": 45, "dateTime": 1691160306325, "trialdata": {"revealed_states": [], "clicked_states": ["9"], "num_clicks_accrued": [0, 0, 0, 0, 0, 0, 0, 0, 0, 0, 0, 0, 0], "stateRewards": ["", -1, -3, -7, -4, -85, -70, 79, 8, 84, -66, 42, 2, -2, -3, -16, -54, -66, 68, -3, 21, -14, 7, -2, -1, -3, -8, 75, 80, 86, -7, -84, 73, -16], "withholdReward": false, "trial_id": "mdp_trial_37", "block": "test", "trialIndex": 38, "score": 78.85, "costs": -2.15, "simulationMode": [null, null, null, null, null], "rewards": [-1, -3, -7, 8, 84], "path": ["0", "0", "1", "2", "3", "8", "9"], "rt": [5376, 633, 173, 68, 103], "actions": ["up", "up", "up", "left", "up"], "actionTimes": [8363, 9561, 10276, 10897, 11543], "queries": {"click": {"state": {"target": ["9"], "time": [4550]}, "edge": {"target": [], "time": []}}, "mouseover": {"state": {"target": ["8", "9", "2", "1"], "time": [3946, 4200, 7592, 7812]}, "edge": {"target": [], "time": []}}, "mouseout": {"state": {"target": ["0", "8", "9", "2", "1", "2", "1"], "time": [3873, 4009, 7530, 7717, 12555, 12609, 13339]}, "edge": {"target": [], "time": []}}}, "displayed_time": "17.02", "trialTime": 18053, "trial_type": "mouselab-mdp", "trial_index": 45, "time_elapsed": 907726, "internal_node_id": "0.0-4.0-1.0-36.0"}}, {"uniqueid": "w18251777:a71809966", "current_trial": 46, "dateTime": 1691160325524, "trialdata": {"revealed_states": [], "clicked_states": ["9", "5", "27"], "num_clicks_accrued": [0, 0, 0, 0, 0, 0, 0, 0, 0, 0, 0, 0, 0], "stateRewards": ["", -1, -3, -6, -2, -7, 80, -45, -3, -38, -72, 76, 2, 1, 7, 4, -62, 14, -74, 14, -87, -21, -88, -2, 1, -7, -10, 66, 56, -76, 10, -29, -72, -70], "withholdReward": false, "trial_id": "mdp_trial_38", "block": "test", "trialIndex": 39, "score": 41.55, "costs": -6.449999999999999, "simulationMode": [null, null, null, null, null], "rewards": [-2, 1, -7, -10, 66], "path": ["0", "0", "23", "24", "25", "26", "27"], "rt": [12080, 82, 136, 45, 128], "actions": ["left", "left", "left", "up", "up"], "actionTimes": [14172, 14798, 15478, 16080, 16764], "queries": {"click": {"state": {"target": ["9", "5", "27"], "time": [2904, 6256, 10619]}, "edge": {"target": [], "time": []}}, "mouseover": {"state": {"target": ["8", "9", "5", "6", "2", "26", "27"], "time": [2219, 2627, 3561, 9808, 9883, 10135, 10211]}, "edge": {"target": [], "time": []}}, "mouseout": {"state": {"target": ["0", "8", "9", "5", "6", "2", "26", "27", "28"], "time": [2156, 2259, 3134, 6917, 9845, 9926, 10167, 10863, 18072]}, "edge": {"target": [], "time": []}}}, "displayed_time": "17.31", "trialTime": 18627, "trial_type": "mouselab-mdp", "trial_index": 46, "time_elapsed": 926926, "internal_node_id": "0.0-4.0-1.0-37.0"}}, {"uniqueid": "w18251777:a71809966", "current_trial": 47, "dateTime": 1691160342536, "trialdata": {"revealed_states": [], "clicked_states": ["27", "28"], "num_clicks_accrued": [0, 0, 0, 0, 0, 0, 0, 0, 0, 0, 0, 0, 0], "stateRewards": ["", 2, 3, 3, 10, 19, -21, 6, 9, 54, 68, 16, 2, 2, -6, -8, 40, -2, -75, -2, -42, 55, 59, -1, 2, 4, -14, 11, -34, -30, -6, 61, -53, 13], "withholdReward": false, "trial_id": "mdp_trial_39", "block": "test", "trialIndex": 40, "score": -2.3000000000000007, "costs": -4.3, "simulationMode": [null, null, null, null, null], "rewards": [-1, 2, 4, -14, 11], "path": ["0", "0", "23", "24", "25", "26", "27"], "rt": [9525, 205, 44, 204, 92], "actions": ["left", "left", "left", "up", "up"], "actionTimes": [11054, 11790, 12381, 13105, 13756], "queries": {"click": {"state": {"target": ["27", "28"], "time": [3180, 7148]}, "edge": {"target": [], "time": []}}, "mouseover": {"state": {"target": ["12", "1", "28", "27", "28", "28"], "time": [2273, 2557, 2601, 2820, 4673, 6685]}, "edge": {"target": [], "time": []}}, "mouseout": {"state": {"target": ["24", "23", "0", "12", "1", "28", "27", "28", "28"], "time": [502, 565, 1758, 2311, 2594, 2640, 3661, 5007, 7960]}, "edge": {"target": [], "time": []}}}, "displayed_time": "15.53", "trialTime": 16477, "trial_type": "mouselab-mdp", "trial_index": 47, "time_elapsed": 943938, "internal_node_id": "0.0-4.0-1.0-38.0"}}, {"uniqueid": "w18251777:a71809966", "current_trial": 48, "dateTime": 1691160359957, "trialdata": {"revealed_states": [], "clicked_states": ["16", "18"], "num_clicks_accrued": [0, 0, 0, 0, 0, 0, 0, 0, 0, 0, 0, 0, 0], "stateRewards": ["", -2, 2, 3, -7, 76, 63, 21, 15, 35, -8, -44, 1, 1, -2, -12, 23, 24, 76, -9, 46, 66, -49, -2, -1, 7, 12, 40, -71, -45, -6, 38, -49, 46], "withholdReward": false, "trial_id": "mdp_trial_40", "block": "test", "trialIndex": 41, "score": 59.7, "costs": -4.3, "simulationMode": [null, null, null, null, null], "rewards": [1, 1, -2, -12, 76], "path": ["0", "0", "12", "13", "14", "15", "18"], "rt": [8957, 28, 46, 100, 63], "actions": ["right", "right", "right", "up", "left"], "actionTimes": [10195, 10766, 11365, 11988, 12594], "queries": {"click": {"state": {"target": ["16", "18"], "time": [2581, 6824]}, "edge": {"target": [], "time": []}}, "mouseover": {"state": {"target": ["12", "22", "13", "18", "16", "15", "12", "18"], "time": [1496, 1783, 1904, 1984, 2251, 3268, 6303, 6556]}, "edge": {"target": [], "time": []}}, "mouseout": {"state": {"target": ["0", "12", "22", "13", "18", "16", "15", "12", "18"], "time": [1461, 1540, 1874, 1944, 2077, 3257, 3957, 6350, 7329]}, "edge": {"target": [], "time": []}}}, "displayed_time": "15.24", "trialTime": 16904, "trial_type": "mouselab-mdp", "trial_index": 48, "time_elapsed": 961359, "internal_node_id": "0.0-4.0-1.0-39.0"}}, {"uniqueid": "w18251777:a71809966", "current_trial": 49, "dateTime": 1691160389135, "trialdata": {"rt": 29168, "response": {"Q0": "$-2 to $2", "Q1": "$-16 to $16", "Q2": "$-88 to $88", "Q3": "The cost for clicking on nodes varied between nodes.", "Q4": "Very motivated"}, "question_order": [0, 1, 2, 3, 4], "trial_id": "final_quiz_control", "trial_type": "survey-multi-choice", "trial_index": 49, "time_elapsed": 990536, "internal_node_id": "0.0-4.0-2.0"}}, {"uniqueid": "w18251777:a71809966", "current_trial": 50, "dateTime": 1691160460652, "trialdata": {"rt": 71496, "response": {"Q0": "I used the node inspector and click on the last node to see what value it was. I then chose the node with the highest node and move the spider to that node", "Q1": "No, I used the same strategy throughout the game", "Q2": "Not difficult"}, "trial_id": "self_report_control", "trial_type": "survey-text", "trial_index": 50, "time_elapsed": 1062054, "internal_node_id": "0.0-4.0-3.0"}}, {"uniqueid": "w18251777:a71809966", "current_trial": 51, "dateTime": 1691160497510, "trialdata": {"rt": 36848, "response": {"Q0": "Strongly disagree", "Q1": "Strongly disagree", "Q2": "Neither disagree nor agree", "Q3": "Neither disagree nor agree", "Q4": "Disagree", "Q5": "Agree", "Q6": "Strongly disagree"}, "question_order": [0, 1, 2, 3, 4, 5, 6], "trial_id": "self_report_2", "trial_type": "survey-multi-choice", "trial_index": 51, "time_elapsed": 1098912, "internal_node_id": "0.0-4.0-4.0"}}, {"uniqueid": "w18251777:a71809966", "current_trial": 52, "dateTime": 1691160507150, "trialdata": {"rt": 9624, "response": {"gender": "male", "age": "23", "colorblind": "0", "effort": "0"}, "trial_type": "survey-html-form", "trial_index": 52, "time_elapsed": 1108551, "internal_node_id": "0.0-4.0-5.0"}}, {"uniqueid": "w18251777:a71809966", "current_trial": 53, "dateTime": 1691160523289, "trialdata": {"rt": 16124, "response": {"Q0": "Everything was easy to understand", "Q1": "No", "Q2": ""}, "trial_type": "survey-text", "trial_index": 53, "time_elapsed": 1124691, "internal_node_id": "0.0-4.0-6.0"}}, {"uniqueid": "w18251777:a71809966", "current_trial": 54, "dateTime": 1691160533071, "trialdata": {"rt": 9773, "stimulus": "Press 'Finish HIT' in order to reach the completion code. Once the data has been saved, you will receive the code either in this window or in the original browser window where you started the experiment.\n", "response": 0, "trial_type": "html-button-response", "trial_index": 54, "time_elapsed": 1134472, "internal_node_id": "0.0-5.0"}}, {"uniqueid": "w18251777:a71809966", "current_trial": 55, "dateTime": 1691160534084, "trialdata": {"success": true, "trial_type": "fullscreen", "trial_index": 55, "time_elapsed": 1135486, "internal_node_id": "0.0-6.0"}}], "questiondata": {"params": {"CODE": "C6DMOQA6", "MIN_TIME": 14, "inspectCost": 1, "startTime": "Fri Aug 04 2023 16:29:52 GMT+0200 (South Africa Standard Time)", "bonusRate": 0.002, "variance": "1_2_4_8_44", "branching": "31123"}, "final_score": 1639.35}, "eventdata": [{"eventtype": "initialized", "value": null, "timestamp": 1691159392230, "interval": 0}, {"eventtype": "window_resize", "value": [1280, 618], "timestamp": 1691159392230, "interval": 0}, {"eventtype": "window_resize", "value": [1280, 618], "timestamp": 1691159392709, "interval": 479}, {"eventtype": "window_resize", "value": [1280, 720], "timestamp": 1691159400857, "interval": 8148}, {"eventtype": "window_resize", "value": [1280, 618], "timestamp": 1691160533380, "interval": 1132523}], "useragent": "Mozilla/5.0 (Windows NT 10.0; Win64; x64) AppleWebKit/537.36 (KHTML, like Gecko) Chrome/115.0.0.0 Safari/537.36 Edg/115.0.1901.188", "mode": "live", "id": "w18251777:a71809966", "status": "user data saved", "Beginhit": "2023-08-04 14:29:45.515362", "Beginexp": "2023-08-04 14:30:00.177097", "Endhit": "2023-08-04 14:48:54.341217", "psiturkStatus": 3, "browser": "<redacted>", "platform": "windows", "language": "en-US"}