{"condition": 1, "counterbalance": 0, "assignmentId": "a87500205", "workerId": "w98499954", "hitId": "h86446614", "currenttrial": 56, "bonus": 0, "data": [{"uniqueid": "w98499954:a87500205", "current_trial": 0, "dateTime": 1693388757012, "trialdata": {"success": true, "trial_type": "fullscreen", "trial_index": 0, "time_elapsed": 5588, "internal_node_id": "0.0-0.0"}}, {"uniqueid": "w98499954:a87500205", "current_trial": 1, "dateTime": 1693388779388, "trialdata": {"view_history": [{"page_index": 0, "viewing_time": 22358}], "rt": 22365, "trial_id": "exp_instructions_misaligned", "trial_type": "instructions", "trial_index": 1, "time_elapsed": 27965, "internal_node_id": "0.0-1.0"}}, {"uniqueid": "w98499954:a87500205", "current_trial": 2, "dateTime": 1693389074790, "trialdata": {"view_history": [{"page_index": 0, "viewing_time": 76025}, {"page_index": 1, "viewing_time": 110461}, {"page_index": 2, "viewing_time": 60095}, {"page_index": 3, "viewing_time": 48816}], "rt": 295398, "trial_id": "mouselab_instructions_1_misaligned", "trial_type": "instructions", "trial_index": 2, "time_elapsed": 323367, "internal_node_id": "0.0-2.0-1.0"}}, {"uniqueid": "w98499954:a87500205", "current_trial": 3, "dateTime": 1693389096055, "trialdata": {"revealed_states": [], "clicked_states": [], "num_clicks_accrued": [0, 0, 0, 0, 0, 0, 0, 0, 0, 0, 0, 0, 0], "stateRewards": ["", 10, -10, -10, 10, -10, -10, -10, -10, -10, 10, -10, 10, -10, -10, -10, -10, -10, -10, -10, 10, -10, -10, -10, -10, 10, -10, 10, 10, 10, 10, 10, 10, 10], "withholdReward": false, "trial_id": "practice_1", "block": "test", "trialIndex": 0, "score": -26.5, "costs": 0, "simulationMode": [null, null, null, null, null], "rewards": [10, -10, -10, -10, -10], "path": ["0", "0", "12", "13", "14", "19", "21"], "rt": [5454, 1010, 394, 292, 360], "actions": ["right", "right", "right", "down", "down"], "actionTimes": [8980, 10475, 11393, 12190, 13074], "queries": {"click": {"state": {"target": [], "time": []}, "edge": {"target": [], "time": []}}, "mouseover": {"state": {"target": [], "time": []}, "edge": {"target": [], "time": []}}, "mouseout": {"state": {"target": [], "time": []}, "edge": {"target": [], "time": []}}}, "displayed_time": "13.60", "trialTime": 19965, "trial_type": "mouselab-mdp", "trial_index": 3, "time_elapsed": 344631, "internal_node_id": "0.0-2.0-2.0-0.0"}}, {"uniqueid": "w98499954:a87500205", "current_trial": 4, "dateTime": 1693389110315, "trialdata": {"revealed_states": [], "clicked_states": [], "num_clicks_accrued": [0, 0, 0, 0, 0, 0, 0, 0, 0, 0, 0, 0, 0], "stateRewards": ["", -10, 10, 10, -10, 10, 10, 10, -10, 10, -10, -10, 10, 10, -10, -10, -10, 10, -10, -10, 10, -10, -10, 10, 10, -10, 10, -10, 10, -10, -10, -10, 10, 10], "withholdReward": false, "trial_id": "practice_2", "block": "test", "trialIndex": 1, "score": 13.5, "costs": 0, "simulationMode": [null, null, null, null, null], "rewards": [10, 10, -10, 10, -10], "path": ["0", "0", "23", "24", "25", "26", "27"], "rt": [1287, 337, 255, 1019, 170], "actions": ["left", "left", "left", "up", "up"], "actionTimes": [5277, 6123, 6899, 8419, 9099], "queries": {"click": {"state": {"target": [], "time": []}, "edge": {"target": [], "time": []}}, "mouseover": {"state": {"target": [], "time": []}, "edge": {"target": [], "time": []}}, "mouseout": {"state": {"target": [], "time": []}, "edge": {"target": [], "time": []}}}, "displayed_time": "9.60", "trialTime": 14058, "trial_type": "mouselab-mdp", "trial_index": 4, "time_elapsed": 358891, "internal_node_id": "0.0-2.0-2.0-1.0"}}, {"uniqueid": "w98499954:a87500205", "current_trial": 5, "dateTime": 1693389165979, "trialdata": {"view_history": [{"page_index": 0, "viewing_time": 41310}, {"page_index": 1, "viewing_time": 14339}], "rt": 55651, "trial_id": "mouselab_instructions_2_misaligned", "trial_type": "instructions", "trial_index": 5, "time_elapsed": 414556, "internal_node_id": "0.0-2.0-3.0"}}, {"uniqueid": "w98499954:a87500205", "current_trial": 6, "dateTime": 1693389276463, "trialdata": {"rt": 110478, "response": {"Q0": "The cost for clicking on nodes may vary between nodes.", "Q1": "The better I perform the higher my bonus will be.", "Q2": "No, the amount of cash at each node of the web may be different each time.", "Q3": "To get the highest total score.", "Q4": "Only before moving the spider.", "Q5": "3 seconds"}, "question_order": [0, 1, 2, 3, 4, 5], "correct": {"Q0": "The cost for clicking on nodes may vary between nodes.", "Q1": "The better I perform the higher my bonus will be.", "Q2": "No, the amount of cash at each node of the web may be different each time.", "Q3": "To get the highest total score.", "Q4": "Only before moving the spider.", "Q5": "3 seconds"}, "trial_id": "mouselab_quiz_misaligned", "trial_type": "survey-multi-choice", "trial_index": 6, "time_elapsed": 525040, "internal_node_id": "0.0-2.0-4.0"}}, {"uniqueid": "w98499954:a87500205", "current_trial": 7, "dateTime": 1693389288285, "trialdata": {"rt": 11811, "response": {"Q0": "No"}, "question_order": [0], "trial_id": "repeat_check", "trial_type": "survey-multi-choice", "trial_index": 7, "time_elapsed": 536861, "internal_node_id": "0.0-4.0-0.0"}}, {"uniqueid": "w98499954:a87500205", "current_trial": 8, "dateTime": 1693389316540, "trialdata": {"rt": 28247, "stimulus": "\n<h1> Get ready to start the game! </h1>\n\nThank you for reading the instructions. Get ready start with the 40 rounds of this game.\n<br><br>\nIf you need to take a break, feel free to take one after the end of a round, before continuing to the next one.\n<br><br>\nRemember, the more money the spider gets, the bigger your bonus will be!\n<br><br>\n<div style='text-align: center;'>Press <code>space</code> to begin.</div>\n\n<br><br>\n(If, at any point, the <code>space</code> key does not take you to the next page, click once on the text and try again.)", "response": " ", "trial_id": "mdp_ready", "trial_type": "html-keyboard-response", "trial_index": 8, "time_elapsed": 565117, "internal_node_id": "0.0-6.0-0.0"}}, {"uniqueid": "w98499954:a87500205", "current_trial": 9, "dateTime": 1693389342647, "trialdata": {"revealed_states": [], "clicked_states": [], "num_clicks_accrued": [0, 0, 0, 0, 0, 0, 0, 0, 0, 0, 0, 0, 0], "stateRewards": ["", 1, -1, 1, -14, -10, 67, -28, -11, 72, 40, -65, -1, 1, 1, -2, 8, -55, 34, -10, 61, 33, -15, 2, -4, 7, 4, -75, 63, -21, -16, 61, 19, 21], "withholdReward": false, "trial_id": "mdp_trial_1", "block": "test", "trialIndex": 2, "score": -66, "costs": 0, "simulationMode": [null, null, null, null, null], "rewards": [2, -4, 7, 4, -75], "path": ["0", "0", "23", "24", "25", "26", "27"], "rt": [814, 342, 354, 78, 18], "actions": ["left", "left", "left", "up", "up"], "actionTimes": [3734, 4597, 5475, 6049, 6571], "queries": {"click": {"state": {"target": [], "time": []}, "edge": {"target": [], "time": []}}, "mouseover": {"state": {"target": [], "time": []}, "edge": {"target": [], "time": []}}, "mouseout": {"state": {"target": [], "time": []}, "edge": {"target": [], "time": []}}}, "displayed_time": "16.93", "trialTime": 25883, "trial_type": "mouselab-mdp", "trial_index": 9, "time_elapsed": 591223, "internal_node_id": "0.0-6.0-1.0-0.0"}}, {"uniqueid": "w98499954:a87500205", "current_trial": 10, "dateTime": 1693389365239, "trialdata": {"revealed_states": [], "clicked_states": [], "num_clicks_accrued": [0, 0, 0, 0, 0, 0, 0, 0, 0, 0, 0, 0, 0], "stateRewards": ["", 1, 3, 1, -13, 52, -28, 67, -14, 3, 63, -70, -1, -4, 7, -11, -10, 47, -18, 6, 69, -9, -61, 2, 3, -6, 10, 63, -34, 40, -6, -79, -35, -32], "withholdReward": false, "trial_id": "mdp_trial_2", "block": "test", "trialIndex": 3, "score": -1, "costs": 0, "simulationMode": [null, null, null, null, null], "rewards": [-1, -4, 7, 6, -9], "path": ["0", "0", "12", "13", "14", "19", "21"], "rt": [1119, 406, 1283, 3470, 813], "actions": ["right", "right", "right", "down", "down"], "actionTimes": [3057, 3982, 5790, 9776, 11086], "queries": {"click": {"state": {"target": [], "time": []}, "edge": {"target": [], "time": []}}, "mouseover": {"state": {"target": [], "time": []}, "edge": {"target": [], "time": []}}, "mouseout": {"state": {"target": [], "time": []}, "edge": {"target": [], "time": []}}}, "displayed_time": "15.94", "trialTime": 22375, "trial_type": "mouselab-mdp", "trial_index": 10, "time_elapsed": 613815, "internal_node_id": "0.0-6.0-1.0-1.0"}}, {"uniqueid": "w98499954:a87500205", "current_trial": 11, "dateTime": 1693389385260, "trialdata": {"revealed_states": [], "clicked_states": [], "num_clicks_accrued": [0, 0, 0, 0, 0, 0, 0, 0, 0, 0, 0, 0, 0], "stateRewards": ["", 1, 1, -3, 7, 49, 78, 26, -5, 26, 48, -43, -1, -3, 2, -5, 4, -1, -60, 10, -35, 51, 81, -2, 1, -7, -5, -39, -86, -54, 4, -3, 74, 77], "withholdReward": false, "trial_id": "mdp_trial_3", "block": "test", "trialIndex": 4, "score": 70, "costs": 0, "simulationMode": [null, null, null, null, null], "rewards": [-2, 1, -7, 4, 74], "path": ["0", "0", "23", "24", "25", "30", "32"], "rt": [1455, 741, 325, 536, 1365], "actions": ["left", "left", "left", "down", "down"], "actionTimes": [3431, 4699, 5547, 6579, 8441], "queries": {"click": {"state": {"target": [], "time": []}, "edge": {"target": [], "time": []}}, "mouseover": {"state": {"target": [], "time": []}, "edge": {"target": [], "time": []}}, "mouseout": {"state": {"target": [], "time": []}, "edge": {"target": [], "time": []}}}, "displayed_time": "15.98", "trialTime": 19797, "trial_type": "mouselab-mdp", "trial_index": 11, "time_elapsed": 633836, "internal_node_id": "0.0-6.0-1.0-2.0"}}, {"uniqueid": "w98499954:a87500205", "current_trial": 12, "dateTime": 1693389403255, "trialdata": {"revealed_states": [], "clicked_states": [], "num_clicks_accrued": [0, 0, 0, 0, 0, 0, 0, 0, 0, 0, 0, 0, 0], "stateRewards": ["", -2, -1, -1, 5, -54, -87, 35, 2, -8, 20, -22, 1, 3, 6, 13, -75, -32, -55, -3, 56, 62, -22, -1, -4, -1, -7, -51, 84, 70, 7, -15, 5, 55], "withholdReward": false, "trial_id": "mdp_trial_4", "block": "test", "trialIndex": 5, "score": -24, "costs": 0, "simulationMode": [null, null, null, null, null], "rewards": [-2, -1, -1, 2, -22], "path": ["0", "0", "1", "2", "3", "8", "11"], "rt": [1486, 507, 382, 1154, 1429], "actions": ["up", "up", "up", "left", "left"], "actionTimes": [3396, 4423, 5296, 6974, 8901], "queries": {"click": {"state": {"target": [], "time": []}, "edge": {"target": [], "time": []}}, "mouseover": {"state": {"target": [], "time": []}, "edge": {"target": [], "time": []}}, "mouseout": {"state": {"target": [], "time": []}, "edge": {"target": [], "time": []}}}, "displayed_time": "15.92", "trialTime": 17688, "trial_type": "mouselab-mdp", "trial_index": 12, "time_elapsed": 651831, "internal_node_id": "0.0-6.0-1.0-3.0"}}, {"uniqueid": "w98499954:a87500205", "current_trial": 13, "dateTime": 1693389422675, "trialdata": {"revealed_states": [], "clicked_states": [], "num_clicks_accrued": [0, 0, 0, 0, 0, 0, 0, 0, 0, 0, 0, 0, 0], "stateRewards": ["", 1, 4, -4, 14, 35, 51, 19, -13, 54, 78, -74, -2, -1, -3, 13, -11, -42, -73, -15, -24, -3, -69, 2, -1, 5, 16, -27, 73, 58, 9, -60, 5, -60], "withholdReward": false, "trial_id": "mdp_trial_5", "block": "test", "trialIndex": 6, "score": -24, "costs": 0, "simulationMode": [null, null, null, null, null], "rewards": [-2, -1, -3, -15, -3], "path": ["0", "0", "12", "13", "14", "19", "21"], "rt": [491, 2792, 602, 610, 259], "actions": ["right", "right", "right", "down", "down"], "actionTimes": [2904, 6188, 7292, 8430, 9198], "queries": {"click": {"state": {"target": [], "time": []}, "edge": {"target": [], "time": []}}, "mouseover": {"state": {"target": [], "time": []}, "edge": {"target": [], "time": []}}, "mouseout": {"state": {"target": [], "time": []}, "edge": {"target": [], "time": []}}}, "displayed_time": "16.42", "trialTime": 19136, "trial_type": "mouselab-mdp", "trial_index": 13, "time_elapsed": 671251, "internal_node_id": "0.0-6.0-1.0-4.0"}}, {"uniqueid": "w98499954:a87500205", "current_trial": 14, "dateTime": 1693389442276, "trialdata": {"revealed_states": [], "clicked_states": [], "num_clicks_accrued": [0, 0, 0, 0, 0, 0, 0, 0, 0, 0, 0, 0, 0], "stateRewards": ["", -2, -4, -8, 8, 63, -50, -19, -7, -17, -31, 31, 1, 3, -5, 12, -35, -63, -29, -4, -17, -75, -79, -2, -3, -2, 8, -3, -85, 10, -2, -82, -82, 56], "withholdReward": false, "trial_id": "mdp_trial_6", "block": "test", "trialIndex": 7, "score": 57, "costs": 0, "simulationMode": [null, null, null, null, null], "rewards": [-2, -4, -8, 8, 63], "path": ["0", "0", "1", "2", "3", "4", "5"], "rt": [1467, 271, 346, 371, 1162], "actions": ["up", "up", "up", "right", "up"], "actionTimes": [3906, 4708, 5574, 6454, 8126], "queries": {"click": {"state": {"target": [], "time": []}, "edge": {"target": [], "time": []}}, "mouseover": {"state": {"target": [], "time": []}, "edge": {"target": [], "time": []}}, "mouseout": {"state": {"target": [], "time": []}, "edge": {"target": [], "time": []}}}, "displayed_time": "16.45", "trialTime": 19305, "trial_type": "mouselab-mdp", "trial_index": 14, "time_elapsed": 690852, "internal_node_id": "0.0-6.0-1.0-5.0"}}, {"uniqueid": "w98499954:a87500205", "current_trial": 15, "dateTime": 1693389463724, "trialdata": {"revealed_states": [], "clicked_states": [], "num_clicks_accrued": [0, 0, 0, 0, 0, 0, 0, 0, 0, 0, 0, 0, 0], "stateRewards": ["", 2, 3, -1, 16, -78, -11, 46, 2, -20, 79, -67, 2, 3, 2, 11, -83, -42, -58, -11, -67, -22, 55, 2, -1, -1, -16, -83, -82, 23, -11, -29, 13, 13], "withholdReward": false, "trial_id": "mdp_trial_7", "block": "test", "trialIndex": 8, "score": -98, "costs": 0, "simulationMode": [null, null, null, null, null], "rewards": [2, -1, -1, -16, -82], "path": ["0", "0", "23", "24", "25", "26", "28"], "rt": [1116, 849, 316, 718, 507], "actions": ["left", "left", "left", "up", "right"], "actionTimes": [4339, 5718, 6559, 7781, 8806], "queries": {"click": {"state": {"target": [], "time": []}, "edge": {"target": [], "time": []}}, "mouseover": {"state": {"target": [], "time": []}, "edge": {"target": [], "time": []}}, "mouseout": {"state": {"target": [], "time": []}, "edge": {"target": [], "time": []}}}, "displayed_time": "17.23", "trialTime": 21133, "trial_type": "mouselab-mdp", "trial_index": 15, "time_elapsed": 712300, "internal_node_id": "0.0-6.0-1.0-6.0"}}, {"uniqueid": "w98499954:a87500205", "current_trial": 16, "dateTime": 1693389500945, "trialdata": {"revealed_states": [], "clicked_states": [], "num_clicks_accrued": [0, 0, 0, 0, 0, 0, 0, 0, 0, 0, 0, 0, 0], "stateRewards": ["", -1, 4, -6, -5, -22, -38, -38, -2, -56, 88, 14, -1, -1, -7, -6, 61, -60, 21, 11, 57, 31, -30, -2, -2, 6, -9, -44, -70, -44, -15, 34, 16, -78], "withholdReward": false, "trial_id": "mdp_trial_8", "block": "test", "trialIndex": 9, "score": 46, "costs": 0, "simulationMode": [null, null, null, null, null], "rewards": [-1, -1, -7, -6, 61], "path": ["0", "0", "12", "13", "14", "15", "16"], "rt": [1473, 242, 519, 2808, 753], "actions": ["right", "right", "right", "up", "up"], "actionTimes": [7786, 8542, 9581, 12890, 14170], "queries": {"click": {"state": {"target": [], "time": []}, "edge": {"target": [], "time": []}}, "mouseover": {"state": {"target": [], "time": []}, "edge": {"target": [], "time": []}}, "mouseout": {"state": {"target": [], "time": []}, "edge": {"target": [], "time": []}}}, "displayed_time": "20.32", "trialTime": 36935, "trial_type": "mouselab-mdp", "trial_index": 16, "time_elapsed": 749521, "internal_node_id": "0.0-6.0-1.0-7.0"}}, {"uniqueid": "w98499954:a87500205", "current_trial": 17, "dateTime": 1693389521258, "trialdata": {"revealed_states": [], "clicked_states": [], "num_clicks_accrued": [0, 0, 0, 0, 0, 0, 0, 0, 0, 0, 0, 0, 0], "stateRewards": ["", -1, 4, 3, 12, -27, 34, -33, 3, -63, 1, 6, 2, 2, -6, -11, -77, -85, 68, -6, 51, 81, -60, -2, -2, 1, 15, 20, 15, 68, -10, -14, 6, -4], "withholdReward": false, "trial_id": "mdp_trial_9", "block": "test", "trialIndex": 10, "score": -90, "costs": 0, "simulationMode": [null, null, null, null, null], "rewards": [2, 2, -6, -11, -77], "path": ["0", "0", "12", "13", "14", "15", "16"], "rt": [437, 876, 2080, 1517, 776], "actions": ["right", "right", "right", "up", "up"], "actionTimes": [3998, 5366, 7945, 9981, 11269], "queries": {"click": {"state": {"target": [], "time": []}, "edge": {"target": [], "time": []}}, "mouseover": {"state": {"target": [], "time": []}, "edge": {"target": [], "time": []}}, "mouseout": {"state": {"target": [], "time": []}, "edge": {"target": [], "time": []}}}, "displayed_time": "17.57", "trialTime": 20034, "trial_type": "mouselab-mdp", "trial_index": 17, "time_elapsed": 769835, "internal_node_id": "0.0-6.0-1.0-8.0"}}, {"uniqueid": "w98499954:a87500205", "current_trial": 18, "dateTime": 1693389543217, "trialdata": {"revealed_states": [], "clicked_states": [], "num_clicks_accrued": [0, 0, 0, 0, 0, 0, 0, 0, 0, 0, 0, 0, 0], "stateRewards": ["", 1, 1, -2, 7, -31, -6, 76, 1, -36, -16, -53, 2, 1, 7, 13, -47, -10, 47, -7, 72, 46, -56, -2, -2, -2, 11, -80, 44, 38, 16, 67, 85, -78], "withholdReward": false, "trial_id": "mdp_trial_10", "block": "test", "trialIndex": 11, "score": 83, "costs": 0, "simulationMode": [null, null, null, null, null], "rewards": [1, 1, -2, 7, 76], "path": ["0", "0", "1", "2", "3", "4", "7"], "rt": [2344, 295, 352, 670, 1174], "actions": ["up", "up", "up", "right", "down"], "actionTimes": [3997, 4798, 5671, 6853, 8520], "queries": {"click": {"state": {"target": [], "time": []}, "edge": {"target": [], "time": []}}, "mouseover": {"state": {"target": [], "time": []}, "edge": {"target": [], "time": []}}, "mouseout": {"state": {"target": [], "time": []}, "edge": {"target": [], "time": []}}}, "displayed_time": "15.66", "trialTime": 21663, "trial_type": "mouselab-mdp", "trial_index": 18, "time_elapsed": 791793, "internal_node_id": "0.0-6.0-1.0-9.0"}}, {"uniqueid": "w98499954:a87500205", "current_trial": 19, "dateTime": 1693389561603, "trialdata": {"revealed_states": [], "clicked_states": [], "num_clicks_accrued": [0, 0, 0, 0, 0, 0, 0, 0, 0, 0, 0, 0, 0], "stateRewards": ["", 2, -4, 1, -12, -59, -53, -74, 16, -88, -66, 66, 1, -2, 8, -9, -14, 22, 25, -1, -39, 47, -14, -1, -1, -2, 1, -4, 52, -26, 15, -7, 46, 43], "withholdReward": false, "trial_id": "mdp_trial_11", "block": "test", "trialIndex": 12, "score": 4, "costs": 0, "simulationMode": [null, null, null, null, null], "rewards": [-1, -1, -2, 15, -7], "path": ["0", "0", "23", "24", "25", "30", "31"], "rt": [2269, 276, 1422, 1855, 514], "actions": ["left", "left", "left", "down", "right"], "actionTimes": [4247, 5046, 6959, 9313, 10341], "queries": {"click": {"state": {"target": [], "time": []}, "edge": {"target": [], "time": []}}, "mouseover": {"state": {"target": [], "time": []}, "edge": {"target": [], "time": []}}, "mouseout": {"state": {"target": [], "time": []}, "edge": {"target": [], "time": []}}}, "displayed_time": "15.98", "trialTime": 18040, "trial_type": "mouselab-mdp", "trial_index": 19, "time_elapsed": 810179, "internal_node_id": "0.0-6.0-1.0-10.0"}}, {"uniqueid": "w98499954:a87500205", "current_trial": 20, "dateTime": 1693389592368, "trialdata": {"revealed_states": [], "clicked_states": [], "num_clicks_accrued": [0, 0, 0, 0, 0, 0, 0, 0, 0, 0, 0, 0, 0], "stateRewards": ["", -2, 3, -5, -7, 66, 43, -60, -4, -70, -75, 4, -1, 2, 2, -13, 54, 11, -40, -1, 77, 32, 15, -2, 3, -8, -9, -35, 83, -27, 6, -74, -34, 44], "withholdReward": false, "trial_id": "mdp_trial_12", "block": "test", "trialIndex": 13, "score": 34, "costs": 0, "simulationMode": [null, null, null, null, null], "rewards": [-1, 2, 2, -1, 32], "path": ["0", "0", "12", "13", "14", "19", "21"], "rt": [1096, 584, 668, 680, 100], "actions": ["right", "right", "right", "down", "down"], "actionTimes": [14674, 15773, 16939, 18127, 18733], "queries": {"click": {"state": {"target": [], "time": []}, "edge": {"target": [], "time": []}}, "mouseover": {"state": {"target": [], "time": []}, "edge": {"target": [], "time": []}}, "mouseout": {"state": {"target": ["0"], "time": [11814]}, "edge": {"target": [], "time": []}}}, "displayed_time": "27.59", "trialTime": 30361, "trial_type": "mouselab-mdp", "trial_index": 20, "time_elapsed": 840944, "internal_node_id": "0.0-6.0-1.0-11.0"}}, {"uniqueid": "w98499954:a87500205", "current_trial": 21, "dateTime": 1693389613554, "trialdata": {"revealed_states": [], "clicked_states": [], "num_clicks_accrued": [0, 0, 0, 0, 0, 0, 0, 0, 0, 0, 0, 0, 0], "stateRewards": ["", -1, 1, -1, 2, 19, 85, -18, 2, -3, -26, 36, 2, 4, 7, -9, -18, 70, 72, -5, 35, -20, -28, 1, -2, -4, -3, -59, -11, -63, -2, -72, 59, -69], "withholdReward": false, "trial_id": "mdp_trial_13", "block": "test", "trialIndex": 14, "score": 86, "costs": 0, "simulationMode": [null, null, null, null, null], "rewards": [-1, 1, -1, 2, 85], "path": ["0", "0", "1", "2", "3", "4", "6"], "rt": [5531, 338, 199, 641, 265], "actions": ["up", "up", "up", "right", "right"], "actionTimes": [10755, 11589, 12303, 13463, 14231], "queries": {"click": {"state": {"target": [], "time": []}, "edge": {"target": [], "time": []}}, "mouseover": {"state": {"target": [], "time": []}, "edge": {"target": [], "time": []}}, "mouseout": {"state": {"target": [], "time": []}, "edge": {"target": [], "time": []}}}, "displayed_time": "19.23", "trialTime": 20813, "trial_type": "mouselab-mdp", "trial_index": 21, "time_elapsed": 862131, "internal_node_id": "0.0-6.0-1.0-12.0"}}, {"uniqueid": "w98499954:a87500205", "current_trial": 22, "dateTime": 1693389633499, "trialdata": {"revealed_states": [], "clicked_states": [], "num_clicks_accrued": [0, 0, 0, 0, 0, 0, 0, 0, 0, 0, 0, 0, 0], "stateRewards": ["", 1, -1, 4, -2, -75, -75, 84, -9, -60, -79, 59, 2, -4, 8, 9, -17, -82, 80, 14, -4, 49, 49, -1, 3, 6, -11, -33, 34, 55, 9, -57, 5, 59], "withholdReward": false, "trial_id": "mdp_trial_14", "block": "test", "trialIndex": 15, "score": -65, "costs": 0, "simulationMode": [null, null, null, null, null], "rewards": [1, -1, 4, -9, -60], "path": ["0", "0", "1", "2", "3", "8", "9"], "rt": [4707, 642, 382, 1883, 474], "actions": ["up", "up", "up", "left", "up"], "actionTimes": [6232, 7394, 8299, 10696, 11687], "queries": {"click": {"state": {"target": [], "time": []}, "edge": {"target": [], "time": []}}, "mouseover": {"state": {"target": [], "time": []}, "edge": {"target": [], "time": []}}, "mouseout": {"state": {"target": [], "time": []}, "edge": {"target": [], "time": []}}}, "displayed_time": "15.53", "trialTime": 19636, "trial_type": "mouselab-mdp", "trial_index": 22, "time_elapsed": 882075, "internal_node_id": "0.0-6.0-1.0-13.0"}}, {"uniqueid": "w98499954:a87500205", "current_trial": 23, "dateTime": 1693389653789, "trialdata": {"revealed_states": [], "clicked_states": [], "num_clicks_accrued": [0, 0, 0, 0, 0, 0, 0, 0, 0, 0, 0, 0, 0], "stateRewards": ["", 1, 2, -3, -5, 66, -50, -47, -5, 1, 28, -27, 1, 1, -1, -6, 37, -25, 56, 1, -82, -66, -40, -1, -4, -7, 15, -61, -23, 26, 10, 14, -56, 29], "withholdReward": false, "trial_id": "mdp_trial_15", "block": "test", "trialIndex": 16, "score": -38, "costs": 0, "simulationMode": [null, null, null, null, null], "rewards": [1, 1, -1, 1, -40], "path": ["0", "0", "12", "13", "14", "19", "22"], "rt": [11524, 515, 137, 38, 1373], "actions": ["right", "right", "right", "down", "left"], "actionTimes": [12885, 13900, 14560, 15105, 16992], "queries": {"click": {"state": {"target": [], "time": []}, "edge": {"target": [], "time": []}}, "mouseover": {"state": {"target": ["12", "0"], "time": [3667, 7701]}, "edge": {"target": [], "time": []}}, "mouseout": {"state": {"target": ["0", "12", "0"], "time": [3634, 7667, 7751]}, "edge": {"target": [], "time": []}}}, "displayed_time": "17.49", "trialTime": 19968, "trial_type": "mouselab-mdp", "trial_index": 23, "time_elapsed": 902365, "internal_node_id": "0.0-6.0-1.0-14.0"}}, {"uniqueid": "w98499954:a87500205", "current_trial": 24, "dateTime": 1693389671751, "trialdata": {"revealed_states": [], "clicked_states": ["12"], "num_clicks_accrued": [0, 0, 0, 0, 0, 0, 0, 0, 0, 0, 0, 0, 0], "stateRewards": ["", -2, 1, -7, -8, -37, -76, -87, 11, 30, -63, 80, -1, 4, 2, -1, 42, 17, 52, -3, -75, -80, -68, 2, -3, -5, -15, -48, 82, 24, -7, 5, -22, -71], "withholdReward": false, "trial_id": "mdp_trial_16", "block": "test", "trialIndex": 17, "score": -77.75, "costs": 0.25, "simulationMode": [null, null, null, null, null], "rewards": [-1, 4, 2, -3, -80], "path": ["0", "0", "12", "13", "14", "19", "21"], "rt": [2682, 991, 282, 372, 372], "actions": ["right", "right", "right", "down", "down"], "actionTimes": [4601, 6094, 6896, 7791, 8675], "queries": {"click": {"state": {"target": ["12"], "time": [2714]}, "edge": {"target": [], "time": []}}, "mouseover": {"state": {"target": ["12"], "time": [2316]}, "edge": {"target": [], "time": []}}, "mouseout": {"state": {"target": ["0"], "time": [2218]}, "edge": {"target": [], "time": []}}}, "displayed_time": "15.93", "trialTime": 17597, "trial_type": "mouselab-mdp", "trial_index": 24, "time_elapsed": 920327, "internal_node_id": "0.0-6.0-1.0-15.0"}}, {"uniqueid": "w98499954:a87500205", "current_trial": 25, "dateTime": 1693389690554, "trialdata": {"revealed_states": [], "clicked_states": ["5"], "num_clicks_accrued": [0, 0, 0, 0, 0, 0, 0, 0, 0, 0, 0, 0, 0], "stateRewards": ["", -1, -3, -6, 14, 41, 18, 63, -14, 80, 21, 17, -2, -4, -2, -5, 13, 70, 8, -4, -64, -10, -20, 2, -1, 4, -1, -17, -55, 42, -7, 47, 54, 15], "withholdReward": false, "trial_id": "mdp_trial_17", "block": "test", "trialIndex": 18, "score": 42.85, "costs": -2.15, "simulationMode": [null, null, null, null, null], "rewards": [-1, -3, -6, 14, 41], "path": ["0", "0", "1", "2", "3", "4", "5"], "rt": [9086, 210, 263, 425, 205], "actions": ["up", "up", "up", "right", "up"], "actionTimes": [10285, 11023, 11807, 12737, 13460], "queries": {"click": {"state": {"target": ["5"], "time": [2365]}, "edge": {"target": [], "time": []}}, "mouseover": {"state": {"target": ["1", "2", "3", "5"], "time": [1408, 1436, 1503, 1952]}, "edge": {"target": [], "time": []}}, "mouseout": {"state": {"target": ["12", "0", "1", "2", "3", "5"], "time": [506, 1384, 1422, 1470, 1537, 2581]}, "edge": {"target": [], "time": []}}}, "displayed_time": "15.20", "trialTime": 18452, "trial_type": "mouselab-mdp", "trial_index": 25, "time_elapsed": 939130, "internal_node_id": "0.0-6.0-1.0-16.0"}}, {"uniqueid": "w98499954:a87500205", "current_trial": 26, "dateTime": 1693389716388, "trialdata": {"revealed_states": [], "clicked_states": ["11", "27", "26", "28"], "num_clicks_accrued": [0, 0, 0, 0, 0, 0, 0, 0, 0, 0, 0, 0, 0], "stateRewards": ["", 2, 4, -3, 16, -58, 30, -35, 11, -60, 47, 27, -2, -1, -7, -16, 23, -70, 68, -10, -65, -43, -34, -2, 1, 7, 9, -63, 34, -31, -8, -12, -86, 59], "withholdReward": false, "trial_id": "mdp_trial_18", "block": "test", "trialIndex": 19, "score": 33, "costs": -8, "simulationMode": [null, null, null, null, null], "rewards": [2, 4, -3, 11, 27], "path": ["0", "0", "1", "2", "3", "8", "11"], "rt": [16605, 553, 293, 439, 447], "actions": ["up", "up", "up", "left", "left"], "actionTimes": [18814, 19882, 20677, 21633, 22573], "queries": {"click": {"state": {"target": ["11", "27", "26", "28"], "time": [3587, 6814, 11350, 14245]}, "edge": {"target": [], "time": []}}, "mouseover": {"state": {"target": ["1", "8", "11", "27", "26", "28", "26"], "time": [2762, 2942, 3126, 6474, 10810, 13858, 17857]}, "edge": {"target": [], "time": []}}, "mouseout": {"state": {"target": ["5", "3", "2", "1", "0", "1", "8", "11", "27", "27", "26", "28", "28", "26"], "time": [758, 825, 858, 925, 2726, 2794, 3009, 6106, 7030, 10777, 13656, 14465, 17824, 17874]}, "edge": {"target": [], "time": []}}}, "displayed_time": "23.08", "trialTime": 25507, "trial_type": "mouselab-mdp", "trial_index": 26, "time_elapsed": 964964, "internal_node_id": "0.0-6.0-1.0-17.0"}}, {"uniqueid": "w98499954:a87500205", "current_trial": 27, "dateTime": 1693389744117, "trialdata": {"revealed_states": [], "clicked_states": ["33", "27", "29"], "num_clicks_accrued": [0, 0, 0, 0, 0, 0, 0, 0, 0, 0, 0, 0, 0], "stateRewards": ["", -2, 4, -7, -3, -76, 39, -28, 10, 14, 12, 60, 2, -3, 6, -10, 88, -34, -41, -3, 72, -13, -56, 1, 3, 2, 8, -51, 23, -57, 1, 14, -46, -16], "withholdReward": false, "trial_id": "mdp_trial_19", "block": "test", "trialIndex": 20, "score": -90.45, "costs": -6.449999999999999, "simulationMode": [null, null, null, null, null], "rewards": [-2, 4, -7, -3, -76], "path": ["0", "0", "1", "2", "3", "4", "5"], "rt": [17947, 3, 121, 714, 159], "actions": ["up", "up", "up", "right", "up"], "actionTimes": [19713, 20211, 20844, 22060, 22733], "queries": {"click": {"state": {"target": ["33", "27", "29"], "time": [3606, 7382, 10721]}, "edge": {"target": [], "time": []}}, "mouseover": {"state": {"target": ["23", "24", "33", "26", "27", "29", "11", "9", "5"], "time": [2405, 2489, 3104, 4719, 5819, 8405, 11928, 11987, 12354]}, "edge": {"target": [], "time": []}}, "mouseout": {"state": {"target": ["24", "23", "23", "24", "33", "26", "27", "29", "27", "11", "9"], "time": [804, 821, 2456, 2672, 3817, 4737, 8324, 11871, 11905, 11954, 12169]}, "edge": {"target": [], "time": []}}}, "displayed_time": "23.22", "trialTime": 27432, "trial_type": "mouselab-mdp", "trial_index": 27, "time_elapsed": 992693, "internal_node_id": "0.0-6.0-1.0-18.0"}}, {"uniqueid": "w98499954:a87500205", "current_trial": 28, "dateTime": 1693389761454, "trialdata": {"revealed_states": [], "clicked_states": ["17", "20"], "num_clicks_accrued": [0, 0, 0, 0, 0, 0, 0, 0, 0, 0, 0, 0, 0], "stateRewards": ["", -1, 3, 8, 10, -86, 61, -36, 10, 17, -60, 24, -1, -3, 3, 11, 50, 60, 33, -3, -20, 58, -6, 1, -4, -4, 13, -70, -71, 43, 14, 52, 82, -11], "withholdReward": false, "trial_id": "mdp_trial_20", "block": "test", "trialIndex": 21, "score": 65.7, "costs": -4.3, "simulationMode": [null, null, null, null, null], "rewards": [-1, -3, 3, 11, 60], "path": ["0", "0", "12", "13", "14", "15", "17"], "rt": [10021, 127, 101, 483, 787], "actions": ["right", "right", "right", "up", "right"], "actionTimes": [11407, 12044, 12652, 13638, 14937], "queries": {"click": {"state": {"target": ["17", "20"], "time": [3165, 6336]}, "edge": {"target": [], "time": []}}, "mouseover": {"state": {"target": ["18", "15", "17", "20", "19", "22"], "time": [1910, 2027, 2493, 6012, 9277, 9949]}, "edge": {"target": [], "time": []}}, "mouseout": {"state": {"target": ["5", "3", "2", "1", "0", "18", "15", "17", "20", "19"], "time": [491, 592, 643, 693, 1782, 1943, 2283, 5426, 6554, 9565]}, "edge": {"target": [], "time": []}}}, "displayed_time": "15.45", "trialTime": 17058, "trial_type": "mouselab-mdp", "trial_index": 28, "time_elapsed": 1010030, "internal_node_id": "0.0-6.0-1.0-19.0"}}, {"uniqueid": "w98499954:a87500205", "current_trial": 29, "dateTime": 1693389789889, "trialdata": {"revealed_states": [], "clicked_states": ["5", "6", "9", "11"], "num_clicks_accrued": [0, 0, 0, 0, 0, 0, 0, 0, 0, 0, 0, 0, 0], "stateRewards": ["", -2, -3, 1, -7, 39, -67, 16, 5, -20, 73, 66, -1, 4, 5, -3, 23, -68, -87, -8, 3, -3, 17, 1, -4, -2, -13, -32, 34, 61, -5, -11, -18, 12], "withholdReward": false, "trial_id": "mdp_trial_21", "block": "test", "trialIndex": 22, "score": 58.4, "costs": -8.6, "simulationMode": [null, null, null, null, null], "rewards": [-2, -3, 1, 5, 66], "path": ["0", "0", "1", "2", "3", "8", "11"], "rt": [19872, 148, 86, 429, 214], "actions": ["up", "up", "up", "left", "left"], "actionTimes": [22086, 22743, 23327, 24269, 24986], "queries": {"click": {"state": {"target": ["5", "6", "9", "11"], "time": [3630, 7337, 11570, 15820]}, "edge": {"target": [], "time": []}}, "mouseover": {"state": {"target": ["1", "4", "5", "6", "4", "9", "8", "11", "28", "24"], "time": [2686, 2775, 3204, 5770, 10755, 11223, 15122, 15289, 19391, 19558]}, "edge": {"target": [], "time": []}}, "mouseout": {"state": {"target": ["22", "0", "1", "4", "5", "6", "6", "4", "9", "8", "11", "28", "24"], "time": [968, 2672, 2714, 2837, 5635, 7559, 10688, 10808, 15056, 15141, 17653, 19439, 19590]}, "edge": {"target": [], "time": []}}}, "displayed_time": "25.49", "trialTime": 28064, "trial_type": "mouselab-mdp", "trial_index": 29, "time_elapsed": 1038465, "internal_node_id": "0.0-6.0-1.0-20.0"}}, {"uniqueid": "w98499954:a87500205", "current_trial": 30, "dateTime": 1693389814481, "trialdata": {"revealed_states": [], "clicked_states": ["29", "33"], "num_clicks_accrued": [0, 0, 0, 0, 0, 0, 0, 0, 0, 0, 0, 0, 0], "stateRewards": ["", -2, -3, 8, -4, -30, 31, 69, 9, 66, 87, 64, -2, 2, 8, 5, 47, 16, -39, -8, -54, 51, -19, 1, -2, -2, -11, -25, -26, 43, -9, 19, -84, 86], "withholdReward": false, "trial_id": "mdp_trial_22", "block": "test", "trialIndex": 23, "score": 69.7, "costs": -4.3, "simulationMode": [null, null, null, null, null], "rewards": [1, -2, -2, -9, 86], "path": ["0", "0", "23", "24", "25", "30", "33"], "rt": [12846, 128, 720, 35, 308], "actions": ["left", "left", "left", "down", "left"], "actionTimes": [15534, 16180, 17428, 17955, 18760], "queries": {"click": {"state": {"target": ["29", "33"], "time": [4178, 8167]}, "edge": {"target": [], "time": []}}, "mouseover": {"state": {"target": ["23", "26", "29", "26", "28", "1", "28", "26", "27", "33", "30", "31"], "time": [3286, 3487, 3802, 5132, 5199, 5399, 5782, 6033, 6166, 7738, 11670, 12786]}, "edge": {"target": [], "time": []}}, "mouseout": {"state": {"target": ["23", "0", "23", "26", "29", "26", "28", "1", "28", "26", "27", "33", "30", "31"], "time": [1983, 2267, 3321, 3703, 4393, 5182, 5250, 5650, 5916, 6066, 7537, 11636, 12087, 12805]}, "edge": {"target": [], "time": []}}}, "displayed_time": "19.25", "trialTime": 24253, "trial_type": "mouselab-mdp", "trial_index": 30, "time_elapsed": 1063058, "internal_node_id": "0.0-6.0-1.0-21.0"}}, {"uniqueid": "w98499954:a87500205", "current_trial": 31, "dateTime": 1693389844777, "trialdata": {"revealed_states": [], "clicked_states": ["17", "20", "16", "9"], "num_clicks_accrued": [0, 0, 0, 0, 0, 0, 0, 0, 0, 0, 0, 0, 0], "stateRewards": ["", -1, 1, -5, -6, -78, 47, -13, 12, 48, -88, 20, 2, -3, -2, 13, -20, 37, -57, 14, -38, 30, 31, -2, -2, 8, 2, -23, 78, 28, 12, -74, -88, 8], "withholdReward": false, "trial_id": "mdp_trial_23", "block": "test", "trialIndex": 24, "score": 46.4, "costs": -8.6, "simulationMode": [null, null, null, null, null], "rewards": [-1, 1, -5, 12, 48], "path": ["0", "0", "1", "2", "3", "8", "9"], "rt": [17451, 325, 231, 135, 205], "actions": ["up", "up", "up", "left", "up"], "actionTimes": [19979, 20814, 21537, 22190, 22892], "queries": {"click": {"state": {"target": ["17", "20", "16", "9"], "time": [4242, 7486, 11020, 15577]}, "edge": {"target": [], "time": []}}, "mouseover": {"state": {"target": ["18", "15", "17", "20", "16", "6", "4", "9"], "time": [3204, 3227, 3871, 5153, 10453, 14438, 14460, 15228]}, "edge": {"target": [], "time": []}}, "mouseout": {"state": {"target": ["0", "1", "1", "0", "18", "15", "17", "20", "16", "6", "4"], "time": [1285, 1302, 1636, 1852, 3221, 3571, 5086, 10255, 11233, 14455, 14472]}, "edge": {"target": [], "time": []}}}, "displayed_time": "23.39", "trialTime": 29952, "trial_type": "mouselab-mdp", "trial_index": 31, "time_elapsed": 1093353, "internal_node_id": "0.0-6.0-1.0-22.0"}}, {"uniqueid": "w98499954:a87500205", "current_trial": 32, "dateTime": 1693389889201, "trialdata": {"revealed_states": [], "clicked_states": ["29", "28", "27", "20", "21", "16", "17", "18", "5", "6"], "num_clicks_accrued": [0, 0, 0, 0, 0, 0, 0, 0, 0, 0, 0, 0, 0], "stateRewards": ["", 1, 1, -6, -2, 7, 77, 3, 16, -16, 66, 31, -1, 3, -8, -6, 33, -50, -48, 7, -60, -66, 36, 2, -3, 3, -7, -12, -61, -79, -4, 8, 74, -70], "withholdReward": false, "trial_id": "mdp_trial_24", "block": "test", "trialIndex": 25, "score": 49.5, "costs": -21.499999999999996, "simulationMode": [null, null, null, null, null], "rewards": [1, 1, -6, -2, 77], "path": ["0", "0", "1", "2", "3", "4", "6"], "rt": [37909, 193, 31, 143, 27], "actions": ["up", "up", "up", "right", "right"], "actionTimes": [40075, 40788, 41334, 41989, 42513], "queries": {"click": {"state": {"target": ["29", "28", "27", "20", "21", "16", "17", "18", "5", "6"], "time": [3772, 7378, 10718, 13961, 17972, 21245, 24460, 27695, 32023, 35402]}, "edge": {"target": [], "time": []}}, "mouseover": {"state": {"target": ["23", "26", "29", "26", "28", "27", "26", "20", "21", "22", "15", "16", "17", "15", "18", "4", "5", "6", "4", "2", "1"], "time": [2855, 3071, 3433, 4864, 5230, 8881, 11797, 12364, 16755, 18696, 19981, 20296, 22248, 25765, 26181, 31379, 31599, 32911, 37228, 38947, 39015]}, "edge": {"target": [], "time": []}}, "mouseout": {"state": {"target": ["9", "8", "10", "0", "0", "23", "26", "29", "26", "28", "27", "26", "20", "20", "21", "22", "15", "16", "17", "17", "15", "18", "4", "5", "6", "6", "4", "2"], "time": [830, 863, 880, 947, 1315, 2900, 3300, 4813, 4946, 8581, 11764, 11830, 14163, 16417, 18547, 19881, 20014, 22014, 24672, 25698, 25930, 31059, 31413, 32844, 35612, 36828, 38846, 38965]}, "edge": {"target": [], "time": []}}}, "displayed_time": "43.04", "trialTime": 44104, "trial_type": "mouselab-mdp", "trial_index": 32, "time_elapsed": 1137777, "internal_node_id": "0.0-6.0-1.0-23.0"}}, {"uniqueid": "w98499954:a87500205", "current_trial": 33, "dateTime": 1693389920486, "trialdata": {"revealed_states": [], "clicked_states": ["9", "10", "11", "6", "5"], "num_clicks_accrued": [0, 0, 0, 0, 0, 0, 0, 0, 0, 0, 0, 0, 0], "stateRewards": ["", 1, 1, 6, -14, -40, 37, 16, -13, 33, -68, 49, 2, 4, 3, 6, 55, 27, 32, 10, -65, 20, -87, 2, 1, -6, -5, -42, 12, 29, -8, 16, 76, -33], "withholdReward": false, "trial_id": "mdp_trial_25", "block": "test", "trialIndex": 26, "score": 33.25, "costs": -10.75, "simulationMode": [null, null, null, null, null], "rewards": [1, 1, 6, -13, 49], "path": ["0", "0", "1", "2", "3", "8", "11"], "rt": [23289, 230, 686, 211, 152], "actions": ["up", "up", "up", "left", "left"], "actionTimes": [25900, 26641, 27853, 28572, 29227], "queries": {"click": {"state": {"target": ["9", "10", "11", "6", "5"], "time": [4160, 8093, 11764, 15912, 20150]}, "edge": {"target": [], "time": []}}, "mouseover": {"state": {"target": ["1", "2", "3", "9", "8", "10", "11", "4", "6", "4", "5"], "time": [3190, 3224, 3241, 3790, 5556, 5681, 9474, 13690, 13739, 19374, 19624]}, "edge": {"target": [], "time": []}}, "mouseout": {"state": {"target": ["1", "0", "1", "2", "3", "9", "9", "8", "10", "11", "4", "6", "4", "5"], "time": [1045, 1406, 3207, 3240, 3256, 4371, 5456, 5573, 9307, 13240, 13707, 16140, 19408, 21308]}, "edge": {"target": [], "time": []}}}, "displayed_time": "29.73", "trialTime": 30934, "trial_type": "mouselab-mdp", "trial_index": 33, "time_elapsed": 1169063, "internal_node_id": "0.0-6.0-1.0-24.0"}}, {"uniqueid": "w98499954:a87500205", "current_trial": 34, "dateTime": 1693389939862, "trialdata": {"revealed_states": [], "clicked_states": ["33", "27"], "num_clicks_accrued": [0, 0, 0, 0, 0, 0, 0, 0, 0, 0, 0, 0, 0], "stateRewards": ["", -2, -3, -7, 7, -54, -69, -4, -14, -77, 22, 40, -2, -1, 5, 6, -35, 50, -60, 10, -28, 75, 57, 1, -4, -2, 2, 68, 34, -18, 12, 3, -21, -43], "withholdReward": false, "trial_id": "mdp_trial_26", "block": "test", "trialIndex": 27, "score": 60.7, "costs": -4.3, "simulationMode": [null, null, null, null, null], "rewards": [1, -4, -2, 2, 68], "path": ["0", "0", "23", "24", "25", "26", "27"], "rt": [10185, 578, 258, 501, 10], "actions": ["left", "left", "left", "up", "up"], "actionTimes": [11940, 13034, 13801, 14795, 15320], "queries": {"click": {"state": {"target": ["33", "27"], "time": [3237, 7811]}, "edge": {"target": [], "time": []}}, "mouseover": {"state": {"target": ["23", "24", "33", "27"], "time": [2371, 2421, 2838, 7373]}, "edge": {"target": [], "time": []}}, "mouseout": {"state": {"target": ["2", "1", "23", "24", "33"], "time": [974, 1038, 2403, 2436, 6874]}, "edge": {"target": [], "time": []}}}, "displayed_time": "15.83", "trialTime": 19088, "trial_type": "mouselab-mdp", "trial_index": 34, "time_elapsed": 1188438, "internal_node_id": "0.0-6.0-1.0-25.0"}}, {"uniqueid": "w98499954:a87500205", "current_trial": 35, "dateTime": 1693389984391, "trialdata": {"revealed_states": [], "clicked_states": ["20", "9", "32", "33", "27", "29", "28", "17"], "num_clicks_accrued": [0, 0, 0, 0, 0, 0, 0, 0, 0, 0, 0, 0, 0], "stateRewards": ["", -2, 1, -7, 9, 8, 25, 61, -7, -17, 69, -81, 1, 4, -4, -11, 16, 67, 44, 3, 6, -45, -54, -2, 3, 6, -11, -15, 32, -47, 3, -39, -6, -88], "withholdReward": false, "trial_id": "mdp_trial_27", "block": "test", "trialIndex": 28, "score": 39.8, "costs": -17.2, "simulationMode": [null, null, null, null, null], "rewards": [1, 4, -4, -11, 67], "path": ["0", "0", "12", "13", "14", "15", "17"], "rt": [34842, 286, 215, 322, 1282], "actions": ["right", "right", "right", "up", "right"], "actionTimes": [36766, 37571, 38300, 39136, 40912], "queries": {"click": {"state": {"target": ["20", "9", "32", "33", "27", "29", "28", "17"], "time": [3315, 7689, 12235, 16146, 19938, 23907, 28501, 31882]}, "edge": {"target": [], "time": []}}, "mouseover": {"state": {"target": ["13", "14", "19", "20", "19", "14", "15", "16", "9", "26", "25", "30", "32", "33", "29", "27", "29", "26", "28", "16", "17", "16"], "time": [2579, 2662, 2728, 2912, 4659, 4695, 4710, 4726, 7348, 11263, 11348, 11562, 11663, 15744, 19044, 19528, 23463, 27947, 28048, 29227, 29543, 34359]}, "edge": {"target": [], "time": []}}, "mouseout": {"state": {"target": ["27", "10", "13", "14", "19", "20", "19", "14", "15", "16", "9", "26", "25", "30", "32", "33", "29", "27", "29", "26", "28", "16", "17", "16"], "time": [848, 1011, 2594, 2679, 2829, 4526, 4692, 4709, 4725, 4758, 10979, 11314, 11462, 11614, 15613, 16368, 19093, 23434, 27914, 27997, 29093, 29243, 32102, 35994]}, "edge": {"target": [], "time": []}}}, "displayed_time": "41.41", "trialTime": 44271, "trial_type": "mouselab-mdp", "trial_index": 35, "time_elapsed": 1232968, "internal_node_id": "0.0-6.0-1.0-26.0"}}, {"uniqueid": "w98499954:a87500205", "current_trial": 36, "dateTime": 1693390002451, "trialdata": {"revealed_states": [], "clicked_states": ["6", "29"], "num_clicks_accrued": [0, 0, 0, 0, 0, 0, 0, 0, 0, 0, 0, 0, 0], "stateRewards": ["", -1, 3, 1, -11, -22, -36, 19, -5, -70, -52, 50, -2, -4, 4, -2, -41, -83, 29, -2, 22, 10, -6, -2, 3, -2, 14, 54, 44, 77, -9, -65, -37, -40], "withholdReward": false, "trial_id": "mdp_trial_28", "block": "test", "trialIndex": 29, "score": 85.7, "costs": -4.3, "simulationMode": [null, null, null, null, null], "rewards": [-2, 3, -2, 14, 77], "path": ["0", "0", "23", "24", "25", "26", "29"], "rt": [9017, 257, 373, 389, 997], "actions": ["left", "left", "left", "up", "left"], "actionTimes": [10845, 11617, 12483, 13382, 14874], "queries": {"click": {"state": {"target": ["6", "29"], "time": [3336, 6744]}, "edge": {"target": [], "time": []}}, "mouseover": {"state": {"target": ["1", "2", "5", "6", "4", "10", "29", "33"], "time": [2405, 2425, 2524, 2922, 4338, 4405, 4556, 10208]}, "edge": {"target": [], "time": []}}, "mouseout": {"state": {"target": ["12", "0", "1", "2", "5", "6", "4", "10", "29", "29"], "time": [989, 2370, 2423, 2439, 2839, 4322, 4355, 4422, 6948, 9826]}, "edge": {"target": [], "time": []}}}, "displayed_time": "15.84", "trialTime": 17741, "trial_type": "mouselab-mdp", "trial_index": 36, "time_elapsed": 1251027, "internal_node_id": "0.0-6.0-1.0-27.0"}}, {"uniqueid": "w98499954:a87500205", "current_trial": 37, "dateTime": 1693390021085, "trialdata": {"revealed_states": [], "clicked_states": ["20", "17"], "num_clicks_accrued": [0, 0, 0, 0, 0, 0, 0, 0, 0, 0, 0, 0, 0], "stateRewards": ["", 2, -3, -2, 14, -4, 85, 46, 15, -28, 41, 31, -1, -1, -1, 5, 62, 79, 57, 12, -73, -64, 86, -1, 1, -3, -5, 68, 11, -32, 8, -80, -21, -56], "withholdReward": false, "trial_id": "mdp_trial_29", "block": "test", "trialIndex": 30, "score": 76.7, "costs": -4.3, "simulationMode": [null, null, null, null, null], "rewards": [-1, -1, -1, 5, 79], "path": ["0", "0", "12", "13", "14", "15", "17"], "rt": [9693, 169, 402, 525, 42], "actions": ["right", "right", "right", "up", "right"], "actionTimes": [11790, 12508, 13434, 14452, 14984], "queries": {"click": {"state": {"target": ["20", "17"], "time": [4330, 7740]}, "edge": {"target": [], "time": []}}, "mouseover": {"state": {"target": ["19", "20", "20", "22", "13", "18", "1", "1", "18", "15", "17", "16"], "time": [3398, 3474, 3841, 5540, 5590, 5656, 5858, 6124, 6224, 6307, 6657, 8623]}, "edge": {"target": [], "time": []}}, "mouseout": {"state": {"target": ["33", "23", "19", "20", "20", "22", "13", "18", "1", "1", "18", "15", "17"], "time": [1058, 1225, 3427, 3523, 5140, 5574, 5640, 5746, 5890, 6158, 6257, 6607, 8406]}, "edge": {"target": [], "time": []}}}, "displayed_time": "16.10", "trialTime": 18106, "trial_type": "mouselab-mdp", "trial_index": 37, "time_elapsed": 1269661, "internal_node_id": "0.0-6.0-1.0-28.0"}}, {"uniqueid": "w98499954:a87500205", "current_trial": 38, "dateTime": 1693390042019, "trialdata": {"revealed_states": [], "clicked_states": ["6", "5"], "num_clicks_accrued": [0, 0, 0, 0, 0, 0, 0, 0, 0, 0, 0, 0, 0], "stateRewards": ["", 1, 2, 7, 13, 88, -71, 27, 3, 60, 5, -53, -2, 2, -6, -1, -30, 79, 47, -4, -14, 46, 68, 1, 1, 8, 10, -14, 86, 48, -11, -67, -44, 5], "withholdReward": false, "trial_id": "mdp_trial_30", "block": "test", "trialIndex": 31, "score": 106.7, "costs": -4.3, "simulationMode": [null, null, null, null, null], "rewards": [1, 2, 7, 13, 88], "path": ["0", "0", "1", "2", "3", "4", "5"], "rt": [11949, 250, 368, 74, 420], "actions": ["up", "up", "up", "right", "up"], "actionTimes": [13829, 14581, 15470, 16036, 16950], "queries": {"click": {"state": {"target": ["6", "5"], "time": [3714, 9116]}, "edge": {"target": [], "time": []}}, "mouseover": {"state": {"target": ["1", "2", "3", "5", "6", "4", "5", "5", "9", "1", "0"], "time": [2547, 2572, 2612, 2828, 3194, 7797, 8362, 8646, 12145, 12814, 12947]}, "edge": {"target": [], "time": []}}, "mouseout": {"state": {"target": ["16", "1", "1", "2", "3", "5", "6", "4", "5", "5", "9", "1"], "time": [827, 944, 2565, 2582, 2678, 3060, 3917, 7830, 8397, 11931, 12662, 12863]}, "edge": {"target": [], "time": []}}}, "displayed_time": "17.45", "trialTime": 20493, "trial_type": "mouselab-mdp", "trial_index": 38, "time_elapsed": 1290596, "internal_node_id": "0.0-6.0-1.0-29.0"}}, {"uniqueid": "w98499954:a87500205", "current_trial": 39, "dateTime": 1693390063915, "trialdata": {"revealed_states": [], "clicked_states": ["9"], "num_clicks_accrued": [0, 0, 0, 0, 0, 0, 0, 0, 0, 0, 0, 0, 0], "stateRewards": ["", -2, 3, -1, -9, 44, 48, -37, -3, 71, -39, 87, -1, 3, -4, 4, -21, 59, -15, -8, -1, 28, -38, 2, 4, 4, 8, -85, -72, -63, 14, 58, 63, -46], "withholdReward": false, "trial_id": "mdp_trial_31", "block": "test", "trialIndex": 32, "score": 65.85, "costs": -2.15, "simulationMode": [null, null, null, null, null], "rewards": [-2, 3, -1, -3, 71], "path": ["0", "0", "1", "2", "3", "8", "9"], "rt": [5598, 250, 175, 429, 483], "actions": ["up", "up", "up", "left", "up"], "actionTimes": [10911, 11687, 12368, 13290, 14293], "queries": {"click": {"state": {"target": ["9"], "time": [6621]}, "edge": {"target": [], "time": []}}, "mouseover": {"state": {"target": ["1", "2", "9", "11", "27", "28"], "time": [5943, 6028, 6211, 7744, 8110, 8461]}, "edge": {"target": [], "time": []}}, "mouseout": {"state": {"target": ["0", "1", "2", "9", "9", "11", "27"], "time": [4199, 5995, 6060, 6839, 7411, 7960, 8429]}, "edge": {"target": [], "time": []}}}, "displayed_time": "19.32", "trialTime": 21555, "trial_type": "mouselab-mdp", "trial_index": 39, "time_elapsed": 1312491, "internal_node_id": "0.0-6.0-1.0-30.0"}}, {"uniqueid": "w98499954:a87500205", "current_trial": 40, "dateTime": 1693390082497, "trialdata": {"revealed_states": [], "clicked_states": [], "num_clicks_accrued": [0, 0, 0, 0, 0, 0, 0, 0, 0, 0, 0, 0, 0], "stateRewards": ["", -1, -3, -5, -14, -13, -47, 79, 8, -60, -64, 41, -1, 2, 3, 13, -46, 61, -79, -11, -64, -65, 23, 1, -2, 6, -14, 46, 32, 21, 7, 75, -66, 15], "withholdReward": false, "trial_id": "mdp_trial_32", "block": "test", "trialIndex": 33, "score": -61, "costs": 0, "simulationMode": [null, null, null, null, null], "rewards": [-1, -3, -5, 8, -60], "path": ["0", "0", "1", "2", "3", "8", "9"], "rt": [1036, 183, 344, 692, 433], "actions": ["up", "up", "up", "left", "up"], "actionTimes": [3172, 3891, 4735, 5967, 6890], "queries": {"click": {"state": {"target": [], "time": []}, "edge": {"target": [], "time": []}}, "mouseover": {"state": {"target": [], "time": []}, "edge": {"target": [], "time": []}}, "mouseout": {"state": {"target": ["28", "1", "0", "1", "7", "6", "5", "2"], "time": [1107, 1440, 10092, 10143, 10177, 10557, 11896, 11996]}, "edge": {"target": [], "time": []}}}, "displayed_time": "16.14", "trialTime": 18200, "trial_type": "mouselab-mdp", "trial_index": 40, "time_elapsed": 1331073, "internal_node_id": "0.0-6.0-1.0-31.0"}}, {"uniqueid": "w98499954:a87500205", "current_trial": 41, "dateTime": 1693390114089, "trialdata": {"revealed_states": [], "clicked_states": ["29", "28", "27", "32", "21", "17"], "num_clicks_accrued": [0, 0, 0, 0, 0, 0, 0, 0, 0, 0, 0, 0, 0], "stateRewards": ["", -1, 2, 7, 8, 75, 67, -11, 6, 52, -17, 38, -1, 4, -8, 14, 74, -37, -17, -12, 52, 55, 71, -2, -1, -5, 2, 21, 6, -88, -14, 64, -61, -47], "withholdReward": false, "trial_id": "mdp_trial_33", "block": "test", "trialIndex": 34, "score": 25.1, "costs": -12.9, "simulationMode": [null, null, null, null, null], "rewards": [-1, 4, -8, -12, 55], "path": ["0", "0", "12", "13", "14", "19", "21"], "rt": [22550, 157, 213, 31, 106], "actions": ["right", "right", "right", "down", "down"], "actionTimes": [25966, 26631, 27354, 27889, 28530], "queries": {"click": {"state": {"target": ["29", "28", "27", "32", "21", "17"], "time": [4979, 8430, 11778, 15079, 18332, 21771]}, "edge": {"target": [], "time": []}}, "mouseover": {"state": {"target": ["23", "24", "25", "29", "26", "28", "27", "26", "25", "30", "32", "19", "21", "17"], "time": [3875, 3941, 4170, 4588, 5570, 5637, 9603, 12487, 12549, 12653, 12888, 15855, 16154, 19488]}, "edge": {"target": [], "time": []}}, "mouseout": {"state": {"target": ["0", "0", "23", "23", "0", "23", "24", "25", "29", "26", "28", "27", "26", "25", "30", "32", "19", "21"], "time": [705, 1841, 1970, 2502, 3857, 3923, 4006, 4389, 5520, 5604, 8647, 12471, 12547, 12575, 12771, 15281, 15939, 19121]}, "edge": {"target": [], "time": []}}}, "displayed_time": "29.05", "trialTime": 31207, "trial_type": "mouselab-mdp", "trial_index": 41, "time_elapsed": 1362665, "internal_node_id": "0.0-6.0-1.0-32.0"}}, {"uniqueid": "w98499954:a87500205", "current_trial": 42, "dateTime": 1693390134851, "trialdata": {"revealed_states": [], "clicked_states": ["6", "11", "9"], "num_clicks_accrued": [0, 0, 0, 0, 0, 0, 0, 0, 0, 0, 0, 0, 0], "stateRewards": ["", -1, 2, -2, 5, 80, -61, -27, 12, 44, -26, -75, -2, -4, 1, -16, 42, -49, -50, 4, -44, 2, 80, -2, -2, 5, -2, 59, 10, 24, 7, -48, -86, -44], "withholdReward": false, "trial_id": "mdp_trial_34", "block": "test", "trialIndex": 35, "score": 48.55, "costs": -6.449999999999999, "simulationMode": [null, null, null, null, null], "rewards": [-1, 2, -2, 12, 44], "path": ["0", "0", "1", "2", "3", "8", "9"], "rt": [13471, 166, 317, 68, 38], "actions": ["up", "up", "up", "left", "up"], "actionTimes": [15271, 15966, 16793, 17382, 17942], "queries": {"click": {"state": {"target": ["6", "11", "9"], "time": [2834, 6503, 9897]}, "edge": {"target": [], "time": []}}, "mouseover": {"state": {"target": ["1", "7", "6", "2", "10", "27", "27", "11", "9", "11", "9", "5"], "time": [2294, 2342, 2408, 4590, 4640, 4774, 5274, 5357, 5457, 5807, 7357, 10523]}, "edge": {"target": [], "time": []}}, "mouseout": {"state": {"target": ["17", "15", "18", "0", "1", "7", "6", "2", "10", "27", "27", "11", "9", "11", "9"], "time": [773, 806, 846, 2272, 2306, 2357, 4507, 4607, 4674, 4791, 5307, 5373, 5707, 7291, 10114]}, "edge": {"target": [], "time": []}}}, "displayed_time": "18.48", "trialTime": 20335, "trial_type": "mouselab-mdp", "trial_index": 42, "time_elapsed": 1383427, "internal_node_id": "0.0-6.0-1.0-33.0"}}, {"uniqueid": "w98499954:a87500205", "current_trial": 43, "dateTime": 1693390159471, "trialdata": {"revealed_states": [], "clicked_states": ["33", "17", "29"], "num_clicks_accrued": [0, 0, 0, 0, 0, 0, 0, 0, 0, 0, 0, 0, 0], "stateRewards": ["", 1, 2, -3, 6, -88, 74, -45, 7, -46, 40, -77, 1, -4, 4, 3, 22, -25, -59, 8, -83, 19, -60, -1, -1, -1, -8, 26, -29, 64, -7, -88, -51, -55], "withholdReward": false, "trial_id": "mdp_trial_35", "block": "test", "trialIndex": 36, "score": 46.55, "costs": -6.449999999999999, "simulationMode": [null, null, null, null, null], "rewards": [-1, -1, -1, -8, 64], "path": ["0", "0", "23", "24", "25", "26", "29"], "rt": [14351, 118, 124, 333, 1053], "actions": ["left", "left", "left", "up", "left"], "actionTimes": [15940, 16559, 17183, 18009, 19562], "queries": {"click": {"state": {"target": ["33", "17", "29"], "time": [2734, 6237, 11108]}, "edge": {"target": [], "time": []}}, "mouseover": {"state": {"target": ["31", "30", "33", "12", "13", "17", "15", "16", "4", "5", "11", "27", "29"], "time": [2058, 2110, 2275, 3328, 3350, 3790, 7172, 7289, 9609, 10009, 10242, 10375, 10741]}, "edge": {"target": [], "time": []}}, "mouseout": {"state": {"target": ["5", "0", "31", "30", "33", "12", "13", "17", "15", "16", "4", "5", "11", "27", "29"], "time": [607, 2006, 2076, 2208, 3257, 3347, 3364, 7140, 7190, 7374, 9626, 10126, 10276, 10540, 11326]}, "edge": {"target": [], "time": []}}}, "displayed_time": "20.08", "trialTime": 24020, "trial_type": "mouselab-mdp", "trial_index": 43, "time_elapsed": 1408047, "internal_node_id": "0.0-6.0-1.0-34.0"}}, {"uniqueid": "w98499954:a87500205", "current_trial": 44, "dateTime": 1693390177867, "trialdata": {"revealed_states": [], "clicked_states": ["5"], "num_clicks_accrued": [0, 0, 0, 0, 0, 0, 0, 0, 0, 0, 0, 0, 0], "stateRewards": ["", -2, -3, 7, -13, 60, 9, 37, -6, 37, 20, 1, 2, -2, -8, 6, -80, -31, -10, -7, 70, -65, -44, -1, 1, 7, 6, -11, 73, -85, 16, -21, 47, 34], "withholdReward": false, "trial_id": "mdp_trial_36", "block": "test", "trialIndex": 37, "score": 46.85, "costs": -2.15, "simulationMode": [null, null, null, null, null], "rewards": [-2, -3, 7, -13, 60], "path": ["0", "0", "1", "2", "3", "4", "5"], "rt": [5716, 27, 128, 4, 582], "actions": ["up", "up", "up", "right", "up"], "actionTimes": [7178, 7715, 8365, 8892, 10001], "queries": {"click": {"state": {"target": ["5"], "time": [2987]}, "edge": {"target": [], "time": []}}, "mouseover": {"state": {"target": ["1", "2", "3", "5", "3", "8", "28", "24", "32"], "time": [2004, 2025, 2059, 2454, 3867, 3900, 4018, 4094, 4403]}, "edge": {"target": [], "time": []}}, "mouseout": {"state": {"target": ["29", "26", "28", "1", "2", "3", "5", "3", "8", "28", "24"], "time": [587, 637, 686, 2020, 2055, 2105, 3835, 3885, 3918, 4051, 4128]}, "edge": {"target": [], "time": []}}}, "displayed_time": "15.47", "trialTime": 18078, "trial_type": "mouselab-mdp", "trial_index": 44, "time_elapsed": 1426443, "internal_node_id": "0.0-6.0-1.0-35.0"}}, {"uniqueid": "w98499954:a87500205", "current_trial": 45, "dateTime": 1693390203581, "trialdata": {"revealed_states": [], "clicked_states": ["11", "6", "9", "32"], "num_clicks_accrued": [0, 0, 0, 0, 0, 0, 0, 0, 0, 0, 0, 0, 0], "stateRewards": ["", -1, 3, -5, -2, -13, -9, -34, -7, -81, 32, 35, -2, -2, 1, -14, -32, 81, 7, 4, 82, 56, -8, -1, 3, -8, 6, -24, -24, -53, 2, 38, 61, 54], "withholdReward": false, "trial_id": "mdp_trial_37", "block": "test", "trialIndex": 38, "score": 48.4, "costs": -8.6, "simulationMode": [null, null, null, null, null], "rewards": [-1, 3, -8, 2, 61], "path": ["0", "0", "23", "24", "25", "30", "32"], "rt": [18568, 143, 315, 351, 305], "actions": ["left", "left", "left", "down", "down"], "actionTimes": [20324, 20984, 21807, 22658, 23486], "queries": {"click": {"state": {"target": ["11", "6", "9", "32"], "time": [2959, 7496, 11750, 16063]}, "edge": {"target": [], "time": []}}, "mouseover": {"state": {"target": ["11", "8", "3", "4", "6", "4", "9", "8", "28", "24", "30", "32"], "time": [2604, 3705, 3741, 3789, 3837, 11093, 11373, 15226, 15276, 15340, 15506, 15705]}, "edge": {"target": [], "time": []}}, "mouseout": {"state": {"target": ["32", "0", "11", "11", "8", "3", "4", "6", "4", "9", "8", "28", "24", "30"], "time": [586, 2208, 3162, 3687, 3738, 3754, 3822, 11060, 11110, 15208, 15243, 15306, 15406, 15605]}, "edge": {"target": [], "time": []}}}, "displayed_time": "23.99", "trialTime": 25230, "trial_type": "mouselab-mdp", "trial_index": 45, "time_elapsed": 1452157, "internal_node_id": "0.0-6.0-1.0-36.0"}}, {"uniqueid": "w98499954:a87500205", "current_trial": 46, "dateTime": 1693390221206, "trialdata": {"revealed_states": [], "clicked_states": ["17", "29"], "num_clicks_accrued": [0, 0, 0, 0, 0, 0, 0, 0, 0, 0, 0, 0, 0], "stateRewards": ["", -1, -3, -7, -4, -85, -70, 79, 8, 84, -66, 42, 2, -2, -3, -16, -54, -66, 68, -3, 21, -14, 7, -2, -1, -3, -8, 75, 80, 86, -7, -84, 73, -16], "withholdReward": false, "trial_id": "mdp_trial_38", "block": "test", "trialIndex": 39, "score": 67.7, "costs": -4.3, "simulationMode": [null, null, null, null, null], "rewards": [-2, -1, -3, -8, 86], "path": ["0", "0", "23", "24", "25", "26", "29"], "rt": [8899, 232, 170, 428, 922], "actions": ["left", "left", "left", "up", "left"], "actionTimes": [10636, 11389, 12082, 13006, 14429], "queries": {"click": {"state": {"target": ["17", "29"], "time": [3316, 6683]}, "edge": {"target": [], "time": []}}, "mouseover": {"state": {"target": ["1", "4", "6", "17", "15", "23", "24", "29"], "time": [2308, 2395, 2476, 2858, 4580, 4672, 4691, 5539]}, "edge": {"target": [], "time": []}}, "mouseout": {"state": {"target": ["32", "0", "1", "4", "6", "17", "15", "23", "24"], "time": [725, 1338, 2324, 2426, 2510, 4578, 4606, 4689, 4705]}, "edge": {"target": [], "time": []}}}, "displayed_time": "15.75", "trialTime": 17288, "trial_type": "mouselab-mdp", "trial_index": 46, "time_elapsed": 1469782, "internal_node_id": "0.0-6.0-1.0-37.0"}}, {"uniqueid": "w98499954:a87500205", "current_trial": 47, "dateTime": 1693390241584, "trialdata": {"revealed_states": [], "clicked_states": ["6", "11", "21"], "num_clicks_accrued": [0, 0, 0, 0, 0, 0, 0, 0, 0, 0, 0, 0, 0], "stateRewards": ["", -2, 1, 6, -2, -10, -78, -69, 14, -15, 7, -1, 1, -1, -2, 13, 77, 32, 87, 5, -74, 30, -26, 1, 3, 4, 12, 39, 54, -43, 2, 10, 23, 13], "withholdReward": false, "trial_id": "mdp_trial_39", "block": "test", "trialIndex": 40, "score": 26.55, "costs": -6.449999999999999, "simulationMode": [null, null, null, null, null], "rewards": [1, -1, -2, 5, 30], "path": ["0", "0", "12", "13", "14", "19", "21"], "rt": [13476, 83, 153, 132, 49], "actions": ["right", "right", "right", "down", "down"], "actionTimes": [15036, 15643, 16295, 16931, 17498], "queries": {"click": {"state": {"target": ["6", "11", "21"], "time": [2970, 6317, 10552]}, "edge": {"target": [], "time": []}}, "mouseover": {"state": {"target": ["7", "4", "6", "4", "3", "8", "11", "9", "5", "18", "13", "21", "21"], "time": [2059, 2093, 2611, 3673, 3723, 3774, 3874, 7006, 7491, 9679, 9715, 9844, 10160]}, "edge": {"target": [], "time": []}}, "mouseout": {"state": {"target": ["29", "1", "1", "7", "4", "6", "4", "3", "8", "11", "9", "5", "18", "13", "21"], "time": [560, 824, 890, 2076, 2128, 3661, 3706, 3757, 3823, 6957, 7039, 9627, 9711, 9729, 9861]}, "edge": {"target": [], "time": []}}}, "displayed_time": "18.02", "trialTime": 19968, "trial_type": "mouselab-mdp", "trial_index": 47, "time_elapsed": 1490160, "internal_node_id": "0.0-6.0-1.0-38.0"}}, {"uniqueid": "w98499954:a87500205", "current_trial": 48, "dateTime": 1693390262358, "trialdata": {"revealed_states": [], "clicked_states": ["33"], "num_clicks_accrued": [0, 0, 0, 0, 0, 0, 0, 0, 0, 0, 0, 0, 0], "stateRewards": ["", -1, -4, -3, 1, -45, -67, -24, 14, 32, 22, 22, -1, 1, -5, -7, 72, 84, -79, -5, 19, -40, -2, -1, -2, 8, -3, 84, -25, -28, 11, 64, -66, 77], "withholdReward": false, "trial_id": "mdp_trial_40", "block": "test", "trialIndex": 41, "score": 90.85, "costs": -2.15, "simulationMode": [null, null, null, null, null], "rewards": [-1, -2, 8, 11, 77], "path": ["0", "0", "23", "24", "25", "30", "33"], "rt": [5308, 721, 244, 522, 201], "actions": ["left", "left", "left", "down", "left"], "actionTimes": [6995, 8237, 9001, 10020, 10744], "queries": {"click": {"state": {"target": ["33"], "time": [2976]}, "edge": {"target": [], "time": []}}, "mouseover": {"state": {"target": ["23", "33"], "time": [2075, 2580]}, "edge": {"target": [], "time": []}}, "mouseout": {"state": {"target": ["21", "23", "33", "26"], "time": [659, 2092, 3188, 19993]}, "edge": {"target": [], "time": []}}}, "displayed_time": "15.69", "trialTime": 20457, "trial_type": "mouselab-mdp", "trial_index": 48, "time_elapsed": 1510934, "internal_node_id": "0.0-6.0-1.0-39.0"}}, {"uniqueid": "w98499954:a87500205", "current_trial": 49, "dateTime": 1693390402480, "trialdata": {"rt": 140116, "response": {"Q0": "$-2 to $2", "Q1": "$-32 to $32", "Q2": "$-88 to $88", "Q3": "The cost for clicking on nodes varied between nodes.", "Q4": "Very motivated"}, "question_order": [0, 1, 2, 3, 4], "trial_id": "final_quiz_control", "trial_type": "survey-multi-choice", "trial_index": 49, "time_elapsed": 1651057, "internal_node_id": "0.0-6.0-2.0"}}, {"uniqueid": "w98499954:a87500205", "current_trial": 50, "dateTime": 1693390516145, "trialdata": {"rt": 113644, "response": {"Q0": "viewing the nods before making moves ", "Q1": "yes i realised i was losing then i started to view  the nods briefly for the 3 seconds at a fee", "Q2": "it was not difficult "}, "trial_id": "self_report_control", "trial_type": "survey-text", "trial_index": 50, "time_elapsed": 1764722, "internal_node_id": "0.0-6.0-3.0"}}, {"uniqueid": "w98499954:a87500205", "current_trial": 51, "dateTime": 1693390586232, "trialdata": {"rt": 70085, "response": {"Q0": "Neither disagree nor agree", "Q1": "Disagree", "Q2": "Agree", "Q3": "Strongly agree", "Q4": "Strongly disagree", "Q5": "Strongly agree", "Q6": "Strongly disagree"}, "question_order": [0, 1, 2, 3, 4, 5, 6], "trial_id": "self_report_2", "trial_type": "survey-multi-choice", "trial_index": 51, "time_elapsed": 1834809, "internal_node_id": "0.0-6.0-4.0"}}, {"uniqueid": "w98499954:a87500205", "current_trial": 52, "dateTime": 1693390622371, "trialdata": {"rt": 36126, "response": {"gender": "female", "age": "23", "colorblind": "0", "effort": "0"}, "trial_type": "survey-html-form", "trial_index": 52, "time_elapsed": 1870947, "internal_node_id": "0.0-6.0-5.0"}}, {"uniqueid": "w98499954:a87500205", "current_trial": 53, "dateTime": 1693390682573, "trialdata": {"rt": 60191, "response": {"Q0": "the rules were a bit confusing ", "Q1": "no i have not participated before ", "Q2": "no comments "}, "trial_type": "survey-text", "trial_index": 53, "time_elapsed": 1931150, "internal_node_id": "0.0-6.0-6.0"}}, {"uniqueid": "w98499954:a87500205", "current_trial": 54, "dateTime": 1693390737582, "trialdata": {"rt": 55003, "stimulus": "<h1>Completion Code Instructions (1/2)</h1>\n<br><br><br><br>\nYou have reached the end of the experiment! The completion code consists of two parts: (1) a code with 2 characters (2) a code with 6 characters. On this page, you will receive the second part of the code. The first part of the completion code will be on the next page.\n<br><br>\nThe second part of your completion code is: <b>EWEK22</b>\n<br><br>\nPlease note this down. Then, press 'Finish HIT' in order to find the first part of your completion code. Once the data has been saved, you will receive this code either in this window or in the original browser window where you started the experiment.\n", "response": 0, "trial_type": "html-button-response", "trial_index": 54, "time_elapsed": 1986159, "internal_node_id": "0.0-6.0-7.0"}}, {"uniqueid": "w98499954:a87500205", "current_trial": 55, "dateTime": 1693390738592, "trialdata": {"success": true, "trial_type": "fullscreen", "trial_index": 55, "time_elapsed": 1987169, "internal_node_id": "0.0-7.0"}}], "questiondata": {"params": {"CODE": "C6DMOQA6", "MIN_TIME": 14, "inspectCost": 1, "startTime": "Wed Aug 30 2023 11:45:48 GMT+0200 (South Africa Standard Time)", "bonusRate": 0.002, "variance": "1_2_4_8_44", "branching": "31123"}, "final_score": 979.6}, "eventdata": [{"eventtype": "initialized", "value": null, "timestamp": 1693388748200, "interval": 0}, {"eventtype": "window_resize", "value": [1028, 752], "timestamp": 1693388748200, "interval": 0}, {"eventtype": "window_resize", "value": [1028, 752], "timestamp": 1693388748737, "interval": 537}, {"eventtype": "window_resize", "value": [1536, 864], "timestamp": 1693388756259, "interval": 7522}, {"eventtype": "focus", "value": "off", "timestamp": 1693388813512, "interval": 57253}, {"eventtype": "focus", "value": "on", "timestamp": 1693388813816, "interval": 304}, {"eventtype": "window_resize", "value": [1028, 752], "timestamp": 1693390737847, "interval": 1924031}], "useragent": "Mozilla/5.0 (Windows NT 10.0; Win64; x64) AppleWebKit/537.36 (KHTML, like Gecko) Chrome/116.0.0.0 Safari/537.36", "mode": "live", "id": "w98499954:a87500205", "status": "user data saved", "Beginhit": "2023-08-30 09:45:44.622733", "Beginexp": "2023-08-30 09:45:57.715049", "Endhit": "2023-08-30 10:19:00.41019", "psiturkStatus": 3, "browser": "<redacted>", "platform": "windows", "language": "en-US"}