{"condition": 0, "counterbalance": 0, "assignmentId": "a70651082", "workerId": "w93034137", "hitId": "h73071452", "currenttrial": 55, "bonus": 0, "data": [{"uniqueid": "w93034137:a70651082", "current_trial": 0, "dateTime": 1693660758318, "trialdata": {"success": true, "trial_type": "fullscreen", "trial_index": 0, "time_elapsed": 3873, "internal_node_id": "0.0-0.0"}}, {"uniqueid": "w93034137:a70651082", "current_trial": 1, "dateTime": 1693660891645, "trialdata": {"view_history": [{"page_index": 0, "viewing_time": 133313}], "rt": 133315, "trial_id": "exp_instructions_control", "trial_type": "instructions", "trial_index": 1, "time_elapsed": 137201, "internal_node_id": "0.0-1.0"}}, {"uniqueid": "w93034137:a70651082", "current_trial": 2, "dateTime": 1693661092679, "trialdata": {"view_history": [{"page_index": 0, "viewing_time": 54650}, {"page_index": 1, "viewing_time": 50933}, {"page_index": 2, "viewing_time": 40943}, {"page_index": 3, "viewing_time": 54503}], "rt": 201030, "trial_id": "mouselab_instructions_1_control", "trial_type": "instructions", "trial_index": 2, "time_elapsed": 338235, "internal_node_id": "0.0-2.0-1.0"}}, {"uniqueid": "w93034137:a70651082", "current_trial": 3, "dateTime": 1693661112552, "trialdata": {"revealed_states": [], "clicked_states": [], "num_clicks_accrued": [0, 0, 0, 0, 0, 0, 0, 0, 0, 0, 0, 0, 0], "stateRewards": ["", -10, 10, -10, 10, -10, -10, -10, -10, 10, 10, -10, 10, -10, 10, 10, -10, 10, -10, 10, 10, -10, -10, 10, 10, -10, -10, 10, 10, 10, -10, -10, 10, -10], "withholdReward": false, "trial_id": "practice_1", "block": "test", "trialIndex": 0, "score": 13.5, "costs": 0, "simulationMode": [null, null, null, null, null], "rewards": [10, -10, 10, 10, -10], "path": ["0", "0", "12", "13", "14", "19", "21"], "rt": [1088, 343, 419, 303, 240], "actions": ["right", "right", "right", "down", "down"], "actionTimes": [8010, 8868, 9792, 10607, 11346], "queries": {"click": {"state": {"target": [], "time": []}, "edge": {"target": [], "time": []}}, "mouseover": {"state": {"target": [], "time": []}, "edge": {"target": [], "time": []}}, "mouseout": {"state": {"target": ["0"], "time": [16568]}, "edge": {"target": [], "time": []}}}, "displayed_time": "11.87", "trialTime": 18408, "trial_type": "mouselab-mdp", "trial_index": 3, "time_elapsed": 358107, "internal_node_id": "0.0-2.0-2.0-0.0"}}, {"uniqueid": "w93034137:a70651082", "current_trial": 4, "dateTime": 1693661126105, "trialdata": {"revealed_states": [], "clicked_states": [], "num_clicks_accrued": [0, 0, 0, 0, 0, 0, 0, 0, 0, 0, 0, 0, 0], "stateRewards": ["", 10, -10, 10, 10, -10, -10, -10, -10, 10, -10, -10, -10, 10, -10, -10, -10, 10, 10, -10, -10, -10, 10, -10, 10, 10, 10, 10, -10, 10, -10, -10, 10, 10], "withholdReward": false, "trial_id": "practice_2", "block": "test", "trialIndex": 1, "score": -6.5, "costs": 0, "simulationMode": [null, null, null, null, null], "rewards": [10, -10, 10, -10, -10], "path": ["0", "0", "1", "2", "3", "8", "11"], "rt": [1700, 181, 171, 649, 115], "actions": ["up", "up", "up", "left", "left"], "actionTimes": [4023, 4729, 5453, 6597, 7247], "queries": {"click": {"state": {"target": [], "time": []}, "edge": {"target": [], "time": []}}, "mouseover": {"state": {"target": [], "time": []}, "edge": {"target": [], "time": []}}, "mouseout": {"state": {"target": [], "time": []}, "edge": {"target": [], "time": []}}}, "displayed_time": "7.78", "trialTime": 12765, "trial_type": "mouselab-mdp", "trial_index": 4, "time_elapsed": 371660, "internal_node_id": "0.0-2.0-2.0-1.0"}}, {"uniqueid": "w93034137:a70651082", "current_trial": 5, "dateTime": 1693661320802, "trialdata": {"view_history": [{"page_index": 0, "viewing_time": 180412}, {"page_index": 1, "viewing_time": 14279}], "rt": 194692, "trial_id": "mouselab_instructions_2_control", "trial_type": "instructions", "trial_index": 5, "time_elapsed": 566358, "internal_node_id": "0.0-2.0-3.0"}}, {"uniqueid": "w93034137:a70651082", "current_trial": 6, "dateTime": 1693661358595, "trialdata": {"rt": 37786, "response": {"Q0": "The cost for clicking on nodes may vary between nodes.", "Q1": "The better I perform the higher my bonus will be.", "Q2": "No, the amount of cash at each node of the web may be different each time.", "Q3": "To get the highest total score.", "Q4": "Only before moving the spider.", "Q5": "3 seconds"}, "question_order": [0, 1, 2, 3, 4, 5], "correct": {"Q0": "The cost for clicking on nodes may vary between nodes.", "Q1": "The better I perform the higher my bonus will be.", "Q2": "No, the amount of cash at each node of the web may be different each time.", "Q3": "To get the highest total score.", "Q4": "Only before moving the spider.", "Q5": "3 seconds"}, "trial_id": "mouselab_quiz_control", "trial_type": "survey-multi-choice", "trial_index": 6, "time_elapsed": 604151, "internal_node_id": "0.0-2.0-4.0"}}, {"uniqueid": "w93034137:a70651082", "current_trial": 7, "dateTime": 1693661365277, "trialdata": {"rt": 6645, "response": {"Q0": "No"}, "question_order": [0], "trial_id": "repeat_check", "trial_type": "survey-multi-choice", "trial_index": 7, "time_elapsed": 610833, "internal_node_id": "0.0-4.0-0.0"}}, {"uniqueid": "w93034137:a70651082", "current_trial": 8, "dateTime": 1693661388444, "trialdata": {"rt": 23157, "stimulus": "\n<h1> Get ready to start the game! </h1>\n\nThank you for reading the instructions. Get ready start with the 40 rounds of this game.\n<br><br>\nIf you need to take a break, feel free to take one after the end of a round, before continuing to the next one.\n<br><br>\nRemember, the more money the spider gets, the bigger your bonus will be!\n<br><br>\n<div style='text-align: center;'>Press <code>space</code> to begin.</div>\n\n<br><br>\n(If, at any point, the <code>space</code> key does not take you to the next page, click once on the text and try again.)", "response": " ", "trial_id": "mdp_ready", "trial_type": "html-keyboard-response", "trial_index": 8, "time_elapsed": 633999, "internal_node_id": "0.0-6.0-0.0"}}, {"uniqueid": "w93034137:a70651082", "current_trial": 9, "dateTime": 1693661407508, "trialdata": {"revealed_states": [], "clicked_states": [], "num_clicks_accrued": [0, 0, 0, 0, 0, 0, 0, 0, 0, 0, 0, 0, 0], "stateRewards": ["", -2, -1, -3, -1, -78, -6, 2, -1, 22, -88, 32, 2, 2, -7, -8, -51, -17, 54, 2, -44, 54, 75, 2, -2, -8, -15, -29, 12, -67, 15, -1, -47, -47], "withholdReward": false, "trial_id": "mdp_trial_1", "block": "test", "trialIndex": 2, "score": -13, "costs": 0, "simulationMode": [null, null, null, null, null], "rewards": [-2, -1, -3, -1, -6], "path": ["0", "0", "1", "2", "3", "4", "6"], "rt": [788, 369, 217, 441, 83], "actions": ["up", "up", "up", "right", "right"], "actionTimes": [2742, 3628, 4361, 5317, 5918], "queries": {"click": {"state": {"target": [], "time": []}, "edge": {"target": [], "time": []}}, "mouseover": {"state": {"target": [], "time": []}, "edge": {"target": [], "time": []}}, "mouseout": {"state": {"target": ["0", "0"], "time": [1087, 7989]}, "edge": {"target": [], "time": []}}}, "displayed_time": "15.96", "trialTime": 18525, "trial_type": "mouselab-mdp", "trial_index": 9, "time_elapsed": 653064, "internal_node_id": "0.0-6.0-1.0-0.0"}}, {"uniqueid": "w93034137:a70651082", "current_trial": 10, "dateTime": 1693661425686, "trialdata": {"revealed_states": [], "clicked_states": [], "num_clicks_accrued": [0, 0, 0, 0, 0, 0, 0, 0, 0, 0, 0, 0, 0], "stateRewards": ["", 1, 4, -4, 14, 35, 51, 19, -13, 54, 78, -74, -2, -1, -3, 13, -11, -42, -73, -15, -24, -3, -69, 2, -1, 5, 16, -27, 73, 58, 9, -60, 5, -60], "withholdReward": false, "trial_id": "mdp_trial_2", "block": "test", "trialIndex": 3, "score": -24, "costs": 0, "simulationMode": [null, null, null, null, null], "rewards": [-2, -1, -3, -15, -3], "path": ["0", "0", "12", "13", "14", "19", "21"], "rt": [1249, 167, 190, 361, 125], "actions": ["right", "right", "right", "down", "down"], "actionTimes": [2499, 3190, 3899, 4783, 5414], "queries": {"click": {"state": {"target": [], "time": []}, "edge": {"target": [], "time": []}}, "mouseover": {"state": {"target": [], "time": []}, "edge": {"target": [], "time": []}}, "mouseout": {"state": {"target": ["0", "0"], "time": [823, 7651]}, "edge": {"target": [], "time": []}}}, "displayed_time": "15.25", "trialTime": 17632, "trial_type": "mouselab-mdp", "trial_index": 10, "time_elapsed": 671241, "internal_node_id": "0.0-6.0-1.0-1.0"}}, {"uniqueid": "w93034137:a70651082", "current_trial": 11, "dateTime": 1693661445156, "trialdata": {"revealed_states": [], "clicked_states": [], "num_clicks_accrued": [0, 0, 0, 0, 0, 0, 0, 0, 0, 0, 0, 0, 0], "stateRewards": ["", 2, 4, 7, 7, -79, -2, -21, -5, -53, 47, -21, 1, -3, -1, 7, 83, 7, 84, -7, 80, -37, 69, 2, -4, 5, 2, 4, -20, -30, 7, 71, 44, -81], "withholdReward": false, "trial_id": "mdp_trial_3", "block": "test", "trialIndex": 4, "score": 18, "costs": 0, "simulationMode": [null, null, null, null, null], "rewards": [2, 4, 7, 7, -2], "path": ["0", "0", "1", "2", "3", "4", "6"], "rt": [1127, 477, 259, 568, 134], "actions": ["up", "up", "up", "right", "right"], "actionTimes": [2923, 3922, 4703, 5795, 6447], "queries": {"click": {"state": {"target": [], "time": []}, "edge": {"target": [], "time": []}}, "mouseover": {"state": {"target": [], "time": []}, "edge": {"target": [], "time": []}}, "mouseout": {"state": {"target": ["0", "0"], "time": [937, 8624]}, "edge": {"target": [], "time": []}}}, "displayed_time": "15.80", "trialTime": 18910, "trial_type": "mouselab-mdp", "trial_index": 11, "time_elapsed": 690711, "internal_node_id": "0.0-6.0-1.0-2.0"}}, {"uniqueid": "w93034137:a70651082", "current_trial": 12, "dateTime": 1693661465744, "trialdata": {"revealed_states": [], "clicked_states": [], "num_clicks_accrued": [0, 0, 0, 0, 0, 0, 0, 0, 0, 0, 0, 0, 0], "stateRewards": ["", 2, -1, -1, 7, 11, -40, -22, -2, 69, 37, 8, -2, 4, -8, -12, -2, -72, -3, -12, 17, 63, 12, 1, 3, -7, 6, 25, 61, 61, -9, 28, -17, 27], "withholdReward": false, "trial_id": "mdp_trial_4", "block": "test", "trialIndex": 5, "score": 6, "costs": 0, "simulationMode": [null, null, null, null, null], "rewards": [2, -1, -1, -2, 8], "path": ["0", "0", "1", "2", "3", "8", "11"], "rt": [1133, 109, 1417, 45, 54], "actions": ["up", "up", "up", "left", "left"], "actionTimes": [3990, 4625, 6565, 7126, 7720], "queries": {"click": {"state": {"target": [], "time": []}, "edge": {"target": [], "time": []}}, "mouseover": {"state": {"target": [], "time": []}, "edge": {"target": [], "time": []}}, "mouseout": {"state": {"target": ["0", "0"], "time": [2380, 9567]}, "edge": {"target": [], "time": []}}}, "displayed_time": "16.86", "trialTime": 19937, "trial_type": "mouselab-mdp", "trial_index": 12, "time_elapsed": 711300, "internal_node_id": "0.0-6.0-1.0-3.0"}}, {"uniqueid": "w93034137:a70651082", "current_trial": 13, "dateTime": 1693661486111, "trialdata": {"revealed_states": [], "clicked_states": [], "num_clicks_accrued": [0, 0, 0, 0, 0, 0, 0, 0, 0, 0, 0, 0, 0], "stateRewards": ["", 1, -3, -4, -11, -56, 61, -47, -16, -28, -9, 69, -2, -3, -4, -8, 40, -86, 59, -4, 80, 27, 54, -1, 3, -1, 8, 67, 23, 50, 6, 83, -43, -29], "withholdReward": false, "trial_id": "mdp_trial_5", "block": "test", "trialIndex": 6, "score": 14, "costs": 0, "simulationMode": [null, null, null, null, null], "rewards": [-2, -3, -4, -4, 27], "path": ["0", "0", "12", "13", "14", "19", "21"], "rt": [6459, 759, 286, 286, 135], "actions": ["right", "right", "right", "down", "down"], "actionTimes": [8124, 9413, 10195, 10995, 11644], "queries": {"click": {"state": {"target": [], "time": []}, "edge": {"target": [], "time": []}}, "mouseover": {"state": {"target": [], "time": []}, "edge": {"target": [], "time": []}}, "mouseout": {"state": {"target": ["0", "23"], "time": [1028, 17323]}, "edge": {"target": [], "time": []}}}, "displayed_time": "15.67", "trialTime": 19649, "trial_type": "mouselab-mdp", "trial_index": 13, "time_elapsed": 731667, "internal_node_id": "0.0-6.0-1.0-4.0"}}, {"uniqueid": "w93034137:a70651082", "current_trial": 14, "dateTime": 1693661505650, "trialdata": {"revealed_states": [], "clicked_states": [], "num_clicks_accrued": [0, 0, 0, 0, 0, 0, 0, 0, 0, 0, 0, 0, 0], "stateRewards": ["", 2, 3, -6, -5, -3, 55, 40, 11, 61, 11, 51, 2, -4, -6, 9, -25, 29, -15, -6, 7, -77, -2, -2, -4, 1, 14, -43, -1, 56, -12, -54, 41, -74], "withholdReward": false, "trial_id": "mdp_trial_6", "block": "test", "trialIndex": 7, "score": 24, "costs": 0, "simulationMode": [null, null, null, null, null], "rewards": [-2, -4, 1, -12, 41], "path": ["0", "0", "23", "24", "25", "30", "32"], "rt": [1436, 124, 128, 337, 563], "actions": ["left", "left", "left", "down", "down"], "actionTimes": [3684, 4331, 4982, 5845, 6935], "queries": {"click": {"state": {"target": [], "time": []}, "edge": {"target": [], "time": []}}, "mouseover": {"state": {"target": [], "time": []}, "edge": {"target": [], "time": []}}, "mouseout": {"state": {"target": ["0", "0"], "time": [1433, 11201]}, "edge": {"target": [], "time": []}}}, "displayed_time": "16.29", "trialTime": 18718, "trial_type": "mouselab-mdp", "trial_index": 14, "time_elapsed": 751206, "internal_node_id": "0.0-6.0-1.0-5.0"}}, {"uniqueid": "w93034137:a70651082", "current_trial": 15, "dateTime": 1693661525759, "trialdata": {"revealed_states": [], "clicked_states": [], "num_clicks_accrued": [0, 0, 0, 0, 0, 0, 0, 0, 0, 0, 0, 0, 0], "stateRewards": ["", -2, 3, 8, -9, 59, 41, -50, -1, 82, 66, 33, 2, -2, 7, 8, 1, -38, 12, -16, 24, -37, 67, 1, 4, -2, 5, 35, -83, 28, 8, -27, 69, -64], "withholdReward": false, "trial_id": "mdp_trial_7", "block": "test", "trialIndex": 8, "score": 41, "costs": 0, "simulationMode": [null, null, null, null, null], "rewards": [-2, 3, 8, -1, 33], "path": ["0", "0", "1", "2", "3", "8", "11"], "rt": [1379, 308, 158, 186, 108], "actions": ["up", "up", "up", "left", "left"], "actionTimes": [4290, 5124, 5807, 6518, 7140], "queries": {"click": {"state": {"target": [], "time": []}, "edge": {"target": [], "time": []}}, "mouseover": {"state": {"target": [], "time": []}, "edge": {"target": [], "time": []}}, "mouseout": {"state": {"target": ["0", "0"], "time": [2423, 14265]}, "edge": {"target": [], "time": []}}}, "displayed_time": "16.91", "trialTime": 19139, "trial_type": "mouselab-mdp", "trial_index": 15, "time_elapsed": 771315, "internal_node_id": "0.0-6.0-1.0-6.0"}}, {"uniqueid": "w93034137:a70651082", "current_trial": 16, "dateTime": 1693661545043, "trialdata": {"revealed_states": [], "clicked_states": [], "num_clicks_accrued": [0, 0, 0, 0, 0, 0, 0, 0, 0, 0, 0, 0, 0], "stateRewards": ["", -1, 2, 5, -6, 13, -64, -47, 8, -79, -80, -33, 1, 2, -2, -16, 56, -71, -10, 3, 29, 44, 85, -1, 4, 5, 4, -36, -56, 19, 8, 52, -13, -2], "withholdReward": false, "trial_id": "mdp_trial_8", "block": "test", "trialIndex": 9, "score": -64, "costs": 0, "simulationMode": [null, null, null, null, null], "rewards": [-1, 2, 5, -6, -64], "path": ["0", "0", "1", "2", "3", "4", "6"], "rt": [916, 98, 72, 404, 20], "actions": ["up", "up", "up", "right", "right"], "actionTimes": [2685, 3288, 3873, 4792, 5325], "queries": {"click": {"state": {"target": [], "time": []}, "edge": {"target": [], "time": []}}, "mouseover": {"state": {"target": [], "time": []}, "edge": {"target": [], "time": []}}, "mouseout": {"state": {"target": ["0", "0"], "time": [1171, 7751]}, "edge": {"target": [], "time": []}}}, "displayed_time": "15.77", "trialTime": 18546, "trial_type": "mouselab-mdp", "trial_index": 16, "time_elapsed": 790599, "internal_node_id": "0.0-6.0-1.0-7.0"}}, {"uniqueid": "w93034137:a70651082", "current_trial": 17, "dateTime": 1693661572151, "trialdata": {"revealed_states": [], "clicked_states": [], "num_clicks_accrued": [0, 0, 0, 0, 0, 0, 0, 0, 0, 0, 0, 0, 0], "stateRewards": ["", -1, 3, 8, 9, -53, 20, -84, 2, -28, -62, -31, -1, -2, -7, 2, 51, 58, 45, -4, -17, -41, 36, 2, -2, -7, -15, 29, -54, -37, -16, -43, 65, -17], "withholdReward": false, "trial_id": "mdp_trial_9", "block": "test", "trialIndex": 10, "score": 42, "costs": 0, "simulationMode": [null, null, null, null, null], "rewards": [2, -2, -7, -16, 65], "path": ["0", "0", "23", "24", "25", "30", "32"], "rt": [1569, 74, 140, 457, 185], "actions": ["left", "left", "left", "down", "down"], "actionTimes": [3189, 3789, 4456, 5423, 6132], "queries": {"click": {"state": {"target": [], "time": []}, "edge": {"target": [], "time": []}}, "mouseover": {"state": {"target": [], "time": []}, "edge": {"target": [], "time": []}}, "mouseout": {"state": {"target": ["0", "0"], "time": [1063, 25845]}, "edge": {"target": [], "time": []}}}, "displayed_time": "15.62", "trialTime": 26315, "trial_type": "mouselab-mdp", "trial_index": 17, "time_elapsed": 817707, "internal_node_id": "0.0-6.0-1.0-8.0"}}, {"uniqueid": "w93034137:a70651082", "current_trial": 18, "dateTime": 1693661591419, "trialdata": {"revealed_states": [], "clicked_states": [], "num_clicks_accrued": [0, 0, 0, 0, 0, 0, 0, 0, 0, 0, 0, 0, 0], "stateRewards": ["", 1, -1, 8, 4, 76, -33, -17, -3, -1, -54, -74, -2, 2, -5, 13, -51, 63, 83, 1, 84, 29, -36, 2, -1, 7, -12, -10, -44, -43, -14, 8, -69, 19], "withholdReward": false, "trial_id": "mdp_trial_10", "block": "test", "trialIndex": 11, "score": 25, "costs": 0, "simulationMode": [null, null, null, null, null], "rewards": [-2, 2, -5, 1, 29], "path": ["0", "0", "12", "13", "14", "19", "21"], "rt": [1624, 80, 146, 169, 96], "actions": ["right", "right", "right", "down", "down"], "actionTimes": [2985, 3592, 4249, 4939, 5549], "queries": {"click": {"state": {"target": [], "time": []}, "edge": {"target": [], "time": []}}, "mouseover": {"state": {"target": [], "time": []}, "edge": {"target": [], "time": []}}, "mouseout": {"state": {"target": ["0", "0"], "time": [891, 8999]}, "edge": {"target": [], "time": []}}}, "displayed_time": "15.36", "trialTime": 18371, "trial_type": "mouselab-mdp", "trial_index": 18, "time_elapsed": 836974, "internal_node_id": "0.0-6.0-1.0-9.0"}}, {"uniqueid": "w93034137:a70651082", "current_trial": 19, "dateTime": 1693661610697, "trialdata": {"revealed_states": [], "clicked_states": [], "num_clicks_accrued": [0, 0, 0, 0, 0, 0, 0, 0, 0, 0, 0, 0, 0], "stateRewards": ["", 1, -3, -6, -5, 47, 80, -29, 11, -71, 10, -29, -2, 3, -6, 12, 2, -78, -6, 8, 34, -16, -5, -1, 3, 3, -13, 84, -36, -62, -3, -27, 66, 15], "withholdReward": false, "trial_id": "mdp_trial_11", "block": "test", "trialIndex": 12, "score": -26, "costs": 0, "simulationMode": [null, null, null, null, null], "rewards": [1, -3, -6, 11, -29], "path": ["0", "0", "1", "2", "3", "8", "11"], "rt": [602, 657, 159, 242, 101], "actions": ["up", "up", "up", "left", "left"], "actionTimes": [2706, 3896, 4566, 5332, 5957], "queries": {"click": {"state": {"target": [], "time": []}, "edge": {"target": [], "time": []}}, "mouseover": {"state": {"target": [], "time": []}, "edge": {"target": [], "time": []}}, "mouseout": {"state": {"target": ["0", "0", "12", "22"], "time": [1343, 11853, 11919, 12036]}, "edge": {"target": [], "time": []}}}, "displayed_time": "16.11", "trialTime": 18271, "trial_type": "mouselab-mdp", "trial_index": 19, "time_elapsed": 856252, "internal_node_id": "0.0-6.0-1.0-10.0"}}, {"uniqueid": "w93034137:a70651082", "current_trial": 20, "dateTime": 1693661631031, "trialdata": {"revealed_states": [], "clicked_states": [], "num_clicks_accrued": [0, 0, 0, 0, 0, 0, 0, 0, 0, 0, 0, 0, 0], "stateRewards": ["", 2, -1, -4, -13, 74, 77, 3, 2, -43, -2, -11, 2, 3, 7, 11, -26, -29, -33, -3, -3, -13, -3, 1, 3, -7, 14, -59, 33, 9, -5, 34, 79, 68], "withholdReward": false, "trial_id": "mdp_trial_12", "block": "test", "trialIndex": 13, "score": 61, "costs": 0, "simulationMode": [null, null, null, null, null], "rewards": [2, -1, -4, -13, 77], "path": ["0", "0", "1", "2", "3", "4", "6"], "rt": [1097, 134, 255, 575, 30], "actions": ["up", "up", "up", "right", "right"], "actionTimes": [3871, 4529, 5313, 6400, 6961], "queries": {"click": {"state": {"target": [], "time": []}, "edge": {"target": [], "time": []}}, "mouseover": {"state": {"target": [], "time": []}, "edge": {"target": [], "time": []}}, "mouseout": {"state": {"target": ["12", "0"], "time": [1254, 11805]}, "edge": {"target": [], "time": []}}}, "displayed_time": "16.99", "trialTime": 19457, "trial_type": "mouselab-mdp", "trial_index": 20, "time_elapsed": 876586, "internal_node_id": "0.0-6.0-1.0-11.0"}}, {"uniqueid": "w93034137:a70651082", "current_trial": 21, "dateTime": 1693661649152, "trialdata": {"revealed_states": [], "clicked_states": [], "num_clicks_accrued": [0, 0, 0, 0, 0, 0, 0, 0, 0, 0, 0, 0, 0], "stateRewards": ["", 1, -1, -7, -7, -22, 15, -13, 13, 26, -32, 38, -1, 1, -7, -4, 16, -62, 86, 12, -54, 56, 64, -2, -1, 6, 14, -57, 37, 62, -6, -25, 50, -70], "withholdReward": false, "trial_id": "mdp_trial_13", "block": "test", "trialIndex": 14, "score": 47, "costs": 0, "simulationMode": [null, null, null, null, null], "rewards": [-2, -1, 6, -6, 50], "path": ["0", "0", "23", "24", "25", "30", "32"], "rt": [1312, 171, 117, 264, 8], "actions": ["left", "left", "left", "down", "down"], "actionTimes": [2892, 3594, 4239, 5017, 5545], "queries": {"click": {"state": {"target": [], "time": []}, "edge": {"target": [], "time": []}}, "mouseover": {"state": {"target": [], "time": []}, "edge": {"target": [], "time": []}}, "mouseout": {"state": {"target": ["0"], "time": [7183]}, "edge": {"target": [], "time": []}}}, "displayed_time": "15.74", "trialTime": 17224, "trial_type": "mouselab-mdp", "trial_index": 21, "time_elapsed": 894708, "internal_node_id": "0.0-6.0-1.0-12.0"}}, {"uniqueid": "w93034137:a70651082", "current_trial": 22, "dateTime": 1693661667077, "trialdata": {"revealed_states": [], "clicked_states": [], "num_clicks_accrued": [0, 0, 0, 0, 0, 0, 0, 0, 0, 0, 0, 0, 0], "stateRewards": ["", -2, -3, -5, 8, 27, 11, 43, -6, -24, -87, 69, -2, 1, 1, 9, 19, 48, -37, 9, -14, 45, 62, 1, 2, 1, 16, -81, -41, 22, 4, -6, -63, 47], "withholdReward": false, "trial_id": "mdp_trial_14", "block": "test", "trialIndex": 15, "score": 53, "costs": 0, "simulationMode": [null, null, null, null, null], "rewards": [-2, -3, -5, -6, 69], "path": ["0", "0", "1", "2", "3", "8", "11"], "rt": [439, 208, 116, 243, 75], "actions": ["up", "up", "up", "left", "left"], "actionTimes": [1755, 2473, 3096, 3857, 4454], "queries": {"click": {"state": {"target": [], "time": []}, "edge": {"target": [], "time": []}}, "mouseover": {"state": {"target": [], "time": []}, "edge": {"target": [], "time": []}}, "mouseout": {"state": {"target": ["0"], "time": [7761]}, "edge": {"target": [], "time": []}}}, "displayed_time": "15.32", "trialTime": 16976, "trial_type": "mouselab-mdp", "trial_index": 22, "time_elapsed": 912632, "internal_node_id": "0.0-6.0-1.0-13.0"}}, {"uniqueid": "w93034137:a70651082", "current_trial": 23, "dateTime": 1693661686213, "trialdata": {"revealed_states": [], "clicked_states": [], "num_clicks_accrued": [0, 0, 0, 0, 0, 0, 0, 0, 0, 0, 0, 0, 0], "stateRewards": ["", 1, -2, -8, -3, 31, -84, -55, -14, 15, -58, 17, -2, -3, 7, 7, -12, 48, 67, 4, -44, -68, 46, 2, 3, -5, -7, 76, 27, 5, 11, 57, 52, 59], "withholdReward": false, "trial_id": "mdp_trial_15", "block": "test", "trialIndex": 16, "score": 63, "costs": 0, "simulationMode": [null, null, null, null, null], "rewards": [2, 3, -5, 11, 52], "path": ["0", "0", "23", "24", "25", "30", "32"], "rt": [1244, 183, 142, 107, 134], "actions": ["left", "left", "left", "down", "down"], "actionTimes": [2896, 3603, 4261, 4892, 5553], "queries": {"click": {"state": {"target": [], "time": []}, "edge": {"target": [], "time": []}}, "mouseover": {"state": {"target": [], "time": []}, "edge": {"target": [], "time": []}}, "mouseout": {"state": {"target": ["0"], "time": [8282]}, "edge": {"target": [], "time": []}}}, "displayed_time": "15.65", "trialTime": 18051, "trial_type": "mouselab-mdp", "trial_index": 23, "time_elapsed": 931769, "internal_node_id": "0.0-6.0-1.0-14.0"}}, {"uniqueid": "w93034137:a70651082", "current_trial": 24, "dateTime": 1693661703660, "trialdata": {"revealed_states": [], "clicked_states": [], "num_clicks_accrued": [0, 0, 0, 0, 0, 0, 0, 0, 0, 0, 0, 0, 0], "stateRewards": ["", -1, -4, -3, 1, -45, -67, -24, 14, 32, 22, 22, -1, 1, -5, -7, 72, 84, -79, -5, 19, -40, -2, -1, -2, 8, -3, 84, -25, -28, 11, 64, -66, 77], "withholdReward": false, "trial_id": "mdp_trial_16", "block": "test", "trialIndex": 17, "score": 28, "costs": 0, "simulationMode": [null, null, null, null, null], "rewards": [-1, -4, -3, 14, 22], "path": ["0", "0", "1", "2", "3", "8", "11"], "rt": [895, 48, 165, 139, 62], "actions": ["up", "up", "up", "left", "left"], "actionTimes": [2288, 2839, 3545, 4226, 4804], "queries": {"click": {"state": {"target": [], "time": []}, "edge": {"target": [], "time": []}}, "mouseover": {"state": {"target": [], "time": []}, "edge": {"target": [], "time": []}}, "mouseout": {"state": {"target": ["0"], "time": [9767]}, "edge": {"target": [], "time": []}}}, "displayed_time": "15.39", "trialTime": 16484, "trial_type": "mouselab-mdp", "trial_index": 24, "time_elapsed": 949215, "internal_node_id": "0.0-6.0-1.0-15.0"}}, {"uniqueid": "w93034137:a70651082", "current_trial": 25, "dateTime": 1693661722538, "trialdata": {"revealed_states": [], "clicked_states": [], "num_clicks_accrued": [0, 0, 0, 0, 0, 0, 0, 0, 0, 0, 0, 0, 0], "stateRewards": ["", 2, 4, 4, 9, -88, -10, 44, 16, -54, 64, 78, 1, 2, 5, 16, 80, 36, 7, -4, 9, -47, -70, -1, -3, 6, -16, 11, 80, 28, 8, -1, 34, -17], "withholdReward": false, "trial_id": "mdp_trial_17", "block": "test", "trialIndex": 18, "score": -43, "costs": 0, "simulationMode": [null, null, null, null, null], "rewards": [1, 2, 5, -4, -47], "path": ["0", "0", "12", "13", "14", "19", "21"], "rt": [1266, 672, 184, 254, 254], "actions": ["right", "right", "right", "down", "down"], "actionTimes": [3119, 4324, 5053, 5819, 6569], "queries": {"click": {"state": {"target": [], "time": []}, "edge": {"target": [], "time": []}}, "mouseover": {"state": {"target": [], "time": []}, "edge": {"target": [], "time": []}}, "mouseout": {"state": {"target": ["0"], "time": [10712]}, "edge": {"target": [], "time": []}}}, "displayed_time": "15.93", "trialTime": 16942, "trial_type": "mouselab-mdp", "trial_index": 25, "time_elapsed": 968093, "internal_node_id": "0.0-6.0-1.0-16.0"}}, {"uniqueid": "w93034137:a70651082", "current_trial": 26, "dateTime": 1693661744769, "trialdata": {"revealed_states": [], "clicked_states": [], "num_clicks_accrued": [0, 0, 0, 0, 0, 0, 0, 0, 0, 0, 0, 0, 0], "stateRewards": ["", -1, -2, -1, -10, -57, 73, -72, -16, 75, -14, -46, -2, -3, -7, -1, -61, -60, 76, -4, 50, 4, 14, 2, 2, -7, 12, -65, -32, 15, -8, -76, -25, -61], "withholdReward": false, "trial_id": "mdp_trial_18", "block": "test", "trialIndex": 19, "score": 59, "costs": 0, "simulationMode": [null, null, null, null, null], "rewards": [-1, -2, -1, -10, 73], "path": ["0", "0", "1", "2", "3", "4", "6"], "rt": [849, 82, 136, 328, 208], "actions": ["up", "up", "up", "right", "right"], "actionTimes": [3170, 3783, 4439, 5297, 6010], "queries": {"click": {"state": {"target": [], "time": []}, "edge": {"target": [], "time": []}}, "mouseover": {"state": {"target": [], "time": []}, "edge": {"target": [], "time": []}}, "mouseout": {"state": {"target": ["0"], "time": [9848]}, "edge": {"target": [], "time": []}}}, "displayed_time": "16.32", "trialTime": 21010, "trial_type": "mouselab-mdp", "trial_index": 26, "time_elapsed": 990324, "internal_node_id": "0.0-6.0-1.0-17.0"}}, {"uniqueid": "w93034137:a70651082", "current_trial": 27, "dateTime": 1693661763034, "trialdata": {"revealed_states": [], "clicked_states": [], "num_clicks_accrued": [0, 0, 0, 0, 0, 0, 0, 0, 0, 0, 0, 0, 0], "stateRewards": ["", 2, 4, -3, 16, -58, 30, -35, 11, -60, 47, 27, -2, -1, -7, -16, 23, -70, 68, -10, -65, -43, -34, -2, 1, 7, 9, -63, 34, -31, -8, -12, -86, 59], "withholdReward": false, "trial_id": "mdp_trial_19", "block": "test", "trialIndex": 20, "score": -63, "costs": 0, "simulationMode": [null, null, null, null, null], "rewards": [-2, -1, -7, -10, -43], "path": ["0", "0", "12", "13", "14", "19", "21"], "rt": [1124, 165, 168, 598, 179], "actions": ["right", "right", "right", "down", "down"], "actionTimes": [3148, 3830, 4499, 5760, 6459], "queries": {"click": {"state": {"target": [], "time": []}, "edge": {"target": [], "time": []}}, "mouseover": {"state": {"target": [], "time": []}, "edge": {"target": [], "time": []}}, "mouseout": {"state": {"target": ["0"], "time": [10109]}, "edge": {"target": [], "time": []}}}, "displayed_time": "16.03", "trialTime": 17171, "trial_type": "mouselab-mdp", "trial_index": 27, "time_elapsed": 1008589, "internal_node_id": "0.0-6.0-1.0-18.0"}}, {"uniqueid": "w93034137:a70651082", "current_trial": 28, "dateTime": 1693661782333, "trialdata": {"revealed_states": [], "clicked_states": [], "num_clicks_accrued": [0, 0, 0, 0, 0, 0, 0, 0, 0, 0, 0, 0, 0], "stateRewards": ["", 1, -2, -8, -13, 4, 34, -84, -4, -49, 88, -70, -1, 3, -4, 10, -77, 13, -34, 15, -21, -16, 27, 1, -2, 8, -8, -6, 38, -26, 6, -15, 66, -3], "withholdReward": false, "trial_id": "mdp_trial_20", "block": "test", "trialIndex": 21, "score": 79, "costs": 0, "simulationMode": [null, null, null, null, null], "rewards": [1, -2, 8, 6, 66], "path": ["0", "0", "23", "24", "25", "30", "32"], "rt": [1038, 86, 142, 131, 57], "actions": ["left", "left", "left", "down", "down"], "actionTimes": [3902, 4504, 5161, 5820, 6429], "queries": {"click": {"state": {"target": [], "time": []}, "edge": {"target": [], "time": []}}, "mouseover": {"state": {"target": [], "time": []}, "edge": {"target": [], "time": []}}, "mouseout": {"state": {"target": ["0"], "time": [13464]}, "edge": {"target": [], "time": []}}}, "displayed_time": "16.86", "trialTime": 18160, "trial_type": "mouselab-mdp", "trial_index": 28, "time_elapsed": 1027889, "internal_node_id": "0.0-6.0-1.0-19.0"}}, {"uniqueid": "w93034137:a70651082", "current_trial": 29, "dateTime": 1693661800510, "trialdata": {"revealed_states": [], "clicked_states": [], "num_clicks_accrued": [0, 0, 0, 0, 0, 0, 0, 0, 0, 0, 0, 0, 0], "stateRewards": ["", 1, 1, -5, 8, -6, 45, 16, -6, -7, -22, -38, -1, -4, 8, -11, -16, 21, -45, -15, -59, -32, 42, -1, 3, 6, 11, -7, 34, -27, -8, 85, 43, -9], "withholdReward": false, "trial_id": "mdp_trial_21", "block": "test", "trialIndex": 22, "score": -47, "costs": 0, "simulationMode": [null, null, null, null, null], "rewards": [1, 1, -5, -6, -38], "path": ["0", "0", "1", "2", "3", "8", "11"], "rt": [1005, 44, 100, 509, 103], "actions": ["up", "up", "up", "left", "left"], "actionTimes": [2964, 3536, 4177, 5201, 5844], "queries": {"click": {"state": {"target": [], "time": []}, "edge": {"target": [], "time": []}}, "mouseover": {"state": {"target": [], "time": []}, "edge": {"target": [], "time": []}}, "mouseout": {"state": {"target": ["0"], "time": [10341]}, "edge": {"target": [], "time": []}}}, "displayed_time": "15.96", "trialTime": 17194, "trial_type": "mouselab-mdp", "trial_index": 29, "time_elapsed": 1046065, "internal_node_id": "0.0-6.0-1.0-20.0"}}, {"uniqueid": "w93034137:a70651082", "current_trial": 30, "dateTime": 1693661819988, "trialdata": {"revealed_states": [], "clicked_states": [], "num_clicks_accrued": [0, 0, 0, 0, 0, 0, 0, 0, 0, 0, 0, 0, 0], "stateRewards": ["", -1, -2, 8, -6, -79, -6, 87, 9, -5, -66, -38, 2, 2, 5, -6, -82, 74, 85, -8, 67, -30, -15, 1, -2, -2, -2, 87, 64, 49, 7, 2, -38, -9], "withholdReward": false, "trial_id": "mdp_trial_22", "block": "test", "trialIndex": 23, "score": -7, "costs": 0, "simulationMode": [null, null, null, null, null], "rewards": [-1, -2, 8, -6, -6], "path": ["0", "0", "1", "2", "3", "4", "6"], "rt": [1082, 879, 162, 757, 50], "actions": ["up", "up", "up", "right", "right"], "actionTimes": [3047, 4454, 5120, 6384, 6959], "queries": {"click": {"state": {"target": [], "time": []}, "edge": {"target": [], "time": []}}, "mouseover": {"state": {"target": [], "time": []}, "edge": {"target": [], "time": []}}, "mouseout": {"state": {"target": ["0"], "time": [12123]}, "edge": {"target": [], "time": []}}}, "displayed_time": "16.89", "trialTime": 18340, "trial_type": "mouselab-mdp", "trial_index": 30, "time_elapsed": 1065544, "internal_node_id": "0.0-6.0-1.0-21.0"}}, {"uniqueid": "w93034137:a70651082", "current_trial": 31, "dateTime": 1693661839361, "trialdata": {"revealed_states": [], "clicked_states": [], "num_clicks_accrued": [0, 0, 0, 0, 0, 0, 0, 0, 0, 0, 0, 0, 0], "stateRewards": ["", -1, -3, -5, -14, -13, -47, 79, 8, -60, -64, 41, -1, 2, 3, 13, -46, 61, -79, -11, -64, -65, 23, 1, -2, 6, -14, 46, 32, 21, 7, 75, -66, 15], "withholdReward": false, "trial_id": "mdp_trial_23", "block": "test", "trialIndex": 24, "score": -72, "costs": 0, "simulationMode": [null, null, null, null, null], "rewards": [-1, 2, 3, -11, -65], "path": ["0", "0", "12", "13", "14", "19", "21"], "rt": [1141, 128, 119, 41, 83], "actions": ["right", "right", "right", "down", "down"], "actionTimes": [3070, 3706, 4345, 4918, 5542], "queries": {"click": {"state": {"target": [], "time": []}, "edge": {"target": [], "time": []}}, "mouseover": {"state": {"target": [], "time": []}, "edge": {"target": [], "time": []}}, "mouseout": {"state": {"target": [], "time": []}, "edge": {"target": [], "time": []}}}, "displayed_time": "16.25", "trialTime": 18081, "trial_type": "mouselab-mdp", "trial_index": 31, "time_elapsed": 1084916, "internal_node_id": "0.0-6.0-1.0-22.0"}}, {"uniqueid": "w93034137:a70651082", "current_trial": 32, "dateTime": 1693661861853, "trialdata": {"revealed_states": [], "clicked_states": [], "num_clicks_accrued": [0, 0, 0, 0, 0, 0, 0, 0, 0, 0, 0, 0, 0], "stateRewards": ["", 2, -1, 1, 10, -52, 86, -22, -2, -14, -63, 38, 1, 3, 7, -8, 11, -32, -27, 9, -71, 40, -87, -2, -1, 5, -7, 12, 31, -57, 13, 86, -58, 29], "withholdReward": false, "trial_id": "mdp_trial_24", "block": "test", "trialIndex": 25, "score": 38, "costs": 0, "simulationMode": [null, null, null, null, null], "rewards": [2, -1, 1, -2, 38], "path": ["0", "0", "1", "2", "3", "8", "11"], "rt": [1743, 14, 5, 329, 276], "actions": ["up", "up", "up", "left", "left"], "actionTimes": [6941, 7454, 8012, 8886, 10500], "queries": {"click": {"state": {"target": [], "time": []}, "edge": {"target": [], "time": []}}, "mouseover": {"state": {"target": [], "time": []}, "edge": {"target": [], "time": []}}, "mouseout": {"state": {"target": ["0"], "time": [12556]}, "edge": {"target": [], "time": []}}}, "displayed_time": "19.97", "trialTime": 21306, "trial_type": "mouselab-mdp", "trial_index": 32, "time_elapsed": 1107409, "internal_node_id": "0.0-6.0-1.0-23.0"}}, {"uniqueid": "w93034137:a70651082", "current_trial": 33, "dateTime": 1693661885916, "trialdata": {"revealed_states": [], "clicked_states": [], "num_clicks_accrued": [0, 0, 0, 0, 0, 0, 0, 0, 0, 0, 0, 0, 0], "stateRewards": ["", 2, 3, -2, -8, -8, -41, 74, 15, -23, -80, 1, 1, 3, 3, -15, -63, -78, 67, 13, 75, -41, 86, 2, -2, 6, -3, -8, -49, 50, -6, 83, 74, 80], "withholdReward": false, "trial_id": "mdp_trial_25", "block": "test", "trialIndex": 26, "score": 74, "costs": 0, "simulationMode": [null, null, null, null, null], "rewards": [2, -2, 6, -6, 74], "path": ["0", "0", "23", "24", "25", "30", "32"], "rt": [1668, 154, 39, 671, 1730], "actions": ["left", "left", "left", "down", "down"], "actionTimes": [6185, 6875, 7571, 9036, 12675], "queries": {"click": {"state": {"target": [], "time": []}, "edge": {"target": [], "time": []}}, "mouseover": {"state": {"target": [], "time": []}, "edge": {"target": [], "time": []}}, "mouseout": {"state": {"target": ["0"], "time": [16550]}, "edge": {"target": [], "time": []}}}, "displayed_time": "21.50", "trialTime": 22899, "trial_type": "mouselab-mdp", "trial_index": 33, "time_elapsed": 1131471, "internal_node_id": "0.0-6.0-1.0-24.0"}}, {"uniqueid": "w93034137:a70651082", "current_trial": 34, "dateTime": 1693661904668, "trialdata": {"revealed_states": [], "clicked_states": [], "num_clicks_accrued": [0, 0, 0, 0, 0, 0, 0, 0, 0, 0, 0, 0, 0], "stateRewards": ["", -1, -3, 1, -4, -48, -63, -49, -2, -84, -19, 65, 2, -2, -2, -12, -4, 59, 9, 6, 75, 69, -13, -1, -3, -3, -2, -37, -68, -36, 13, 32, 18, -14], "withholdReward": false, "trial_id": "mdp_trial_26", "block": "test", "trialIndex": 27, "score": -70, "costs": 0, "simulationMode": [null, null, null, null, null], "rewards": [-1, -3, 1, -4, -63], "path": ["0", "0", "1", "2", "3", "4", "6"], "rt": [2398, 74, 226, 604, 120], "actions": ["up", "up", "up", "right", "right"], "actionTimes": [4572, 5162, 5930, 7042, 7692], "queries": {"click": {"state": {"target": [], "time": []}, "edge": {"target": [], "time": []}}, "mouseover": {"state": {"target": [], "time": []}, "edge": {"target": [], "time": []}}, "mouseout": {"state": {"target": ["0"], "time": [10184]}, "edge": {"target": [], "time": []}}}, "displayed_time": "16.35", "trialTime": 17483, "trial_type": "mouselab-mdp", "trial_index": 34, "time_elapsed": 1150222, "internal_node_id": "0.0-6.0-1.0-25.0"}}, {"uniqueid": "w93034137:a70651082", "current_trial": 35, "dateTime": 1693661928567, "trialdata": {"revealed_states": [], "clicked_states": [], "num_clicks_accrued": [0, 0, 0, 0, 0, 0, 0, 0, 0, 0, 0, 0, 0], "stateRewards": ["", 1, -4, -6, 11, -20, 8, -30, 1, -38, 88, 42, 2, 3, 5, -12, -8, -74, 30, -8, 67, -19, 42, 2, -1, 4, 13, 50, -68, 2, -8, -15, 87, -46], "withholdReward": false, "trial_id": "mdp_trial_27", "block": "test", "trialIndex": 28, "score": 84, "costs": 0, "simulationMode": [null, null, null, null, null], "rewards": [2, -1, 4, -8, 87], "path": ["0", "0", "23", "24", "25", "30", "32"], "rt": [1247, 595, 205, 580, 182], "actions": ["left", "left", "left", "down", "down"], "actionTimes": [4120, 5217, 5941, 7052, 7752], "queries": {"click": {"state": {"target": [], "time": []}, "edge": {"target": [], "time": []}}, "mouseover": {"state": {"target": [], "time": []}, "edge": {"target": [], "time": []}}, "mouseout": {"state": {"target": ["0"], "time": [10816]}, "edge": {"target": [], "time": []}}}, "displayed_time": "17.53", "trialTime": 22568, "trial_type": "mouselab-mdp", "trial_index": 35, "time_elapsed": 1174122, "internal_node_id": "0.0-6.0-1.0-26.0"}}, {"uniqueid": "w93034137:a70651082", "current_trial": 36, "dateTime": 1693661972814, "trialdata": {"revealed_states": [], "clicked_states": [], "num_clicks_accrued": [0, 0, 0, 0, 0, 0, 0, 0, 0, 0, 0, 0, 0], "stateRewards": ["", 2, -2, -3, 10, -4, -1, -11, -8, -9, -36, -78, 2, 1, 7, -7, 44, -1, -31, -1, 26, 47, 83, 2, -4, -4, -6, -52, -76, -81, -1, -59, 45, 67], "withholdReward": false, "trial_id": "mdp_trial_28", "block": "test", "trialIndex": 29, "score": 6, "costs": 0, "simulationMode": [null, null, null, null, null], "rewards": [2, -2, -3, 10, -1], "path": ["0", "0", "1", "2", "3", "4", "6"], "rt": [579, 415, 1003, 917, 482], "actions": ["up", "up", "up", "right", "right"], "actionTimes": [4698, 5632, 7173, 8606, 9593], "queries": {"click": {"state": {"target": [], "time": []}, "edge": {"target": [], "time": []}}, "mouseover": {"state": {"target": [], "time": []}, "edge": {"target": [], "time": []}}, "mouseout": {"state": {"target": [], "time": []}, "edge": {"target": [], "time": []}}}, "displayed_time": "18.12", "trialTime": 42971, "trial_type": "mouselab-mdp", "trial_index": 36, "time_elapsed": 1218370, "internal_node_id": "0.0-6.0-1.0-27.0"}}, {"uniqueid": "w93034137:a70651082", "current_trial": 37, "dateTime": 1693662024469, "trialdata": {"revealed_states": [], "clicked_states": [], "num_clicks_accrued": [0, 0, 0, 0, 0, 0, 0, 0, 0, 0, 0, 0, 0], "stateRewards": ["", 1, -4, -4, 8, 1, -79, 68, -10, -79, 8, -74, -1, -3, -6, 14, 43, 23, 9, 5, -51, 63, 61, -2, 4, 6, -10, 69, -32, 57, 15, -80, -80, -77], "withholdReward": false, "trial_id": "mdp_trial_29", "block": "test", "trialIndex": 30, "score": -57, "costs": 0, "simulationMode": [null, null, null, null, null], "rewards": [-2, 4, 6, 15, -80], "path": ["0", "0", "23", "24", "25", "30", "32"], "rt": [1320, 73, 153, 341, 102], "actions": ["left", "left", "left", "down", "down"], "actionTimes": [3182, 3769, 4498, 5371, 5999], "queries": {"click": {"state": {"target": [], "time": []}, "edge": {"target": [], "time": []}}, "mouseover": {"state": {"target": [], "time": []}, "edge": {"target": [], "time": []}}, "mouseout": {"state": {"target": [], "time": []}, "edge": {"target": [], "time": []}}}, "displayed_time": "16.50", "trialTime": 50445, "trial_type": "mouselab-mdp", "trial_index": 37, "time_elapsed": 1270023, "internal_node_id": "0.0-6.0-1.0-28.0"}}, {"uniqueid": "w93034137:a70651082", "current_trial": 38, "dateTime": 1693662092666, "trialdata": {"revealed_states": [], "clicked_states": [], "num_clicks_accrued": [0, 0, 0, 0, 0, 0, 0, 0, 0, 0, 0, 0, 0], "stateRewards": ["", 2, -4, 7, 3, 23, -42, 4, 7, -81, -33, 7, -2, -4, 5, -1, 50, -57, -14, -13, -14, 44, 55, -2, -2, 5, -2, 33, 1, 57, -13, -7, 58, 87], "withholdReward": false, "trial_id": "mdp_trial_30", "block": "test", "trialIndex": 31, "score": 46, "costs": 0, "simulationMode": [null, null, null, null, null], "rewards": [-2, -2, 5, -13, 58], "path": ["0", "0", "23", "24", "25", "30", "32"], "rt": [1238, 46, 192, 90, 104], "actions": ["left", "left", "left", "down", "down"], "actionTimes": [5975, 6557, 7303, 7931, 8547], "queries": {"click": {"state": {"target": [], "time": []}, "edge": {"target": [], "time": []}}, "mouseover": {"state": {"target": [], "time": []}, "edge": {"target": [], "time": []}}, "mouseout": {"state": {"target": [], "time": []}, "edge": {"target": [], "time": []}}}, "displayed_time": "18.88", "trialTime": 67014, "trial_type": "mouselab-mdp", "trial_index": 38, "time_elapsed": 1338221, "internal_node_id": "0.0-6.0-1.0-29.0"}}, {"uniqueid": "w93034137:a70651082", "current_trial": 39, "dateTime": 1693662115435, "trialdata": {"revealed_states": [], "clicked_states": [], "num_clicks_accrued": [0, 0, 0, 0, 0, 0, 0, 0, 0, 0, 0, 0, 0], "stateRewards": ["", 2, 3, -3, 12, -43, 81, -82, -15, 58, -7, -75, -1, -1, 3, -5, 50, -25, -8, 4, 66, 65, -66, 2, -4, 2, -1, -10, 10, 37, 11, 88, -37, 8], "withholdReward": false, "trial_id": "mdp_trial_31", "block": "test", "trialIndex": 32, "score": -88, "costs": 0, "simulationMode": [null, null, null, null, null], "rewards": [2, 3, -3, -15, -75], "path": ["0", "0", "1", "2", "3", "8", "11"], "rt": [1315, 64, 131, 88, 142], "actions": ["up", "up", "up", "left", "left"], "actionTimes": [4754, 5328, 6012, 6621, 7314], "queries": {"click": {"state": {"target": [], "time": []}, "edge": {"target": [], "time": []}}, "mouseover": {"state": {"target": [], "time": []}, "edge": {"target": [], "time": []}}, "mouseout": {"state": {"target": [], "time": []}, "edge": {"target": [], "time": []}}}, "displayed_time": "17.62", "trialTime": 21521, "trial_type": "mouselab-mdp", "trial_index": 39, "time_elapsed": 1360990, "internal_node_id": "0.0-6.0-1.0-30.0"}}, {"uniqueid": "w93034137:a70651082", "current_trial": 40, "dateTime": 1693662182879, "trialdata": {"revealed_states": [], "clicked_states": [], "num_clicks_accrued": [0, 0, 0, 0, 0, 0, 0, 0, 0, 0, 0, 0, 0], "stateRewards": ["", -2, 1, -5, 2, -68, 80, 33, 10, 67, -59, 20, -1, -3, 3, 14, 74, -2, 24, -16, 63, 80, 46, -1, 4, 6, 12, 83, -38, -43, -4, 43, 14, -79], "withholdReward": false, "trial_id": "mdp_trial_32", "block": "test", "trialIndex": 33, "score": 63, "costs": 0, "simulationMode": [null, null, null, null, null], "rewards": [-1, -3, 3, -16, 80], "path": ["0", "0", "12", "13", "14", "19", "21"], "rt": [1055, 40, 226, 161, 135], "actions": ["right", "right", "right", "down", "down"], "actionTimes": [2791, 3401, 4165, 4847, 5503], "queries": {"click": {"state": {"target": [], "time": []}, "edge": {"target": [], "time": []}}, "mouseover": {"state": {"target": [], "time": []}, "edge": {"target": [], "time": []}}, "mouseout": {"state": {"target": [], "time": []}, "edge": {"target": [], "time": []}}}, "displayed_time": "16.63", "trialTime": 65986, "trial_type": "mouselab-mdp", "trial_index": 40, "time_elapsed": 1428435, "internal_node_id": "0.0-6.0-1.0-31.0"}}, {"uniqueid": "w93034137:a70651082", "current_trial": 41, "dateTime": 1693662288395, "trialdata": {"revealed_states": [], "clicked_states": [], "num_clicks_accrued": [0, 0, 0, 0, 0, 0, 0, 0, 0, 0, 0, 0, 0], "stateRewards": ["", 2, 3, -1, 16, -78, -11, 46, 2, -20, 79, -67, 2, 3, 2, 11, -83, -42, -58, -11, -67, -22, 55, 2, -1, -1, -16, -83, -82, 23, -11, -29, 13, 13], "withholdReward": false, "trial_id": "mdp_trial_33", "block": "test", "trialIndex": 34, "score": -61, "costs": 0, "simulationMode": [null, null, null, null, null], "rewards": [2, 3, -1, 2, -67], "path": ["0", "0", "1", "2", "3", "8", "11"], "rt": [1433, 277, 119, 472, 109], "actions": ["up", "up", "up", "left", "left"], "actionTimes": [5062, 5863, 6506, 7572, 8176], "queries": {"click": {"state": {"target": [], "time": []}, "edge": {"target": [], "time": []}}, "mouseover": {"state": {"target": [], "time": []}, "edge": {"target": [], "time": []}}, "mouseout": {"state": {"target": ["0"], "time": [21638]}, "edge": {"target": [], "time": []}}}, "displayed_time": "18.37", "trialTime": 104241, "trial_type": "mouselab-mdp", "trial_index": 41, "time_elapsed": 1533951, "internal_node_id": "0.0-6.0-1.0-32.0"}}, {"uniqueid": "w93034137:a70651082", "current_trial": 42, "dateTime": 1693662325702, "trialdata": {"revealed_states": [], "clicked_states": [], "num_clicks_accrued": [0, 0, 0, 0, 0, 0, 0, 0, 0, 0, 0, 0, 0], "stateRewards": ["", 1, 3, 1, -13, 52, -28, 67, -14, 3, 63, -70, -1, -4, 7, -11, -10, 47, -18, 6, 69, -9, -61, 2, 3, -6, 10, 63, -34, 40, -6, -79, -35, -32], "withholdReward": false, "trial_id": "mdp_trial_34", "block": "test", "trialIndex": 35, "score": -42, "costs": 0, "simulationMode": [null, null, null, null, null], "rewards": [2, 3, -6, -6, -35], "path": ["0", "0", "23", "24", "25", "30", "32"], "rt": [347, 153, 86, 254, 194], "actions": ["left", "left", "left", "down", "down"], "actionTimes": [2689, 3359, 4008, 4809, 5516], "queries": {"click": {"state": {"target": [], "time": []}, "edge": {"target": [], "time": []}}, "mouseover": {"state": {"target": [], "time": []}, "edge": {"target": [], "time": []}}, "mouseout": {"state": {"target": [], "time": []}, "edge": {"target": [], "time": []}}}, "displayed_time": "16.88", "trialTime": 36040, "trial_type": "mouselab-mdp", "trial_index": 42, "time_elapsed": 1571257, "internal_node_id": "0.0-6.0-1.0-33.0"}}, {"uniqueid": "w93034137:a70651082", "current_trial": 43, "dateTime": 1693662354878, "trialdata": {"revealed_states": [], "clicked_states": [], "num_clicks_accrued": [0, 0, 0, 0, 0, 0, 0, 0, 0, 0, 0, 0, 0], "stateRewards": ["", 1, 2, -5, 14, 54, -14, -25, 16, -5, -87, 78, -1, 1, 3, -3, 52, 53, 53, -10, 73, -69, -48, 2, 3, 1, 8, -62, -7, 85, 7, 82, 52, -28], "withholdReward": false, "trial_id": "mdp_trial_35", "block": "test", "trialIndex": 36, "score": 92, "costs": 0, "simulationMode": [null, null, null, null, null], "rewards": [1, 2, -5, 16, 78], "path": ["0", "0", "1", "2", "3", "8", "11"], "rt": [930, 627, 127, 73, 133], "actions": ["up", "up", "up", "left", "left"], "actionTimes": [3440, 4596, 5320, 5903, 6576], "queries": {"click": {"state": {"target": [], "time": []}, "edge": {"target": [], "time": []}}, "mouseover": {"state": {"target": [], "time": []}, "edge": {"target": [], "time": []}}, "mouseout": {"state": {"target": [], "time": []}, "edge": {"target": [], "time": []}}}, "displayed_time": "16.57", "trialTime": 27921, "trial_type": "mouselab-mdp", "trial_index": 43, "time_elapsed": 1600433, "internal_node_id": "0.0-6.0-1.0-34.0"}}, {"uniqueid": "w93034137:a70651082", "current_trial": 44, "dateTime": 1693662374176, "trialdata": {"revealed_states": [], "clicked_states": [], "num_clicks_accrued": [0, 0, 0, 0, 0, 0, 0, 0, 0, 0, 0, 0, 0], "stateRewards": ["", -2, 2, -2, -7, -50, -62, -45, 7, 36, -24, -72, -1, -1, 8, -1, -67, 20, -52, 2, 35, -50, 80, -1, 1, 6, -6, -70, 6, 88, 8, -47, 74, -19], "withholdReward": false, "trial_id": "mdp_trial_36", "block": "test", "trialIndex": 37, "score": 88, "costs": 0, "simulationMode": [null, null, null, null, null], "rewards": [-1, 1, 6, 8, 74], "path": ["0", "0", "23", "24", "25", "30", "32"], "rt": [608, 175, 39, 605, 278], "actions": ["left", "left", "left", "down", "down"], "actionTimes": [2820, 3517, 4206, 5349, 6188], "queries": {"click": {"state": {"target": [], "time": []}, "edge": {"target": [], "time": []}}, "mouseover": {"state": {"target": [], "time": []}, "edge": {"target": [], "time": []}}, "mouseout": {"state": {"target": ["0"], "time": [16089]}, "edge": {"target": [], "time": []}}}, "displayed_time": "16.47", "trialTime": 18117, "trial_type": "mouselab-mdp", "trial_index": 44, "time_elapsed": 1619731, "internal_node_id": "0.0-6.0-1.0-35.0"}}, {"uniqueid": "w93034137:a70651082", "current_trial": 45, "dateTime": 1693662406207, "trialdata": {"revealed_states": [], "clicked_states": [], "num_clicks_accrued": [0, 0, 0, 0, 0, 0, 0, 0, 0, 0, 0, 0, 0], "stateRewards": ["", 1, 1, -6, -2, 7, 77, 3, 16, -16, 66, 31, -1, 3, -8, -6, 33, -50, -48, 7, -60, -66, 36, 2, -3, 3, -7, -12, -61, -79, -4, 8, 74, -70], "withholdReward": false, "trial_id": "mdp_trial_37", "block": "test", "trialIndex": 38, "score": 43, "costs": 0, "simulationMode": [null, null, null, null, null], "rewards": [1, 1, -6, 16, 31], "path": ["0", "0", "1", "2", "3", "8", "11"], "rt": [552, 183, 65, 419, 100], "actions": ["up", "up", "up", "left", "left"], "actionTimes": [2107, 2813, 3394, 4349, 4980], "queries": {"click": {"state": {"target": [], "time": []}, "edge": {"target": [], "time": []}}, "mouseover": {"state": {"target": [], "time": []}, "edge": {"target": [], "time": []}}, "mouseout": {"state": {"target": [], "time": []}, "edge": {"target": [], "time": []}}}, "displayed_time": "15.68", "trialTime": 30355, "trial_type": "mouselab-mdp", "trial_index": 45, "time_elapsed": 1651762, "internal_node_id": "0.0-6.0-1.0-36.0"}}, {"uniqueid": "w93034137:a70651082", "current_trial": 46, "dateTime": 1693662431603, "trialdata": {"revealed_states": [], "clicked_states": [], "num_clicks_accrued": [0, 0, 0, 0, 0, 0, 0, 0, 0, 0, 0, 0, 0], "stateRewards": ["", 2, 3, -3, 4, 72, -28, 34, -12, 57, -64, -15, 2, 1, -4, -15, 2, 49, 31, -1, -42, -58, 31, -2, 1, -2, -13, -75, -19, -22, -6, 61, 10, -56], "withholdReward": false, "trial_id": "mdp_trial_38", "block": "test", "trialIndex": 39, "score": 1, "costs": 0, "simulationMode": [null, null, null, null, null], "rewards": [-2, 1, -2, -6, 10], "path": ["0", "0", "23", "24", "25", "30", "32"], "rt": [1866, 146, 167, 87, 124], "actions": ["left", "left", "left", "down", "down"], "actionTimes": [3803, 4497, 5201, 5845, 6525], "queries": {"click": {"state": {"target": [], "time": []}, "edge": {"target": [], "time": []}}, "mouseover": {"state": {"target": [], "time": []}, "edge": {"target": [], "time": []}}, "mouseout": {"state": {"target": [], "time": []}, "edge": {"target": [], "time": []}}}, "displayed_time": "15.99", "trialTime": 24059, "trial_type": "mouselab-mdp", "trial_index": 46, "time_elapsed": 1677158, "internal_node_id": "0.0-6.0-1.0-37.0"}}, {"uniqueid": "w93034137:a70651082", "current_trial": 47, "dateTime": 1693662452092, "trialdata": {"revealed_states": [], "clicked_states": [], "num_clicks_accrued": [0, 0, 0, 0, 0, 0, 0, 0, 0, 0, 0, 0, 0], "stateRewards": ["", -2, 3, -1, -9, 44, 48, -37, -3, 71, -39, 87, -1, 3, -4, 4, -21, 59, -15, -8, -1, 28, -38, 2, 4, 4, 8, -85, -72, -63, 14, 58, 63, -46], "withholdReward": false, "trial_id": "mdp_trial_39", "block": "test", "trialIndex": 40, "score": 39, "costs": 0, "simulationMode": [null, null, null, null, null], "rewards": [-2, 3, -1, -9, 48], "path": ["0", "0", "1", "2", "3", "4", "6"], "rt": [592, 112, 360, 46, 58], "actions": ["up", "up", "up", "right", "right"], "actionTimes": [2262, 2908, 3788, 4391, 5029], "queries": {"click": {"state": {"target": [], "time": []}, "edge": {"target": [], "time": []}}, "mouseover": {"state": {"target": [], "time": []}, "edge": {"target": [], "time": []}}, "mouseout": {"state": {"target": ["0"], "time": [18310]}, "edge": {"target": [], "time": []}}}, "displayed_time": "16.54", "trialTime": 19109, "trial_type": "mouselab-mdp", "trial_index": 47, "time_elapsed": 1697648, "internal_node_id": "0.0-6.0-1.0-38.0"}}, {"uniqueid": "w93034137:a70651082", "current_trial": 48, "dateTime": 1693662472257, "trialdata": {"revealed_states": [], "clicked_states": [], "num_clicks_accrued": [0, 0, 0, 0, 0, 0, 0, 0, 0, 0, 0, 0, 0], "stateRewards": ["", 2, -1, -1, -9, -81, -30, 55, -6, 78, 25, 62, 2, 4, -1, 9, -85, 1, -19, 1, -60, 12, -34, 1, 4, -1, -13, -24, -16, -83, -8, 16, 43, 9], "withholdReward": false, "trial_id": "mdp_trial_40", "block": "test", "trialIndex": 41, "score": 18, "costs": 0, "simulationMode": [null, null, null, null, null], "rewards": [2, 4, -1, 1, 12], "path": ["0", "0", "12", "13", "14", "19", "21"], "rt": [1088, 144, 115, 171, 149], "actions": ["right", "right", "right", "down", "down"], "actionTimes": [2973, 3649, 4277, 5103, 5756], "queries": {"click": {"state": {"target": [], "time": []}, "edge": {"target": [], "time": []}}, "mouseover": {"state": {"target": [], "time": []}, "edge": {"target": [], "time": []}}, "mouseout": {"state": {"target": ["0"], "time": [18269]}, "edge": {"target": [], "time": []}}}, "displayed_time": "16.23", "trialTime": 18947, "trial_type": "mouselab-mdp", "trial_index": 48, "time_elapsed": 1717811, "internal_node_id": "0.0-6.0-1.0-39.0"}}, {"uniqueid": "w93034137:a70651082", "current_trial": 49, "dateTime": 1693662568539, "trialdata": {"rt": 96220, "response": {"Q0": "$-2 to $2", "Q1": "$-32 to $32", "Q2": "$-88 to $88", "Q3": "There was no cost for clicking on nodes.", "Q4": "Very motivated"}, "question_order": [0, 1, 2, 3, 4], "trial_id": "final_quiz_control", "trial_type": "survey-multi-choice", "trial_index": 49, "time_elapsed": 1814094, "internal_node_id": "0.0-6.0-2.0"}}, {"uniqueid": "w93034137:a70651082", "current_trial": 50, "dateTime": 1693662688599, "trialdata": {"rt": 119969, "response": {"Q0": "I just chose a path that I favoured, there was no trick or something that I would say helped", "Q1": "Yes, I avoided choosing the same path consecutively ", "Q2": "It was not difficult"}, "trial_id": "self_report_control", "trial_type": "survey-text", "trial_index": 50, "time_elapsed": 1934154, "internal_node_id": "0.0-6.0-3.0"}}, {"uniqueid": "w93034137:a70651082", "current_trial": 51, "dateTime": 1693662718553, "trialdata": {"rt": 29941, "response": {"gender": "female", "age": "23", "colorblind": "0", "effort": "0"}, "trial_type": "survey-html-form", "trial_index": 51, "time_elapsed": 1964109, "internal_node_id": "0.0-6.0-4.0"}}, {"uniqueid": "w93034137:a70651082", "current_trial": 52, "dateTime": 1693662773601, "trialdata": {"rt": 55040, "response": {"Q0": "No the game was easy and the instructions were clear.", "Q1": "No", "Q2": ""}, "trial_type": "survey-text", "trial_index": 52, "time_elapsed": 2019157, "internal_node_id": "0.0-6.0-5.0"}}, {"uniqueid": "w93034137:a70651082", "current_trial": 53, "dateTime": 1693662796632, "trialdata": {"rt": 23018, "stimulus": "<h1>Completion Code Instructions (1/2)</h1>\n<br><br><br><br>\nYou have reached the end of the experiment! The completion code consists of two parts: (1) a code with 2 characters (2) a code with 6 characters. On this page, you will receive the second part of the code. The first part of the completion code will be on the next page.\n<br><br>\nThe second part of your completion code is: <b>EWEK22</b>\n<br><br>\nPlease note this down. Then, press 'Next' in order to find the first part of your completion code. Once the data has been saved, you will receive this code either in this window or in the original browser window where you started the experiment.\n <br><br>\n<h2 style='color: red;'>Note: this is <strong>NOT</strong> the full completion code. Copy this down and click 'Next' to get the full completion code on the next page.</h2>", "response": 0, "trial_type": "html-button-response", "trial_index": 53, "time_elapsed": 2042188, "internal_node_id": "0.0-6.0-6.0"}}, {"uniqueid": "w93034137:a70651082", "current_trial": 54, "dateTime": 1693662797639, "trialdata": {"success": true, "trial_type": "fullscreen", "trial_index": 54, "time_elapsed": 2043195, "internal_node_id": "0.0-7.0"}}], "questiondata": {"params": {"CODE": "C6DMOQA6", "MIN_TIME": 14, "inspectCost": 1, "startTime": "Sat Sep 02 2023 15:19:09 GMT+0200 (South Africa Standard Time)", "bonusRate": 0.002, "variance": "1_2_4_8_44", "branching": "31123"}, "final_score": 475}, "eventdata": [{"eventtype": "initialized", "value": null, "timestamp": 1693660748467, "interval": 0}, {"eventtype": "window_resize", "value": [1024, 658], "timestamp": 1693660748467, "interval": 0}, {"eventtype": "window_resize", "value": [1024, 658], "timestamp": 1693660749590, "interval": 1123}, {"eventtype": "window_resize", "value": [1366, 768], "timestamp": 1693660758520, "interval": 8930}, {"eventtype": "focus", "value": "off", "timestamp": 1693662665977, "interval": 1907457}, {"eventtype": "window_resize", "value": [1366, 768], "timestamp": 1693662666263, "interval": 286}, {"eventtype": "window_resize", "value": [1366, 768], "timestamp": 1693662666501, "interval": 238}, {"eventtype": "focus", "value": "on", "timestamp": 1693662668931, "interval": 2430}, {"eventtype": "window_resize", "value": [1024, 658], "timestamp": 1693662797155, "interval": 128224}], "useragent": "Mozilla/5.0 (Windows NT 10.0; Win64; x64) AppleWebKit/537.36 (KHTML, like Gecko) Chrome/116.0.0.0 Safari/537.36 Edg/116.0.1938.54", "mode": "live", "id": "w93034137:a70651082", "status": "user data saved", "Beginhit": "2023-09-02 13:19:11.406173", "Beginexp": "2023-09-02 13:19:27.938207", "Endhit": "2023-09-02 13:53:29.590893", "psiturkStatus": 3, "browser": "<redacted>", "platform": "windows", "language": "en-GB"}