{"condition": 0, "counterbalance": 0, "assignmentId": "a28493364", "workerId": "w29473610", "hitId": "h91449426", "currenttrial": 61, "bonus": 0, "data": [{"uniqueid": "w29473610:a28493364", "current_trial": 0, "dateTime": 1693480943101, "trialdata": {"success": true, "trial_type": "fullscreen", "trial_index": 0, "time_elapsed": 5401, "internal_node_id": "0.0-0.0"}}, {"uniqueid": "w29473610:a28493364", "current_trial": 1, "dateTime": 1693480964661, "trialdata": {"view_history": [{"page_index": 0, "viewing_time": 21556}], "rt": 21556, "trial_id": "exp_instructions_control", "trial_type": "instructions", "trial_index": 1, "time_elapsed": 26961, "internal_node_id": "0.0-1.0"}}, {"uniqueid": "w29473610:a28493364", "current_trial": 2, "dateTime": 1693481159725, "trialdata": {"view_history": [{"page_index": 0, "viewing_time": 71174}, {"page_index": 1, "viewing_time": 69952}, {"page_index": 2, "viewing_time": 21408}, {"page_index": 3, "viewing_time": 32528}], "rt": 195062, "trial_id": "mouselab_instructions_1_control", "trial_type": "instructions", "trial_index": 2, "time_elapsed": 222024, "internal_node_id": "0.0-2.0-1.0"}}, {"uniqueid": "w29473610:a28493364", "current_trial": 3, "dateTime": 1693481186550, "trialdata": {"revealed_states": [], "clicked_states": [], "num_clicks_accrued": [0, 0, 0, 0, 0, 0, 0, 0, 0, 0, 0, 0, 0], "stateRewards": ["", 10, -10, -10, -10, -10, -10, -10, 10, 10, 10, 10, 10, 10, -10, 10, 10, 10, 10, -10, 10, -10, 10, -10, -10, -10, 10, -10, -10, -10, 10, -10, -10, -10], "withholdReward": false, "trial_id": "practice_1", "block": "test", "trialIndex": 0, "score": 33.5, "costs": 0, "simulationMode": [null, null, null, null, null], "rewards": [10, 10, -10, 10, 10], "path": ["0", "0", "12", "13", "14", "15", "16"], "rt": [14515, 238, 49, 1058, 185], "actions": ["right", "right", "right", "up", "up"], "actionTimes": [16655, 17382, 17927, 19486, 20167], "queries": {"click": {"state": {"target": [], "time": []}, "edge": {"target": [], "time": []}}, "mouseover": {"state": {"target": ["12", "12", "32"], "time": [13706, 15274, 15641]}, "edge": {"target": [], "time": []}}, "mouseout": {"state": {"target": ["12", "0", "12", "12"], "time": [969, 1864, 14473, 15307]}, "edge": {"target": [], "time": []}}}, "displayed_time": "20.66", "trialTime": 26295, "trial_type": "mouselab-mdp", "trial_index": 3, "time_elapsed": 248849, "internal_node_id": "0.0-2.0-2.0-0.0"}}, {"uniqueid": "w29473610:a28493364", "current_trial": 4, "dateTime": 1693481241677, "trialdata": {"revealed_states": [], "clicked_states": ["26", "15", "3", "1", "10", "6", "5", "23", "12", "21", "14", "31", "30", "33"], "num_clicks_accrued": [0, 0, 0, 0, 0, 0, 0, 0, 0, 0, 0, 0, 0], "stateRewards": ["", 10, 10, -10, 10, 10, -10, 10, -10, -10, 10, -10, 10, -10, -10, -10, 10, 10, 10, 10, 10, -10, 10, 10, 10, -10, 10, -10, 10, 10, -10, -10, -10, 10], "withholdReward": false, "trial_id": "practice_2", "block": "test", "trialIndex": 1, "score": -13.5, "costs": -7, "simulationMode": [null, null, null, null, null], "rewards": [10, 10, -10, -10, -10], "path": ["0", "0", "1", "2", "3", "8", "11"], "rt": [37909, 817, 548, 1441, 1553], "actions": ["up", "up", "up", "left", "left"], "actionTimes": [43772, 45083, 46131, 48075, 50123], "queries": {"click": {"state": {"target": ["26", "15", "3", "1", "10", "6", "5", "23", "12", "21", "14", "31", "30", "33"], "time": [6754, 7922, 8952, 10167, 11207, 12584, 13688, 16904, 18520, 20183, 21911, 27824, 28834, 30608]}, "edge": {"target": [], "time": []}}, "mouseover": {"state": {"target": ["0", "23", "24", "26", "28", "1", "7", "16", "15", "3", "2", "1", "10", "8", "4", "6", "4", "5", "4", "7", "7", "1", "23", "0", "12", "22", "21", "19", "14", "20", "19", "12", "0", "23", "24", "31", "30", "33"], "time": [6077, 6142, 6325, 6576, 6993, 7094, 7144, 7277, 7777, 8762, 9245, 9796, 10797, 11465, 12082, 12448, 13033, 13434, 13884, 13934, 14184, 15702, 16569, 17921, 18087, 19089, 19856, 20907, 21457, 22642, 23227, 23293, 23312, 23443, 26596, 27547, 28582, 29999]}, "edge": {"target": [], "time": []}}, "mouseout": {"state": {"target": ["32", "31", "23", "0", "23", "24", "26", "28", "1", "7", "16", "15", "3", "2", "1", "10", "8", "3", "4", "6", "4", "5", "4", "7", "7", "1", "23", "0", "12", "22", "21", "19", "14", "20", "19", "12", "0", "23", "24", "31", "30", "33"], "time": [2972, 3039, 3289, 6126, 6276, 6376, 6960, 7044, 7110, 7160, 7361, 8328, 9162, 9663, 10431, 11332, 11965, 12049, 12332, 12799, 13366, 13850, 13918, 13967, 15669, 15735, 17754, 18054, 18789, 19739, 20757, 21374, 22509, 23209, 23259, 23310, 23327, 24511, 27498, 28332, 29800, 31785]}, "edge": {"target": [], "time": []}}}, "displayed_time": "50.62", "trialTime": 54923, "trial_type": "mouselab-mdp", "trial_index": 4, "time_elapsed": 303977, "internal_node_id": "0.0-2.0-2.0-1.0"}}, {"uniqueid": "w29473610:a28493364", "current_trial": 5, "dateTime": 1693481266540, "trialdata": {"view_history": [{"page_index": 0, "viewing_time": 5572}, {"page_index": 1, "viewing_time": 19288}], "rt": 24860, "trial_id": "mouselab_instructions_2_control", "trial_type": "instructions", "trial_index": 5, "time_elapsed": 328840, "internal_node_id": "0.0-2.0-3.0"}}, {"uniqueid": "w29473610:a28493364", "current_trial": 6, "dateTime": 1693481306142, "trialdata": {"rt": 39598, "response": {"Q0": "The cost for clicking on nodes may vary between nodes.", "Q1": "The better I perform the higher my bonus will be.", "Q2": "No, the amount of cash at each node of the web may be different each time.", "Q3": "To get the highest total score.", "Q4": "Only before moving the spider.", "Q5": "10 seconds"}, "question_order": [0, 1, 2, 3, 4, 5], "correct": {"Q0": "The cost for clicking on nodes may vary between nodes.", "Q1": "The better I perform the higher my bonus will be.", "Q2": "No, the amount of cash at each node of the web may be different each time.", "Q3": "To get the highest total score.", "Q4": "Only before moving the spider.", "Q5": "3 seconds"}, "trial_id": "mouselab_quiz_control", "trial_type": "survey-multi-choice", "trial_index": 6, "time_elapsed": 368442, "internal_node_id": "0.0-2.0-4.0"}}, {"uniqueid": "w29473610:a28493364", "current_trial": 7, "dateTime": 1693481320517, "trialdata": {"success": true, "trial_type": "fullscreen", "trial_index": 7, "time_elapsed": 382817, "internal_node_id": "0.0-2.1-0.1-0.1"}}, {"uniqueid": "w29473610:a28493364", "current_trial": 8, "dateTime": 1693481336412, "trialdata": {"view_history": [{"page_index": 0, "viewing_time": 4181}, {"page_index": 1, "viewing_time": 5912}, {"page_index": 2, "viewing_time": 1704}, {"page_index": 3, "viewing_time": 4096}], "rt": 15894, "trial_id": "mouselab_instructions_1_control", "trial_type": "instructions", "trial_index": 8, "time_elapsed": 398712, "internal_node_id": "0.0-2.1-1.1"}}, {"uniqueid": "w29473610:a28493364", "current_trial": 9, "dateTime": 1693481355661, "trialdata": {"revealed_states": [], "clicked_states": ["12", "24", "27"], "num_clicks_accrued": [0, 0, 0, 0, 0, 0, 0, 0, 0, 0, 0, 0, 0], "stateRewards": ["", 10, -10, -10, -10, -10, -10, -10, 10, 10, 10, 10, 10, 10, -10, 10, 10, 10, 10, -10, 10, -10, 10, -10, -10, -10, 10, -10, -10, -10, 10, -10, -10, -10], "withholdReward": false, "trial_id": "practice_1", "block": "test", "trialIndex": 2, "score": -28, "costs": -1.5, "simulationMode": [null, null, null, null, null], "rewards": [-10, -10, -10, 10, -10], "path": ["0", "0", "23", "24", "25", "30", "32"], "rt": [8527, 146, 1024, 881, 602], "actions": ["left", "left", "left", "down", "down"], "actionTimes": [11286, 11934, 13446, 14822, 15926], "queries": {"click": {"state": {"target": ["12", "24", "27"], "time": [4242, 6780, 9180]}, "edge": {"target": [], "time": []}}, "mouseover": {"state": {"target": ["13", "12", "0", "23", "24", "25", "26", "27", "28", "23", "14"], "time": [3511, 4095, 4513, 4796, 5408, 7349, 8316, 9000, 9751, 10252, 10618]}, "edge": {"target": [], "time": []}}, "mouseout": {"state": {"target": ["12", "0", "13", "12", "0", "23", "24", "25", "26", "27", "28", "23"], "time": [424, 2894, 3895, 4496, 4713, 5046, 7132, 8284, 8399, 9367, 10186, 10318]}, "edge": {"target": [], "time": []}}}, "displayed_time": "16.43", "trialTime": 19046, "trial_type": "mouselab-mdp", "trial_index": 9, "time_elapsed": 417961, "internal_node_id": "0.0-2.1-2.1-0.1"}}, {"uniqueid": "w29473610:a28493364", "current_trial": 10, "dateTime": 1693481368805, "trialdata": {"revealed_states": [], "clicked_states": [], "num_clicks_accrued": [0, 0, 0, 0, 0, 0, 0, 0, 0, 0, 0, 0, 0], "stateRewards": ["", 10, 10, -10, 10, 10, -10, 10, -10, -10, 10, -10, 10, -10, -10, -10, 10, 10, 10, 10, 10, -10, 10, 10, 10, -10, 10, -10, 10, 10, -10, -10, -10, 10], "withholdReward": false, "trial_id": "practice_2", "block": "test", "trialIndex": 3, "score": -6.5, "costs": 0, "simulationMode": [null, null, null, null, null], "rewards": [10, -10, -10, 10, -10], "path": ["0", "0", "12", "13", "14", "19", "21"], "rt": [998, 908, 2619, 1123, 312], "actions": ["right", "right", "right", "down", "down"], "actionTimes": [3928, 5336, 8448, 10072, 10880], "queries": {"click": {"state": {"target": [], "time": []}, "edge": {"target": [], "time": []}}, "mouseover": {"state": {"target": ["0"], "time": [2944]}, "edge": {"target": [], "time": []}}, "mouseout": {"state": {"target": ["14", "0", "0"], "time": [2073, 2729, 2975]}, "edge": {"target": [], "time": []}}}, "displayed_time": "11.37", "trialTime": 12952, "trial_type": "mouselab-mdp", "trial_index": 10, "time_elapsed": 431104, "internal_node_id": "0.0-2.1-2.1-1.1"}}, {"uniqueid": "w29473610:a28493364", "current_trial": 11, "dateTime": 1693481373252, "trialdata": {"view_history": [{"page_index": 0, "viewing_time": 3110}, {"page_index": 1, "viewing_time": 1336}], "rt": 4446, "trial_id": "mouselab_instructions_2_control", "trial_type": "instructions", "trial_index": 11, "time_elapsed": 435552, "internal_node_id": "0.0-2.1-3.1"}}, {"uniqueid": "w29473610:a28493364", "current_trial": 12, "dateTime": 1693481421829, "trialdata": {"rt": 48574, "response": {"Q0": "The cost for clicking on nodes may vary between nodes.", "Q1": "The better I perform the higher my bonus will be.", "Q2": "No, the amount of cash at each node of the web may be different each time.", "Q3": "To get the highest total score.", "Q4": "Only before moving the spider.", "Q5": "3 seconds"}, "question_order": [0, 1, 2, 3, 4, 5], "correct": {"Q0": "The cost for clicking on nodes may vary between nodes.", "Q1": "The better I perform the higher my bonus will be.", "Q2": "No, the amount of cash at each node of the web may be different each time.", "Q3": "To get the highest total score.", "Q4": "Only before moving the spider.", "Q5": "3 seconds"}, "trial_id": "mouselab_quiz_control", "trial_type": "survey-multi-choice", "trial_index": 12, "time_elapsed": 484129, "internal_node_id": "0.0-2.1-4.1"}}, {"uniqueid": "w29473610:a28493364", "current_trial": 13, "dateTime": 1693481429572, "trialdata": {"rt": 7737, "response": {"Q0": "No"}, "question_order": [0], "trial_id": "repeat_check", "trial_type": "survey-multi-choice", "trial_index": 13, "time_elapsed": 491872, "internal_node_id": "0.0-4.0-0.0"}}, {"uniqueid": "w29473610:a28493364", "current_trial": 14, "dateTime": 1693481450365, "trialdata": {"rt": 20787, "stimulus": "\n<h1> Get ready to start the game! </h1>\n\nThank you for reading the instructions. Get ready start with the 40 rounds of this game.\n<br><br>\nIf you need to take a break, feel free to take one after the end of a round, before continuing to the next one.\n<br><br>\nRemember, the more money the spider gets, the bigger your bonus will be!\n<br><br>\n<div style='text-align: center;'>Press <code>space</code> to begin.</div>\n\n<br><br>\n(If, at any point, the <code>space</code> key does not take you to the next page, click once on the text and try again.)", "response": " ", "trial_id": "mdp_ready", "trial_type": "html-keyboard-response", "trial_index": 14, "time_elapsed": 512664, "internal_node_id": "0.0-6.0-0.0"}}, {"uniqueid": "w29473610:a28493364", "current_trial": 15, "dateTime": 1693481469213, "trialdata": {"revealed_states": [], "clicked_states": [], "num_clicks_accrued": [0, 0, 0, 0, 0, 0, 0, 0, 0, 0, 0, 0, 0], "stateRewards": ["", 2, 3, 8, 14, 69, -27, 17, 2, -71, -65, -10, 2, -3, 7, 8, 65, -10, 65, -12, 73, -12, 13, -2, -2, 6, 10, -79, -69, -18, 10, -85, 67, 74], "withholdReward": false, "trial_id": "mdp_trial_1", "block": "test", "trialIndex": 4, "score": 79, "costs": 0, "simulationMode": [null, null, null, null, null], "rewards": [2, -3, 7, 8, 65], "path": ["0", "0", "12", "13", "14", "15", "16"], "rt": [5772, 541, 746, 949, 187], "actions": ["right", "right", "right", "up", "up"], "actionTimes": [8207, 9246, 10486, 11927, 12615], "queries": {"click": {"state": {"target": [], "time": []}, "edge": {"target": [], "time": []}}, "mouseover": {"state": {"target": ["0", "12"], "time": [2443, 7019]}, "edge": {"target": [], "time": []}}, "mouseout": {"state": {"target": ["1", "2", "1", "0"], "time": [1029, 1263, 1479, 2481]}, "edge": {"target": [], "time": []}}}, "displayed_time": "16.44", "trialTime": 18639, "trial_type": "mouselab-mdp", "trial_index": 15, "time_elapsed": 531513, "internal_node_id": "0.0-6.0-1.0-0.0"}}, {"uniqueid": "w29473610:a28493364", "current_trial": 16, "dateTime": 1693481489862, "trialdata": {"revealed_states": [], "clicked_states": [], "num_clicks_accrued": [0, 0, 0, 0, 0, 0, 0, 0, 0, 0, 0, 0, 0], "stateRewards": ["", -1, 2, -6, 6, 43, 78, 78, -2, 55, -29, -17, -2, -4, 1, -15, 13, 7, -79, 8, -28, -68, 36, -1, -3, 3, -16, 84, -18, 87, 10, 32, 13, -81], "withholdReward": false, "trial_id": "mdp_trial_2", "block": "test", "trialIndex": 5, "score": -65, "costs": 0, "simulationMode": [null, null, null, null, null], "rewards": [-2, -4, 1, 8, -68], "path": ["0", "0", "12", "13", "14", "19", "21"], "rt": [1013, 315, 131, 793, 644], "actions": ["right", "right", "right", "down", "down"], "actionTimes": [4816, 5632, 6264, 7560, 8696], "queries": {"click": {"state": {"target": [], "time": []}, "edge": {"target": [], "time": []}}, "mouseover": {"state": {"target": [], "time": []}, "edge": {"target": [], "time": []}}, "mouseout": {"state": {"target": ["12", "0"], "time": [3112, 3162]}, "edge": {"target": [], "time": []}}}, "displayed_time": "17.80", "trialTime": 20448, "trial_type": "mouselab-mdp", "trial_index": 16, "time_elapsed": 552161, "internal_node_id": "0.0-6.0-1.0-1.0"}}, {"uniqueid": "w29473610:a28493364", "current_trial": 17, "dateTime": 1693481507621, "trialdata": {"revealed_states": [], "clicked_states": [], "num_clicks_accrued": [0, 0, 0, 0, 0, 0, 0, 0, 0, 0, 0, 0, 0], "stateRewards": ["", -1, 3, -7, 16, -32, -74, -48, 2, 10, 15, -30, 1, 1, -2, 10, 12, -83, 67, 13, -66, 47, 65, -2, 4, 2, -14, -8, -57, 24, 9, 65, 12, 46], "withholdReward": false, "trial_id": "mdp_trial_3", "block": "test", "trialIndex": 6, "score": -33, "costs": 0, "simulationMode": [null, null, null, null, null], "rewards": [-1, 3, -7, 2, -30], "path": ["0", "0", "1", "2", "3", "8", "11"], "rt": [1100, 136, 114, 1089, 367], "actions": ["up", "up", "up", "left", "left"], "actionTimes": [2502, 3142, 3750, 5342, 6206], "queries": {"click": {"state": {"target": [], "time": []}, "edge": {"target": [], "time": []}}, "mouseover": {"state": {"target": [], "time": []}, "edge": {"target": [], "time": []}}, "mouseout": {"state": {"target": [], "time": []}, "edge": {"target": [], "time": []}}}, "displayed_time": "15.40", "trialTime": 17526, "trial_type": "mouselab-mdp", "trial_index": 17, "time_elapsed": 569921, "internal_node_id": "0.0-6.0-1.0-2.0"}}, {"uniqueid": "w29473610:a28493364", "current_trial": 18, "dateTime": 1693481545149, "trialdata": {"revealed_states": [], "clicked_states": ["8", "15", "25", "32", "27", "21", "22", "31", "28", "10", "7"], "num_clicks_accrued": [0, 0, 0, 0, 0, 0, 0, 0, 0, 0, 0, 0, 0], "stateRewards": ["", -2, -1, -5, 10, -36, -70, 68, -9, 86, 71, -10, 2, -4, 7, -7, 66, 44, -66, -13, -69, 43, 15, -2, 2, 6, -13, 62, 57, 50, -10, -69, 42, -72], "withholdReward": false, "trial_id": "mdp_trial_4", "block": "test", "trialIndex": 7, "score": -83.4, "costs": -15.400000000000002, "simulationMode": [null, null, null, null, null], "rewards": [-2, -1, -5, 10, -70], "path": ["0", "0", "1", "2", "3", "4", "6"], "rt": [25644, 392, 178, 2816, 1184], "actions": ["up", "up", "up", "right", "right"], "actionTimes": [27049, 27937, 28609, 31929, 33617], "queries": {"click": {"state": {"target": ["8", "15", "25", "32", "27", "21", "22", "31", "28", "10", "7"], "time": [3142, 4941, 6629, 8149, 10012, 12462, 14487, 17813, 19940, 21448, 24020]}, "edge": {"target": [], "time": []}}, "mouseover": {"state": {"target": ["1", "2", "3", "8", "3", "4", "18", "15", "12", "0", "31", "25", "30", "32", "30", "26", "27", "13", "19", "21", "12", "13", "22", "31", "24", "28", "24", "10", "23", "23", "2", "7", "0"], "time": [2136, 2201, 2535, 2885, 3420, 3737, 4537, 4821, 5421, 5442, 5522, 5805, 7173, 7440, 8725, 9008, 9375, 10893, 11094, 11262, 13530, 13713, 14079, 16098, 18450, 19819, 20486, 21137, 21804, 23256, 23373, 23823, 25341]}, "edge": {"target": [], "time": []}}, "mouseout": {"state": {"target": ["0", "1", "2", "3", "8", "3", "4", "18", "15", "12", "0", "31", "25", "30", "32", "30", "25", "26", "27", "13", "19", "21", "12", "13", "22", "31", "24", "28", "24", "10", "23", "23", "2", "7"], "time": [2106, 2168, 2369, 2803, 3370, 3586, 4153, 4570, 5388, 5440, 5455, 5572, 7107, 7390, 8691, 8758, 8791, 9275, 10744, 10928, 11194, 13046, 13563, 14046, 15064, 18384, 19602, 20453, 21072, 21671, 21954, 23289, 23656, 24290]}, "edge": {"target": [], "time": []}}}, "displayed_time": "34.12", "trialTime": 37321, "trial_type": "mouselab-mdp", "trial_index": 18, "time_elapsed": 607449, "internal_node_id": "0.0-6.0-1.0-3.0"}}, {"uniqueid": "w29473610:a28493364", "current_trial": 19, "dateTime": 1693481562541, "trialdata": {"revealed_states": [], "clicked_states": [], "num_clicks_accrued": [0, 0, 0, 0, 0, 0, 0, 0, 0, 0, 0, 0, 0], "stateRewards": ["", -1, -4, -3, 1, -45, -67, -24, 14, 32, 22, 22, -1, 1, -5, -7, 72, 84, -79, -5, 19, -40, -2, -1, -2, 8, -3, 84, -25, -28, 11, 64, -66, 77], "withholdReward": false, "trial_id": "mdp_trial_5", "block": "test", "trialIndex": 8, "score": -91, "costs": 0, "simulationMode": [null, null, null, null, null], "rewards": [-1, 1, -5, -7, -79], "path": ["0", "0", "12", "13", "14", "15", "18"], "rt": [2519, 498, 1706, 736, 1205], "actions": ["right", "right", "right", "up", "left"], "actionTimes": [4300, 5292, 7500, 8732, 10436], "queries": {"click": {"state": {"target": [], "time": []}, "edge": {"target": [], "time": []}}, "mouseover": {"state": {"target": [], "time": []}, "edge": {"target": [], "time": []}}, "mouseout": {"state": {"target": [], "time": []}, "edge": {"target": [], "time": []}}}, "displayed_time": "15.78", "trialTime": 17180, "trial_type": "mouselab-mdp", "trial_index": 19, "time_elapsed": 624840, "internal_node_id": "0.0-6.0-1.0-4.0"}}, {"uniqueid": "w29473610:a28493364", "current_trial": 20, "dateTime": 1693481589245, "trialdata": {"revealed_states": [], "clicked_states": ["25", "16", "21"], "num_clicks_accrued": [0, 0, 0, 0, 0, 0, 0, 0, 0, 0, 0, 0, 0], "stateRewards": ["", 1, 2, -8, 9, 18, -83, -11, 6, -64, -48, 17, -2, -2, -5, -3, -24, -3, -86, -2, 48, -41, -22, -2, 4, 7, 8, 81, 13, -48, 10, 61, 19, 57], "withholdReward": false, "trial_id": "mdp_trial_6", "block": "test", "trialIndex": 9, "score": -19.2, "costs": -4.199999999999999, "simulationMode": [null, null, null, null, null], "rewards": [-2, -2, -5, -3, -3], "path": ["0", "0", "12", "13", "14", "15", "17"], "rt": [18222, 275, 236, 782, 146], "actions": ["right", "right", "right", "up", "right"], "actionTimes": [20657, 21433, 22161, 23440, 24089], "queries": {"click": {"state": {"target": ["25", "16", "21"], "time": [3789, 5965, 8109]}, "edge": {"target": [], "time": []}}, "mouseover": {"state": {"target": ["23", "24", "25", "31", "12", "13", "15", "16", "15", "21", "22", "12", "2", "3", "9", "8", "8", "9"], "time": [3170, 3354, 3654, 4005, 5207, 5225, 5273, 5840, 6208, 6758, 8426, 8477, 8844, 8894, 9177, 9644, 10132, 10412]}, "edge": {"target": [], "time": []}}, "mouseout": {"state": {"target": ["0", "23", "24", "25", "31", "12", "13", "15", "16", "15", "21", "22", "12", "2", "3", "9", "8", "8"], "time": [3104, 3271, 3471, 3955, 4023, 5223, 5240, 5323, 6157, 6241, 8393, 8443, 8493, 8877, 9060, 9628, 9694, 10178]}, "edge": {"target": [], "time": []}}}, "displayed_time": "24.58", "trialTime": 26481, "trial_type": "mouselab-mdp", "trial_index": 20, "time_elapsed": 651544, "internal_node_id": "0.0-6.0-1.0-5.0"}}, {"uniqueid": "w29473610:a28493364", "current_trial": 21, "dateTime": 1693481609029, "trialdata": {"revealed_states": [], "clicked_states": [], "num_clicks_accrued": [0, 0, 0, 0, 0, 0, 0, 0, 0, 0, 0, 0, 0], "stateRewards": ["", 1, -1, -7, -7, -22, 15, -13, 13, 26, -32, 38, -1, 1, -7, -4, 16, -62, 86, 12, -54, 56, 64, -2, -1, 6, 14, -57, 37, 62, -6, -25, 50, -70], "withholdReward": false, "trial_id": "mdp_trial_7", "block": "test", "trialIndex": 10, "score": 79, "costs": 0, "simulationMode": [null, null, null, null, null], "rewards": [-2, -1, 6, 14, 62], "path": ["0", "0", "23", "24", "25", "26", "29"], "rt": [1025, 264, 169, 878, 165], "actions": ["left", "left", "left", "up", "left"], "actionTimes": [3400, 4184, 4856, 6232, 6887], "queries": {"click": {"state": {"target": [], "time": []}, "edge": {"target": [], "time": []}}, "mouseover": {"state": {"target": [], "time": []}, "edge": {"target": [], "time": []}}, "mouseout": {"state": {"target": ["9", "8", "2", "1"], "time": [1705, 1815, 1949, 2032]}, "edge": {"target": [], "time": []}}}, "displayed_time": "16.38", "trialTime": 19568, "trial_type": "mouselab-mdp", "trial_index": 21, "time_elapsed": 671329, "internal_node_id": "0.0-6.0-1.0-6.0"}}, {"uniqueid": "w29473610:a28493364", "current_trial": 22, "dateTime": 1693481654413, "trialdata": {"revealed_states": [], "clicked_states": ["1", "12", "23", "21", "16", "27", "32", "11", "6"], "num_clicks_accrued": [0, 0, 0, 0, 0, 0, 0, 0, 0, 0, 0, 0, 0], "stateRewards": ["", -1, -3, -7, -4, -85, -70, 79, 8, 84, -66, 42, 2, -2, -3, -16, -54, -66, 68, -3, 21, -14, 7, -2, -1, -3, -8, 75, 80, 86, -7, -84, 73, -16], "withholdReward": false, "trial_id": "mdp_trial_8", "block": "test", "trialIndex": 11, "score": -11.600000000000001, "costs": -12.600000000000001, "simulationMode": [null, null, null, null, null], "rewards": [2, -2, -3, -3, 7], "path": ["0", "0", "12", "13", "14", "19", "22"], "rt": [25839, 303, 206, 3018, 298], "actions": ["right", "right", "right", "down", "left"], "actionTimes": [30717, 31517, 32220, 35732, 36533], "queries": {"click": {"state": {"target": ["1", "12", "23", "21", "16", "27", "32", "11", "6"], "time": [5786, 8288, 10106, 12352, 14032, 17225, 18777, 20409, 21977]}, "edge": {"target": [], "time": []}}, "mouseover": {"state": {"target": ["1", "13", "19", "22", "12", "0", "23", "14", "19", "21", "14", "15", "16", "13", "12", "25", "26", "29", "27", "27", "26", "25", "30", "32", "24", "28", "8", "9", "11", "8", "3", "4", "6", "24", "23", "0"], "time": [5478, 7388, 7538, 7856, 8155, 8825, 8890, 11326, 12043, 12110, 12827, 12861, 13061, 14512, 14596, 14762, 14829, 15263, 16581, 16981, 17566, 17615, 17698, 17982, 19183, 19203, 19284, 19484, 20185, 20803, 20851, 20935, 21336, 23638, 23755, 24588]}, "edge": {"target": [], "time": []}}, "mouseout": {"state": {"target": ["0", "1", "13", "19", "22", "12", "0", "23", "14", "19", "21", "14", "15", "16", "13", "12", "25", "26", "29", "27", "27", "27", "26", "25", "30", "32", "24", "28", "8", "9", "11", "8", "3", "4", "6", "24", "23", "0"], "time": [5319, 6321, 7455, 7605, 7905, 8823, 8856, 10759, 11993, 12093, 12777, 12844, 12877, 14195, 14579, 14614, 14779, 15179, 16514, 16631, 17231, 17532, 17598, 17648, 17849, 19150, 19200, 19217, 19334, 19901, 20785, 20835, 20885, 21152, 23070, 23739, 23821, 24639]}, "edge": {"target": [], "time": []}}}, "displayed_time": "37.04", "trialTime": 45149, "trial_type": "mouselab-mdp", "trial_index": 22, "time_elapsed": 716712, "internal_node_id": "0.0-6.0-1.0-7.0"}}, {"uniqueid": "w29473610:a28493364", "current_trial": 23, "dateTime": 1693481674844, "trialdata": {"revealed_states": [], "clicked_states": [], "num_clicks_accrued": [0, 0, 0, 0, 0, 0, 0, 0, 0, 0, 0, 0, 0], "stateRewards": ["", -2, -1, -2, -15, 87, 57, 29, -10, 77, -80, -7, 1, -3, 6, 14, -11, 87, -59, 4, -71, 16, -11, 2, 2, -7, 2, -47, 61, 50, 14, -20, 17, 81], "withholdReward": false, "trial_id": "mdp_trial_9", "block": "test", "trialIndex": 12, "score": 9, "costs": 0, "simulationMode": [null, null, null, null, null], "rewards": [-2, -1, -2, -15, 29], "path": ["0", "0", "1", "2", "3", "4", "7"], "rt": [3212, 73, 74, 1242, 283], "actions": ["up", "up", "up", "right", "down"], "actionTimes": [7762, 8330, 8897, 10634, 11409], "queries": {"click": {"state": {"target": [], "time": []}, "edge": {"target": [], "time": []}}, "mouseover": {"state": {"target": ["0", "1"], "time": [6338, 6987]}, "edge": {"target": [], "time": []}}, "mouseout": {"state": {"target": ["0", "0"], "time": [6103, 6403]}, "edge": {"target": [], "time": []}}}, "displayed_time": "18.55", "trialTime": 20201, "trial_type": "mouselab-mdp", "trial_index": 23, "time_elapsed": 737144, "internal_node_id": "0.0-6.0-1.0-8.0"}}, {"uniqueid": "w29473610:a28493364", "current_trial": 24, "dateTime": 1693481692621, "trialdata": {"revealed_states": [], "clicked_states": [], "num_clicks_accrued": [0, 0, 0, 0, 0, 0, 0, 0, 0, 0, 0, 0, 0], "stateRewards": ["", 1, -2, 4, 7, -43, -83, -60, -5, -86, -80, 83, -1, -2, 6, 11, -15, 21, 13, 9, 29, -49, 11, -1, 4, -6, -11, 87, 40, 63, -8, -39, -11, 62], "withholdReward": false, "trial_id": "mdp_trial_10", "block": "test", "trialIndex": 13, "score": -22, "costs": 0, "simulationMode": [null, null, null, null, null], "rewards": [-1, 4, -6, -8, -11], "path": ["0", "0", "23", "24", "25", "30", "32"], "rt": [1093, 57, 51, 692, 251], "actions": ["left", "left", "left", "down", "down"], "actionTimes": [2351, 2911, 3455, 4647, 5390], "queries": {"click": {"state": {"target": [], "time": []}, "edge": {"target": [], "time": []}}, "mouseover": {"state": {"target": ["0", "30"], "time": [1752, 1801]}, "edge": {"target": [], "time": []}}, "mouseout": {"state": {"target": ["1", "0", "30"], "time": [766, 1768, 1818]}, "edge": {"target": [], "time": []}}}, "displayed_time": "15.26", "trialTime": 17543, "trial_type": "mouselab-mdp", "trial_index": 24, "time_elapsed": 754920, "internal_node_id": "0.0-6.0-1.0-9.0"}}, {"uniqueid": "w29473610:a28493364", "current_trial": 25, "dateTime": 1693481711253, "trialdata": {"revealed_states": [], "clicked_states": [], "num_clicks_accrued": [0, 0, 0, 0, 0, 0, 0, 0, 0, 0, 0, 0, 0], "stateRewards": ["", 1, -1, 1, 13, 31, -56, 72, 2, 41, 5, 63, -2, -3, -2, 3, -71, -26, 52, 13, -31, 24, -67, 2, -2, 5, 4, 66, 43, 72, 9, 86, -26, 44], "withholdReward": false, "trial_id": "mdp_trial_11", "block": "test", "trialIndex": 14, "score": 30, "costs": 0, "simulationMode": [null, null, null, null, null], "rewards": [-2, -3, -2, 13, 24], "path": ["0", "0", "12", "13", "14", "19", "21"], "rt": [939, 41, 2, 1749, 817], "actions": ["right", "right", "right", "down", "down"], "actionTimes": [3143, 3680, 4192, 6456, 7775], "queries": {"click": {"state": {"target": [], "time": []}, "edge": {"target": [], "time": []}}, "mouseover": {"state": {"target": [], "time": []}, "edge": {"target": [], "time": []}}, "mouseout": {"state": {"target": ["22", "13", "12", "0"], "time": [1285, 1485, 1768, 2218]}, "edge": {"target": [], "time": []}}}, "displayed_time": "16.21", "trialTime": 18392, "trial_type": "mouselab-mdp", "trial_index": 25, "time_elapsed": 773553, "internal_node_id": "0.0-6.0-1.0-10.0"}}, {"uniqueid": "w29473610:a28493364", "current_trial": 26, "dateTime": 1693481731357, "trialdata": {"revealed_states": [], "clicked_states": [], "num_clicks_accrued": [0, 0, 0, 0, 0, 0, 0, 0, 0, 0, 0, 0, 0], "stateRewards": ["", -1, 4, -3, 3, 57, -61, 5, -11, 23, -1, 34, -2, -4, -1, -13, 27, 38, -36, 4, -45, 21, 88, 1, -2, -1, 1, -69, -5, -78, -12, -9, 38, -54], "withholdReward": false, "trial_id": "mdp_trial_12", "block": "test", "trialIndex": 15, "score": 60, "costs": 0, "simulationMode": [null, null, null, null, null], "rewards": [-1, 4, -3, 3, 57], "path": ["0", "0", "1", "2", "3", "4", "5"], "rt": [1525, 580, 626, 1483, 291], "actions": ["up", "up", "up", "right", "up"], "actionTimes": [3522, 4594, 5722, 7698, 8490], "queries": {"click": {"state": {"target": [], "time": []}, "edge": {"target": [], "time": []}}, "mouseover": {"state": {"target": [], "time": []}, "edge": {"target": [], "time": []}}, "mouseout": {"state": {"target": ["12"], "time": [1608]}, "edge": {"target": [], "time": []}}}, "displayed_time": "16.00", "trialTime": 19866, "trial_type": "mouselab-mdp", "trial_index": 26, "time_elapsed": 793657, "internal_node_id": "0.0-6.0-1.0-11.0"}}, {"uniqueid": "w29473610:a28493364", "current_trial": 27, "dateTime": 1693481750517, "trialdata": {"revealed_states": [], "clicked_states": [], "num_clicks_accrued": [0, 0, 0, 0, 0, 0, 0, 0, 0, 0, 0, 0, 0], "stateRewards": ["", 2, 3, -1, 16, -78, -11, 46, 2, -20, 79, -67, 2, 3, 2, 11, -83, -42, -58, -11, -67, -22, 55, 2, -1, -1, -16, -83, -82, 23, -11, -29, 13, 13], "withholdReward": false, "trial_id": "mdp_trial_13", "block": "test", "trialIndex": 16, "score": -71, "costs": 0, "simulationMode": [null, null, null, null, null], "rewards": [2, 3, 2, -11, -67], "path": ["0", "0", "12", "13", "14", "19", "20"], "rt": [1147, 146, 687, 816, 298], "actions": ["right", "right", "right", "down", "right"], "actionTimes": [2665, 3313, 4489, 5801, 6601], "queries": {"click": {"state": {"target": [], "time": []}, "edge": {"target": [], "time": []}}, "mouseover": {"state": {"target": [], "time": []}, "edge": {"target": [], "time": []}}, "mouseout": {"state": {"target": [], "time": []}, "edge": {"target": [], "time": []}}}, "displayed_time": "15.52", "trialTime": 18929, "trial_type": "mouselab-mdp", "trial_index": 27, "time_elapsed": 812816, "internal_node_id": "0.0-6.0-1.0-12.0"}}, {"uniqueid": "w29473610:a28493364", "current_trial": 28, "dateTime": 1693481766741, "trialdata": {"revealed_states": [], "clicked_states": [], "num_clicks_accrued": [0, 0, 0, 0, 0, 0, 0, 0, 0, 0, 0, 0, 0], "stateRewards": ["", 2, -1, -3, 16, -3, -16, -62, -1, 13, -26, 43, -1, 4, 3, -9, -54, -37, -3, -12, -71, -68, -57, 1, -3, 2, -9, 2, -2, -9, -11, 84, -52, 55], "withholdReward": false, "trial_id": "mdp_trial_14", "block": "test", "trialIndex": 17, "score": -11, "costs": 0, "simulationMode": [null, null, null, null, null], "rewards": [1, -3, 2, -9, -2], "path": ["0", "0", "23", "24", "25", "26", "28"], "rt": [3458, 354, 165, 642, 780], "actions": ["left", "left", "left", "up", "right"], "actionTimes": [4191, 5047, 5711, 6855, 8127], "queries": {"click": {"state": {"target": [], "time": []}, "edge": {"target": [], "time": []}}, "mouseover": {"state": {"target": ["0"], "time": [740]}, "edge": {"target": [], "time": []}}, "mouseout": {"state": {"target": ["0"], "time": [560]}, "edge": {"target": [], "time": []}}}, "displayed_time": "14.73", "trialTime": 15975, "trial_type": "mouselab-mdp", "trial_index": 28, "time_elapsed": 829041, "internal_node_id": "0.0-6.0-1.0-13.0"}}, {"uniqueid": "w29473610:a28493364", "current_trial": 29, "dateTime": 1693481786437, "trialdata": {"revealed_states": [], "clicked_states": [], "num_clicks_accrued": [0, 0, 0, 0, 0, 0, 0, 0, 0, 0, 0, 0, 0], "stateRewards": ["", -1, 2, 7, 8, 75, 67, -11, 6, 52, -17, 38, -1, 4, -8, 14, 74, -37, -17, -12, 52, 55, 71, -2, -1, -5, 2, 21, 6, -88, -14, 64, -61, -47], "withholdReward": false, "trial_id": "mdp_trial_15", "block": "test", "trialIndex": 18, "score": 15, "costs": 0, "simulationMode": [null, null, null, null, null], "rewards": [-2, -1, -5, 2, 21], "path": ["0", "0", "23", "24", "25", "26", "27"], "rt": [1175, 434, 12, 879, 678], "actions": ["left", "left", "left", "up", "up"], "actionTimes": [2808, 3744, 4256, 5640, 6808], "queries": {"click": {"state": {"target": [], "time": []}, "edge": {"target": [], "time": []}}, "mouseover": {"state": {"target": [], "time": []}, "edge": {"target": [], "time": []}}, "mouseout": {"state": {"target": [], "time": []}, "edge": {"target": [], "time": []}}}, "displayed_time": "15.63", "trialTime": 19456, "trial_type": "mouselab-mdp", "trial_index": 29, "time_elapsed": 848737, "internal_node_id": "0.0-6.0-1.0-14.0"}}, {"uniqueid": "w29473610:a28493364", "current_trial": 30, "dateTime": 1693481803901, "trialdata": {"revealed_states": [], "clicked_states": [], "num_clicks_accrued": [0, 0, 0, 0, 0, 0, 0, 0, 0, 0, 0, 0, 0], "stateRewards": ["", 2, -1, 3, -12, -83, 6, -33, 9, 28, 24, -50, -2, -1, -2, -5, -87, 37, 82, 12, 80, -5, 10, -2, -3, -6, 9, 22, -1, 16, 9, 77, -62, 58], "withholdReward": false, "trial_id": "mdp_trial_16", "block": "test", "trialIndex": 19, "score": 20, "costs": 0, "simulationMode": [null, null, null, null, null], "rewards": [-2, -3, -6, 9, 22], "path": ["0", "0", "23", "24", "25", "26", "27"], "rt": [1491, 477, 158, 948, 16], "actions": ["left", "left", "left", "up", "up"], "actionTimes": [2744, 3720, 4368, 5808, 6328], "queries": {"click": {"state": {"target": [], "time": []}, "edge": {"target": [], "time": []}}, "mouseover": {"state": {"target": [], "time": []}, "edge": {"target": [], "time": []}}, "mouseout": {"state": {"target": [], "time": []}, "edge": {"target": [], "time": []}}}, "displayed_time": "15.26", "trialTime": 17216, "trial_type": "mouselab-mdp", "trial_index": 30, "time_elapsed": 866201, "internal_node_id": "0.0-6.0-1.0-15.0"}}, {"uniqueid": "w29473610:a28493364", "current_trial": 31, "dateTime": 1693481823261, "trialdata": {"revealed_states": [], "clicked_states": [], "num_clicks_accrued": [0, 0, 0, 0, 0, 0, 0, 0, 0, 0, 0, 0, 0], "stateRewards": ["", 1, -2, -3, 14, -42, -87, -37, -11, -50, 33, -44, -2, 4, -7, 13, 48, -75, -66, 12, 23, -2, 82, 1, -4, 3, 12, 51, -15, -26, -11, -52, -29, 82], "withholdReward": false, "trial_id": "mdp_trial_17", "block": "test", "trialIndex": 20, "score": 63, "costs": 0, "simulationMode": [null, null, null, null, null], "rewards": [1, -4, 3, 12, 51], "path": ["0", "0", "23", "24", "25", "26", "27"], "rt": [933, 107, 754, 367, 3], "actions": ["left", "left", "left", "up", "up"], "actionTimes": [1754, 2362, 3609, 4473, 4978], "queries": {"click": {"state": {"target": [], "time": []}, "edge": {"target": [], "time": []}}, "mouseover": {"state": {"target": [], "time": []}, "edge": {"target": [], "time": []}}, "mouseout": {"state": {"target": ["0", "23", "0"], "time": [16585, 17202, 18519]}, "edge": {"target": [], "time": []}}}, "displayed_time": "14.82", "trialTime": 19106, "trial_type": "mouselab-mdp", "trial_index": 31, "time_elapsed": 885560, "internal_node_id": "0.0-6.0-1.0-16.0"}}, {"uniqueid": "w29473610:a28493364", "current_trial": 32, "dateTime": 1693481841013, "trialdata": {"revealed_states": [], "clicked_states": [], "num_clicks_accrued": [0, 0, 0, 0, 0, 0, 0, 0, 0, 0, 0, 0, 0], "stateRewards": ["", -2, 2, 5, -14, -56, 64, 84, -5, 52, 39, 85, -2, 1, 7, 8, 21, 29, -78, -9, -10, -69, 10, -2, -1, -7, 15, 72, 20, 41, -2, 52, 80, 22], "withholdReward": false, "trial_id": "mdp_trial_18", "block": "test", "trialIndex": 21, "score": 52, "costs": 0, "simulationMode": [null, null, null, null, null], "rewards": [-2, 2, 5, -5, 52], "path": ["0", "0", "1", "2", "3", "8", "9"], "rt": [1201, 222, 217, 556, 825], "actions": ["up", "up", "up", "left", "up"], "actionTimes": [2228, 2948, 3660, 4716, 6036], "queries": {"click": {"state": {"target": [], "time": []}, "edge": {"target": [], "time": []}}, "mouseover": {"state": {"target": ["0"], "time": [1072]}, "edge": {"target": [], "time": []}}, "mouseout": {"state": {"target": ["0", "0"], "time": [706, 1106]}, "edge": {"target": [], "time": []}}}, "displayed_time": "15.03", "trialTime": 17492, "trial_type": "mouselab-mdp", "trial_index": 32, "time_elapsed": 903313, "internal_node_id": "0.0-6.0-1.0-17.0"}}, {"uniqueid": "w29473610:a28493364", "current_trial": 33, "dateTime": 1693481860470, "trialdata": {"revealed_states": [], "clicked_states": [], "num_clicks_accrued": [0, 0, 0, 0, 0, 0, 0, 0, 0, 0, 0, 0, 0], "stateRewards": ["", 2, -3, 5, 11, -79, 54, 11, -9, -78, 33, 22, -2, -1, 2, 14, 43, 34, 1, 10, 49, -65, 39, -1, 1, -1, 3, -16, -2, 11, 2, 12, 48, -65], "withholdReward": false, "trial_id": "mdp_trial_19", "block": "test", "trialIndex": 22, "score": -64, "costs": 0, "simulationMode": [null, null, null, null, null], "rewards": [-1, 1, -1, 2, -65], "path": ["0", "0", "23", "24", "25", "30", "33"], "rt": [4290, 258, 43, 2270, 565], "actions": ["left", "left", "left", "down", "left"], "actionTimes": [5468, 6220, 6756, 9516, 10580], "queries": {"click": {"state": {"target": [], "time": []}, "edge": {"target": [], "time": []}}, "mouseover": {"state": {"target": ["1", "8", "8", "26", "24", "23", "23"], "time": [1507, 1622, 1889, 1991, 2190, 3874, 4958]}, "edge": {"target": [], "time": []}}, "mouseout": {"state": {"target": ["0", "1", "8", "8", "26", "24", "23", "23"], "time": [771, 1522, 1639, 1906, 2139, 2206, 4208, 17906]}, "edge": {"target": [], "time": []}}}, "displayed_time": "15.18", "trialTime": 19196, "trial_type": "mouselab-mdp", "trial_index": 33, "time_elapsed": 922769, "internal_node_id": "0.0-6.0-1.0-18.0"}}, {"uniqueid": "w29473610:a28493364", "current_trial": 34, "dateTime": 1693481883301, "trialdata": {"revealed_states": [], "clicked_states": [], "num_clicks_accrued": [0, 0, 0, 0, 0, 0, 0, 0, 0, 0, 0, 0, 0], "stateRewards": ["", -1, -4, 8, 8, -68, 47, 24, -7, -61, 49, -69, -1, -1, 8, -7, 42, 1, -45, -11, 10, -63, -6, 1, 4, 6, -16, 79, -37, -58, -12, 81, 18, -53], "withholdReward": false, "trial_id": "mdp_trial_20", "block": "test", "trialIndex": 23, "score": 17, "costs": 0, "simulationMode": [null, null, null, null, null], "rewards": [1, 4, 6, -12, 18], "path": ["0", "0", "23", "24", "25", "30", "32"], "rt": [1061, 51, 530, 691, 242], "actions": ["left", "left", "left", "down", "down"], "actionTimes": [1998, 2542, 3590, 4782, 5518], "queries": {"click": {"state": {"target": [], "time": []}, "edge": {"target": [], "time": []}}, "mouseover": {"state": {"target": [], "time": []}, "edge": {"target": [], "time": []}}, "mouseout": {"state": {"target": ["0"], "time": [1421]}, "edge": {"target": [], "time": []}}}, "displayed_time": "14.94", "trialTime": 22574, "trial_type": "mouselab-mdp", "trial_index": 34, "time_elapsed": 945601, "internal_node_id": "0.0-6.0-1.0-19.0"}}, {"uniqueid": "w29473610:a28493364", "current_trial": 35, "dateTime": 1693481902669, "trialdata": {"revealed_states": [], "clicked_states": [], "num_clicks_accrued": [0, 0, 0, 0, 0, 0, 0, 0, 0, 0, 0, 0, 0], "stateRewards": ["", -2, -4, -2, 10, -8, -15, -47, 7, -84, 53, 5, -1, 2, -7, 3, 83, 31, 47, -1, 30, -8, 69, 2, -4, -1, 8, -7, 12, -8, -8, -13, 30, -84], "withholdReward": false, "trial_id": "mdp_trial_21", "block": "test", "trialIndex": 24, "score": -6, "costs": 0, "simulationMode": [null, null, null, null, null], "rewards": [-2, -4, -2, 10, -8], "path": ["0", "0", "1", "2", "3", "4", "5"], "rt": [1599, 2, 884, 435, 445], "actions": ["up", "up", "up", "right", "up"], "actionTimes": [2690, 3188, 4586, 5522, 6467], "queries": {"click": {"state": {"target": [], "time": []}, "edge": {"target": [], "time": []}}, "mouseover": {"state": {"target": [], "time": []}, "edge": {"target": [], "time": []}}, "mouseout": {"state": {"target": ["1", "0"], "time": [664, 1165]}, "edge": {"target": [], "time": []}}}, "displayed_time": "15.09", "trialTime": 19114, "trial_type": "mouselab-mdp", "trial_index": 35, "time_elapsed": 964969, "internal_node_id": "0.0-6.0-1.0-20.0"}}, {"uniqueid": "w29473610:a28493364", "current_trial": 36, "dateTime": 1693481927813, "trialdata": {"revealed_states": [], "clicked_states": [], "num_clicks_accrued": [0, 0, 0, 0, 0, 0, 0, 0, 0, 0, 0, 0, 0], "stateRewards": ["", 1, -4, -6, -1, -21, 17, -72, 10, 77, 67, -46, -1, 4, -2, 14, -66, -49, -45, -15, -52, 23, -67, 2, -2, -2, 15, -3, 45, -64, 5, -44, 83, 61], "withholdReward": false, "trial_id": "mdp_trial_22", "block": "test", "trialIndex": 25, "score": 9, "costs": 0, "simulationMode": [null, null, null, null, null], "rewards": [-1, 4, -2, -15, 23], "path": ["0", "0", "12", "13", "14", "19", "21"], "rt": [1301, 322, 26, 781, 9], "actions": ["right", "right", "right", "down", "down"], "actionTimes": [2779, 3595, 4115, 5387, 5899], "queries": {"click": {"state": {"target": [], "time": []}, "edge": {"target": [], "time": []}}, "mouseover": {"state": {"target": [], "time": []}, "edge": {"target": [], "time": []}}, "mouseout": {"state": {"target": ["7", "4", "0", "0"], "time": [416, 633, 917, 1652]}, "edge": {"target": [], "time": []}}}, "displayed_time": "15.48", "trialTime": 24891, "trial_type": "mouselab-mdp", "trial_index": 36, "time_elapsed": 990113, "internal_node_id": "0.0-6.0-1.0-21.0"}}, {"uniqueid": "w29473610:a28493364", "current_trial": 37, "dateTime": 1693481945813, "trialdata": {"revealed_states": [], "clicked_states": [], "num_clicks_accrued": [0, 0, 0, 0, 0, 0, 0, 0, 0, 0, 0, 0, 0], "stateRewards": ["", 1, 1, 7, -11, 80, -20, -53, -14, 3, 31, 27, 2, -1, -8, -10, 33, 41, 86, 9, 78, -37, -13, -1, -2, -6, -8, -80, 75, 4, -16, -49, -74, 24], "withholdReward": false, "trial_id": "mdp_trial_23", "block": "test", "trialIndex": 26, "score": -35, "costs": 0, "simulationMode": [null, null, null, null, null], "rewards": [2, -1, -8, 9, -37], "path": ["0", "0", "12", "13", "14", "19", "21"], "rt": [1182, 73, 50, 794, 47], "actions": ["right", "right", "right", "down", "down"], "actionTimes": [1897, 2473, 3016, 4313, 4849], "queries": {"click": {"state": {"target": [], "time": []}, "edge": {"target": [], "time": []}}, "mouseover": {"state": {"target": [], "time": []}, "edge": {"target": [], "time": []}}, "mouseout": {"state": {"target": [], "time": []}, "edge": {"target": [], "time": []}}}, "displayed_time": "14.71", "trialTime": 17745, "trial_type": "mouselab-mdp", "trial_index": 37, "time_elapsed": 1008113, "internal_node_id": "0.0-6.0-1.0-22.0"}}, {"uniqueid": "w29473610:a28493364", "current_trial": 38, "dateTime": 1693481968237, "trialdata": {"revealed_states": [], "clicked_states": [], "num_clicks_accrued": [0, 0, 0, 0, 0, 0, 0, 0, 0, 0, 0, 0, 0], "stateRewards": ["", -1, 3, -5, -2, -13, -9, -34, -7, -81, 32, 35, -2, -2, 1, -14, -32, 81, 7, 4, 82, 56, -8, -1, 3, -8, 6, -24, -24, -53, 2, 38, 61, 54], "withholdReward": false, "trial_id": "mdp_trial_24", "block": "test", "trialIndex": 27, "score": -24, "costs": 0, "simulationMode": [null, null, null, null, null], "rewards": [-1, 3, -8, 6, -24], "path": ["0", "0", "23", "24", "25", "26", "27"], "rt": [806, 150, 187, 575, 627], "actions": ["left", "left", "left", "up", "up"], "actionTimes": [1950, 2598, 3286, 4358, 5478], "queries": {"click": {"state": {"target": [], "time": []}, "edge": {"target": [], "time": []}}, "mouseover": {"state": {"target": [], "time": []}, "edge": {"target": [], "time": []}}, "mouseout": {"state": {"target": ["0", "23", "31", "0"], "time": [18629, 18647, 20749, 21449]}, "edge": {"target": [], "time": []}}}, "displayed_time": "15.14", "trialTime": 22150, "trial_type": "mouselab-mdp", "trial_index": 38, "time_elapsed": 1030537, "internal_node_id": "0.0-6.0-1.0-23.0"}}, {"uniqueid": "w29473610:a28493364", "current_trial": 39, "dateTime": 1693481986509, "trialdata": {"revealed_states": [], "clicked_states": [], "num_clicks_accrued": [0, 0, 0, 0, 0, 0, 0, 0, 0, 0, 0, 0, 0], "stateRewards": ["", -1, 3, 8, 10, -86, 61, -36, 10, 17, -60, 24, -1, -3, 3, 11, 50, 60, 33, -3, -20, 58, -6, 1, -4, -4, 13, -70, -71, 43, 14, 52, 82, -11], "withholdReward": false, "trial_id": "mdp_trial_25", "block": "test", "trialIndex": 28, "score": 49, "costs": 0, "simulationMode": [null, null, null, null, null], "rewards": [1, -4, -4, 13, 43], "path": ["0", "0", "23", "24", "25", "26", "29"], "rt": [974, 136, 119, 559, 91], "actions": ["left", "left", "left", "up", "left"], "actionTimes": [2290, 2922, 3538, 4594, 5178], "queries": {"click": {"state": {"target": [], "time": []}, "edge": {"target": [], "time": []}}, "mouseover": {"state": {"target": ["0"], "time": [1415]}, "edge": {"target": [], "time": []}}, "mouseout": {"state": {"target": [], "time": []}, "edge": {"target": [], "time": []}}}, "displayed_time": "15.32", "trialTime": 18002, "trial_type": "mouselab-mdp", "trial_index": 39, "time_elapsed": 1048809, "internal_node_id": "0.0-6.0-1.0-24.0"}}, {"uniqueid": "w29473610:a28493364", "current_trial": 40, "dateTime": 1693482003669, "trialdata": {"revealed_states": [], "clicked_states": [], "num_clicks_accrued": [0, 0, 0, 0, 0, 0, 0, 0, 0, 0, 0, 0, 0], "stateRewards": ["", -1, -3, 3, 5, 56, 39, 50, -1, -80, 33, -46, 1, -2, -6, -8, 87, 48, 54, -11, -20, -64, -54, -2, 3, -7, -3, 12, 88, 35, -16, -46, -70, -3], "withholdReward": false, "trial_id": "mdp_trial_26", "block": "test", "trialIndex": 29, "score": 60, "costs": 0, "simulationMode": [null, null, null, null, null], "rewards": [-1, -3, 3, 5, 56], "path": ["0", "0", "1", "2", "3", "4", "5"], "rt": [1101, 40, 385, 757, 161], "actions": ["up", "up", "up", "right", "up"], "actionTimes": [2207, 2743, 3639, 4895, 5551], "queries": {"click": {"state": {"target": [], "time": []}, "edge": {"target": [], "time": []}}, "mouseover": {"state": {"target": [], "time": []}, "edge": {"target": [], "time": []}}, "mouseout": {"state": {"target": [], "time": []}, "edge": {"target": [], "time": []}}}, "displayed_time": "15.11", "trialTime": 16879, "trial_type": "mouselab-mdp", "trial_index": 40, "time_elapsed": 1065969, "internal_node_id": "0.0-6.0-1.0-25.0"}}, {"uniqueid": "w29473610:a28493364", "current_trial": 41, "dateTime": 1693482022046, "trialdata": {"revealed_states": [], "clicked_states": [], "num_clicks_accrued": [0, 0, 0, 0, 0, 0, 0, 0, 0, 0, 0, 0, 0], "stateRewards": ["", 1, -1, 4, -2, -75, -75, 84, -9, -60, -79, 59, 2, -4, 8, 9, -17, -82, 80, 14, -4, 49, 49, -1, 3, 6, -11, -33, 34, 55, 9, -57, 5, 59], "withholdReward": false, "trial_id": "mdp_trial_27", "block": "test", "trialIndex": 30, "score": 16, "costs": 0, "simulationMode": [null, null, null, null, null], "rewards": [2, -4, 8, 14, -4], "path": ["0", "0", "12", "13", "14", "19", "20"], "rt": [1113, 193, 508, 1556, 312], "actions": ["right", "right", "right", "down", "right"], "actionTimes": [3585, 4273, 5273, 7321, 8129], "queries": {"click": {"state": {"target": [], "time": []}, "edge": {"target": [], "time": []}}, "mouseover": {"state": {"target": [], "time": []}, "edge": {"target": [], "time": []}}, "mouseout": {"state": {"target": ["0", "24", "25", "24", "23"], "time": [1123, 1159, 1609, 1743, 2009]}, "edge": {"target": [], "time": []}}}, "displayed_time": "16.47", "trialTime": 18115, "trial_type": "mouselab-mdp", "trial_index": 41, "time_elapsed": 1084345, "internal_node_id": "0.0-6.0-1.0-26.0"}}, {"uniqueid": "w29473610:a28493364", "current_trial": 42, "dateTime": 1693482040452, "trialdata": {"revealed_states": [], "clicked_states": [], "num_clicks_accrued": [0, 0, 0, 0, 0, 0, 0, 0, 0, 0, 0, 0, 0], "stateRewards": ["", 1, -4, 6, -3, 40, 76, -51, 5, -24, -63, 44, -2, -2, 8, 1, 76, -85, -58, 10, 59, 20, 11, -2, 3, -3, 3, -82, -10, 54, -7, -57, -6, -32], "withholdReward": false, "trial_id": "mdp_trial_28", "block": "test", "trialIndex": 31, "score": 34, "costs": 0, "simulationMode": [null, null, null, null, null], "rewards": [-2, -2, 8, 10, 20], "path": ["0", "0", "12", "13", "14", "19", "21"], "rt": [982, 153, 111, 646, 32], "actions": ["right", "right", "right", "down", "down"], "actionTimes": [2175, 2823, 3431, 4567, 5087], "queries": {"click": {"state": {"target": [], "time": []}, "edge": {"target": [], "time": []}}, "mouseover": {"state": {"target": [], "time": []}, "edge": {"target": [], "time": []}}, "mouseout": {"state": {"target": [], "time": []}, "edge": {"target": [], "time": []}}}, "displayed_time": "15.20", "trialTime": 18127, "trial_type": "mouselab-mdp", "trial_index": 42, "time_elapsed": 1102752, "internal_node_id": "0.0-6.0-1.0-27.0"}}, {"uniqueid": "w29473610:a28493364", "current_trial": 43, "dateTime": 1693482064293, "trialdata": {"revealed_states": [], "clicked_states": [], "num_clicks_accrued": [0, 0, 0, 0, 0, 0, 0, 0, 0, 0, 0, 0, 0], "stateRewards": ["", 1, 4, 5, -5, 58, -80, 75, 6, 25, -39, 46, 2, -2, 4, 2, 59, 31, -22, -12, -61, 15, 72, 1, -2, -7, 8, 77, 76, -23, -7, 71, -15, -3], "withholdReward": false, "trial_id": "mdp_trial_29", "block": "test", "trialIndex": 32, "score": -69, "costs": 0, "simulationMode": [null, null, null, null, null], "rewards": [2, -2, 4, -12, -61], "path": ["0", "0", "12", "13", "14", "19", "20"], "rt": [1029, 149, 18, 685, 884], "actions": ["right", "right", "right", "down", "right"], "actionTimes": [3015, 3679, 4199, 5383, 6767], "queries": {"click": {"state": {"target": [], "time": []}, "edge": {"target": [], "time": []}}, "mouseover": {"state": {"target": [], "time": []}, "edge": {"target": [], "time": []}}, "mouseout": {"state": {"target": ["0"], "time": [2061]}, "edge": {"target": [], "time": []}}}, "displayed_time": "15.99", "trialTime": 23560, "trial_type": "mouselab-mdp", "trial_index": 43, "time_elapsed": 1126592, "internal_node_id": "0.0-6.0-1.0-28.0"}}, {"uniqueid": "w29473610:a28493364", "current_trial": 44, "dateTime": 1693482081069, "trialdata": {"revealed_states": [], "clicked_states": [], "num_clicks_accrued": [0, 0, 0, 0, 0, 0, 0, 0, 0, 0, 0, 0, 0], "stateRewards": ["", 2, -4, 4, 9, 69, 9, -75, 12, -86, 66, 25, -1, 3, 2, -13, -88, -3, 1, 4, -69, 49, -84, 2, -1, 4, 2, -18, -81, -52, -15, -69, -54, 25], "withholdReward": false, "trial_id": "mdp_trial_30", "block": "test", "trialIndex": 33, "score": 39, "costs": 0, "simulationMode": [null, null, null, null, null], "rewards": [2, -4, 4, 12, 25], "path": ["0", "0", "1", "2", "3", "8", "11"], "rt": [1108, 1686, 325, 1178, 671], "actions": ["up", "up", "up", "left", "left"], "actionTimes": [2000, 4184, 5008, 6680, 7840], "queries": {"click": {"state": {"target": [], "time": []}, "edge": {"target": [], "time": []}}, "mouseover": {"state": {"target": [], "time": []}, "edge": {"target": [], "time": []}}, "mouseout": {"state": {"target": ["0"], "time": [665]}, "edge": {"target": [], "time": []}}}, "displayed_time": "14.89", "trialTime": 16496, "trial_type": "mouselab-mdp", "trial_index": 44, "time_elapsed": 1143369, "internal_node_id": "0.0-6.0-1.0-29.0"}}, {"uniqueid": "w29473610:a28493364", "current_trial": 45, "dateTime": 1693482099165, "trialdata": {"revealed_states": [], "clicked_states": [], "num_clicks_accrued": [0, 0, 0, 0, 0, 0, 0, 0, 0, 0, 0, 0, 0], "stateRewards": ["", -2, 1, -7, 9, 8, 25, 61, -7, -17, 69, -81, 1, 4, -4, -11, 16, 67, 44, 3, 6, -45, -54, -2, 3, 6, -11, -15, 32, -47, 3, -39, -6, -88], "withholdReward": false, "trial_id": "mdp_trial_31", "block": "test", "trialIndex": 34, "score": -19, "costs": 0, "simulationMode": [null, null, null, null, null], "rewards": [-2, 3, 6, -11, -15], "path": ["0", "0", "23", "24", "25", "26", "27"], "rt": [925, 34, 60, 589, 769], "actions": ["left", "left", "left", "up", "up"], "actionTimes": [2116, 2652, 3228, 4308, 5572], "queries": {"click": {"state": {"target": [], "time": []}, "edge": {"target": [], "time": []}}, "mouseover": {"state": {"target": [], "time": []}, "edge": {"target": [], "time": []}}, "mouseout": {"state": {"target": ["0"], "time": [1005]}, "edge": {"target": [], "time": []}}}, "displayed_time": "15.19", "trialTime": 17812, "trial_type": "mouselab-mdp", "trial_index": 45, "time_elapsed": 1161464, "internal_node_id": "0.0-6.0-1.0-30.0"}}, {"uniqueid": "w29473610:a28493364", "current_trial": 46, "dateTime": 1693482115965, "trialdata": {"revealed_states": [], "clicked_states": [], "num_clicks_accrued": [0, 0, 0, 0, 0, 0, 0, 0, 0, 0, 0, 0, 0], "stateRewards": ["", 1, 4, 7, -16, -84, -6, -46, -12, -7, -49, -26, -1, 2, -4, 2, 22, 37, -64, 1, 88, -13, -10, 1, -4, -2, 5, 2, -10, -34, 9, 66, 55, 38], "withholdReward": false, "trial_id": "mdp_trial_32", "block": "test", "trialIndex": 35, "score": 42, "costs": 0, "simulationMode": [null, null, null, null, null], "rewards": [1, -4, -2, 9, 38], "path": ["0", "0", "23", "24", "25", "30", "33"], "rt": [737, 454, 208, 603, 549], "actions": ["left", "left", "left", "down", "left"], "actionTimes": [1694, 2645, 3350, 4446, 5494], "queries": {"click": {"state": {"target": [], "time": []}, "edge": {"target": [], "time": []}}, "mouseover": {"state": {"target": [], "time": []}, "edge": {"target": [], "time": []}}, "mouseout": {"state": {"target": ["0"], "time": [783]}, "edge": {"target": [], "time": []}}}, "displayed_time": "14.96", "trialTime": 16518, "trial_type": "mouselab-mdp", "trial_index": 46, "time_elapsed": 1178265, "internal_node_id": "0.0-6.0-1.0-31.0"}}, {"uniqueid": "w29473610:a28493364", "current_trial": 47, "dateTime": 1693482133229, "trialdata": {"revealed_states": [], "clicked_states": [], "num_clicks_accrued": [0, 0, 0, 0, 0, 0, 0, 0, 0, 0, 0, 0, 0], "stateRewards": ["", -2, 2, -1, -6, 22, 6, 6, -5, 70, -42, 65, 1, 3, 5, -6, -67, -9, 3, 14, 7, -62, -13, -2, 4, 1, 16, 42, -21, -52, -8, 32, 53, 81], "withholdReward": false, "trial_id": "mdp_trial_33", "block": "test", "trialIndex": 36, "score": -39, "costs": 0, "simulationMode": [null, null, null, null, null], "rewards": [1, 3, 5, 14, -62], "path": ["0", "0", "12", "13", "14", "19", "21"], "rt": [1037, 121, 119, 1119, 1501], "actions": ["right", "right", "right", "down", "down"], "actionTimes": [2989, 3621, 4237, 5853, 7853], "queries": {"click": {"state": {"target": [], "time": []}, "edge": {"target": [], "time": []}}, "mouseover": {"state": {"target": [], "time": []}, "edge": {"target": [], "time": []}}, "mouseout": {"state": {"target": ["0"], "time": [1055]}, "edge": {"target": [], "time": []}}}, "displayed_time": "15.95", "trialTime": 16989, "trial_type": "mouselab-mdp", "trial_index": 47, "time_elapsed": 1195529, "internal_node_id": "0.0-6.0-1.0-32.0"}}, {"uniqueid": "w29473610:a28493364", "current_trial": 48, "dateTime": 1693482150677, "trialdata": {"revealed_states": [], "clicked_states": [], "num_clicks_accrued": [0, 0, 0, 0, 0, 0, 0, 0, 0, 0, 0, 0, 0], "stateRewards": ["", 1, -1, 4, 5, -32, 18, 20, 6, -88, -74, 9, -2, 1, -2, -14, 34, -77, -38, -1, 80, -36, 73, 2, 3, -8, 10, -48, -73, -71, -11, -22, 20, 54], "withholdReward": false, "trial_id": "mdp_trial_34", "block": "test", "trialIndex": 37, "score": 69, "costs": 0, "simulationMode": [null, null, null, null, null], "rewards": [-2, 1, -2, -1, 73], "path": ["0", "0", "12", "13", "14", "19", "22"], "rt": [915, 276, 221, 576, 452], "actions": ["right", "right", "right", "down", "left"], "actionTimes": [2834, 3610, 4322, 5394, 6338], "queries": {"click": {"state": {"target": [], "time": []}, "edge": {"target": [], "time": []}}, "mouseover": {"state": {"target": [], "time": []}, "edge": {"target": [], "time": []}}, "mouseout": {"state": {"target": ["0"], "time": [1780]}, "edge": {"target": [], "time": []}}}, "displayed_time": "15.92", "trialTime": 17170, "trial_type": "mouselab-mdp", "trial_index": 48, "time_elapsed": 1212977, "internal_node_id": "0.0-6.0-1.0-33.0"}}, {"uniqueid": "w29473610:a28493364", "current_trial": 49, "dateTime": 1693482168157, "trialdata": {"revealed_states": [], "clicked_states": [], "num_clicks_accrued": [0, 0, 0, 0, 0, 0, 0, 0, 0, 0, 0, 0, 0], "stateRewards": ["", 2, 3, 8, 11, 25, -80, 6, -4, -56, 84, -23, -2, -4, -3, 4, -51, -9, -61, -15, -64, 67, -35, 1, -1, -7, -6, 83, 59, -15, 12, -79, 56, 41], "withholdReward": false, "trial_id": "mdp_trial_35", "block": "test", "trialIndex": 38, "score": 30, "costs": 0, "simulationMode": [null, null, null, null, null], "rewards": [2, 3, 8, 11, 6], "path": ["0", "0", "1", "2", "3", "4", "7"], "rt": [2888, 215, 443, 436, 757], "actions": ["up", "up", "up", "right", "down"], "actionTimes": [4840, 5560, 6504, 7432, 8688], "queries": {"click": {"state": {"target": [], "time": []}, "edge": {"target": [], "time": []}}, "mouseover": {"state": {"target": [], "time": []}, "edge": {"target": [], "time": []}}, "mouseout": {"state": {"target": ["0"], "time": [1785]}, "edge": {"target": [], "time": []}}}, "displayed_time": "15.95", "trialTime": 17208, "trial_type": "mouselab-mdp", "trial_index": 49, "time_elapsed": 1230457, "internal_node_id": "0.0-6.0-1.0-34.0"}}, {"uniqueid": "w29473610:a28493364", "current_trial": 50, "dateTime": 1693482184317, "trialdata": {"revealed_states": [], "clicked_states": [], "num_clicks_accrued": [0, 0, 0, 0, 0, 0, 0, 0, 0, 0, 0, 0, 0], "stateRewards": ["", -1, 3, 2, 9, 41, 4, -46, -12, -54, -87, -25, 2, 3, -1, 11, -77, 12, -33, -9, -32, 35, 72, 1, 3, -7, 4, 37, 65, -73, 6, 77, -43, 8], "withholdReward": false, "trial_id": "mdp_trial_36", "block": "test", "trialIndex": 39, "score": -72, "costs": 0, "simulationMode": [null, null, null, null, null], "rewards": [1, 3, -7, 4, -73], "path": ["0", "0", "23", "24", "25", "26", "29"], "rt": [1002, 202, 141, 515, 154], "actions": ["left", "left", "left", "up", "left"], "actionTimes": [1772, 2476, 3116, 4124, 4780], "queries": {"click": {"state": {"target": [], "time": []}, "edge": {"target": [], "time": []}}, "mouseover": {"state": {"target": [], "time": []}, "edge": {"target": [], "time": []}}, "mouseout": {"state": {"target": ["0"], "time": [597]}, "edge": {"target": [], "time": []}}}, "displayed_time": "14.77", "trialTime": 15900, "trial_type": "mouselab-mdp", "trial_index": 50, "time_elapsed": 1246617, "internal_node_id": "0.0-6.0-1.0-35.0"}}, {"uniqueid": "w29473610:a28493364", "current_trial": 51, "dateTime": 1693482201397, "trialdata": {"revealed_states": [], "clicked_states": [], "num_clicks_accrued": [0, 0, 0, 0, 0, 0, 0, 0, 0, 0, 0, 0, 0], "stateRewards": ["", -1, 3, -4, -14, 78, 67, 2, 13, -32, 28, 39, -2, 1, -4, -4, -4, -42, -86, 11, 64, -29, -32, -1, -4, 2, -7, 5, 68, -61, 2, -21, 85, 50], "withholdReward": false, "trial_id": "mdp_trial_37", "block": "test", "trialIndex": 40, "score": -51, "costs": 0, "simulationMode": [null, null, null, null, null], "rewards": [-2, 1, -4, -4, -42], "path": ["0", "0", "12", "13", "14", "15", "17"], "rt": [965, 1007, 19, 381, 537], "actions": ["right", "right", "right", "up", "right"], "actionTimes": [2442, 3945, 4458, 5353, 6393], "queries": {"click": {"state": {"target": [], "time": []}, "edge": {"target": [], "time": []}}, "mouseover": {"state": {"target": [], "time": []}, "edge": {"target": [], "time": []}}, "mouseout": {"state": {"target": ["0"], "time": [1356]}, "edge": {"target": [], "time": []}}}, "displayed_time": "15.48", "trialTime": 16793, "trial_type": "mouselab-mdp", "trial_index": 51, "time_elapsed": 1263696, "internal_node_id": "0.0-6.0-1.0-36.0"}}, {"uniqueid": "w29473610:a28493364", "current_trial": 52, "dateTime": 1693482217725, "trialdata": {"revealed_states": [], "clicked_states": [], "num_clicks_accrued": [0, 0, 0, 0, 0, 0, 0, 0, 0, 0, 0, 0, 0], "stateRewards": ["", 1, 2, -3, -5, 66, -50, -47, -5, 1, 28, -27, 1, 1, -1, -6, 37, -25, 56, 1, -82, -66, -40, -1, -4, -7, 15, -61, -23, 26, 10, 14, -56, 29], "withholdReward": false, "trial_id": "mdp_trial_38", "block": "test", "trialIndex": 41, "score": 27, "costs": 0, "simulationMode": [null, null, null, null, null], "rewards": [-1, -4, -7, 10, 29], "path": ["0", "0", "23", "24", "25", "30", "33"], "rt": [1080, 517, 347, 624, 410], "actions": ["left", "left", "left", "down", "left"], "actionTimes": [1856, 2864, 3712, 4840, 5744], "queries": {"click": {"state": {"target": [], "time": []}, "edge": {"target": [], "time": []}}, "mouseover": {"state": {"target": [], "time": []}, "edge": {"target": [], "time": []}}, "mouseout": {"state": {"target": ["0"], "time": [578]}, "edge": {"target": [], "time": []}}}, "displayed_time": "14.78", "trialTime": 16048, "trial_type": "mouselab-mdp", "trial_index": 52, "time_elapsed": 1280024, "internal_node_id": "0.0-6.0-1.0-37.0"}}, {"uniqueid": "w29473610:a28493364", "current_trial": 53, "dateTime": 1693482234524, "trialdata": {"revealed_states": [], "clicked_states": [], "num_clicks_accrued": [0, 0, 0, 0, 0, 0, 0, 0, 0, 0, 0, 0, 0], "stateRewards": ["", 1, 1, 1, 15, -76, 52, -32, 14, -57, 37, 49, 1, -4, -3, 6, 83, -76, 25, 9, 36, -1, -17, -1, 4, 4, -2, -22, -21, 58, -15, -57, 49, -24], "withholdReward": false, "trial_id": "mdp_trial_39", "block": "test", "trialIndex": 42, "score": -14, "costs": 0, "simulationMode": [null, null, null, null, null], "rewards": [1, 1, 1, 15, -32], "path": ["0", "0", "1", "2", "3", "4", "7"], "rt": [1013, 21, 1752, 691, 1178], "actions": ["up", "up", "up", "right", "down"], "actionTimes": [2286, 2805, 5053, 6245, 7917], "queries": {"click": {"state": {"target": [], "time": []}, "edge": {"target": [], "time": []}}, "mouseover": {"state": {"target": [], "time": []}, "edge": {"target": [], "time": []}}, "mouseout": {"state": {"target": ["0"], "time": [1127]}, "edge": {"target": [], "time": []}}}, "displayed_time": "15.27", "trialTime": 16501, "trial_type": "mouselab-mdp", "trial_index": 53, "time_elapsed": 1296824, "internal_node_id": "0.0-6.0-1.0-38.0"}}, {"uniqueid": "w29473610:a28493364", "current_trial": 54, "dateTime": 1693482258197, "trialdata": {"revealed_states": [], "clicked_states": ["23", "27", "32", "21", "16", "5", "8"], "num_clicks_accrued": [0, 0, 0, 0, 0, 0, 0, 0, 0, 0, 0, 0, 0], "stateRewards": ["", -1, -3, 1, 13, -64, -29, 12, -4, -33, 50, 56, 2, -3, 4, 11, -64, -58, -55, 12, 47, 38, -25, -2, 2, 5, -15, 85, 7, 84, 10, 8, 57, 26], "withholdReward": false, "trial_id": "mdp_trial_40", "block": "test", "trialIndex": 43, "score": 64.2, "costs": -9.8, "simulationMode": [null, null, null, null, null], "rewards": [-2, 2, 5, -15, 84], "path": ["0", "0", "23", "24", "25", "26", "29"], "rt": [15320, 347, 385, 629, 1463], "actions": ["left", "left", "left", "up", "left"], "actionTimes": [16351, 17199, 18087, 19215, 21167], "queries": {"click": {"state": {"target": ["23", "27", "32", "21", "16", "5", "8"], "time": [2484, 4500, 6122, 8042, 9924, 11668, 13307]}, "edge": {"target": [], "time": []}}, "mouseover": {"state": {"target": ["23", "24", "26", "27", "26", "25", "30", "32", "21", "21", "19", "14", "15", "16", "4", "5", "8", "3", "2", "1", "0"], "time": [2285, 3736, 4103, 4320, 5054, 5104, 5122, 5172, 6639, 6889, 8392, 8424, 8658, 8791, 10311, 10660, 12145, 13830, 14365, 14397, 15232]}, "edge": {"target": [], "time": []}}, "mouseout": {"state": {"target": ["0", "23", "24", "26", "27", "26", "25", "30", "32", "21", "21", "19", "14", "15", "16", "4", "5", "8", "3", "2", "1"], "time": [840, 3253, 3786, 4136, 5037, 5087, 5120, 5154, 6540, 6672, 8357, 8408, 8441, 8708, 10192, 10460, 11916, 13730, 14330, 14381, 14414]}, "edge": {"target": [], "time": []}}}, "displayed_time": "21.66", "trialTime": 23343, "trial_type": "mouselab-mdp", "trial_index": 54, "time_elapsed": 1320497, "internal_node_id": "0.0-6.0-1.0-39.0"}}, {"uniqueid": "w29473610:a28493364", "current_trial": 55, "dateTime": 1693482305565, "trialdata": {"rt": 47364, "response": {"Q0": "$-2 to $2", "Q1": "$-4 to $4", "Q2": "$-16 to $16", "Q3": "The cost for clicking on nodes varied between nodes.", "Q4": "Very motivated"}, "question_order": [0, 1, 2, 3, 4], "trial_id": "final_quiz_control", "trial_type": "survey-multi-choice", "trial_index": 55, "time_elapsed": 1367865, "internal_node_id": "0.0-6.0-2.0"}}, {"uniqueid": "w29473610:a28493364", "current_trial": 56, "dateTime": 1693482385398, "trialdata": {"rt": 79822, "response": {"Q0": "I did not use any.\n\nI tried to apply one, but it was not work.", "Q1": "Nope, I then started going with my intuition", "Q2": "Difficult, I could not find a working strategy"}, "trial_id": "self_report_control", "trial_type": "survey-text", "trial_index": 56, "time_elapsed": 1447698, "internal_node_id": "0.0-6.0-3.0"}}, {"uniqueid": "w29473610:a28493364", "current_trial": 57, "dateTime": 1693482400325, "trialdata": {"rt": 14922, "response": {"gender": "female", "age": "30", "colorblind": "0", "effort": "0"}, "trial_type": "survey-html-form", "trial_index": 57, "time_elapsed": 1462625, "internal_node_id": "0.0-6.0-4.0"}}, {"uniqueid": "w29473610:a28493364", "current_trial": 58, "dateTime": 1693482416421, "trialdata": {"rt": 16090, "response": {"Q0": "Nopr", "Q1": "I never did ", "Q2": "None"}, "trial_type": "survey-text", "trial_index": 58, "time_elapsed": 1478720, "internal_node_id": "0.0-6.0-5.0"}}, {"uniqueid": "w29473610:a28493364", "current_trial": 59, "dateTime": 1693482436221, "trialdata": {"rt": 19796, "stimulus": "<h1>Completion Code Instructions (1/2)</h1>\n<br><br><br><br>\nYou have reached the end of the experiment! The completion code consists of two parts: (1) a code with 2 characters (2) a code with 6 characters. On this page, you will receive the second part of the code. The first part of the completion code will be on the next page.\n<br><br>\nThe second part of your completion code is: <b>EWEK22</b>\n<br><br>\nPlease note this down. Then, press 'Finish HIT' in order to find the first part of your completion code. Once the data has been saved, you will receive this code either in this window or in the original browser window where you started the experiment.\n", "response": 0, "trial_type": "html-button-response", "trial_index": 59, "time_elapsed": 1498521, "internal_node_id": "0.0-6.0-6.0"}}, {"uniqueid": "w29473610:a28493364", "current_trial": 60, "dateTime": 1693482437224, "trialdata": {"success": true, "trial_type": "fullscreen", "trial_index": 60, "time_elapsed": 1499524, "internal_node_id": "0.0-7.0"}}], "questiondata": {"params": {"CODE": "C6DMOQA6", "MIN_TIME": 14, "inspectCost": 1, "startTime": "Thu Aug 31 2023 13:22:15 GMT+0200 (South Africa Standard Time)", "bonusRate": 0.002, "variance": "1_2_4_8_44", "branching": "31123"}, "final_score": 63}, "eventdata": [{"eventtype": "initialized", "value": null, "timestamp": 1693480934629, "interval": 0}, {"eventtype": "window_resize", "value": [1024, 767], "timestamp": 1693480934629, "interval": 0}, {"eventtype": "window_resize", "value": [1024, 767], "timestamp": 1693480935123, "interval": 494}, {"eventtype": "window_resize", "value": [1920, 1080], "timestamp": 1693480942312, "interval": 7189}, {"eventtype": "focus", "value": "off", "timestamp": 1693481315839, "interval": 373527}, {"eventtype": "focus", "value": "on", "timestamp": 1693481315840, "interval": 1}, {"eventtype": "window_resize", "value": [1024, 767], "timestamp": 1693481316049, "interval": 209}, {"eventtype": "window_resize", "value": [1920, 1080], "timestamp": 1693481319729, "interval": 3680}, {"eventtype": "window_resize", "value": [1024, 767], "timestamp": 1693482436442, "interval": 1116713}], "useragent": "Mozilla/5.0 (Windows NT 10.0; Win64; x64) AppleWebKit/537.36 (KHTML, like Gecko) Chrome/116.0.0.0 Safari/537.36", "mode": "live", "id": "w29473610:a28493364", "status": "user data saved", "Beginhit": "2023-08-31 11:22:11.577566", "Beginexp": "2023-08-31 11:22:23.230451", "Endhit": "2023-08-31 11:47:18.520069", "psiturkStatus": 3, "browser": "<redacted>", "platform": "windows", "language": "en-ZA"}