{"condition": 0, "counterbalance": 0, "assignmentId": "a83883223", "workerId": "w66960159", "hitId": "h89298981", "currenttrial": 55, "bonus": 0, "data": [{"uniqueid": "w66960159:a83883223", "current_trial": 0, "dateTime": 1693481271712, "trialdata": {"success": true, "trial_type": "fullscreen", "trial_index": 0, "time_elapsed": 6645, "internal_node_id": "0.0-0.0"}}, {"uniqueid": "w66960159:a83883223", "current_trial": 1, "dateTime": 1693481283855, "trialdata": {"view_history": [{"page_index": 0, "viewing_time": 12138}], "rt": 12139, "trial_id": "exp_instructions_control", "trial_type": "instructions", "trial_index": 1, "time_elapsed": 18789, "internal_node_id": "0.0-1.0"}}, {"uniqueid": "w66960159:a83883223", "current_trial": 2, "dateTime": 1693481500918, "trialdata": {"view_history": [{"page_index": 0, "viewing_time": 53629}, {"page_index": 1, "viewing_time": 77088}, {"page_index": 2, "viewing_time": 37288}, {"page_index": 3, "viewing_time": 49056}], "rt": 217062, "trial_id": "mouselab_instructions_1_control", "trial_type": "instructions", "trial_index": 2, "time_elapsed": 235852, "internal_node_id": "0.0-2.0-1.0"}}, {"uniqueid": "w66960159:a83883223", "current_trial": 3, "dateTime": 1693481517865, "trialdata": {"revealed_states": [], "clicked_states": ["17", "29", "8", "21"], "num_clicks_accrued": [0, 0, 0, 0, 0, 0, 0, 0, 0, 0, 0, 0, 0], "stateRewards": ["", -10, 10, 10, 10, 10, 10, -10, -10, -10, -10, -10, -10, 10, 10, 10, 10, 10, 10, 10, -10, 10, 10, 10, -10, -10, -10, -10, 10, 10, 10, 10, -10, 10], "withholdReward": false, "trial_id": "practice_1", "block": "test", "trialIndex": 0, "score": 31.5, "costs": -2, "simulationMode": [null, null, null, null, null], "rewards": [-10, 10, 10, 10, 10], "path": ["0", "0", "12", "13", "14", "15", "17"], "rt": [7616, 101, 89, 418, 385], "actions": ["right", "right", "right", "up", "right"], "actionTimes": [9098, 9721, 10321, 11233, 12137], "queries": {"click": {"state": {"target": ["17", "29", "8", "21"], "time": [2913, 4122, 6191, 7774]}, "edge": {"target": [], "time": []}}, "mouseover": {"state": {"target": ["12", "13", "17", "26", "29", "27", "11", "8", "10", "7", "7", "13", "20", "21"], "time": [2298, 2316, 2665, 3714, 3898, 4664, 4731, 4848, 6564, 6681, 6831, 7047, 7098, 7547]}, "edge": {"target": [], "time": []}}, "mouseout": {"state": {"target": ["0", "12", "13", "17", "26", "29", "27", "11", "8", "10", "7", "7", "13", "20", "21"], "time": [2281, 2314, 2331, 3348, 3831, 4235, 4681, 4748, 6548, 6581, 6731, 6881, 7064, 7214, 14016]}, "edge": {"target": [], "time": []}}}, "displayed_time": "12.64", "trialTime": 15666, "trial_type": "mouselab-mdp", "trial_index": 3, "time_elapsed": 252798, "internal_node_id": "0.0-2.0-2.0-0.0"}}, {"uniqueid": "w66960159:a83883223", "current_trial": 4, "dateTime": 1693481534864, "trialdata": {"revealed_states": [], "clicked_states": ["32", "9", "17"], "num_clicks_accrued": [0, 0, 0, 0, 0, 0, 0, 0, 0, 0, 0, 0, 0], "stateRewards": ["", 10, 10, 10, -10, 10, 10, 10, -10, 10, -10, -10, 10, -10, -10, 10, -10, 10, -10, 10, 10, -10, 10, -10, -10, -10, 10, -10, 10, 10, -10, 10, 10, 10], "withholdReward": false, "trial_id": "practice_2", "block": "test", "trialIndex": 1, "score": 12, "costs": -1.5, "simulationMode": [null, null, null, null, null], "rewards": [10, -10, -10, 10, 10], "path": ["0", "0", "12", "13", "14", "15", "17"], "rt": [6284, 413, 8, 148, 511], "actions": ["right", "right", "right", "up", "right"], "actionTimes": [8330, 9258, 9786, 10458, 11490], "queries": {"click": {"state": {"target": ["32", "9", "17"], "time": [2920, 4376, 5953]}, "edge": {"target": [], "time": []}}, "mouseover": {"state": {"target": ["31", "32", "30", "28", "8", "9", "4", "6", "16", "17", "17", "20", "20"], "time": [2492, 2658, 3325, 3359, 3392, 3809, 4992, 5042, 5209, 5308, 5492, 6359, 6509]}, "edge": {"target": [], "time": []}}, "mouseout": {"state": {"target": ["0", "31", "32", "30", "28", "8", "9", "4", "6", "16", "17", "17", "20", "20", "21"], "time": [1541, 2525, 2996, 3342, 3375, 3408, 4944, 5008, 5058, 5292, 5342, 6275, 6408, 15225, 15391]}, "edge": {"target": [], "time": []}}}, "displayed_time": "12.01", "trialTime": 16810, "trial_type": "mouselab-mdp", "trial_index": 4, "time_elapsed": 269797, "internal_node_id": "0.0-2.0-2.0-1.0"}}, {"uniqueid": "w66960159:a83883223", "current_trial": 5, "dateTime": 1693481583758, "trialdata": {"view_history": [{"page_index": 0, "viewing_time": 37860}, {"page_index": 1, "viewing_time": 11032}], "rt": 48892, "trial_id": "mouselab_instructions_2_control", "trial_type": "instructions", "trial_index": 5, "time_elapsed": 318692, "internal_node_id": "0.0-2.0-3.0"}}, {"uniqueid": "w66960159:a83883223", "current_trial": 6, "dateTime": 1693481639704, "trialdata": {"rt": 55942, "response": {"Q0": "The cost for clicking on nodes may vary between nodes.", "Q1": "The better I perform the higher my bonus will be.", "Q2": "No, the amount of cash at each node of the web may be different each time.", "Q3": "To get the highest total score.", "Q4": "Only before moving the spider.", "Q5": "3 seconds"}, "question_order": [0, 1, 2, 3, 4, 5], "correct": {"Q0": "The cost for clicking on nodes may vary between nodes.", "Q1": "The better I perform the higher my bonus will be.", "Q2": "No, the amount of cash at each node of the web may be different each time.", "Q3": "To get the highest total score.", "Q4": "Only before moving the spider.", "Q5": "3 seconds"}, "trial_id": "mouselab_quiz_control", "trial_type": "survey-multi-choice", "trial_index": 6, "time_elapsed": 374638, "internal_node_id": "0.0-2.0-4.0"}}, {"uniqueid": "w66960159:a83883223", "current_trial": 7, "dateTime": 1693481646439, "trialdata": {"rt": 6727, "response": {"Q0": "No"}, "question_order": [0], "trial_id": "repeat_check", "trial_type": "survey-multi-choice", "trial_index": 7, "time_elapsed": 381373, "internal_node_id": "0.0-4.0-0.0"}}, {"uniqueid": "w66960159:a83883223", "current_trial": 8, "dateTime": 1693481658488, "trialdata": {"rt": 12043, "stimulus": "\n<h1> Get ready to start the game! </h1>\n\nThank you for reading the instructions. Get ready start with the 40 rounds of this game.\n<br><br>\nIf you need to take a break, feel free to take one after the end of a round, before continuing to the next one.\n<br><br>\nRemember, the more money the spider gets, the bigger your bonus will be!\n<br><br>\n<div style='text-align: center;'>Press <code>space</code> to begin.</div>\n\n<br><br>\n(If, at any point, the <code>space</code> key does not take you to the next page, click once on the text and try again.)", "response": " ", "trial_id": "mdp_ready", "trial_type": "html-keyboard-response", "trial_index": 8, "time_elapsed": 393422, "internal_node_id": "0.0-6.0-0.0"}}, {"uniqueid": "w66960159:a83883223", "current_trial": 9, "dateTime": 1693481676176, "trialdata": {"revealed_states": [], "clicked_states": ["32", "5", "20"], "num_clicks_accrued": [0, 0, 0, 0, 0, 0, 0, 0, 0, 0, 0, 0, 0], "stateRewards": ["", -1, -3, -3, 1, -38, 2, -53, -2, -1, -81, 70, -1, 1, -5, -9, 46, 15, 35, -1, -22, 38, 59, -2, 4, -8, 13, 1, -83, -43, 4, 76, 13, 48], "withholdReward": false, "trial_id": "mdp_trial_1", "block": "test", "trialIndex": 2, "score": 6.800000000000001, "costs": -4.199999999999999, "simulationMode": [null, null, null, null, null], "rewards": [-2, 4, -8, 4, 13], "path": ["0", "0", "23", "24", "25", "30", "32"], "rt": [9197, 106, 322, 79, 361], "actions": ["left", "left", "left", "down", "down"], "actionTimes": [10788, 11395, 12228, 12819, 13700], "queries": {"click": {"state": {"target": ["32", "5", "20"], "time": [2599, 4826, 7429]}, "edge": {"target": [], "time": []}}, "mouseover": {"state": {"target": ["31", "32", "31", "2", "3", "4", "5", "6", "15", "21", "20", "19"], "time": [1988, 2238, 2988, 3105, 3472, 3621, 4055, 5121, 5172, 5405, 5688, 8138]}, "edge": {"target": [], "time": []}}, "mouseout": {"state": {"target": ["0", "31", "32", "31", "2", "3", "4", "5", "6", "15", "21", "20", "20", "19"], "time": [1955, 2005, 2938, 3005, 3338, 3538, 3638, 5104, 5138, 5188, 5572, 7533, 8121, 8155]}, "edge": {"target": [], "time": []}}}, "displayed_time": "15.59", "trialTime": 17491, "trial_type": "mouselab-mdp", "trial_index": 9, "time_elapsed": 411109, "internal_node_id": "0.0-6.0-1.0-0.0"}}, {"uniqueid": "w66960159:a83883223", "current_trial": 10, "dateTime": 1693481693056, "trialdata": {"revealed_states": [], "clicked_states": ["26", "16", "9"], "num_clicks_accrued": [0, 0, 0, 0, 0, 0, 0, 0, 0, 0, 0, 0, 0], "stateRewards": ["", -1, 3, 1, -7, 56, 76, 57, 3, 11, -9, 14, 1, -2, 2, 8, -77, -3, 79, -5, 88, 24, -66, -2, -1, 7, -7, -30, 14, -76, 11, -36, 28, -6], "withholdReward": false, "trial_id": "mdp_trial_2", "block": "test", "trialIndex": 3, "score": 12.8, "costs": -4.199999999999999, "simulationMode": [null, null, null, null, null], "rewards": [-1, 3, 1, 3, 11], "path": ["0", "0", "1", "2", "3", "8", "9"], "rt": [9297, 106, 235, 46, 15], "actions": ["up", "up", "up", "left", "up"], "actionTimes": [10673, 11288, 12017, 12560, 13096], "queries": {"click": {"state": {"target": ["26", "16", "9"], "time": [2927, 4975, 7906]}, "edge": {"target": [], "time": []}}, "mouseover": {"state": {"target": ["28", "26", "28", "1", "18", "16", "6", "16", "16", "7", "2", "8", "9", "3", "7", "18"], "time": [1997, 2297, 3363, 3397, 3447, 3531, 3747, 3931, 4097, 7097, 7130, 7180, 7314, 9780, 9813, 9880]}, "edge": {"target": [], "time": []}}, "mouseout": {"state": {"target": ["0", "28", "26", "28", "1", "18", "16", "6", "16", "16", "7", "2", "8", "9", "9", "3", "7"], "time": [1831, 2264, 3347, 3380, 3414, 3463, 3597, 3797, 3964, 7031, 7113, 7147, 7247, 7979, 9180, 9796, 9830]}, "edge": {"target": [], "time": []}}}, "displayed_time": "15.38", "trialTime": 16664, "trial_type": "mouselab-mdp", "trial_index": 10, "time_elapsed": 427990, "internal_node_id": "0.0-6.0-1.0-1.0"}}, {"uniqueid": "w66960159:a83883223", "current_trial": 11, "dateTime": 1693481710472, "trialdata": {"revealed_states": [], "clicked_states": ["30", "20", "11"], "num_clicks_accrued": [0, 0, 0, 0, 0, 0, 0, 0, 0, 0, 0, 0, 0], "stateRewards": ["", -1, -3, -6, -2, -7, 80, -45, -3, -38, -72, 76, 2, 1, 7, 4, -62, 14, -74, 14, -87, -21, -88, -2, 1, -7, -10, 66, 56, -76, 10, -29, -72, -70], "withholdReward": false, "trial_id": "mdp_trial_3", "block": "test", "trialIndex": 4, "score": 58.8, "costs": -4.199999999999999, "simulationMode": [null, null, null, null, null], "rewards": [-1, -3, -6, -3, 76], "path": ["0", "0", "1", "2", "3", "8", "11"], "rt": [9164, 313, 105, 1, 293], "actions": ["up", "up", "up", "left", "left"], "actionTimes": [11226, 12049, 12657, 13169, 13977], "queries": {"click": {"state": {"target": ["30", "20", "11"], "time": [3292, 5352, 8527]}, "edge": {"target": [], "time": []}}, "mouseover": {"state": {"target": ["0", "23", "24", "30", "19", "20", "20", "11", "9", "9", "11"], "time": [2276, 2501, 2550, 2850, 3734, 4101, 4317, 7550, 7734, 8001, 8283]}, "edge": {"target": [], "time": []}}, "mouseout": {"state": {"target": ["18", "0", "0", "23", "24", "30", "19", "20", "20", "11", "9", "9", "11", "28", "24"], "time": [550, 1584, 2486, 2534, 2684, 3684, 3750, 4134, 7251, 7583, 7817, 8150, 15117, 15167, 15183]}, "edge": {"target": [], "time": []}}}, "displayed_time": "16.06", "trialTime": 17201, "trial_type": "mouselab-mdp", "trial_index": 11, "time_elapsed": 445405, "internal_node_id": "0.0-6.0-1.0-2.0"}}, {"uniqueid": "w66960159:a83883223", "current_trial": 12, "dateTime": 1693481728113, "trialdata": {"revealed_states": [], "clicked_states": ["15", "29", "6"], "num_clicks_accrued": [0, 0, 0, 0, 0, 0, 0, 0, 0, 0, 0, 0, 0], "stateRewards": ["", 1, 2, -3, 6, -88, 74, -45, 7, -46, 40, -77, 1, -4, 4, 3, 22, -25, -59, 8, -83, 19, -60, -1, -1, -1, -8, 26, -29, 64, -7, -88, -51, -55], "withholdReward": false, "trial_id": "mdp_trial_4", "block": "test", "trialIndex": 5, "score": 75.8, "costs": -4.199999999999999, "simulationMode": [null, null, null, null, null], "rewards": [1, 2, -3, 6, 74], "path": ["0", "0", "1", "2", "3", "4", "6"], "rt": [7865, 224, 284, 67, 404], "actions": ["up", "up", "up", "right", "right"], "actionTimes": [10666, 11410, 12203, 12786, 13707], "queries": {"click": {"state": {"target": ["15", "29", "6"], "time": [3914, 5981, 8691]}, "edge": {"target": [], "time": []}}, "mouseover": {"state": {"target": ["18", "15", "28", "26", "26", "29", "26", "10", "6"], "time": [3284, 3569, 4367, 4385, 4517, 4668, 7917, 8117, 8434]}, "edge": {"target": [], "time": []}}, "mouseout": {"state": {"target": ["0", "0", "18", "15", "28", "26", "26", "29", "26", "10", "6"], "time": [2333, 3168, 3317, 4318, 4384, 4400, 4634, 7900, 7984, 8134, 14566]}, "edge": {"target": [], "time": []}}}, "displayed_time": "16.80", "trialTime": 17443, "trial_type": "mouselab-mdp", "trial_index": 12, "time_elapsed": 463046, "internal_node_id": "0.0-6.0-1.0-3.0"}}, {"uniqueid": "w66960159:a83883223", "current_trial": 13, "dateTime": 1693481745352, "trialdata": {"revealed_states": [], "clicked_states": ["25", "6", "21"], "num_clicks_accrued": [0, 0, 0, 0, 0, 0, 0, 0, 0, 0, 0, 0, 0], "stateRewards": ["", 1, -1, 8, 4, 76, -33, -17, -3, -1, -54, -74, -2, 2, -5, 13, -51, 63, 83, 1, 84, 29, -36, 2, -1, 7, -12, -10, -44, -43, -14, 8, -69, 19], "withholdReward": false, "trial_id": "mdp_trial_5", "block": "test", "trialIndex": 6, "score": 20.8, "costs": -4.199999999999999, "simulationMode": [null, null, null, null, null], "rewards": [-2, 2, -5, 1, 29], "path": ["0", "0", "12", "13", "14", "19", "21"], "rt": [7838, 284, 161, 22, 8], "actions": ["right", "right", "right", "down", "down"], "actionTimes": [9456, 10240, 10911, 11439, 11975], "queries": {"click": {"state": {"target": ["25", "6", "21"], "time": [2594, 4613, 7292]}, "edge": {"target": [], "time": []}}, "mouseover": {"state": {"target": ["25", "6", "19", "21"], "time": [2332, 3416, 6666, 6815]}, "edge": {"target": [], "time": []}}, "mouseout": {"state": {"target": ["12", "0", "23", "25", "6", "19", "21"], "time": [765, 1049, 1182, 3116, 6499, 6782, 8282]}, "edge": {"target": [], "time": []}}}, "displayed_time": "15.62", "trialTime": 17032, "trial_type": "mouselab-mdp", "trial_index": 13, "time_elapsed": 480286, "internal_node_id": "0.0-6.0-1.0-4.0"}}, {"uniqueid": "w66960159:a83883223", "current_trial": 14, "dateTime": 1693481763856, "trialdata": {"revealed_states": [], "clicked_states": ["4", "17", "33"], "num_clicks_accrued": [0, 0, 0, 0, 0, 0, 0, 0, 0, 0, 0, 0, 0], "stateRewards": ["", -1, -3, 4, -10, -5, 79, -87, -2, 53, 29, -20, -2, -1, -5, 10, 27, 86, 46, -16, -29, 40, 3, 2, 4, -1, -6, 37, 79, -29, 7, 86, -62, 29], "withholdReward": false, "trial_id": "mdp_trial_6", "block": "test", "trialIndex": 7, "score": 83.8, "costs": -4.199999999999999, "simulationMode": [null, null, null, null, null], "rewards": [-2, -1, -5, 10, 86], "path": ["0", "0", "12", "13", "14", "15", "17"], "rt": [8373, 532, 179, 46, 88], "actions": ["right", "right", "right", "up", "right"], "actionTimes": [11760, 12792, 13488, 14040, 14664], "queries": {"click": {"state": {"target": ["4", "17", "33"], "time": [5608, 7821, 9901]}, "edge": {"target": [], "time": []}}, "mouseover": {"state": {"target": ["23", "24", "24", "28", "8", "5", "4", "3", "8", "11", "17", "24", "25", "33"], "time": [3927, 3958, 4258, 4692, 4741, 5025, 5225, 6008, 6027, 6258, 7425, 8541, 8625, 8875]}, "edge": {"target": [], "time": []}}, "mouseout": {"state": {"target": ["0", "23", "24", "24", "28", "8", "5", "4", "3", "8", "11", "17", "24", "25", "33", "26", "26", "31"], "time": [3925, 3942, 3975, 4676, 4708, 4758, 5158, 5697, 6025, 6041, 7143, 8458, 8592, 8691, 10158, 15274, 15775, 15809]}, "edge": {"target": [], "time": []}}}, "displayed_time": "17.39", "trialTime": 18296, "trial_type": "mouselab-mdp", "trial_index": 14, "time_elapsed": 498790, "internal_node_id": "0.0-6.0-1.0-5.0"}}, {"uniqueid": "w66960159:a83883223", "current_trial": 15, "dateTime": 1693481783113, "trialdata": {"revealed_states": [], "clicked_states": ["29", "9", "21"], "num_clicks_accrued": [0, 0, 0, 0, 0, 0, 0, 0, 0, 0, 0, 0, 0], "stateRewards": ["", -1, 1, 6, -6, 70, 66, 67, -16, -75, -35, 37, -1, 4, 4, -6, 47, -9, 63, 15, 21, -63, 13, 1, 3, -6, 10, 79, -29, 18, -15, 9, -67, -19], "withholdReward": false, "trial_id": "mdp_trial_7", "block": "test", "trialIndex": 8, "score": 21.8, "costs": -4.199999999999999, "simulationMode": [null, null, null, null, null], "rewards": [1, 3, -6, 10, 18], "path": ["0", "0", "23", "24", "25", "26", "29"], "rt": [7164, 370, 151, 61, 79], "actions": ["left", "left", "left", "up", "left"], "actionTimes": [9296, 10168, 10832, 11391, 11976], "queries": {"click": {"state": {"target": ["29", "9", "21"], "time": [3369, 5210, 7096]}, "edge": {"target": [], "time": []}}, "mouseover": {"state": {"target": ["28", "26", "29", "26", "28", "1", "2", "8", "11", "9", "21"], "time": [2596, 2731, 3129, 3880, 3912, 4012, 4095, 4162, 4196, 4546, 5869]}, "edge": {"target": [], "time": []}}, "mouseout": {"state": {"target": ["23", "1", "0", "28", "26", "29", "26", "28", "1", "2", "8", "11", "9", "21"], "time": [1063, 1695, 2429, 2679, 2979, 3878, 3896, 3929, 4045, 4145, 4178, 4246, 5562, 7729]}, "edge": {"target": [], "time": []}}}, "displayed_time": "16.13", "trialTime": 19040, "trial_type": "mouselab-mdp", "trial_index": 15, "time_elapsed": 518047, "internal_node_id": "0.0-6.0-1.0-6.0"}}, {"uniqueid": "w66960159:a83883223", "current_trial": 16, "dateTime": 1693481802944, "trialdata": {"revealed_states": [], "clicked_states": ["32", "11", "26"], "num_clicks_accrued": [0, 0, 0, 0, 0, 0, 0, 0, 0, 0, 0, 0, 0], "stateRewards": ["", -1, 2, -7, -12, -62, 12, -13, 5, 77, -71, 83, 1, -4, 7, 15, -42, -87, -4, 5, -25, 44, 88, -1, 4, -5, -8, 14, 51, 8, -5, 83, -24, -19], "withholdReward": false, "trial_id": "mdp_trial_8", "block": "test", "trialIndex": 9, "score": 77.8, "costs": -4.199999999999999, "simulationMode": [null, null, null, null, null, null], "rewards": [-1, 2, -7, 5, 83], "path": ["0", "0", "1", "2", "3", "8", "11"], "rt": [6350, 317, 223, 154, 175, 268], "actions": ["up", "up", "up", "up", "left", "left"], "actionTimes": [10806, 11127, 11871, 12534, 13207, 13983], "queries": {"click": {"state": {"target": ["32", "11", "26"], "time": [5316, 7148, 9694]}, "edge": {"target": [], "time": []}}, "mouseover": {"state": {"target": ["31", "30", "32", "4", "11", "8", "16", "15", "18", "26", "26", "26"], "time": [4813, 4832, 5114, 5963, 6264, 7581, 7630, 7980, 9065, 9130, 9347, 9532]}, "edge": {"target": [], "time": []}}, "mouseout": {"state": {"target": ["13", "0", "23", "0", "31", "30", "32", "4", "11", "8", "16", "15", "18", "26", "26", "26"], "time": [3864, 3913, 3964, 4780, 4830, 4847, 5697, 6014, 7580, 7597, 7647, 9063, 9080, 9163, 9380, 19146]}, "edge": {"target": [], "time": []}}}, "displayed_time": "18.46", "trialTime": 19591, "trial_type": "mouselab-mdp", "trial_index": 16, "time_elapsed": 537878, "internal_node_id": "0.0-6.0-1.0-7.0"}}, {"uniqueid": "w66960159:a83883223", "current_trial": 17, "dateTime": 1693481819376, "trialdata": {"revealed_states": [], "clicked_states": ["6", "29", "19"], "num_clicks_accrued": [0, 0, 0, 0, 0, 0, 0, 0, 0, 0, 0, 0, 0], "stateRewards": ["", 1, 1, -3, 2, 22, -25, -11, -5, 50, 49, 3, 1, -1, 8, 14, -85, -30, 57, -6, -39, -16, 59, -2, -1, 5, 5, 59, -16, 8, 4, 67, 56, -9], "withholdReward": false, "trial_id": "mdp_trial_9", "block": "test", "trialIndex": 10, "score": 10.8, "costs": -4.199999999999999, "simulationMode": [null, null, null, null, null], "rewards": [-2, -1, 5, 5, 8], "path": ["0", "0", "23", "24", "25", "26", "29"], "rt": [7696, 2, 68, 646, 38], "actions": ["left", "left", "left", "up", "left"], "actionTimes": [9034, 9545, 10145, 11289, 11849], "queries": {"click": {"state": {"target": ["6", "29", "19"], "time": [2291, 4303, 6551]}, "edge": {"target": [], "time": []}}, "mouseover": {"state": {"target": ["6", "27", "33", "29", "19", "14", "13", "15", "14", "19"], "time": [1926, 2792, 3325, 3959, 4709, 5042, 5242, 5692, 5975, 6276]}, "edge": {"target": [], "time": []}}, "mouseout": {"state": {"target": ["0", "6", "27", "33", "29", "19", "14", "13", "15", "14", "19"], "time": [792, 2675, 2875, 3709, 4675, 4725, 5175, 5508, 5892, 6209, 13942]}, "edge": {"target": [], "time": []}}}, "displayed_time": "15.34", "trialTime": 16185, "trial_type": "mouselab-mdp", "trial_index": 17, "time_elapsed": 554309, "internal_node_id": "0.0-6.0-1.0-8.0"}}, {"uniqueid": "w66960159:a83883223", "current_trial": 18, "dateTime": 1693481835480, "trialdata": {"revealed_states": [], "clicked_states": ["25", "6", "11"], "num_clicks_accrued": [0, 0, 0, 0, 0, 0, 0, 0, 0, 0, 0, 0, 0], "stateRewards": ["", -1, -3, 3, 5, 56, 39, 50, -1, -80, 33, -46, 1, -2, -6, -8, 87, 48, 54, -11, -20, -64, -54, -2, 3, -7, -3, 12, 88, 35, -16, -46, -70, -3], "withholdReward": false, "trial_id": "mdp_trial_10", "block": "test", "trialIndex": 11, "score": 38.8, "costs": -4.199999999999999, "simulationMode": [null, null, null, null, null, null], "rewards": [-1, -3, 3, 5, 39], "path": ["0", "0", "1", "2", "3", "4", "6"], "rt": [5644, 525, 345, 94, 311, 101], "actions": ["up", "up", "up", "up", "right", "right"], "actionTimes": [6700, 7228, 8100, 8700, 9516, 10124], "queries": {"click": {"state": {"target": ["25", "6", "11"], "time": [2335, 3971, 5770]}, "edge": {"target": [], "time": []}}, "mouseover": {"state": {"target": ["23", "24", "25", "25", "2", "4", "6", "6", "4", "3", "8", "11"], "time": [1806, 1825, 1838, 2020, 2837, 2937, 3071, 3237, 4637, 4687, 4804, 4903]}, "edge": {"target": [], "time": []}}, "mouseout": {"state": {"target": ["0", "23", "24", "25", "25", "2", "4", "6", "6", "4", "3", "8", "11", "28", "24"], "time": [1804, 1822, 1837, 1870, 2770, 2871, 3037, 3104, 4621, 4671, 4754, 4854, 11887, 14071, 14086]}, "edge": {"target": [], "time": []}}}, "displayed_time": "15.06", "trialTime": 15868, "trial_type": "mouselab-mdp", "trial_index": 18, "time_elapsed": 570413, "internal_node_id": "0.0-6.0-1.0-9.0"}}, {"uniqueid": "w66960159:a83883223", "current_trial": 19, "dateTime": 1693481854369, "trialdata": {"revealed_states": [], "clicked_states": ["32", "21", "9"], "num_clicks_accrued": [0, 0, 0, 0, 0, 0, 0, 0, 0, 0, 0, 0, 0], "stateRewards": ["", -2, -1, -3, -1, -78, -6, 2, -1, 22, -88, 32, 2, 2, -7, -8, -51, -17, 54, 2, -44, 54, 75, 2, -2, -8, -15, -29, 12, -67, 15, -1, -47, -47], "withholdReward": false, "trial_id": "mdp_trial_11", "block": "test", "trialIndex": 12, "score": 48.8, "costs": -4.199999999999999, "simulationMode": [null, null, null, null, null], "rewards": [2, 2, -7, 2, 54], "path": ["0", "0", "12", "13", "14", "19", "21"], "rt": [6597, 2, 183, 372, 74], "actions": ["right", "right", "right", "down", "down"], "actionTimes": [10445, 10952, 11668, 12556, 13140], "queries": {"click": {"state": {"target": ["32", "21", "9"], "time": [4626, 6451, 8283]}, "edge": {"target": [], "time": []}}, "mouseover": {"state": {"target": ["32", "21", "13", "7", "4", "9", "13", "19", "20"], "time": [4399, 5032, 6865, 6899, 6917, 7149, 8699, 8732, 8916]}, "edge": {"target": [], "time": []}}, "mouseout": {"state": {"target": ["0", "32", "21", "13", "7", "4", "9", "13", "19", "20", "20", "19"], "time": [3982, 4884, 6849, 6882, 6915, 6932, 8650, 8715, 8749, 8949, 17815, 18248]}, "edge": {"target": [], "time": []}}}, "displayed_time": "17.85", "trialTime": 18652, "trial_type": "mouselab-mdp", "trial_index": 19, "time_elapsed": 589302, "internal_node_id": "0.0-6.0-1.0-10.0"}}, {"uniqueid": "w66960159:a83883223", "current_trial": 20, "dateTime": 1693481873817, "trialdata": {"revealed_states": [], "clicked_states": ["26", "6", "30"], "num_clicks_accrued": [0, 0, 0, 0, 0, 0, 0, 0, 0, 0, 0, 0, 0], "stateRewards": ["", 2, 4, -6, -13, -75, -81, 30, 7, 5, 59, -65, -1, -1, 7, 14, -38, 36, -41, 1, -54, -5, 64, 2, -1, 5, 6, -19, 79, 11, 16, -33, -50, 58], "withholdReward": false, "trial_id": "mdp_trial_12", "block": "test", "trialIndex": 13, "score": -32.2, "costs": -4.199999999999999, "simulationMode": [null, null, null, null, null], "rewards": [2, -1, 5, 16, -50], "path": ["0", "0", "23", "24", "25", "30", "32"], "rt": [6393, 284, 149, 627, 3829], "actions": ["left", "left", "left", "down", "down"], "actionTimes": [7410, 8201, 8865, 10009, 14346], "queries": {"click": {"state": {"target": ["26", "6", "30"], "time": [2159, 3954, 5598]}, "edge": {"target": [], "time": []}}, "mouseover": {"state": {"target": ["23", "26", "28", "6", "14", "0", "23", "24", "30"], "time": [1600, 1898, 2500, 2815, 4298, 4682, 4732, 4765, 5148]}, "edge": {"target": [], "time": []}}, "mouseout": {"state": {"target": ["23", "23", "26", "28", "6", "14", "0", "23", "24", "30"], "time": [564, 1615, 2498, 2533, 4215, 4332, 4715, 4748, 5032, 6482]}, "edge": {"target": [], "time": []}}}, "displayed_time": "15.02", "trialTime": 19219, "trial_type": "mouselab-mdp", "trial_index": 20, "time_elapsed": 608751, "internal_node_id": "0.0-6.0-1.0-11.0"}}, {"uniqueid": "w66960159:a83883223", "current_trial": 21, "dateTime": 1693481891600, "trialdata": {"revealed_states": [], "clicked_states": ["29", "21", "5"], "num_clicks_accrued": [0, 0, 0, 0, 0, 0, 0, 0, 0, 0, 0, 0, 0], "stateRewards": ["", -1, -2, 8, -6, -79, -6, 87, 9, -5, -66, -38, 2, 2, 5, -6, -82, 74, 85, -8, 67, -30, -15, 1, -2, -2, -2, 87, 64, 49, 7, 2, -38, -9], "withholdReward": false, "trial_id": "mdp_trial_13", "block": "test", "trialIndex": 14, "score": 39.8, "costs": -4.199999999999999, "simulationMode": [null, null, null, null, null, null], "rewards": [1, -2, -2, -2, 49], "path": ["0", "0", "23", "24", "25", "26", "29"], "rt": [6972, 277, 196, 174, 51, 629], "actions": ["left", "left", "left", "left", "up", "left"], "actionTimes": [9290, 9569, 10290, 10986, 11546, 12706], "queries": {"click": {"state": {"target": ["29", "21", "5"], "time": [3296, 6140, 8138]}, "edge": {"target": [], "time": []}}, "mouseover": {"state": {"target": ["23", "24", "26", "29", "5", "4", "15", "20", "21", "13", "5"], "time": [2775, 2809, 3025, 3075, 4042, 4677, 4708, 4758, 5008, 6442, 6725]}, "edge": {"target": [], "time": []}}, "mouseout": {"state": {"target": ["0", "1", "0", "23", "24", "26", "29", "5", "4", "15", "20", "21", "13", "5"], "time": [1691, 1858, 2759, 2792, 2842, 3042, 3387, 4675, 4691, 4725, 4775, 6231, 6458, 8525]}, "edge": {"target": [], "time": []}}}, "displayed_time": "16.32", "trialTime": 17546, "trial_type": "mouselab-mdp", "trial_index": 21, "time_elapsed": 626534, "internal_node_id": "0.0-6.0-1.0-12.0"}}, {"uniqueid": "w66960159:a83883223", "current_trial": 22, "dateTime": 1693481908400, "trialdata": {"revealed_states": [], "clicked_states": ["9", "27", "20"], "num_clicks_accrued": [0, 0, 0, 0, 0, 0, 0, 0, 0, 0, 0, 0, 0], "stateRewards": ["", -1, 3, 2, 9, 41, 4, -46, -12, -54, -87, -25, 2, 3, -1, 11, -77, 12, -33, -9, -32, 35, 72, 1, 3, -7, 4, 37, 65, -73, 6, 77, -43, 8], "withholdReward": false, "trial_id": "mdp_trial_14", "block": "test", "trialIndex": 15, "score": 33.8, "costs": -4.199999999999999, "simulationMode": [null, null, null, null, null], "rewards": [1, 3, -7, 4, 37], "path": ["0", "0", "23", "24", "25", "26", "27"], "rt": [7292, 89, 291, 436, 118], "actions": ["left", "left", "left", "up", "up"], "actionTimes": [9266, 9874, 10674, 11602, 12218], "queries": {"click": {"state": {"target": ["9", "27", "20"], "time": [3023, 4951, 6775]}, "edge": {"target": [], "time": []}}, "mouseover": {"state": {"target": ["8", "9", "29", "27", "13", "14", "20", "19", "24"], "time": [2465, 2748, 3665, 4198, 5632, 5665, 5965, 7165, 7231]}, "edge": {"target": [], "time": []}}, "mouseout": {"state": {"target": ["22", "0", "8", "9", "29", "27", "13", "14", "20", "19", "24", "13", "20"], "time": [1531, 1716, 2532, 3331, 4048, 5565, 5648, 5699, 7148, 7182, 7265, 13431, 13448]}, "edge": {"target": [], "time": []}}}, "displayed_time": "15.97", "trialTime": 16570, "trial_type": "mouselab-mdp", "trial_index": 22, "time_elapsed": 643334, "internal_node_id": "0.0-6.0-1.0-13.0"}}, {"uniqueid": "w66960159:a83883223", "current_trial": 23, "dateTime": 1693481924800, "trialdata": {"revealed_states": [], "clicked_states": ["33", "5", "17"], "num_clicks_accrued": [0, 0, 0, 0, 0, 0, 0, 0, 0, 0, 0, 0, 0], "stateRewards": ["", 1, 1, -5, 8, -6, 45, 16, -6, -7, -22, -38, -1, -4, 8, -11, -16, 21, -45, -15, -59, -32, 42, -1, 3, 6, 11, -7, 34, -27, -8, 85, 43, -9], "withholdReward": false, "trial_id": "mdp_trial_15", "block": "test", "trialIndex": 16, "score": 8.8, "costs": -4.199999999999999, "simulationMode": [null, null, null, null, null, null], "rewards": [-1, -4, 8, -11, 21], "path": ["0", "0", "12", "13", "14", "15", "17"], "rt": [5930, 466, 310, 125, 20, 31], "actions": ["right", "right", "right", "right", "up", "right"], "actionTimes": [7915, 8384, 9208, 9840, 10352, 10912], "queries": {"click": {"state": {"target": ["33", "5", "17"], "time": [3021, 4893, 6807]}, "edge": {"target": [], "time": []}}, "mouseover": {"state": {"target": ["23", "30", "33", "2", "5", "8", "18", "15", "17", "17", "17"], "time": [2315, 2346, 2846, 3513, 3796, 5379, 5596, 5615, 5632, 5863, 5963]}, "edge": {"target": [], "time": []}}, "mouseout": {"state": {"target": ["23", "31", "0", "0", "23", "30", "33", "2", "5", "5", "8", "18", "15", "17", "17", "17"], "time": [562, 612, 1562, 2313, 2329, 2363, 3463, 3530, 4993, 5363, 5396, 5613, 5630, 5646, 5880, 14596]}, "edge": {"target": [], "time": []}}}, "displayed_time": "15.99", "trialTime": 16152, "trial_type": "mouselab-mdp", "trial_index": 23, "time_elapsed": 659734, "internal_node_id": "0.0-6.0-1.0-14.0"}}, {"uniqueid": "w66960159:a83883223", "current_trial": 24, "dateTime": 1693481941504, "trialdata": {"revealed_states": [], "clicked_states": ["27", "22"], "num_clicks_accrued": [0, 0, 0, 0, 0, 0, 0, 0, 0, 0, 0, 0, 0], "stateRewards": ["", 1, -3, 4, 13, -72, 52, 5, 5, -58, 5, 14, 2, 1, 3, -14, -86, -4, 73, 6, -58, -50, 49, 2, -3, -4, 2, 33, -41, 42, -11, 81, 45, 53], "withholdReward": false, "trial_id": "mdp_trial_16", "block": "test", "trialIndex": 17, "score": 58.2, "costs": -2.8, "simulationMode": [null, null, null, null, null], "rewards": [2, 1, 3, 6, 49], "path": ["0", "0", "12", "13", "14", "19", "22"], "rt": [6262, 21, 81, 17, 91], "actions": ["right", "right", "right", "down", "left"], "actionTimes": [8170, 8730, 9322, 9858, 10450], "queries": {"click": {"state": {"target": ["27", "22"], "time": [2708, 4351]}, "edge": {"target": [], "time": []}}, "mouseover": {"state": {"target": ["23", "26", "27", "0", "22", "22", "7", "7"], "time": [2223, 2340, 2423, 3090, 3140, 3790, 7073, 7390]}, "edge": {"target": [], "time": []}}, "mouseout": {"state": {"target": ["12", "0", "23", "26", "27", "0", "22", "22", "22", "7", "7", "6"], "time": [340, 373, 2239, 2373, 3040, 3107, 3590, 6324, 6924, 7173, 13140, 13239]}, "edge": {"target": [], "time": []}}}, "displayed_time": "15.91", "trialTime": 16450, "trial_type": "mouselab-mdp", "trial_index": 24, "time_elapsed": 676437, "internal_node_id": "0.0-6.0-1.0-15.0"}}, {"uniqueid": "w66960159:a83883223", "current_trial": 25, "dateTime": 1693481958000, "trialdata": {"revealed_states": [], "clicked_states": ["11", "7"], "num_clicks_accrued": [0, 0, 0, 0, 0, 0, 0, 0, 0, 0, 0, 0, 0], "stateRewards": ["", 2, 4, 4, 9, -88, -10, 44, 16, -54, 64, 78, 1, 2, 5, 16, 80, 36, 7, -4, 9, -47, -70, -1, -3, 6, -16, 11, 80, 28, 8, -1, 34, -17], "withholdReward": false, "trial_id": "mdp_trial_17", "block": "test", "trialIndex": 18, "score": 101.2, "costs": -2.8, "simulationMode": [null, null, null, null, null, null], "rewards": [2, 4, 4, 16, 78], "path": ["0", "0", "1", "2", "3", "8", "11"], "rt": [3962, 494, 22, 47, 577, 156], "actions": ["up", "up", "up", "up", "left", "left"], "actionTimes": [5608, 6104, 6624, 7184, 8280, 8944], "queries": {"click": {"state": {"target": ["11", "7"], "time": [2566, 4408]}, "edge": {"target": [], "time": []}}, "mouseover": {"state": {"target": ["1", "3", "11", "8", "3", "4", "7", "8"], "time": [1985, 2051, 2301, 3001, 3020, 3037, 3601, 4885]}, "edge": {"target": [], "time": []}}, "mouseout": {"state": {"target": ["6", "23", "0", "1", "3", "11", "8", "3", "4", "7", "8", "3"], "time": [585, 935, 1954, 2001, 2201, 2674, 3018, 3035, 3068, 4851, 5051, 13751]}, "edge": {"target": [], "time": []}}}, "displayed_time": "15.65", "trialTime": 16208, "trial_type": "mouselab-mdp", "trial_index": 25, "time_elapsed": 692933, "internal_node_id": "0.0-6.0-1.0-16.0"}}, {"uniqueid": "w66960159:a83883223", "current_trial": 26, "dateTime": 1693481976008, "trialdata": {"revealed_states": [], "clicked_states": ["33"], "num_clicks_accrued": [0, 0, 0, 0, 0, 0, 0, 0, 0, 0, 0, 0, 0], "stateRewards": ["", 2, 3, -2, -8, -8, -41, 74, 15, -23, -80, 1, 1, 3, 3, -15, -63, -78, 67, 13, 75, -41, 86, 2, -2, 6, -3, -8, -49, 50, -6, 83, 74, 80], "withholdReward": false, "trial_id": "mdp_trial_18", "block": "test", "trialIndex": 19, "score": 78.6, "costs": -1.4, "simulationMode": [null, null, null, null, null], "rewards": [2, -2, 6, -6, 80], "path": ["0", "0", "23", "24", "25", "30", "33"], "rt": [4078, 15, 49, 9, 141], "actions": ["left", "left", "left", "down", "left"], "actionTimes": [7379, 7899, 8483, 9011, 9675], "queries": {"click": {"state": {"target": ["33"], "time": [4581]}, "edge": {"target": [], "time": []}}, "mouseover": {"state": {"target": ["31", "32", "33", "2", "4", "6", "16"], "time": [4033, 4149, 4351, 5400, 5466, 5566, 5782]}, "edge": {"target": [], "time": []}}, "mouseout": {"state": {"target": ["3", "2", "1", "0", "0", "31", "32", "33", "2", "4", "6", "16"], "time": [2616, 2649, 2666, 2715, 3966, 4067, 4199, 5333, 5416, 5516, 5650, 6899]}, "edge": {"target": [], "time": []}}}, "displayed_time": "17.30", "trialTime": 17715, "trial_type": "mouselab-mdp", "trial_index": 26, "time_elapsed": 710941, "internal_node_id": "0.0-6.0-1.0-17.0"}}, {"uniqueid": "w66960159:a83883223", "current_trial": 27, "dateTime": 1693481994048, "trialdata": {"revealed_states": [], "clicked_states": ["9", "16", "22"], "num_clicks_accrued": [0, 0, 0, 0, 0, 0, 0, 0, 0, 0, 0, 0, 0], "stateRewards": ["", -1, 4, -8, 12, 14, 69, -8, 5, -72, -14, 56, -1, -1, -1, 9, 67, 19, 11, -9, -88, -58, 3, 2, -4, -8, 4, 62, 77, -74, 5, -31, 65, 88], "withholdReward": false, "trial_id": "mdp_trial_19", "block": "test", "trialIndex": 20, "score": 68.8, "costs": -4.199999999999999, "simulationMode": [null, null, null, null, null], "rewards": [-1, -1, -1, 9, 67], "path": ["0", "0", "12", "13", "14", "15", "16"], "rt": [7619, 235, 85, 701, 93], "actions": ["right", "right", "right", "up", "up"], "actionTimes": [10886, 11653, 12237, 13454, 14045], "queries": {"click": {"state": {"target": ["9", "16", "22"], "time": [4197, 6323, 8371]}, "edge": {"target": [], "time": []}}, "mouseover": {"state": {"target": ["0", "1", "9", "6", "16", "18", "13", "22"], "time": [3484, 3651, 3984, 4718, 4951, 6767, 6834, 6984]}, "edge": {"target": [], "time": []}}, "mouseout": {"state": {"target": ["16", "0", "0", "1", "9", "6", "16", "18", "13", "22", "21", "19"], "time": [567, 2883, 3602, 3669, 4667, 4734, 6634, 6800, 6850, 8463, 16150, 16184]}, "edge": {"target": [], "time": []}}}, "displayed_time": "17.27", "trialTime": 17757, "trial_type": "mouselab-mdp", "trial_index": 27, "time_elapsed": 728982, "internal_node_id": "0.0-6.0-1.0-18.0"}}, {"uniqueid": "w66960159:a83883223", "current_trial": 28, "dateTime": 1693482010553, "trialdata": {"revealed_states": [], "clicked_states": ["29", "7", "21"], "num_clicks_accrued": [0, 0, 0, 0, 0, 0, 0, 0, 0, 0, 0, 0, 0], "stateRewards": ["", 1, -2, -2, 10, -31, -77, 35, 9, -47, 8, 48, -2, 1, -4, -3, -26, -50, 43, -11, 76, -38, 17, 1, -1, 6, 10, 15, -9, 12, -8, 85, 11, -55], "withholdReward": false, "trial_id": "mdp_trial_20", "block": "test", "trialIndex": 21, "score": 37.8, "costs": -4.199999999999999, "simulationMode": [null, null, null, null, null], "rewards": [1, -2, -2, 10, 35], "path": ["0", "0", "1", "2", "3", "4", "7"], "rt": [7675, 476, 622, 73, 25], "actions": ["up", "up", "up", "right", "down"], "actionTimes": [9214, 10189, 11317, 11901, 12437], "queries": {"click": {"state": {"target": ["29", "7", "21"], "time": [2461, 5170, 7397]}, "edge": {"target": [], "time": []}}, "mouseover": {"state": {"target": ["28", "29", "29", "25", "28", "2", "7", "7", "21"], "time": [1844, 2094, 2261, 3294, 3661, 4527, 4611, 4944, 5977]}, "edge": {"target": [], "time": []}}, "mouseout": {"state": {"target": ["22", "0", "28", "29", "29", "25", "28", "2", "7", "7", "21", "19", "14"], "time": [394, 1144, 1861, 2161, 3194, 3361, 4444, 4577, 4712, 5777, 7527, 15010, 15043]}, "edge": {"target": [], "time": []}}}, "displayed_time": "15.54", "trialTime": 16206, "trial_type": "mouselab-mdp", "trial_index": 28, "time_elapsed": 745486, "internal_node_id": "0.0-6.0-1.0-19.0"}}, {"uniqueid": "w66960159:a83883223", "current_trial": 29, "dateTime": 1693482026280, "trialdata": {"revealed_states": [], "clicked_states": ["27", "17"], "num_clicks_accrued": [0, 0, 0, 0, 0, 0, 0, 0, 0, 0, 0, 0, 0], "stateRewards": ["", 1, 3, 1, -13, 52, -28, 67, -14, 3, 63, -70, -1, -4, 7, -11, -10, 47, -18, 6, 69, -9, -61, 2, 3, -6, 10, 63, -34, 40, -6, -79, -35, -32], "withholdReward": false, "trial_id": "mdp_trial_21", "block": "test", "trialIndex": 22, "score": 69.2, "costs": -2.8, "simulationMode": [null, null, null, null, null], "rewards": [2, 3, -6, 10, 63], "path": ["0", "0", "23", "24", "25", "26", "27"], "rt": [4911, 33, 34, 412, 159], "actions": ["left", "left", "left", "up", "up"], "actionTimes": [6231, 6782, 7350, 8294, 8943], "queries": {"click": {"state": {"target": ["27", "17"], "time": [2397, 4254]}, "edge": {"target": [], "time": []}}, "mouseover": {"state": {"target": ["25", "26", "27", "18", "18", "17"], "time": [1715, 1915, 2015, 3065, 3298, 3682]}, "edge": {"target": [], "time": []}}, "mouseout": {"state": {"target": ["7", "0", "25", "26", "27", "18", "18", "17"], "time": [431, 1665, 1732, 1981, 2488, 3115, 3649, 4832]}, "edge": {"target": [], "time": []}}}, "displayed_time": "15.32", "trialTime": 15438, "trial_type": "mouselab-mdp", "trial_index": 29, "time_elapsed": 761213, "internal_node_id": "0.0-6.0-1.0-20.0"}}, {"uniqueid": "w66960159:a83883223", "current_trial": 30, "dateTime": 1693482042241, "trialdata": {"revealed_states": [], "clicked_states": ["21", "11", "33"], "num_clicks_accrued": [0, 0, 0, 0, 0, 0, 0, 0, 0, 0, 0, 0, 0], "stateRewards": ["", 2, 3, 8, 14, 69, -27, 17, 2, -71, -65, -10, 2, -3, 7, 8, 65, -10, 65, -12, 73, -12, 13, -2, -2, 6, 10, -79, -69, -18, 10, -85, 67, 74], "withholdReward": false, "trial_id": "mdp_trial_22", "block": "test", "trialIndex": 23, "score": 81.8, "costs": -4.199999999999999, "simulationMode": [null, null, null, null, null], "rewards": [-2, -2, 6, 10, 74], "path": ["0", "0", "23", "24", "25", "30", "33"], "rt": [7162, 15, 66, 35, 60], "actions": ["left", "left", "left", "down", "left"], "actionTimes": [8576, 9111, 9695, 10231, 10823], "queries": {"click": {"state": {"target": ["21", "11", "33"], "time": [2213, 4076, 6638]}, "edge": {"target": [], "time": []}}, "mouseover": {"state": {"target": ["22", "19", "21", "1", "8", "11", "8", "3", "4", "6", "10", "26", "29", "33"], "time": [1728, 1750, 2148, 2711, 2811, 3061, 4561, 4594, 4628, 4911, 5696, 5713, 5730, 6211]}, "edge": {"target": [], "time": []}}, "mouseout": {"state": {"target": ["15", "14", "19", "0", "22", "19", "21", "1", "8", "11", "8", "3", "4", "6", "10", "26", "29", "33", "33"], "time": [494, 561, 627, 1712, 1747, 1761, 2661, 2728, 2961, 4185, 4578, 4611, 4661, 5661, 5711, 5728, 5745, 6749, 12011]}, "edge": {"target": [], "time": []}}}, "displayed_time": "15.41", "trialTime": 15697, "trial_type": "mouselab-mdp", "trial_index": 30, "time_elapsed": 777175, "internal_node_id": "0.0-6.0-1.0-21.0"}}, {"uniqueid": "w66960159:a83883223", "current_trial": 31, "dateTime": 1693482058121, "trialdata": {"revealed_states": [], "clicked_states": ["27", "18", "21"], "num_clicks_accrued": [0, 0, 0, 0, 0, 0, 0, 0, 0, 0, 0, 0, 0], "stateRewards": ["", -2, -1, -6, -14, -55, 78, -13, 11, 14, -71, 59, 2, 2, 6, -6, 9, 38, 14, 7, 85, 11, 68, 1, -4, -1, -3, -63, -85, 9, -2, 63, -86, -10], "withholdReward": false, "trial_id": "mdp_trial_23", "block": "test", "trialIndex": 24, "score": 13.8, "costs": -4.199999999999999, "simulationMode": [null, null, null, null, null], "rewards": [2, 2, 6, -6, 14], "path": ["0", "0", "12", "13", "14", "15", "18"], "rt": [7131, 317, 141, 35, 53], "actions": ["right", "right", "right", "up", "left"], "actionTimes": [8458, 9266, 9922, 10449, 11017], "queries": {"click": {"state": {"target": ["27", "18", "21"], "time": [2329, 4200, 6567]}, "edge": {"target": [], "time": []}}, "mouseover": {"state": {"target": ["10", "11", "27", "13", "14", "18", "13", "19", "21"], "time": [1679, 1712, 2196, 2896, 3246, 3363, 6046, 6196, 6279]}, "edge": {"target": [], "time": []}}, "mouseout": {"state": {"target": ["0", "10", "11", "27", "13", "14", "18", "13", "19"], "time": [1647, 1695, 1729, 2435, 2913, 3263, 6013, 6062, 6229]}, "edge": {"target": [], "time": []}}}, "displayed_time": "15.33", "trialTime": 15578, "trial_type": "mouselab-mdp", "trial_index": 31, "time_elapsed": 793054, "internal_node_id": "0.0-6.0-1.0-22.0"}}, {"uniqueid": "w66960159:a83883223", "current_trial": 32, "dateTime": 1693482074232, "trialdata": {"revealed_states": [], "clicked_states": ["27", "10", "22"], "num_clicks_accrued": [0, 0, 0, 0, 0, 0, 0, 0, 0, 0, 0, 0, 0], "stateRewards": ["", -2, 2, 8, -6, -25, 3, 87, 2, -62, -2, 74, -2, -1, 2, -1, 79, 49, -37, -14, 5, 67, -9, -1, 2, -2, 5, 15, 38, 32, -14, -38, -38, 30], "withholdReward": false, "trial_id": "mdp_trial_24", "block": "test", "trialIndex": 25, "score": 3.8000000000000007, "costs": -4.199999999999999, "simulationMode": [null, null, null, null, null], "rewards": [-2, 2, 8, 2, -2], "path": ["0", "0", "1", "2", "3", "8", "10"], "rt": [8523, 50, 301, 605, 32], "actions": ["up", "up", "up", "left", "down"], "actionTimes": [9279, 9831, 10631, 11735, 12278], "queries": {"click": {"state": {"target": ["27", "10", "22"], "time": [1743, 3648, 7001]}, "edge": {"target": [], "time": []}}, "mouseover": {"state": {"target": ["28", "27", "2", "7", "7", "2", "10", "31", "25", "23", "13", "14", "13", "22"], "time": [1246, 1545, 2278, 2297, 2495, 2747, 2783, 4145, 4778, 5546, 5595, 5629, 5778, 6728]}, "edge": {"target": [], "time": []}}, "mouseout": {"state": {"target": ["12", "28", "27", "2", "7", "7", "2", "10", "31", "25", "23", "13", "14", "13", "22"], "time": [95, 1312, 2245, 2295, 2328, 2745, 2762, 4045, 4195, 5531, 5562, 5611, 5745, 6562, 7262]}, "edge": {"target": [], "time": []}}}, "displayed_time": "14.76", "trialTime": 15823, "trial_type": "mouselab-mdp", "trial_index": 32, "time_elapsed": 809165, "internal_node_id": "0.0-6.0-1.0-23.0"}}, {"uniqueid": "w66960159:a83883223", "current_trial": 33, "dateTime": 1693482090241, "trialdata": {"revealed_states": [], "clicked_states": ["29", "11", "6"], "num_clicks_accrued": [0, 0, 0, 0, 0, 0, 0, 0, 0, 0, 0, 0, 0], "stateRewards": ["", 1, 4, -8, -13, -13, -87, -77, -10, -44, 54, 42, 2, -3, -4, 12, -9, -80, 52, 9, 84, -2, -65, 1, -4, -5, -6, 8, 80, 32, 13, -59, -5, -13], "withholdReward": false, "trial_id": "mdp_trial_25", "block": "test", "trialIndex": 26, "score": 24.8, "costs": -4.199999999999999, "simulationMode": [null, null, null, null, null], "rewards": [1, 4, -8, -10, 42], "path": ["0", "0", "1", "2", "3", "8", "11"], "rt": [7465, 304, 136, 31, 80], "actions": ["up", "up", "up", "left", "left"], "actionTimes": [8996, 9820, 10468, 10995, 11595], "queries": {"click": {"state": {"target": ["29", "11", "6"], "time": [3225, 5322, 7426]}, "edge": {"target": [], "time": []}}, "mouseover": {"state": {"target": ["23", "24", "25", "25", "29", "29", "26", "28", "1", "7", "2", "10", "8", "11", "3", "4", "6", "6"], "time": [2165, 2181, 2198, 2529, 2662, 3012, 3718, 3734, 3762, 4112, 4163, 4196, 4662, 4846, 5730, 5763, 5996, 6162]}, "edge": {"target": [], "time": []}}, "mouseout": {"state": {"target": ["0", "23", "24", "25", "25", "29", "29", "26", "28", "1", "7", "2", "10", "8", "11", "3", "4", "6", "6"], "time": [2163, 2179, 2196, 2213, 2613, 2829, 3716, 3732, 3746, 3779, 4146, 4179, 4646, 4713, 5712, 5746, 5846, 6029, 7846]}, "edge": {"target": [], "time": []}}}, "displayed_time": "15.53", "trialTime": 15716, "trial_type": "mouselab-mdp", "trial_index": 33, "time_elapsed": 825174, "internal_node_id": "0.0-6.0-1.0-24.0"}}, {"uniqueid": "w66960159:a83883223", "current_trial": 34, "dateTime": 1693482107145, "trialdata": {"revealed_states": [], "clicked_states": ["33", "17", "21"], "num_clicks_accrued": [0, 0, 0, 0, 0, 0, 0, 0, 0, 0, 0, 0, 0], "stateRewards": ["", -1, -3, -7, -4, -85, -70, 79, 8, 84, -66, 42, 2, -2, -3, -16, -54, -66, 68, -3, 21, -14, 7, -2, -1, -3, -8, 75, 80, 86, -7, -84, 73, -16], "withholdReward": false, "trial_id": "mdp_trial_26", "block": "test", "trialIndex": 27, "score": 10.8, "costs": -4.199999999999999, "simulationMode": [null, null, null, null, null], "rewards": [2, -2, -3, -3, 21], "path": ["0", "0", "12", "13", "14", "19", "20"], "rt": [7219, 366, 2924, 115, 330], "actions": ["right", "right", "right", "down", "right"], "actionTimes": [8868, 9749, 13189, 13813, 14660], "queries": {"click": {"state": {"target": ["33", "17", "21"], "time": [2498, 4355, 6364]}, "edge": {"target": [], "time": []}}, "mouseover": {"state": {"target": ["31", "30", "33", "30", "0", "17", "17", "20", "21"], "time": [2013, 2047, 2246, 2915, 2946, 3030, 3363, 5263, 5583]}, "edge": {"target": [], "time": []}}, "mouseout": {"state": {"target": ["19", "22", "0", "31", "30", "33", "30", "0", "17", "17", "20", "21"], "time": [1096, 1146, 1980, 2031, 2213, 2913, 2930, 3005, 3229, 5196, 5346, 6713]}, "edge": {"target": [], "time": []}}}, "displayed_time": "15.65", "trialTime": 16621, "trial_type": "mouselab-mdp", "trial_index": 34, "time_elapsed": 842078, "internal_node_id": "0.0-6.0-1.0-25.0"}}, {"uniqueid": "w66960159:a83883223", "current_trial": 35, "dateTime": 1693482123338, "trialdata": {"revealed_states": [], "clicked_states": ["29", "11", "20"], "num_clicks_accrued": [0, 0, 0, 0, 0, 0, 0, 0, 0, 0, 0, 0, 0], "stateRewards": ["", -2, -3, 1, -14, 48, -49, 67, -1, -35, -48, 3, -2, 1, -4, -5, 86, -84, 39, 1, 48, 41, -42, -1, -4, 2, -7, 18, -86, 17, 7, -9, 57, -69], "withholdReward": false, "trial_id": "mdp_trial_27", "block": "test", "trialIndex": 28, "score": 39.8, "costs": -4.199999999999999, "simulationMode": [null, null, null, null, null], "rewards": [-2, 1, -4, 1, 48], "path": ["0", "0", "12", "13", "14", "19", "20"], "rt": [7235, 89, 75, 444, 206], "actions": ["right", "right", "right", "down", "right"], "actionTimes": [8926, 9526, 10093, 11046, 11758], "queries": {"click": {"state": {"target": ["29", "11", "20"], "time": [2771, 4771, 6779]}, "edge": {"target": [], "time": []}}, "mouseover": {"state": {"target": ["33", "29", "27", "8", "11", "18", "20"], "time": [2267, 2550, 3400, 3700, 3883, 5183, 5633]}, "edge": {"target": [], "time": []}}, "mouseout": {"state": {"target": ["16", "7", "1", "23", "33", "29", "27", "8", "11", "18", "20"], "time": [1000, 1050, 1100, 1200, 2350, 3350, 3417, 3750, 5167, 5200, 7051]}, "edge": {"target": [], "time": []}}}, "displayed_time": "15.69", "trialTime": 15918, "trial_type": "mouselab-mdp", "trial_index": 35, "time_elapsed": 858271, "internal_node_id": "0.0-6.0-1.0-26.0"}}, {"uniqueid": "w66960159:a83883223", "current_trial": 36, "dateTime": 1693482139360, "trialdata": {"revealed_states": [], "clicked_states": ["32", "11"], "num_clicks_accrued": [0, 0, 0, 0, 0, 0, 0, 0, 0, 0, 0, 0, 0], "stateRewards": ["", 1, 1, -7, -9, -44, 24, -83, -15, 44, -24, 72, -2, -3, 4, -5, 57, 55, 29, -11, 22, 12, -25, -1, 2, 7, 12, 33, -8, 47, -4, 8, 50, -4], "withholdReward": false, "trial_id": "mdp_trial_28", "block": "test", "trialIndex": 29, "score": 49.2, "costs": -2.8, "simulationMode": [null, null, null, null, null], "rewards": [1, 1, -7, -15, 72], "path": ["0", "0", "1", "2", "3", "8", "11"], "rt": [5440, 356, 132, 483, 203], "actions": ["up", "up", "up", "left", "left"], "actionTimes": [6855, 7728, 8352, 9336, 10056], "queries": {"click": {"state": {"target": ["32", "11"], "time": [2201, 4095]}, "edge": {"target": [], "time": []}}, "mouseover": {"state": {"target": ["32", "1", "2", "10", "11"], "time": [1968, 3018, 3185, 3203, 3819]}, "edge": {"target": [], "time": []}}, "mouseout": {"state": {"target": ["0", "32", "1", "2", "10", "11"], "time": [1185, 2313, 3035, 3202, 3535, 6185]}, "edge": {"target": [], "time": []}}}, "displayed_time": "15.42", "trialTime": 15744, "trial_type": "mouselab-mdp", "trial_index": 36, "time_elapsed": 874294, "internal_node_id": "0.0-6.0-1.0-27.0"}}, {"uniqueid": "w66960159:a83883223", "current_trial": 37, "dateTime": 1693482157416, "trialdata": {"revealed_states": [], "clicked_states": ["17"], "num_clicks_accrued": [0, 0, 0, 0, 0, 0, 0, 0, 0, 0, 0, 0, 0], "stateRewards": ["", 2, 3, 6, -12, -29, 12, 87, 4, 35, -30, 67, 2, 3, -5, -9, 44, 69, -8, 1, 45, -8, 28, -2, -1, -8, 11, -12, -5, 81, 9, 87, 82, 88], "withholdReward": false, "trial_id": "mdp_trial_29", "block": "test", "trialIndex": 30, "score": 58.6, "costs": -1.4, "simulationMode": [null, null, null, null, null], "rewards": [2, 3, -5, -9, 69], "path": ["0", "0", "12", "13", "14", "15", "17"], "rt": [3864, 91, 43, 53, 77], "actions": ["right", "right", "right", "up", "right"], "actionTimes": [7336, 7935, 8487, 9047, 9655], "queries": {"click": {"state": {"target": ["17"], "time": [4405]}, "edge": {"target": [], "time": []}}, "mouseover": {"state": {"target": ["12", "13", "14", "17", "17", "14", "24", "28", "11", "2"], "time": [3810, 3844, 3862, 4043, 4243, 5260, 5427, 5477, 5843, 6627]}, "edge": {"target": [], "time": []}}, "mouseout": {"state": {"target": ["19", "22", "0", "12", "13", "14", "17", "17", "14", "24", "28", "11", "2"], "time": [1810, 1876, 3793, 3827, 3860, 3876, 4093, 5244, 5280, 5443, 5543, 6610, 6643]}, "edge": {"target": [], "time": []}}}, "displayed_time": "17.47", "trialTime": 17776, "trial_type": "mouselab-mdp", "trial_index": 37, "time_elapsed": 892350, "internal_node_id": "0.0-6.0-1.0-28.0"}}, {"uniqueid": "w66960159:a83883223", "current_trial": 38, "dateTime": 1693482173680, "trialdata": {"revealed_states": [], "clicked_states": ["29", "22", "10"], "num_clicks_accrued": [0, 0, 0, 0, 0, 0, 0, 0, 0, 0, 0, 0, 0], "stateRewards": ["", 1, -3, -6, -5, 47, 80, -29, 11, -71, 10, -29, -2, 3, -6, 12, 2, -78, -6, 8, 34, -16, -5, -1, 3, 3, -13, 84, -36, -62, -3, -27, 66, 15], "withholdReward": false, "trial_id": "mdp_trial_30", "block": "test", "trialIndex": 31, "score": 8.8, "costs": -4.199999999999999, "simulationMode": [null, null, null, null, null], "rewards": [1, -3, -6, 11, 10], "path": ["0", "0", "1", "2", "3", "8", "10"], "rt": [7411, 75, 100, 12, 7], "actions": ["up", "up", "up", "left", "down"], "actionTimes": [9024, 9616, 10224, 10736, 11264], "queries": {"click": {"state": {"target": ["29", "22", "10"], "time": [2630, 5207, 7138]}, "edge": {"target": [], "time": []}}, "mouseover": {"state": {"target": ["29", "11", "7", "13", "22", "22", "26", "27", "10"], "time": [2423, 4073, 4557, 4606, 4707, 4973, 5756, 5923, 6190]}, "edge": {"target": [], "time": []}}, "mouseout": {"state": {"target": ["12", "23", "23", "29", "11", "7", "13", "22", "22", "26", "27"], "time": [906, 973, 1139, 3673, 4090, 4574, 4657, 4740, 5723, 5773, 5939]}, "edge": {"target": [], "time": []}}}, "displayed_time": "15.62", "trialTime": 15936, "trial_type": "mouselab-mdp", "trial_index": 38, "time_elapsed": 908613, "internal_node_id": "0.0-6.0-1.0-29.0"}}, {"uniqueid": "w66960159:a83883223", "current_trial": 39, "dateTime": 1693482190864, "trialdata": {"revealed_states": [], "clicked_states": ["16", "32", "22"], "num_clicks_accrued": [0, 0, 0, 0, 0, 0, 0, 0, 0, 0, 0, 0, 0], "stateRewards": ["", 1, 2, -8, 9, 18, -83, -11, 6, -64, -48, 17, -2, -2, -5, -3, -24, -3, -86, -2, 48, -41, -22, -2, 4, 7, 8, 81, 13, -48, 10, 61, 19, 57], "withholdReward": false, "trial_id": "mdp_trial_31", "block": "test", "trialIndex": 32, "score": 33.8, "costs": -4.199999999999999, "simulationMode": [null, null, null, null, null], "rewards": [-2, 4, 7, 10, 19], "path": ["0", "0", "23", "24", "25", "30", "32"], "rt": [7714, 94, 102, 22, 89], "actions": ["left", "left", "left", "down", "down"], "actionTimes": [10313, 10921, 11513, 12049, 12649], "queries": {"click": {"state": {"target": ["16", "32", "22"], "time": [3490, 5879, 8079]}, "edge": {"target": [], "time": []}}, "mouseover": {"state": {"target": ["18", "15", "16", "7", "2", "26", "25", "32", "20", "19", "13", "22", "19"], "time": [3025, 3092, 3309, 4425, 4444, 4742, 4761, 5076, 6542, 7025, 7142, 7509, 8244]}, "edge": {"target": [], "time": []}}, "mouseout": {"state": {"target": ["10", "0", "1", "0", "18", "15", "16", "7", "2", "26", "25", "32", "20", "19", "13", "22", "19", "17"], "time": [492, 1942, 2142, 2976, 3059, 3109, 4375, 4442, 4459, 4759, 4776, 6226, 7009, 7042, 7475, 8242, 8258, 15159]}, "edge": {"target": [], "time": []}}}, "displayed_time": "16.60", "trialTime": 16857, "trial_type": "mouselab-mdp", "trial_index": 39, "time_elapsed": 925797, "internal_node_id": "0.0-6.0-1.0-30.0"}}, {"uniqueid": "w66960159:a83883223", "current_trial": 40, "dateTime": 1693482206896, "trialdata": {"revealed_states": [], "clicked_states": ["11", "27"], "num_clicks_accrued": [0, 0, 0, 0, 0, 0, 0, 0, 0, 0, 0, 0, 0], "stateRewards": ["", -1, 1, 3, -8, -23, -15, -14, -11, -23, 58, 68, 1, 3, 5, 12, -17, -41, -7, -10, -4, 82, 10, 1, 4, -4, 11, 73, 55, -55, -1, -86, -86, 54], "withholdReward": false, "trial_id": "mdp_trial_32", "block": "test", "trialIndex": 33, "score": 82.2, "costs": -2.8, "simulationMode": [null, null, null, null, null, null], "rewards": [1, 4, -4, 11, 73], "path": ["0", "0", "23", "24", "25", "26", "27"], "rt": [3899, 1101, 84, 100, 11, 62], "actions": ["up", "left", "left", "left", "up", "up"], "actionTimes": [5089, 6193, 6793, 7409, 7921, 8505], "queries": {"click": {"state": {"target": ["11", "27"], "time": [2071, 3952]}, "edge": {"target": [], "time": []}}, "mouseover": {"state": {"target": ["11", "27", "10"], "time": [1791, 2525, 4424]}, "edge": {"target": [], "time": []}}, "mouseout": {"state": {"target": ["6", "4", "0", "0", "11", "27", "10", "13"], "time": [391, 424, 724, 1509, 2458, 4083, 4442, 12008]}, "edge": {"target": [], "time": []}}}, "displayed_time": "15.19", "trialTime": 15690, "trial_type": "mouselab-mdp", "trial_index": 40, "time_elapsed": 941829, "internal_node_id": "0.0-6.0-1.0-31.0"}}, {"uniqueid": "w66960159:a83883223", "current_trial": 41, "dateTime": 1693482222904, "trialdata": {"revealed_states": [], "clicked_states": ["17", "6", "9"], "num_clicks_accrued": [0, 0, 0, 0, 0, 0, 0, 0, 0, 0, 0, 0, 0], "stateRewards": ["", 2, -3, 5, 11, -79, 54, 11, -9, -78, 33, 22, -2, -1, 2, 14, 43, 34, 1, 10, 49, -65, 39, -1, 1, -1, 3, -16, -2, 11, 2, 12, 48, -65], "withholdReward": false, "trial_id": "mdp_trial_33", "block": "test", "trialIndex": 34, "score": 64.8, "costs": -4.199999999999999, "simulationMode": [null, null, null, null, null, null], "rewards": [2, -3, 5, 11, 54], "path": ["0", "0", "1", "2", "3", "4", "6"], "rt": [6231, 646, 63, 72, 392, 117], "actions": ["up", "up", "up", "up", "right", "right"], "actionTimes": [7678, 8326, 8902, 9494, 10398, 11022], "queries": {"click": {"state": {"target": ["17", "6", "9"], "time": [2388, 4408, 6676]}, "edge": {"target": [], "time": []}}, "mouseover": {"state": {"target": ["17", "16", "6", "6", "4", "3", "9"], "time": [2105, 3154, 3188, 3454, 4923, 4954, 5254]}, "edge": {"target": [], "time": []}}, "mouseout": {"state": {"target": ["0", "17", "16", "6", "6", "4", "3", "9"], "time": [1154, 3121, 3171, 3272, 4921, 4937, 4971, 13471]}, "edge": {"target": [], "time": []}}}, "displayed_time": "15.45", "trialTime": 15694, "trial_type": "mouselab-mdp", "trial_index": 41, "time_elapsed": 957837, "internal_node_id": "0.0-6.0-1.0-32.0"}}, {"uniqueid": "w66960159:a83883223", "current_trial": 42, "dateTime": 1693482239241, "trialdata": {"revealed_states": [], "clicked_states": ["29", "22", "9"], "num_clicks_accrued": [0, 0, 0, 0, 0, 0, 0, 0, 0, 0, 0, 0, 0], "stateRewards": ["", 2, 3, 6, -5, -74, -53, 17, -12, 46, 44, 18, -2, 4, 1, -8, 22, -23, -49, 9, -45, 55, 81, 1, -1, -7, -16, -83, -71, -45, 2, 51, 82, 61], "withholdReward": false, "trial_id": "mdp_trial_34", "block": "test", "trialIndex": 35, "score": 88.8, "costs": -4.199999999999999, "simulationMode": [null, null, null, null, null, null], "rewards": [-2, 4, 1, 9, 81], "path": ["0", "0", "12", "13", "14", "19", "22"], "rt": [5833, 510, 56, 96, 4, 43], "actions": ["right", "right", "right", "right", "down", "left"], "actionTimes": [7378, 7890, 8458, 9082, 9606, 10178], "queries": {"click": {"state": {"target": ["29", "22", "9"], "time": [2281, 4144, 6280]}, "edge": {"target": [], "time": []}}, "mouseover": {"state": {"target": ["28", "26", "29", "24", "22", "2", "10", "9", "16"], "time": [1733, 1883, 2050, 2667, 3150, 4700, 4800, 5800, 6650]}, "edge": {"target": [], "time": []}}, "mouseout": {"state": {"target": ["9", "8", "10", "0", "28", "26", "29", "24", "22", "2", "10", "9", "16", "21"], "time": [766, 799, 816, 1700, 1799, 2033, 2650, 2683, 4534, 4767, 5533, 6633, 6667, 12350]}, "edge": {"target": [], "time": []}}}, "displayed_time": "15.55", "trialTime": 16011, "trial_type": "mouselab-mdp", "trial_index": 42, "time_elapsed": 974175, "internal_node_id": "0.0-6.0-1.0-33.0"}}, {"uniqueid": "w66960159:a83883223", "current_trial": 43, "dateTime": 1693482255177, "trialdata": {"revealed_states": [], "clicked_states": ["31", "29"], "num_clicks_accrued": [0, 0, 0, 0, 0, 0, 0, 0, 0, 0, 0, 0, 0], "stateRewards": ["", 2, -3, -5, 5, 11, -9, -33, 6, 67, 6, -30, -1, -2, -6, 13, 55, 13, 72, -14, 75, 21, -66, -2, -4, 6, 15, -1, -35, 60, 2, 51, -73, 12], "withholdReward": false, "trial_id": "mdp_trial_35", "block": "test", "trialIndex": 36, "score": 72.2, "costs": -2.8, "simulationMode": [null, null, null, null, null], "rewards": [-2, -4, 6, 15, 60], "path": ["0", "0", "23", "24", "25", "26", "29"], "rt": [6295, 11, 101, 54, 71], "actions": ["left", "left", "left", "up", "left"], "actionTimes": [7293, 7821, 8445, 9013, 9613], "queries": {"click": {"state": {"target": ["31", "29"], "time": [2227, 4275]}, "edge": {"target": [], "time": []}}, "mouseover": {"state": {"target": ["0", "31", "24", "31", "25", "29", "15", "16", "6"], "time": [1227, 1308, 1841, 2024, 2791, 2941, 4691, 4774, 4958]}, "edge": {"target": [], "time": []}}, "mouseout": {"state": {"target": ["0", "0", "31", "24", "31", "25", "29", "15", "16", "6", "4", "3", "28"], "time": [707, 1241, 1474, 1857, 2330, 2842, 4624, 4707, 4824, 11407, 11425, 11474, 11857]}, "edge": {"target": [], "time": []}}}, "displayed_time": "15.00", "trialTime": 15621, "trial_type": "mouselab-mdp", "trial_index": 43, "time_elapsed": 990110, "internal_node_id": "0.0-6.0-1.0-34.0"}}, {"uniqueid": "w66960159:a83883223", "current_trial": 44, "dateTime": 1693482271953, "trialdata": {"revealed_states": [], "clicked_states": ["16", "21", "10"], "num_clicks_accrued": [0, 0, 0, 0, 0, 0, 0, 0, 0, 0, 0, 0, 0], "stateRewards": ["", 2, -1, 1, 10, -52, 86, -22, -2, -14, -63, 38, 1, 3, 7, -8, 11, -32, -27, 9, -71, 40, -87, -2, -1, 5, -7, 12, 31, -57, 13, 86, -58, 29], "withholdReward": false, "trial_id": "mdp_trial_36", "block": "test", "trialIndex": 37, "score": 55.8, "costs": -4.199999999999999, "simulationMode": [null, null, null, null, null], "rewards": [1, 3, 7, 9, 40], "path": ["0", "0", "12", "13", "14", "19", "21"], "rt": [6776, 27, 62, 512, 124], "actions": ["right", "right", "right", "down", "down"], "actionTimes": [8981, 9525, 10109, 11109, 11741], "queries": {"click": {"state": {"target": ["16", "21", "10"], "time": [3085, 5098, 7103]}, "edge": {"target": [], "time": []}}, "mouseover": {"state": {"target": ["18", "16", "15", "21", "21", "26", "27", "11", "8", "10", "10"], "time": [2629, 2897, 3629, 3695, 3879, 5562, 5678, 5846, 5929, 6112, 6195]}, "edge": {"target": [], "time": []}}, "mouseout": {"state": {"target": ["24", "19", "13", "12", "0", "18", "16", "15", "21", "21", "26", "27", "11", "8", "10", "10"], "time": [1230, 1495, 1562, 1578, 2596, 2646, 3613, 3646, 3712, 5217, 5629, 5779, 5879, 6062, 6129, 13212]}, "edge": {"target": [], "time": []}}}, "displayed_time": "16.21", "trialTime": 16469, "trial_type": "mouselab-mdp", "trial_index": 44, "time_elapsed": 1006886, "internal_node_id": "0.0-6.0-1.0-35.0"}}, {"uniqueid": "w66960159:a83883223", "current_trial": 45, "dateTime": 1693482288353, "trialdata": {"revealed_states": [], "clicked_states": ["33", "18", "7"], "num_clicks_accrued": [0, 0, 0, 0, 0, 0, 0, 0, 0, 0, 0, 0, 0], "stateRewards": ["", 1, 1, 7, -11, 80, -20, -53, -14, 3, 31, 27, 2, -1, -8, -10, 33, 41, 86, 9, 78, -37, -13, -1, -2, -6, -8, -80, 75, 4, -16, -49, -74, 24], "withholdReward": false, "trial_id": "mdp_trial_37", "block": "test", "trialIndex": 38, "score": 64.8, "costs": -4.199999999999999, "simulationMode": [null, null, null, null, null, null], "rewards": [2, -1, -8, -10, 86], "path": ["0", "0", "12", "13", "14", "15", "18"], "rt": [6178, 564, 623, 170, 55, 96], "actions": ["right", "right", "right", "right", "up", "left"], "actionTimes": [8145, 8711, 9865, 10545, 11113, 11737], "queries": {"click": {"state": {"target": ["33", "18", "7"], "time": [3352, 5086, 7399]}, "edge": {"target": [], "time": []}}, "mouseover": {"state": {"target": ["28", "26", "25", "33", "25", "28", "18", "1", "2", "10", "2", "7"], "time": [2490, 2524, 2857, 3157, 3773, 3857, 4240, 5990, 6057, 6173, 6490, 6757]}, "edge": {"target": [], "time": []}}, "mouseout": {"state": {"target": ["28", "0", "0", "28", "26", "25", "33", "25", "28", "18", "1", "2", "10", "2", "7"], "time": [1307, 1523, 2358, 2507, 2623, 2976, 3724, 3794, 3873, 5857, 6007, 6140, 6357, 6557, 7540]}, "edge": {"target": [], "time": []}}}, "displayed_time": "15.97", "trialTime": 16081, "trial_type": "mouselab-mdp", "trial_index": 45, "time_elapsed": 1023287, "internal_node_id": "0.0-6.0-1.0-36.0"}}, {"uniqueid": "w66960159:a83883223", "current_trial": 46, "dateTime": 1693482304649, "trialdata": {"revealed_states": [], "clicked_states": ["31", "10", "5"], "num_clicks_accrued": [0, 0, 0, 0, 0, 0, 0, 0, 0, 0, 0, 0, 0], "stateRewards": ["", -2, -1, -4, -15, -14, -67, 32, -3, -59, 63, 31, 2, -1, -7, -15, 71, -66, -27, -3, -54, -39, 72, 2, 1, 1, -13, 77, -40, 35, -9, 35, 75, 57], "withholdReward": false, "trial_id": "mdp_trial_38", "block": "test", "trialIndex": 39, "score": 48.8, "costs": -4.199999999999999, "simulationMode": [null, null, null, null, null, null], "rewards": [-2, -1, -4, -3, 63], "path": ["0", "0", "1", "2", "3", "8", "10"], "rt": [5836, 1004, 140, 148, 49, 42], "actions": ["up", "up", "up", "up", "left", "down"], "actionTimes": [7607, 8614, 9262, 9919, 10470, 11030], "queries": {"click": {"state": {"target": ["31", "10", "5"], "time": [2580, 4805, 6870]}, "edge": {"target": [], "time": []}}, "mouseover": {"state": {"target": ["0", "31", "23", "10", "3", "5"], "time": [2087, 2153, 3353, 3737, 5303, 5603]}, "edge": {"target": [], "time": []}}, "mouseout": {"state": {"target": ["7", "0", "0", "0", "31", "23", "10", "3", "5"], "time": [687, 786, 1503, 2103, 3287, 3370, 5253, 5353, 12820]}, "edge": {"target": [], "time": []}}}, "displayed_time": "15.77", "trialTime": 15974, "trial_type": "mouselab-mdp", "trial_index": 46, "time_elapsed": 1039582, "internal_node_id": "0.0-6.0-1.0-37.0"}}, {"uniqueid": "w66960159:a83883223", "current_trial": 47, "dateTime": 1693482320713, "trialdata": {"revealed_states": [], "clicked_states": ["21", "27"], "num_clicks_accrued": [0, 0, 0, 0, 0, 0, 0, 0, 0, 0, 0, 0, 0], "stateRewards": ["", 1, -2, 4, 7, -43, -83, -60, -5, -86, -80, 83, -1, -2, 6, 11, -15, 21, 13, 9, 29, -49, 11, -1, 4, -6, -11, 87, 40, 63, -8, -39, -11, 62], "withholdReward": false, "trial_id": "mdp_trial_39", "block": "test", "trialIndex": 40, "score": 70.2, "costs": -2.8, "simulationMode": [null, null, null, null, null], "rewards": [-1, 4, -6, -11, 87], "path": ["0", "0", "23", "24", "25", "26", "27"], "rt": [6105, 85, 104, 8, 147], "actions": ["left", "left", "left", "up", "up"], "actionTimes": [7475, 8058, 8658, 9178, 9850], "queries": {"click": {"state": {"target": ["21", "27"], "time": [2452, 4361]}, "edge": {"target": [], "time": []}}, "mouseover": {"state": {"target": ["21", "21", "31", "30", "27", "27", "10", "2", "16", "23", "30", "30", "31"], "time": [1919, 2269, 3004, 3021, 3269, 3536, 5036, 5069, 5469, 5720, 5803, 6019, 6153]}, "edge": {"target": [], "time": []}}, "mouseout": {"state": {"target": ["5", "3", "31", "0", "21", "21", "31", "30", "27", "27", "10", "2", "16", "23", "30", "30", "31", "31"], "time": [419, 485, 669, 1853, 1936, 2953, 3019, 3040, 3403, 4460, 5053, 5103, 5636, 5736, 5853, 6069, 10788, 11653]}, "edge": {"target": [], "time": []}}}, "displayed_time": "15.37", "trialTime": 15739, "trial_type": "mouselab-mdp", "trial_index": 47, "time_elapsed": 1055646, "internal_node_id": "0.0-6.0-1.0-38.0"}}, {"uniqueid": "w66960159:a83883223", "current_trial": 48, "dateTime": 1693482338880, "trialdata": {"revealed_states": [], "clicked_states": ["33", "6", "22"], "num_clicks_accrued": [0, 0, 0, 0, 0, 0, 0, 0, 0, 0, 0, 0, 0], "stateRewards": ["", -1, 3, -7, 16, -32, -74, -48, 2, 10, 15, -30, 1, 1, -2, 10, 12, -83, 67, 13, -66, 47, 65, -2, 4, 2, -14, -8, -57, 24, 9, 65, 12, 46], "withholdReward": false, "trial_id": "mdp_trial_40", "block": "test", "trialIndex": 41, "score": 54.8, "costs": -4.199999999999999, "simulationMode": [null, null, null, null, null], "rewards": [-2, 4, 2, 9, 46], "path": ["0", "0", "23", "24", "25", "30", "33"], "rt": [8492, 2190, 76, 28, 23], "actions": ["left", "left", "left", "down", "left"], "actionTimes": [10206, 12909, 13494, 14013, 14557], "queries": {"click": {"state": {"target": ["33", "6", "22"], "time": [3156, 5075, 7652]}, "edge": {"target": [], "time": []}}, "mouseover": {"state": {"target": ["23", "24", "25", "33", "33", "25", "24", "2", "4", "6", "16", "20", "19", "22"], "time": [2333, 2351, 2533, 2716, 2983, 3699, 3718, 3883, 4000, 4200, 6633, 6916, 7316, 7366]}, "edge": {"target": [], "time": []}}, "mouseout": {"state": {"target": ["0", "0", "23", "24", "25", "33", "33", "25", "24", "2", "4", "6", "16", "20", "19", "22"], "time": [916, 1416, 2349, 2399, 2616, 2767, 3263, 3716, 3733, 3933, 4066, 6600, 6683, 7300, 7333, 16366]}, "edge": {"target": [], "time": []}}}, "displayed_time": "15.71", "trialTime": 17837, "trial_type": "mouselab-mdp", "trial_index": 48, "time_elapsed": 1073813, "internal_node_id": "0.0-6.0-1.0-39.0"}}, {"uniqueid": "w66960159:a83883223", "current_trial": 49, "dateTime": 1693482394816, "trialdata": {"rt": 55932, "response": {"Q0": "$-88 to $88", "Q1": "$-16 to $16", "Q2": "$-88 to $88", "Q3": "The cost for clicking on nodes varied between nodes.", "Q4": "Very motivated"}, "question_order": [0, 1, 2, 3, 4], "trial_id": "final_quiz_control", "trial_type": "survey-multi-choice", "trial_index": 49, "time_elapsed": 1129750, "internal_node_id": "0.0-6.0-2.0"}}, {"uniqueid": "w66960159:a83883223", "current_trial": 50, "dateTime": 1693482636265, "trialdata": {"rt": 241440, "response": {"Q0": "I wanted to settle for at least between 6o-something to 90-something dollars when selecting my node.", "Q1": "Yes, I forgot most of the time, but when i did remember, I would stop clicking on another node if I saw a node having a range from 60 dollars and/or up.", "Q2": "It wasn't difficult, but anxiety caused me to click on another node and thus waste more money, even when I already clicked on a desired node(with my appropriate dollar amount) prior. Obviously, the random node amount on each stage made it difficult, especially if all 3 revealed nodes were a red negative digit:( "}, "trial_id": "self_report_control", "trial_type": "survey-text", "trial_index": 50, "time_elapsed": 1371199, "internal_node_id": "0.0-6.0-3.0"}}, {"uniqueid": "w66960159:a83883223", "current_trial": 51, "dateTime": 1693482663176, "trialdata": {"rt": 26906, "response": {"gender": "female", "age": "34", "colorblind": "0", "effort": "0"}, "trial_type": "survey-html-form", "trial_index": 51, "time_elapsed": 1398110, "internal_node_id": "0.0-6.0-4.0"}}, {"uniqueid": "w66960159:a83883223", "current_trial": 52, "dateTime": 1693482786449, "trialdata": {"rt": 123266, "response": {"Q0": "Everything was clear and easy to understand.", "Q1": "This is my very first time participating in a Web of Cash HIT.", "Q2": "I thoroughly enjoyed the game and appreciate the opportunity to have participated in this study. Thank you kindly, as I am currently unemployed for a while now. God bless you."}, "trial_type": "survey-text", "trial_index": 52, "time_elapsed": 1521382, "internal_node_id": "0.0-6.0-5.0"}}, {"uniqueid": "w66960159:a83883223", "current_trial": 53, "dateTime": 1693482805215, "trialdata": {"rt": 18761, "stimulus": "<h1>Completion Code Instructions (1/2)</h1>\n<br><br><br><br>\nYou have reached the end of the experiment! The completion code consists of two parts: (1) a code with 2 characters (2) a code with 6 characters. On this page, you will receive the second part of the code. The first part of the completion code will be on the next page.\n<br><br>\nThe second part of your completion code is: <b>EWEK22</b>\n<br><br>\nPlease note this down. Then, press 'Finish HIT' in order to find the first part of your completion code. Once the data has been saved, you will receive this code either in this window or in the original browser window where you started the experiment.\n", "response": 0, "trial_type": "html-button-response", "trial_index": 53, "time_elapsed": 1540149, "internal_node_id": "0.0-6.0-6.0"}}, {"uniqueid": "w66960159:a83883223", "current_trial": 54, "dateTime": 1693482806219, "trialdata": {"success": true, "trial_type": "fullscreen", "trial_index": 54, "time_elapsed": 1541153, "internal_node_id": "0.0-7.0"}}], "questiondata": {"params": {"CODE": "C6DMOQA6", "MIN_TIME": 14, "inspectCost": 1, "startTime": "Thu Aug 31 2023 13:27:42 GMT+0200 (South Africa Standard Time)", "bonusRate": 0.002, "variance": "1_2_4_8_44", "branching": "31123"}, "final_score": 1848.4}, "eventdata": [{"eventtype": "initialized", "value": null, "timestamp": 1693481262305, "interval": 0}, {"eventtype": "window_resize", "value": [1920, 982], "timestamp": 1693481262305, "interval": 0}, {"eventtype": "window_resize", "value": [1920, 982], "timestamp": 1693481262871, "interval": 566}, {"eventtype": "window_resize", "value": [1920, 1080], "timestamp": 1693481270919, "interval": 8048}, {"eventtype": "window_resize", "value": [1920, 982], "timestamp": 1693482805436, "interval": 1534517}], "useragent": "Mozilla/5.0 (Windows NT 10.0; Win64; x64) AppleWebKit/537.36 (KHTML, like Gecko) Chrome/116.0.0.0 Safari/537.36", "mode": "live", "id": "w66960159:a83883223", "status": "user data saved", "Beginhit": "2023-08-31 11:27:40.207915", "Beginexp": "2023-08-31 11:27:53.079238", "Endhit": "2023-08-31 11:53:29.180985", "psiturkStatus": 3, "browser": "<redacted>", "platform": "windows", "language": "en-ZA"}