{"condition": 1, "counterbalance": 0, "assignmentId": "a75161071", "workerId": "w52838368", "hitId": "h22006126", "currenttrial": 68, "bonus": 0, "data": [{"uniqueid": "w52838368:a75161071", "current_trial": 0, "dateTime": 1693480967451, "trialdata": {"success": true, "trial_type": "fullscreen", "trial_index": 0, "time_elapsed": 8681, "internal_node_id": "0.0-0.0"}}, {"uniqueid": "w52838368:a75161071", "current_trial": 1, "dateTime": 1693480970029, "trialdata": {"view_history": [{"page_index": 0, "viewing_time": 2573}], "rt": 2573, "trial_id": "exp_instructions_misaligned", "trial_type": "instructions", "trial_index": 1, "time_elapsed": 11259, "internal_node_id": "0.0-1.0"}}, {"uniqueid": "w52838368:a75161071", "current_trial": 2, "dateTime": 1693481197757, "trialdata": {"view_history": [{"page_index": 0, "viewing_time": 18072}, {"page_index": 1, "viewing_time": 6837}, {"page_index": 0, "viewing_time": 94659}, {"page_index": 1, "viewing_time": 75106}, {"page_index": 2, "viewing_time": 4904}, {"page_index": 1, "viewing_time": 3113}, {"page_index": 2, "viewing_time": 16136}, {"page_index": 3, "viewing_time": 8899}], "rt": 227727, "trial_id": "mouselab_instructions_1_misaligned", "trial_type": "instructions", "trial_index": 2, "time_elapsed": 238987, "internal_node_id": "0.0-2.0-1.0"}}, {"uniqueid": "w52838368:a75161071", "current_trial": 3, "dateTime": 1693481220991, "trialdata": {"revealed_states": [], "clicked_states": ["12", "23", "1"], "num_clicks_accrued": [0, 0, 0, 0, 0, 0, 0, 0, 0, 0, 0, 0, 0], "stateRewards": ["", -10, -10, 10, -10, 10, 10, -10, 10, -10, -10, 10, -10, -10, -10, -10, 10, 10, 10, 10, -10, -10, 10, 10, -10, 10, -10, 10, 10, 10, 10, 10, -10, 10], "withholdReward": false, "trial_id": "practice_1", "block": "test", "trialIndex": 0, "score": 12, "costs": -1.5, "simulationMode": [null, null, null, null, null], "rewards": [10, -10, 10, -10, 10], "path": ["0", "0", "23", "24", "25", "26", "27"], "rt": [10033, 459, 404, 649, 680], "actions": ["left", "left", "left", "up", "up"], "actionTimes": [14947, 15913, 16825, 17985, 19182], "queries": {"click": {"state": {"target": ["12", "23", "1"], "time": [9593, 11130, 12630]}, "edge": {"target": [], "time": []}}, "mouseover": {"state": {"target": ["12", "0", "23", "1"], "time": [9154, 10336, 10719, 12019]}, "edge": {"target": [], "time": []}}, "mouseout": {"state": {"target": ["0", "0", "0", "12", "0", "23", "23", "1"], "time": [3422, 3976, 9057, 9803, 10652, 11786, 11952, 13369]}, "edge": {"target": [], "time": []}}}, "displayed_time": "19.70", "trialTime": 22690, "trial_type": "mouselab-mdp", "trial_index": 3, "time_elapsed": 262220, "internal_node_id": "0.0-2.0-2.0-0.0"}}, {"uniqueid": "w52838368:a75161071", "current_trial": 4, "dateTime": 1693481234283, "trialdata": {"revealed_states": [], "clicked_states": [], "num_clicks_accrued": [0, 0, 0, 0, 0, 0, 0, 0, 0, 0, 0, 0, 0], "stateRewards": ["", -10, 10, 10, 10, 10, 10, -10, 10, -10, 10, 10, 10, 10, 10, -10, 10, 10, -10, -10, -10, -10, 10, -10, -10, -10, -10, -10, -10, 10, -10, -10, -10, -10], "withholdReward": false, "trial_id": "practice_2", "block": "test", "trialIndex": 1, "score": -46.5, "costs": 0, "simulationMode": [null, null, null, null, null], "rewards": [-10, -10, -10, -10, -10], "path": ["0", "0", "23", "24", "25", "30", "31"], "rt": [897, 255, 1242, 141, 1059], "actions": ["left", "left", "left", "down", "right"], "actionTimes": [4636, 5404, 7157, 7805, 9372], "queries": {"click": {"state": {"target": [], "time": []}, "edge": {"target": [], "time": []}}, "mouseover": {"state": {"target": [], "time": []}, "edge": {"target": [], "time": []}}, "mouseout": {"state": {"target": ["23"], "time": [2564]}, "edge": {"target": [], "time": []}}}, "displayed_time": "9.88", "trialTime": 13164, "trial_type": "mouselab-mdp", "trial_index": 4, "time_elapsed": 275512, "internal_node_id": "0.0-2.0-2.0-1.0"}}, {"uniqueid": "w52838368:a75161071", "current_trial": 5, "dateTime": 1693481416735, "trialdata": {"view_history": [{"page_index": 0, "viewing_time": 172581}, {"page_index": 1, "viewing_time": 9868}], "rt": 182450, "trial_id": "mouselab_instructions_2_misaligned", "trial_type": "instructions", "trial_index": 5, "time_elapsed": 457965, "internal_node_id": "0.0-2.0-3.0"}}, {"uniqueid": "w52838368:a75161071", "current_trial": 6, "dateTime": 1693481584036, "trialdata": {"rt": 167294, "response": {"Q0": "There is no cost for clicking on nodes.", "Q1": "The better I perform the higher my bonus will be.", "Q2": "Yes.", "Q3": "To get the highest total score.", "Q4": "Only before moving the spider.", "Q5": "10 seconds"}, "question_order": [0, 1, 2, 3, 4, 5], "correct": {"Q0": "The cost for clicking on nodes may vary between nodes.", "Q1": "The better I perform the higher my bonus will be.", "Q2": "No, the amount of cash at each node of the web may be different each time.", "Q3": "To get the highest total score.", "Q4": "Only before moving the spider.", "Q5": "3 seconds"}, "trial_id": "mouselab_quiz_misaligned", "trial_type": "survey-multi-choice", "trial_index": 6, "time_elapsed": 625266, "internal_node_id": "0.0-2.0-4.0"}}, {"uniqueid": "w52838368:a75161071", "current_trial": 7, "dateTime": 1693481596581, "trialdata": {"success": true, "trial_type": "fullscreen", "trial_index": 7, "time_elapsed": 637810, "internal_node_id": "0.0-2.1-0.1-0.1"}}, {"uniqueid": "w52838368:a75161071", "current_trial": 8, "dateTime": 1693482002908, "trialdata": {"view_history": [{"page_index": 0, "viewing_time": 30736}, {"page_index": 1, "viewing_time": 360882}, {"page_index": 2, "viewing_time": 5354}, {"page_index": 3, "viewing_time": 9352}], "rt": 406324, "trial_id": "mouselab_instructions_1_misaligned", "trial_type": "instructions", "trial_index": 8, "time_elapsed": 1044138, "internal_node_id": "0.0-2.1-1.1"}}, {"uniqueid": "w52838368:a75161071", "current_trial": 9, "dateTime": 1693482015177, "trialdata": {"revealed_states": [], "clicked_states": [], "num_clicks_accrued": [0, 0, 0, 0, 0, 0, 0, 0, 0, 0, 0, 0, 0], "stateRewards": ["", -10, -10, 10, -10, 10, 10, -10, 10, -10, -10, 10, -10, -10, -10, -10, 10, 10, 10, 10, -10, -10, 10, 10, -10, 10, -10, 10, 10, 10, 10, 10, -10, 10], "withholdReward": false, "trial_id": "practice_1", "block": "test", "trialIndex": 2, "score": -6.5, "costs": 0, "simulationMode": [null, null, null, null, null], "rewards": [-10, -10, 10, -10, 10], "path": ["0", "0", "1", "2", "3", "4", "5"], "rt": [1581, 317, 794, 657, 221], "actions": ["up", "up", "up", "right", "up"], "actionTimes": [5601, 6433, 7742, 8939, 9668], "queries": {"click": {"state": {"target": [], "time": []}, "edge": {"target": [], "time": []}}, "mouseover": {"state": {"target": [], "time": []}, "edge": {"target": [], "time": []}}, "mouseout": {"state": {"target": [], "time": []}, "edge": {"target": [], "time": []}}}, "displayed_time": "10.18", "trialTime": 12106, "trial_type": "mouselab-mdp", "trial_index": 9, "time_elapsed": 1056406, "internal_node_id": "0.0-2.1-2.1-0.1"}}, {"uniqueid": "w52838368:a75161071", "current_trial": 10, "dateTime": 1693482027504, "trialdata": {"revealed_states": [], "clicked_states": [], "num_clicks_accrued": [0, 0, 0, 0, 0, 0, 0, 0, 0, 0, 0, 0, 0], "stateRewards": ["", -10, 10, 10, 10, 10, 10, -10, 10, -10, 10, 10, 10, 10, 10, -10, 10, 10, -10, -10, -10, -10, 10, -10, -10, -10, -10, -10, -10, 10, -10, -10, -10, -10], "withholdReward": false, "trial_id": "practice_2", "block": "test", "trialIndex": 3, "score": -26.5, "costs": 0, "simulationMode": [null, null, null, null, null], "rewards": [-10, -10, -10, -10, 10], "path": ["0", "0", "23", "24", "25", "26", "29"], "rt": [2284, 1075, 504, 720, 127], "actions": ["left", "left", "left", "up", "left"], "actionTimes": [5464, 7057, 8068, 9300, 9924], "queries": {"click": {"state": {"target": [], "time": []}, "edge": {"target": [], "time": []}}, "mouseover": {"state": {"target": [], "time": []}, "edge": {"target": [], "time": []}}, "mouseout": {"state": {"target": [], "time": []}, "edge": {"target": [], "time": []}}}, "displayed_time": "10.43", "trialTime": 12171, "trial_type": "mouselab-mdp", "trial_index": 10, "time_elapsed": 1068733, "internal_node_id": "0.0-2.1-2.1-1.1"}}, {"uniqueid": "w52838368:a75161071", "current_trial": 11, "dateTime": 1693482039519, "trialdata": {"view_history": [{"page_index": 0, "viewing_time": 9355}, {"page_index": 1, "viewing_time": 2657}], "rt": 12012, "trial_id": "mouselab_instructions_2_misaligned", "trial_type": "instructions", "trial_index": 11, "time_elapsed": 1080749, "internal_node_id": "0.0-2.1-3.1"}}, {"uniqueid": "w52838368:a75161071", "current_trial": 12, "dateTime": 1693482073675, "trialdata": {"rt": 34151, "response": {"Q0": "There is no cost for clicking on nodes.", "Q1": "The better I perform the higher my bonus will be.", "Q2": "No, the amount of cash at each node of the web may be different each time.", "Q3": "To get the highest total score.", "Q4": "Only before moving the spider.", "Q5": "3 seconds"}, "question_order": [0, 1, 2, 3, 4, 5], "correct": {"Q0": "The cost for clicking on nodes may vary between nodes.", "Q1": "The better I perform the higher my bonus will be.", "Q2": "No, the amount of cash at each node of the web may be different each time.", "Q3": "To get the highest total score.", "Q4": "Only before moving the spider.", "Q5": "3 seconds"}, "trial_id": "mouselab_quiz_misaligned", "trial_type": "survey-multi-choice", "trial_index": 12, "time_elapsed": 1114905, "internal_node_id": "0.0-2.1-4.1"}}, {"uniqueid": "w52838368:a75161071", "current_trial": 13, "dateTime": 1693482080203, "trialdata": {"success": true, "trial_type": "fullscreen", "trial_index": 13, "time_elapsed": 1121433, "internal_node_id": "0.0-2.2-0.2-0.2"}}, {"uniqueid": "w52838368:a75161071", "current_trial": 14, "dateTime": 1693482231127, "trialdata": {"view_history": [{"page_index": 0, "viewing_time": 113551}, {"page_index": 1, "viewing_time": 14383}, {"page_index": 0, "viewing_time": 2119}, {"page_index": 1, "viewing_time": 1784}, {"page_index": 2, "viewing_time": 10368}, {"page_index": 3, "viewing_time": 8713}], "rt": 150920, "trial_id": "mouselab_instructions_1_misaligned", "trial_type": "instructions", "trial_index": 14, "time_elapsed": 1272357, "internal_node_id": "0.0-2.2-1.2"}}, {"uniqueid": "w52838368:a75161071", "current_trial": 15, "dateTime": 1693482243285, "trialdata": {"revealed_states": [], "clicked_states": [], "num_clicks_accrued": [0, 0, 0, 0, 0, 0, 0, 0, 0, 0, 0, 0, 0], "stateRewards": ["", -10, -10, 10, -10, 10, 10, -10, 10, -10, -10, 10, -10, -10, -10, -10, 10, 10, 10, 10, -10, -10, 10, 10, -10, 10, -10, 10, 10, 10, 10, 10, -10, 10], "withholdReward": false, "trial_id": "practice_1", "block": "test", "trialIndex": 4, "score": -26.5, "costs": 0, "simulationMode": [null, null, null, null, null], "rewards": [-10, -10, -10, -10, 10], "path": ["0", "0", "12", "13", "14", "15", "18"], "rt": [1884, 744, 868, 739, 355], "actions": ["right", "right", "right", "up", "left"], "actionTimes": [4524, 5779, 7153, 8408, 9256], "queries": {"click": {"state": {"target": [], "time": []}, "edge": {"target": [], "time": []}}, "mouseover": {"state": {"target": [], "time": []}, "edge": {"target": [], "time": []}}, "mouseout": {"state": {"target": [], "time": []}, "edge": {"target": [], "time": []}}}, "displayed_time": "9.77", "trialTime": 11995, "trial_type": "mouselab-mdp", "trial_index": 15, "time_elapsed": 1284514, "internal_node_id": "0.0-2.2-2.2-0.2"}}, {"uniqueid": "w52838368:a75161071", "current_trial": 16, "dateTime": 1693482257028, "trialdata": {"revealed_states": [], "clicked_states": [], "num_clicks_accrued": [0, 0, 0, 0, 0, 0, 0, 0, 0, 0, 0, 0, 0], "stateRewards": ["", -10, 10, 10, 10, 10, 10, -10, 10, -10, 10, 10, 10, 10, 10, -10, 10, 10, -10, -10, -10, -10, 10, -10, -10, -10, -10, -10, -10, 10, -10, -10, -10, -10], "withholdReward": false, "trial_id": "practice_2", "block": "test", "trialIndex": 5, "score": 13.5, "costs": 0, "simulationMode": [null, null, null, null, null], "rewards": [-10, 10, 10, 10, -10], "path": ["0", "0", "1", "2", "3", "4", "7"], "rt": [2883, 643, 1368, 1267, 399], "actions": ["up", "up", "up", "right", "down"], "actionTimes": [4882, 6032, 7907, 9689, 10603], "queries": {"click": {"state": {"target": [], "time": []}, "edge": {"target": [], "time": []}}, "mouseover": {"state": {"target": [], "time": []}, "edge": {"target": [], "time": []}}, "mouseout": {"state": {"target": ["0"], "time": [2788]}, "edge": {"target": [], "time": []}}}, "displayed_time": "11.12", "trialTime": 13579, "trial_type": "mouselab-mdp", "trial_index": 16, "time_elapsed": 1298256, "internal_node_id": "0.0-2.2-2.2-1.2"}}, {"uniqueid": "w52838368:a75161071", "current_trial": 17, "dateTime": 1693482274216, "trialdata": {"view_history": [{"page_index": 0, "viewing_time": 14853}, {"page_index": 1, "viewing_time": 2332}], "rt": 17185, "trial_id": "mouselab_instructions_2_misaligned", "trial_type": "instructions", "trial_index": 17, "time_elapsed": 1315446, "internal_node_id": "0.0-2.2-3.2"}}, {"uniqueid": "w52838368:a75161071", "current_trial": 18, "dateTime": 1693482539894, "trialdata": {"rt": 265673, "response": {"Q0": "The cost for clicking on nodes may vary between nodes.", "Q1": "The better I perform the higher my bonus will be.", "Q2": "No, the amount of cash at each node of the web may be different each time.", "Q3": "To get the highest total score.", "Q4": "Only before moving the spider.", "Q5": "3 seconds"}, "question_order": [0, 1, 2, 3, 4, 5], "correct": {"Q0": "The cost for clicking on nodes may vary between nodes.", "Q1": "The better I perform the higher my bonus will be.", "Q2": "No, the amount of cash at each node of the web may be different each time.", "Q3": "To get the highest total score.", "Q4": "Only before moving the spider.", "Q5": "3 seconds"}, "trial_id": "mouselab_quiz_misaligned", "trial_type": "survey-multi-choice", "trial_index": 18, "time_elapsed": 1581124, "internal_node_id": "0.0-2.2-4.2"}}, {"uniqueid": "w52838368:a75161071", "current_trial": 19, "dateTime": 1693482646914, "trialdata": {"rt": 107014, "response": {"Q0": "No"}, "question_order": [0], "trial_id": "repeat_check", "trial_type": "survey-multi-choice", "trial_index": 19, "time_elapsed": 1688143, "internal_node_id": "0.0-4.0-0.0"}}, {"uniqueid": "w52838368:a75161071", "current_trial": 20, "dateTime": 1693482698108, "trialdata": {"rt": 51187, "stimulus": "\n<h1> Get ready to start the game! </h1>\n\nThank you for reading the instructions. Get ready start with the 40 rounds of this game.\n<br><br>\nIf you need to take a break, feel free to take one after the end of a round, before continuing to the next one.\n<br><br>\nRemember, the more money the spider gets, the bigger your bonus will be!\n<br><br>\n<div style='text-align: center;'>Press <code>space</code> to begin.</div>\n\n<br><br>\n(If, at any point, the <code>space</code> key does not take you to the next page, click once on the text and try again.)", "response": " ", "trial_id": "mdp_ready", "trial_type": "html-keyboard-response", "trial_index": 20, "time_elapsed": 1739338, "internal_node_id": "0.0-6.0-0.0"}}, {"uniqueid": "w52838368:a75161071", "current_trial": 21, "dateTime": 1693482721675, "trialdata": {"revealed_states": [], "clicked_states": ["23", "12"], "num_clicks_accrued": [0, 0, 0, 0, 0, 0, 0, 0, 0, 0, 0, 0, 0], "stateRewards": ["", -1, 1, 8, -8, -49, 62, -78, 16, 28, -81, 78, -2, -3, -1, -4, 67, 49, -2, -13, -16, -39, 83, 1, -4, 4, -5, -20, 7, 84, 7, -32, -59, 19], "withholdReward": false, "trial_id": "mdp_trial_1", "block": "test", "trialIndex": 6, "score": 3.5, "costs": 0.5, "simulationMode": [null, null, null, null, null], "rewards": [1, -4, 4, -5, 7], "path": ["0", "0", "23", "24", "25", "26", "28"], "rt": [6696, 688, 1055, 1374, 678], "actions": ["left", "left", "left", "up", "right"], "actionTimes": [10058, 11264, 12832, 14717, 15903], "queries": {"click": {"state": {"target": ["23", "12"], "time": [5263, 7909]}, "edge": {"target": [], "time": []}}, "mouseover": {"state": {"target": ["23", "12", "0", "23"], "time": [4780, 7513, 8630, 8958]}, "edge": {"target": [], "time": []}}, "mouseout": {"state": {"target": ["0", "23", "12", "0"], "time": [2863, 7231, 8592, 8758]}, "edge": {"target": [], "time": []}}}, "displayed_time": "17.36", "trialTime": 23401, "trial_type": "mouselab-mdp", "trial_index": 21, "time_elapsed": 1762904, "internal_node_id": "0.0-6.0-1.0-0.0"}}, {"uniqueid": "w52838368:a75161071", "current_trial": 22, "dateTime": 1693482740976, "trialdata": {"revealed_states": [], "clicked_states": ["1", "12", "23"], "num_clicks_accrued": [0, 0, 0, 0, 0, 0, 0, 0, 0, 0, 0, 0, 0], "stateRewards": ["", -2, 3, -1, 2, -72, 63, 20, -1, 62, -66, 39, -2, 3, -6, 14, 22, 47, 1, 8, -49, -1, -41, 2, 2, -6, -16, -64, -60, -34, 16, 54, 22, -7], "withholdReward": false, "trial_id": "mdp_trial_2", "block": "test", "trialIndex": 7, "score": -51.25, "costs": 0.75, "simulationMode": [null, null, null, null, null], "rewards": [2, 2, -6, -16, -34], "path": ["0", "0", "23", "24", "25", "26", "29"], "rt": [7994, 543, 272, 1226, 659], "actions": ["left", "left", "left", "up", "left"], "actionTimes": [10751, 11803, 12599, 14335, 15501], "queries": {"click": {"state": {"target": ["1", "12", "23"], "time": [4034, 6193, 8840]}, "edge": {"target": [], "time": []}}, "mouseover": {"state": {"target": ["1", "12", "23"], "time": [3647, 4760, 8413]}, "edge": {"target": [], "time": []}}, "mouseout": {"state": {"target": ["23", "0", "1", "12", "23"], "time": [2111, 3481, 4696, 7709, 9997]}, "edge": {"target": [], "time": []}}}, "displayed_time": "16.76", "trialTime": 19144, "trial_type": "mouselab-mdp", "trial_index": 22, "time_elapsed": 1782205, "internal_node_id": "0.0-6.0-1.0-1.0"}}, {"uniqueid": "w52838368:a75161071", "current_trial": 23, "dateTime": 1693482777520, "trialdata": {"revealed_states": [], "clicked_states": [], "num_clicks_accrued": [0, 0, 0, 0, 0, 0, 0, 0, 0, 0, 0, 0, 0], "stateRewards": ["", 1, -1, 4, 5, -32, 18, 20, 6, -88, -74, 9, -2, 1, -2, -14, 34, -77, -38, -1, 80, -36, 73, 2, 3, -8, 10, -48, -73, -71, -11, -22, 20, 54], "withholdReward": false, "trial_id": "mdp_trial_3", "block": "test", "trialIndex": 8, "score": -23, "costs": 0, "simulationMode": [null, null, null, null, null], "rewards": [1, -1, 4, 5, -32], "path": ["0", "0", "1", "2", "3", "4", "5"], "rt": [1079, 28, 183, 92, 814], "actions": ["up", "up", "up", "right", "up"], "actionTimes": [3442, 3986, 4691, 5299, 6622], "queries": {"click": {"state": {"target": [], "time": []}, "edge": {"target": [], "time": []}}, "mouseover": {"state": {"target": [], "time": []}, "edge": {"target": [], "time": []}}, "mouseout": {"state": {"target": ["23"], "time": [1643]}, "edge": {"target": [], "time": []}}}, "displayed_time": "16.37", "trialTime": 36391, "trial_type": "mouselab-mdp", "trial_index": 23, "time_elapsed": 1818749, "internal_node_id": "0.0-6.0-1.0-2.0"}}, {"uniqueid": "w52838368:a75161071", "current_trial": 24, "dateTime": 1693482795232, "trialdata": {"revealed_states": [], "clicked_states": ["1", "23"], "num_clicks_accrued": [0, 0, 0, 0, 0, 0, 0, 0, 0, 0, 0, 0, 0], "stateRewards": ["", -2, -3, -5, 8, 27, 11, 43, -6, -24, -87, 69, -2, 1, 1, 9, 19, 48, -37, 9, -14, 45, 62, 1, 2, 1, 16, -81, -41, 22, 4, -6, -63, 47], "withholdReward": false, "trial_id": "mdp_trial_4", "block": "test", "trialIndex": 9, "score": -60.5, "costs": 0.5, "simulationMode": [null, null, null, null, null], "rewards": [1, 2, 1, 16, -81], "path": ["0", "0", "23", "24", "25", "26", "27"], "rt": [5692, 76, 58, 551, 340], "actions": ["left", "left", "left", "up", "up"], "actionTimes": [7195, 7787, 8352, 9428, 10284], "queries": {"click": {"state": {"target": ["1", "23"], "time": [2730, 4846]}, "edge": {"target": [], "time": []}}, "mouseover": {"state": {"target": ["1", "23"], "time": [2114, 4209]}, "edge": {"target": [], "time": []}}, "mouseout": {"state": {"target": ["0", "1", "23"], "time": [993, 3915, 5065]}, "edge": {"target": [], "time": []}}}, "displayed_time": "15.50", "trialTime": 17537, "trial_type": "mouselab-mdp", "trial_index": 24, "time_elapsed": 1836462, "internal_node_id": "0.0-6.0-1.0-3.0"}}, {"uniqueid": "w52838368:a75161071", "current_trial": 25, "dateTime": 1693482813382, "trialdata": {"revealed_states": [], "clicked_states": ["12"], "num_clicks_accrued": [0, 0, 0, 0, 0, 0, 0, 0, 0, 0, 0, 0, 0], "stateRewards": ["", 1, 3, -2, 15, 51, 15, -19, 11, 67, -45, -73, 2, 4, -2, -13, 36, 9, -28, 10, -30, 31, 16, 1, 2, -1, -16, 14, -22, 36, -1, 88, -5, 45], "withholdReward": false, "trial_id": "mdp_trial_5", "block": "test", "trialIndex": 10, "score": 27.25, "costs": 0.25, "simulationMode": [null, null, null, null, null], "rewards": [2, 4, -2, -13, 36], "path": ["0", "0", "12", "13", "14", "15", "16"], "rt": [2855, 6268, 1109, 815, 711], "actions": ["right", "right", "right", "up", "up"], "actionTimes": [4257, 11037, 12659, 13973, 15193], "queries": {"click": {"state": {"target": ["12"], "time": [2570]}, "edge": {"target": [], "time": []}}, "mouseover": {"state": {"target": ["12"], "time": [2037]}, "edge": {"target": [], "time": []}}, "mouseout": {"state": {"target": ["23", "0", "12", "12"], "time": [820, 1939, 3318, 7305]}, "edge": {"target": [], "time": []}}}, "displayed_time": "15.70", "trialTime": 17985, "trial_type": "mouselab-mdp", "trial_index": 25, "time_elapsed": 1854612, "internal_node_id": "0.0-6.0-1.0-4.0"}}, {"uniqueid": "w52838368:a75161071", "current_trial": 26, "dateTime": 1693482882499, "trialdata": {"revealed_states": [], "clicked_states": [], "num_clicks_accrued": [0, 0, 0, 0, 0, 0, 0, 0, 0, 0, 0, 0, 0], "stateRewards": ["", -1, -3, 4, -10, -5, 79, -87, -2, 53, 29, -20, -2, -1, -5, 10, 27, 86, 46, -16, -29, 40, 3, 2, 4, -1, -6, 37, 79, -29, 7, 86, -62, 29], "withholdReward": false, "trial_id": "mdp_trial_6", "block": "test", "trialIndex": 11, "score": 29, "costs": 0, "simulationMode": [null, null, null, null, null], "rewards": [-2, -1, -5, 10, 27], "path": ["0", "0", "12", "13", "14", "15", "16"], "rt": [943, 983, 831, 521, 1170], "actions": ["right", "right", "right", "up", "up"], "actionTimes": [3066, 4558, 5904, 6944, 8626], "queries": {"click": {"state": {"target": [], "time": []}, "edge": {"target": [], "time": []}}, "mouseover": {"state": {"target": [], "time": []}, "edge": {"target": [], "time": []}}, "mouseout": {"state": {"target": ["13", "12", "0", "0", "0", "10"], "time": [1325, 1409, 1507, 1705, 66623, 67250]}, "edge": {"target": [], "time": []}}}, "displayed_time": "16.13", "trialTime": 68961, "trial_type": "mouselab-mdp", "trial_index": 26, "time_elapsed": 1923729, "internal_node_id": "0.0-6.0-1.0-5.0"}}, {"uniqueid": "w52838368:a75161071", "current_trial": 27, "dateTime": 1693482924949, "trialdata": {"revealed_states": [], "clicked_states": [], "num_clicks_accrued": [0, 0, 0, 0, 0, 0, 0, 0, 0, 0, 0, 0, 0], "stateRewards": ["", -2, -4, -2, 10, -8, -15, -47, 7, -84, 53, 5, -1, 2, -7, 3, 83, 31, 47, -1, 30, -8, 69, 2, -4, -1, 8, -7, 12, -8, -8, -13, 30, -84], "withholdReward": false, "trial_id": "mdp_trial_7", "block": "test", "trialIndex": 12, "score": 44, "costs": 0, "simulationMode": [null, null, null, null, null], "rewards": [-1, 2, -7, 3, 47], "path": ["0", "0", "12", "13", "14", "15", "18"], "rt": [926, 1227, 1840, 4408, 439], "actions": ["right", "right", "right", "up", "left"], "actionTimes": [3351, 5083, 7429, 12363, 13317], "queries": {"click": {"state": {"target": [], "time": []}, "edge": {"target": [], "time": []}}, "mouseover": {"state": {"target": [], "time": []}, "edge": {"target": [], "time": []}}, "mouseout": {"state": {"target": ["12", "0"], "time": [1758, 41696]}, "edge": {"target": [], "time": []}}}, "displayed_time": "16.43", "trialTime": 42282, "trial_type": "mouselab-mdp", "trial_index": 27, "time_elapsed": 1966177, "internal_node_id": "0.0-6.0-1.0-6.0"}}, {"uniqueid": "w52838368:a75161071", "current_trial": 28, "dateTime": 1693482948626, "trialdata": {"revealed_states": [], "clicked_states": [], "num_clicks_accrued": [0, 0, 0, 0, 0, 0, 0, 0, 0, 0, 0, 0, 0], "stateRewards": ["", -1, 3, 1, -7, 56, 76, 57, 3, 11, -9, 14, 1, -2, 2, 8, -77, -3, 79, -5, 88, 24, -66, -2, -1, 7, -7, -30, 14, -76, 11, -36, 28, -6], "withholdReward": false, "trial_id": "mdp_trial_8", "block": "test", "trialIndex": 13, "score": 6, "costs": 0, "simulationMode": [null, null, null, null, null], "rewards": [1, -2, 2, 8, -3], "path": ["0", "0", "12", "13", "14", "15", "17"], "rt": [1236, 111, 159, 567, 1551], "actions": ["right", "right", "right", "up", "right"], "actionTimes": [2988, 3614, 4279, 5353, 7420], "queries": {"click": {"state": {"target": [], "time": []}, "edge": {"target": [], "time": []}}, "mouseover": {"state": {"target": [], "time": []}, "edge": {"target": [], "time": []}}, "mouseout": {"state": {"target": ["0", "0"], "time": [2423, 22432]}, "edge": {"target": [], "time": []}}}, "displayed_time": "15.76", "trialTime": 23504, "trial_type": "mouselab-mdp", "trial_index": 28, "time_elapsed": 1989855, "internal_node_id": "0.0-6.0-1.0-7.0"}}, {"uniqueid": "w52838368:a75161071", "current_trial": 29, "dateTime": 1693482989624, "trialdata": {"revealed_states": [], "clicked_states": [], "num_clicks_accrued": [0, 0, 0, 0, 0, 0, 0, 0, 0, 0, 0, 0, 0], "stateRewards": ["", -1, -3, -5, -14, -13, -47, 79, 8, -60, -64, 41, -1, 2, 3, 13, -46, 61, -79, -11, -64, -65, 23, 1, -2, 6, -14, 46, 32, 21, 7, 75, -66, 15], "withholdReward": false, "trial_id": "mdp_trial_9", "block": "test", "trialIndex": 14, "score": 16, "costs": 0, "simulationMode": [null, null, null, null, null], "rewards": [-1, 2, 3, -11, 23], "path": ["0", "0", "12", "13", "14", "19", "22"], "rt": [1283, 169, 76, 844, 1177], "actions": ["right", "right", "right", "down", "left"], "actionTimes": [3095, 3778, 4368, 5719, 7403], "queries": {"click": {"state": {"target": [], "time": []}, "edge": {"target": [], "time": []}}, "mouseover": {"state": {"target": [], "time": []}, "edge": {"target": [], "time": []}}, "mouseout": {"state": {"target": ["0", "0"], "time": [1041, 40515]}, "edge": {"target": [], "time": []}}}, "displayed_time": "15.81", "trialTime": 40819, "trial_type": "mouselab-mdp", "trial_index": 29, "time_elapsed": 2030854, "internal_node_id": "0.0-6.0-1.0-8.0"}}, {"uniqueid": "w52838368:a75161071", "current_trial": 30, "dateTime": 1693483009261, "trialdata": {"revealed_states": [], "clicked_states": [], "num_clicks_accrued": [0, 0, 0, 0, 0, 0, 0, 0, 0, 0, 0, 0, 0], "stateRewards": ["", 2, 3, 8, 14, 69, -27, 17, 2, -71, -65, -10, 2, -3, 7, 8, 65, -10, 65, -12, 73, -12, 13, -2, -2, 6, 10, -79, -69, -18, 10, -85, 67, 74], "withholdReward": false, "trial_id": "mdp_trial_10", "block": "test", "trialIndex": 15, "score": 79, "costs": 0, "simulationMode": [null, null, null, null, null], "rewards": [2, -3, 7, 8, 65], "path": ["0", "0", "12", "13", "14", "15", "16"], "rt": [1067, 612, 131, 705, 21], "actions": ["right", "right", "right", "up", "up"], "actionTimes": [3026, 4151, 4802, 6027, 6558], "queries": {"click": {"state": {"target": [], "time": []}, "edge": {"target": [], "time": []}}, "mouseover": {"state": {"target": [], "time": []}, "edge": {"target": [], "time": []}}, "mouseout": {"state": {"target": ["0", "0"], "time": [970, 18402]}, "edge": {"target": [], "time": []}}}, "displayed_time": "15.96", "trialTime": 19446, "trial_type": "mouselab-mdp", "trial_index": 30, "time_elapsed": 2050490, "internal_node_id": "0.0-6.0-1.0-9.0"}}, {"uniqueid": "w52838368:a75161071", "current_trial": 31, "dateTime": 1693483033664, "trialdata": {"revealed_states": [], "clicked_states": [], "num_clicks_accrued": [0, 0, 0, 0, 0, 0, 0, 0, 0, 0, 0, 0, 0], "stateRewards": ["", -2, 2, 8, -6, -25, 3, 87, 2, -62, -2, 74, -2, -1, 2, -1, 79, 49, -37, -14, 5, 67, -9, -1, 2, -2, 5, 15, 38, 32, -14, -38, -38, 30], "withholdReward": false, "trial_id": "mdp_trial_11", "block": "test", "trialIndex": 16, "score": -53, "costs": 0, "simulationMode": [null, null, null, null, null], "rewards": [-1, 2, -2, -14, -38], "path": ["0", "0", "23", "24", "25", "30", "32"], "rt": [4193, 38, 179, 1563, 797], "actions": ["left", "left", "left", "down", "down"], "actionTimes": [6490, 7047, 7755, 9823, 11141], "queries": {"click": {"state": {"target": [], "time": []}, "edge": {"target": [], "time": []}}, "mouseover": {"state": {"target": ["12"], "time": [2898]}, "edge": {"target": [], "time": []}}, "mouseout": {"state": {"target": ["0"], "time": [2843]}, "edge": {"target": [], "time": []}}}, "displayed_time": "16.30", "trialTime": 24228, "trial_type": "mouselab-mdp", "trial_index": 31, "time_elapsed": 2074892, "internal_node_id": "0.0-6.0-1.0-10.0"}}, {"uniqueid": "w52838368:a75161071", "current_trial": 32, "dateTime": 1693483070409, "trialdata": {"revealed_states": [], "clicked_states": [], "num_clicks_accrued": [0, 0, 0, 0, 0, 0, 0, 0, 0, 0, 0, 0, 0], "stateRewards": ["", 2, 3, -2, -8, -8, -41, 74, 15, -23, -80, 1, 1, 3, 3, -15, -63, -78, 67, 13, 75, -41, 86, 2, -2, 6, -3, -8, -49, 50, -6, 83, 74, 80], "withholdReward": false, "trial_id": "mdp_trial_12", "block": "test", "trialIndex": 17, "score": 83, "costs": 0, "simulationMode": [null, null, null, null, null], "rewards": [2, -2, 6, -6, 83], "path": ["0", "0", "23", "24", "25", "30", "31"], "rt": [1650, 34, 257, 690, 624], "actions": ["left", "left", "left", "down", "right"], "actionTimes": [3537, 4082, 4853, 6053, 7187], "queries": {"click": {"state": {"target": [], "time": []}, "edge": {"target": [], "time": []}}, "mouseover": {"state": {"target": [], "time": []}, "edge": {"target": [], "time": []}}, "mouseout": {"state": {"target": ["12"], "time": [1166]}, "edge": {"target": [], "time": []}}}, "displayed_time": "15.89", "trialTime": 36568, "trial_type": "mouselab-mdp", "trial_index": 32, "time_elapsed": 2111639, "internal_node_id": "0.0-6.0-1.0-11.0"}}, {"uniqueid": "w52838368:a75161071", "current_trial": 33, "dateTime": 1693483093060, "trialdata": {"revealed_states": [], "clicked_states": [], "num_clicks_accrued": [0, 0, 0, 0, 0, 0, 0, 0, 0, 0, 0, 0, 0], "stateRewards": ["", 1, -1, 1, -14, -10, 67, -28, -11, 72, 40, -65, -1, 1, 1, -2, 8, -55, 34, -10, 61, 33, -15, 2, -4, 7, 4, -75, 63, -21, -16, 61, 19, 21], "withholdReward": false, "trial_id": "mdp_trial_13", "block": "test", "trialIndex": 18, "score": 50, "costs": 0, "simulationMode": [null, null, null, null, null], "rewards": [2, -4, 7, -16, 61], "path": ["0", "0", "23", "24", "25", "30", "31"], "rt": [986, 246, 166, 601, 560], "actions": ["left", "left", "left", "down", "right"], "actionTimes": [2203, 2958, 3643, 4761, 5837], "queries": {"click": {"state": {"target": [], "time": []}, "edge": {"target": [], "time": []}}, "mouseover": {"state": {"target": [], "time": []}, "edge": {"target": [], "time": []}}, "mouseout": {"state": {"target": [], "time": []}, "edge": {"target": [], "time": []}}}, "displayed_time": "15.22", "trialTime": 22445, "trial_type": "mouselab-mdp", "trial_index": 33, "time_elapsed": 2134289, "internal_node_id": "0.0-6.0-1.0-12.0"}}, {"uniqueid": "w52838368:a75161071", "current_trial": 34, "dateTime": 1693483113699, "trialdata": {"revealed_states": [], "clicked_states": [], "num_clicks_accrued": [0, 0, 0, 0, 0, 0, 0, 0, 0, 0, 0, 0, 0], "stateRewards": ["", -2, 4, -5, -12, 85, -24, -18, -15, -78, -22, 26, -1, -1, 2, 14, -45, 52, -23, 7, -33, 24, -6, -2, -4, 5, -7, -16, 36, -39, 5, 71, -87, -23], "withholdReward": false, "trial_id": "mdp_trial_14", "block": "test", "trialIndex": 19, "score": -19, "costs": 0, "simulationMode": [null, null, null, null, null], "rewards": [-2, -4, 5, 5, -23], "path": ["0", "0", "23", "24", "25", "30", "33"], "rt": [1040, 183, 240, 117, 1554], "actions": ["left", "left", "left", "down", "left"], "actionTimes": [2246, 2959, 3715, 4341, 6412], "queries": {"click": {"state": {"target": [], "time": []}, "edge": {"target": [], "time": []}}, "mouseover": {"state": {"target": [], "time": []}, "edge": {"target": [], "time": []}}, "mouseout": {"state": {"target": [], "time": []}, "edge": {"target": [], "time": []}}}, "displayed_time": "15.21", "trialTime": 20439, "trial_type": "mouselab-mdp", "trial_index": 34, "time_elapsed": 2154927, "internal_node_id": "0.0-6.0-1.0-13.0"}}, {"uniqueid": "w52838368:a75161071", "current_trial": 35, "dateTime": 1693483130655, "trialdata": {"revealed_states": [], "clicked_states": [], "num_clicks_accrued": [0, 0, 0, 0, 0, 0, 0, 0, 0, 0, 0, 0, 0], "stateRewards": ["", 1, 1, 1, -3, -7, -1, -41, -10, 20, -72, -63, 1, -4, -2, 2, -66, 30, -84, -2, 49, 23, 71, -1, -4, 4, -12, 67, 5, 18, -16, 88, 56, -5], "withholdReward": false, "trial_id": "mdp_trial_15", "block": "test", "trialIndex": 20, "score": -8, "costs": 0, "simulationMode": [null, null, null, null, null], "rewards": [-1, -4, 4, -12, 5], "path": ["0", "0", "23", "24", "25", "26", "28"], "rt": [887, 198, 138, 522, 134], "actions": ["left", "left", "left", "up", "right"], "actionTimes": [1919, 2627, 3284, 4318, 4963], "queries": {"click": {"state": {"target": [], "time": []}, "edge": {"target": [], "time": []}}, "mouseover": {"state": {"target": [], "time": []}, "edge": {"target": [], "time": []}}, "mouseout": {"state": {"target": [], "time": []}, "edge": {"target": [], "time": []}}}, "displayed_time": "15.04", "trialTime": 16772, "trial_type": "mouselab-mdp", "trial_index": 35, "time_elapsed": 2171883, "internal_node_id": "0.0-6.0-1.0-14.0"}}, {"uniqueid": "w52838368:a75161071", "current_trial": 36, "dateTime": 1693483157712, "trialdata": {"revealed_states": [], "clicked_states": [], "num_clicks_accrued": [0, 0, 0, 0, 0, 0, 0, 0, 0, 0, 0, 0, 0], "stateRewards": ["", -2, 1, -5, 2, -68, 80, 33, 10, 67, -59, 20, -1, -3, 3, 14, 74, -2, 24, -16, 63, 80, 46, -1, 4, 6, 12, 83, -38, -43, -4, 43, 14, -79], "withholdReward": false, "trial_id": "mdp_trial_16", "block": "test", "trialIndex": 21, "score": 104, "costs": 0, "simulationMode": [null, null, null, null, null], "rewards": [-1, 4, 6, 12, 83], "path": ["0", "0", "23", "24", "25", "26", "27"], "rt": [760, 524, 176, 677, 451], "actions": ["left", "left", "left", "up", "up"], "actionTimes": [2256, 3278, 3965, 5146, 6103], "queries": {"click": {"state": {"target": [], "time": []}, "edge": {"target": [], "time": []}}, "mouseover": {"state": {"target": [], "time": []}, "edge": {"target": [], "time": []}}, "mouseout": {"state": {"target": ["0"], "time": [5990]}, "edge": {"target": [], "time": []}}}, "displayed_time": "15.50", "trialTime": 26863, "trial_type": "mouselab-mdp", "trial_index": 36, "time_elapsed": 2198942, "internal_node_id": "0.0-6.0-1.0-15.0"}}, {"uniqueid": "w52838368:a75161071", "current_trial": 37, "dateTime": 1693483219394, "trialdata": {"revealed_states": [], "clicked_states": [], "num_clicks_accrued": [0, 0, 0, 0, 0, 0, 0, 0, 0, 0, 0, 0, 0], "stateRewards": ["", 2, 4, 7, -6, -76, -81, 2, 5, -66, -3, 36, -2, -4, 6, -2, -69, 4, -49, -6, 67, 38, -67, 2, 1, 1, 6, -68, -21, 52, -16, -16, 6, -70], "withholdReward": false, "trial_id": "mdp_trial_17", "block": "test", "trialIndex": 22, "score": 62, "costs": 0, "simulationMode": [null, null, null, null, null], "rewards": [2, 1, 1, 6, 52], "path": ["0", "0", "23", "24", "25", "26", "29"], "rt": [1062, 2, 77, 646, 462], "actions": ["left", "left", "left", "up", "left"], "actionTimes": [3558, 4072, 4680, 5831, 6796], "queries": {"click": {"state": {"target": [], "time": []}, "edge": {"target": [], "time": []}}, "mouseover": {"state": {"target": [], "time": []}, "edge": {"target": [], "time": []}}, "mouseout": {"state": {"target": [], "time": []}, "edge": {"target": [], "time": []}}}, "displayed_time": "16.50", "trialTime": 61483, "trial_type": "mouselab-mdp", "trial_index": 37, "time_elapsed": 2260623, "internal_node_id": "0.0-6.0-1.0-16.0"}}, {"uniqueid": "w52838368:a75161071", "current_trial": 38, "dateTime": 1693483304454, "trialdata": {"revealed_states": [], "clicked_states": [], "num_clicks_accrued": [0, 0, 0, 0, 0, 0, 0, 0, 0, 0, 0, 0, 0], "stateRewards": ["", -1, -3, -6, 14, 41, 18, 63, -14, 80, 21, 17, -2, -4, -2, -5, 13, 70, 8, -4, -64, -10, -20, 2, -1, 4, -1, -17, -55, 42, -7, 47, 54, 15], "withholdReward": false, "trial_id": "mdp_trial_18", "block": "test", "trialIndex": 23, "score": 0, "costs": 0, "simulationMode": [null, null, null, null, null], "rewards": [-2, -4, -2, -5, 13], "path": ["0", "0", "12", "13", "14", "15", "16"], "rt": [1853, 297, 305, 132, 596], "actions": ["right", "right", "right", "up", "up"], "actionTimes": [2830, 3627, 4436, 5077, 6191], "queries": {"click": {"state": {"target": [], "time": []}, "edge": {"target": [], "time": []}}, "mouseover": {"state": {"target": [], "time": []}, "edge": {"target": [], "time": []}}, "mouseout": {"state": {"target": ["0"], "time": [1679]}, "edge": {"target": [], "time": []}}}, "displayed_time": "14.98", "trialTime": 84877, "trial_type": "mouselab-mdp", "trial_index": 38, "time_elapsed": 2345684, "internal_node_id": "0.0-6.0-1.0-17.0"}}, {"uniqueid": "w52838368:a75161071", "current_trial": 39, "dateTime": 1693483420556, "trialdata": {"revealed_states": [], "clicked_states": [], "num_clicks_accrued": [0, 0, 0, 0, 0, 0, 0, 0, 0, 0, 0, 0, 0], "stateRewards": ["", 1, -4, 6, -3, 40, 76, -51, 5, -24, -63, 44, -2, -2, 8, 1, 76, -85, -58, 10, 59, 20, 11, -2, 3, -3, 3, -82, -10, 54, -7, -57, -6, -32], "withholdReward": false, "trial_id": "mdp_trial_19", "block": "test", "trialIndex": 24, "score": -81, "costs": 0, "simulationMode": [null, null, null, null, null], "rewards": [-2, 3, -3, 3, -82], "path": ["0", "0", "23", "24", "25", "26", "27"], "rt": [1335, 566, 243, 392, 4], "actions": ["left", "left", "left", "up", "up"], "actionTimes": [58377, 59448, 60192, 61091, 61619], "queries": {"click": {"state": {"target": [], "time": []}, "edge": {"target": [], "time": []}}, "mouseover": {"state": {"target": [], "time": []}, "edge": {"target": [], "time": []}}, "mouseout": {"state": {"target": ["0"], "time": [56926]}, "edge": {"target": [], "time": []}}}, "displayed_time": "71.04", "trialTime": 115909, "trial_type": "mouselab-mdp", "trial_index": 39, "time_elapsed": 2461784, "internal_node_id": "0.0-6.0-1.0-18.0"}}, {"uniqueid": "w52838368:a75161071", "current_trial": 40, "dateTime": 1693483438358, "trialdata": {"revealed_states": [], "clicked_states": [], "num_clicks_accrued": [0, 0, 0, 0, 0, 0, 0, 0, 0, 0, 0, 0, 0], "stateRewards": ["", 2, -1, -4, -13, 74, 77, 3, 2, -43, -2, -11, 2, 3, 7, 11, -26, -29, -33, -3, -3, -13, -3, 1, 3, -7, 14, -59, 33, 9, -5, 34, 79, 68], "withholdReward": false, "trial_id": "mdp_trial_20", "block": "test", "trialIndex": 25, "score": -3, "costs": 0, "simulationMode": [null, null, null, null, null], "rewards": [2, -1, -4, 2, -2], "path": ["0", "0", "1", "2", "3", "8", "10"], "rt": [1712, 524, 102, 730, 285], "actions": ["up", "up", "up", "left", "down"], "actionTimes": [2976, 4011, 4620, 5865, 6670], "queries": {"click": {"state": {"target": [], "time": []}, "edge": {"target": [], "time": []}}, "mouseover": {"state": {"target": [], "time": []}, "edge": {"target": [], "time": []}}, "mouseout": {"state": {"target": ["0"], "time": [729]}, "edge": {"target": [], "time": []}}}, "displayed_time": "15.27", "trialTime": 17603, "trial_type": "mouselab-mdp", "trial_index": 40, "time_elapsed": 2479587, "internal_node_id": "0.0-6.0-1.0-19.0"}}, {"uniqueid": "w52838368:a75161071", "current_trial": 41, "dateTime": 1693483456407, "trialdata": {"revealed_states": [], "clicked_states": [], "num_clicks_accrued": [0, 0, 0, 0, 0, 0, 0, 0, 0, 0, 0, 0, 0], "stateRewards": ["", 1, 2, -3, 6, -88, 74, -45, 7, -46, 40, -77, 1, -4, 4, 3, 22, -25, -59, 8, -83, 19, -60, -1, -1, -1, -8, 26, -29, 64, -7, -88, -51, -55], "withholdReward": false, "trial_id": "mdp_trial_21", "block": "test", "trialIndex": 26, "score": -55, "costs": 0, "simulationMode": [null, null, null, null, null], "rewards": [1, -4, 4, 3, -59], "path": ["0", "0", "12", "13", "14", "15", "18"], "rt": [1117, 513, 60, 383, 71], "actions": ["right", "right", "right", "up", "left"], "actionTimes": [2312, 3335, 3915, 4806, 5392], "queries": {"click": {"state": {"target": [], "time": []}, "edge": {"target": [], "time": []}}, "mouseover": {"state": {"target": [], "time": []}, "edge": {"target": [], "time": []}}, "mouseout": {"state": {"target": ["0"], "time": [682]}, "edge": {"target": [], "time": []}}}, "displayed_time": "15.20", "trialTime": 17843, "trial_type": "mouselab-mdp", "trial_index": 41, "time_elapsed": 2497636, "internal_node_id": "0.0-6.0-1.0-20.0"}}, {"uniqueid": "w52838368:a75161071", "current_trial": 42, "dateTime": 1693483516774, "trialdata": {"revealed_states": [], "clicked_states": [], "num_clicks_accrued": [0, 0, 0, 0, 0, 0, 0, 0, 0, 0, 0, 0, 0], "stateRewards": ["", -2, 2, -1, -6, 22, 6, 6, -5, 70, -42, 65, 1, 3, 5, -6, -67, -9, 3, 14, 7, -62, -13, -2, 4, 1, 16, 42, -21, -52, -8, 32, 53, 81], "withholdReward": false, "trial_id": "mdp_trial_22", "block": "test", "trialIndex": 27, "score": 10, "costs": 0, "simulationMode": [null, null, null, null, null], "rewards": [1, 3, 5, 14, -13], "path": ["0", "0", "12", "13", "14", "19", "22"], "rt": [1279, 276, 262, 2433, 842], "actions": ["right", "right", "right", "down", "left"], "actionTimes": [2462, 3252, 4021, 6958, 8315], "queries": {"click": {"state": {"target": [], "time": []}, "edge": {"target": [], "time": []}}, "mouseover": {"state": {"target": [], "time": []}, "edge": {"target": [], "time": []}}, "mouseout": {"state": {"target": [], "time": []}, "edge": {"target": [], "time": []}}}, "displayed_time": "15.19", "trialTime": 60173, "trial_type": "mouselab-mdp", "trial_index": 42, "time_elapsed": 2558004, "internal_node_id": "0.0-6.0-1.0-21.0"}}, {"uniqueid": "w52838368:a75161071", "current_trial": 43, "dateTime": 1693483570982, "trialdata": {"revealed_states": [], "clicked_states": [], "num_clicks_accrued": [0, 0, 0, 0, 0, 0, 0, 0, 0, 0, 0, 0, 0], "stateRewards": ["", -1, 3, -7, 16, -32, -74, -48, 2, 10, 15, -30, 1, 1, -2, 10, 12, -83, 67, 13, -66, 47, 65, -2, 4, 2, -14, -8, -57, 24, 9, 65, 12, 46], "withholdReward": false, "trial_id": "mdp_trial_23", "block": "test", "trialIndex": 28, "score": -53, "costs": 0, "simulationMode": [null, null, null, null, null], "rewards": [1, 1, -2, 13, -66], "path": ["0", "0", "12", "13", "14", "19", "20"], "rt": [1782, 104, 2014, 612, 498], "actions": ["right", "right", "right", "down", "right"], "actionTimes": [2728, 3345, 5872, 7002, 8037], "queries": {"click": {"state": {"target": [], "time": []}, "edge": {"target": [], "time": []}}, "mouseover": {"state": {"target": ["12"], "time": [1774]}, "edge": {"target": [], "time": []}}, "mouseout": {"state": {"target": ["0"], "time": [1510]}, "edge": {"target": [], "time": []}}}, "displayed_time": "14.95", "trialTime": 53997, "trial_type": "mouselab-mdp", "trial_index": 43, "time_elapsed": 2612211, "internal_node_id": "0.0-6.0-1.0-22.0"}}, {"uniqueid": "w52838368:a75161071", "current_trial": 44, "dateTime": 1693483590533, "trialdata": {"revealed_states": [], "clicked_states": [], "num_clicks_accrued": [0, 0, 0, 0, 0, 0, 0, 0, 0, 0, 0, 0, 0], "stateRewards": ["", 2, -1, -1, 7, 11, -40, -22, -2, 69, 37, 8, -2, 4, -8, -12, -2, -72, -3, -12, 17, 63, 12, 1, 3, -7, 6, 25, 61, 61, -9, 28, -17, 27], "withholdReward": false, "trial_id": "mdp_trial_24", "block": "test", "trialIndex": 29, "score": -15, "costs": 0, "simulationMode": [null, null, null, null, null], "rewards": [2, -1, -1, 7, -22], "path": ["0", "0", "1", "2", "3", "4", "7"], "rt": [1623, 41, 42, 114, 321], "actions": ["up", "up", "up", "right", "down"], "actionTimes": [3627, 4188, 4739, 5361, 6201], "queries": {"click": {"state": {"target": [], "time": []}, "edge": {"target": [], "time": []}}, "mouseover": {"state": {"target": ["1"], "time": [2747]}, "edge": {"target": [], "time": []}}, "mouseout": {"state": {"target": ["12", "0", "0"], "time": [1066, 1216, 2667]}, "edge": {"target": [], "time": []}}}, "displayed_time": "16.01", "trialTime": 19356, "trial_type": "mouselab-mdp", "trial_index": 44, "time_elapsed": 2631762, "internal_node_id": "0.0-6.0-1.0-23.0"}}, {"uniqueid": "w52838368:a75161071", "current_trial": 45, "dateTime": 1693483629318, "trialdata": {"revealed_states": [], "clicked_states": [], "num_clicks_accrued": [0, 0, 0, 0, 0, 0, 0, 0, 0, 0, 0, 0, 0], "stateRewards": ["", -2, -3, -3, 9, 79, 67, 22, -15, -56, 27, -85, -2, 4, -4, -15, -20, -32, 60, 15, 71, 57, 17, 1, 2, -8, 15, -37, -81, 82, 15, 21, -3, 2], "withholdReward": false, "trial_id": "mdp_trial_25", "block": "test", "trialIndex": 30, "score": -71, "costs": 0, "simulationMode": [null, null, null, null, null], "rewards": [1, 2, -8, 15, -81], "path": ["0", "0", "23", "24", "25", "26", "28"], "rt": [1226, 202, 575, 264, 668], "actions": ["left", "left", "left", "up", "right"], "actionTimes": [18914, 19626, 20715, 21487, 22674], "queries": {"click": {"state": {"target": [], "time": []}, "edge": {"target": [], "time": []}}, "mouseover": {"state": {"target": [], "time": []}, "edge": {"target": [], "time": []}}, "mouseout": {"state": {"target": ["1"], "time": [16793]}, "edge": {"target": [], "time": []}}}, "displayed_time": "31.69", "trialTime": 38563, "trial_type": "mouselab-mdp", "trial_index": 45, "time_elapsed": 2670547, "internal_node_id": "0.0-6.0-1.0-24.0"}}, {"uniqueid": "w52838368:a75161071", "current_trial": 46, "dateTime": 1693483699188, "trialdata": {"revealed_states": [], "clicked_states": [], "num_clicks_accrued": [0, 0, 0, 0, 0, 0, 0, 0, 0, 0, 0, 0, 0], "stateRewards": ["", 1, 1, -5, 8, -6, 45, 16, -6, -7, -22, -38, -1, -4, 8, -11, -16, 21, -45, -15, -59, -32, 42, -1, 3, 6, 11, -7, 34, -27, -8, 85, 43, -9], "withholdReward": false, "trial_id": "mdp_trial_26", "block": "test", "trialIndex": 31, "score": -1, "costs": 0, "simulationMode": [null, null, null, null, null], "rewards": [1, 1, -5, 8, -6], "path": ["0", "0", "1", "2", "3", "4", "5"], "rt": [1426, 154, 44, 365, 12], "actions": ["up", "up", "up", "right", "up"], "actionTimes": [2866, 3534, 4090, 4961, 5490], "queries": {"click": {"state": {"target": [], "time": []}, "edge": {"target": [], "time": []}}, "mouseover": {"state": {"target": [], "time": []}, "edge": {"target": [], "time": []}}, "mouseout": {"state": {"target": ["0"], "time": [1307]}, "edge": {"target": [], "time": []}}}, "displayed_time": "15.44", "trialTime": 69645, "trial_type": "mouselab-mdp", "trial_index": 46, "time_elapsed": 2740416, "internal_node_id": "0.0-6.0-1.0-25.0"}}, {"uniqueid": "w52838368:a75161071", "current_trial": 47, "dateTime": 1693483728205, "trialdata": {"revealed_states": [], "clicked_states": [], "num_clicks_accrued": [0, 0, 0, 0, 0, 0, 0, 0, 0, 0, 0, 0, 0], "stateRewards": ["", 2, -4, 7, 3, 23, -42, 4, 7, -81, -33, 7, -2, -4, 5, -1, 50, -57, -14, -13, -14, 44, 55, -2, -2, 5, -2, 33, 1, 57, -13, -7, 58, 87], "withholdReward": false, "trial_id": "mdp_trial_27", "block": "test", "trialIndex": 32, "score": -21, "costs": 0, "simulationMode": [null, null, null, null, null], "rewards": [2, -4, 7, 7, -33], "path": ["0", "0", "1", "2", "3", "8", "10"], "rt": [1096, 378, 191, 734, 4], "actions": ["up", "up", "up", "left", "down"], "actionTimes": [2203, 3100, 3796, 5038, 5557], "queries": {"click": {"state": {"target": [], "time": []}, "edge": {"target": [], "time": []}}, "mouseover": {"state": {"target": [], "time": []}, "edge": {"target": [], "time": []}}, "mouseout": {"state": {"target": ["0"], "time": [969]}, "edge": {"target": [], "time": []}}}, "displayed_time": "15.11", "trialTime": 28812, "trial_type": "mouselab-mdp", "trial_index": 47, "time_elapsed": 2769434, "internal_node_id": "0.0-6.0-1.0-26.0"}}, {"uniqueid": "w52838368:a75161071", "current_trial": 48, "dateTime": 1693483763672, "trialdata": {"revealed_states": [], "clicked_states": [], "num_clicks_accrued": [0, 0, 0, 0, 0, 0, 0, 0, 0, 0, 0, 0, 0], "stateRewards": ["", 2, -1, -3, 16, -3, -16, -62, -1, 13, -26, 43, -1, 4, 3, -9, -54, -37, -3, -12, -71, -68, -57, 1, -3, 2, -9, 2, -2, -9, -11, 84, -52, 55], "withholdReward": false, "trial_id": "mdp_trial_28", "block": "test", "trialIndex": 33, "score": 73, "costs": 0, "simulationMode": [null, null, null, null, null], "rewards": [1, -3, 2, -11, 84], "path": ["0", "0", "23", "24", "25", "30", "31"], "rt": [1310, 287, 860, 2476, 1017], "actions": ["left", "left", "left", "down", "right"], "actionTimes": [2566, 3372, 4744, 7728, 9251], "queries": {"click": {"state": {"target": [], "time": []}, "edge": {"target": [], "time": []}}, "mouseover": {"state": {"target": [], "time": []}, "edge": {"target": [], "time": []}}, "mouseout": {"state": {"target": ["0"], "time": [1105]}, "edge": {"target": [], "time": []}}}, "displayed_time": "15.26", "trialTime": 35269, "trial_type": "mouselab-mdp", "trial_index": 48, "time_elapsed": 2804901, "internal_node_id": "0.0-6.0-1.0-27.0"}}, {"uniqueid": "w52838368:a75161071", "current_trial": 49, "dateTime": 1693483791740, "trialdata": {"revealed_states": [], "clicked_states": [], "num_clicks_accrued": [0, 0, 0, 0, 0, 0, 0, 0, 0, 0, 0, 0, 0], "stateRewards": ["", 1, 1, 4, 11, 83, -66, 18, -16, -23, 5, 25, 1, -3, 1, -12, 18, 24, -86, -11, -64, 36, 40, 2, 1, -6, 13, 55, 29, 72, -2, 81, -72, -41], "withholdReward": false, "trial_id": "mdp_trial_29", "block": "test", "trialIndex": 34, "score": 76, "costs": 0, "simulationMode": [null, null, null, null, null], "rewards": [2, 1, -6, -2, 81], "path": ["0", "0", "23", "24", "25", "30", "31"], "rt": [1002, 47, 167, 4379, 88], "actions": ["left", "left", "left", "down", "right"], "actionTimes": [3029, 3583, 4285, 9181, 9787], "queries": {"click": {"state": {"target": [], "time": []}, "edge": {"target": [], "time": []}}, "mouseover": {"state": {"target": [], "time": []}, "edge": {"target": [], "time": []}}, "mouseout": {"state": {"target": ["0"], "time": [1891]}, "edge": {"target": [], "time": []}}}, "displayed_time": "16.03", "trialTime": 27833, "trial_type": "mouselab-mdp", "trial_index": 49, "time_elapsed": 2832969, "internal_node_id": "0.0-6.0-1.0-28.0"}}, {"uniqueid": "w52838368:a75161071", "current_trial": 50, "dateTime": 1693483871888, "trialdata": {"revealed_states": [], "clicked_states": [], "num_clicks_accrued": [0, 0, 0, 0, 0, 0, 0, 0, 0, 0, 0, 0, 0], "stateRewards": ["", 1, 1, -5, 10, -31, 73, 14, -8, -23, 63, -70, -1, 2, 8, 7, 25, -59, 27, -10, -40, -71, -15, -2, 3, -8, -5, -19, 77, -34, 7, 67, 63, 19], "withholdReward": false, "trial_id": "mdp_trial_30", "block": "test", "trialIndex": 35, "score": 67, "costs": 0, "simulationMode": [null, null, null, null, null], "rewards": [-2, 3, -8, 7, 67], "path": ["0", "0", "23", "24", "25", "30", "31"], "rt": [878, 538, 51, 108, 483], "actions": ["left", "left", "left", "down", "right"], "actionTimes": [2564, 3607, 4170, 4810, 5801], "queries": {"click": {"state": {"target": [], "time": []}, "edge": {"target": [], "time": []}}, "mouseover": {"state": {"target": [], "time": []}, "edge": {"target": [], "time": []}}, "mouseout": {"state": {"target": ["0"], "time": [1575]}, "edge": {"target": [], "time": []}}}, "displayed_time": "15.70", "trialTime": 79927, "trial_type": "mouselab-mdp", "trial_index": 50, "time_elapsed": 2913118, "internal_node_id": "0.0-6.0-1.0-29.0"}}, {"uniqueid": "w52838368:a75161071", "current_trial": 51, "dateTime": 1693483892166, "trialdata": {"revealed_states": [], "clicked_states": [], "num_clicks_accrued": [0, 0, 0, 0, 0, 0, 0, 0, 0, 0, 0, 0, 0], "stateRewards": ["", -1, 3, 8, 9, -53, 20, -84, 2, -28, -62, -31, -1, -2, -7, 2, 51, 58, 45, -4, -17, -41, 36, 2, -2, -7, -15, 29, -54, -37, -16, -43, 65, -17], "withholdReward": false, "trial_id": "mdp_trial_31", "block": "test", "trialIndex": 36, "score": 42, "costs": 0, "simulationMode": [null, null, null, null, null], "rewards": [2, -2, -7, -16, 65], "path": ["0", "0", "23", "24", "25", "30", "32"], "rt": [849, 187, 111, 659, 555], "actions": ["left", "left", "left", "down", "down"], "actionTimes": [2499, 3190, 3815, 4979, 6041], "queries": {"click": {"state": {"target": [], "time": []}, "edge": {"target": [], "time": []}}, "mouseover": {"state": {"target": [], "time": []}, "edge": {"target": [], "time": []}}, "mouseout": {"state": {"target": ["0"], "time": [1491]}, "edge": {"target": [], "time": []}}}, "displayed_time": "15.65", "trialTime": 20063, "trial_type": "mouselab-mdp", "trial_index": 51, "time_elapsed": 2933395, "internal_node_id": "0.0-6.0-1.0-30.0"}}, {"uniqueid": "w52838368:a75161071", "current_trial": 52, "dateTime": 1693483942777, "trialdata": {"revealed_states": [], "clicked_states": [], "num_clicks_accrued": [0, 0, 0, 0, 0, 0, 0, 0, 0, 0, 0, 0, 0], "stateRewards": ["", -1, 2, -2, 5, 80, -61, -27, 12, 44, -26, -75, -2, -4, 1, -16, 42, -49, -50, 4, -44, 2, 80, -2, -2, 5, -2, 59, 10, 24, 7, -48, -86, -44], "withholdReward": false, "trial_id": "mdp_trial_32", "block": "test", "trialIndex": 37, "score": -78, "costs": 0, "simulationMode": [null, null, null, null, null], "rewards": [-2, -2, 5, 7, -86], "path": ["0", "0", "23", "24", "25", "30", "32"], "rt": [1633, 12, 18, 97, 13], "actions": ["left", "left", "left", "down", "down"], "actionTimes": [11711, 12235, 12774, 13387, 13919], "queries": {"click": {"state": {"target": [], "time": []}, "edge": {"target": [], "time": []}}, "mouseover": {"state": {"target": [], "time": []}, "edge": {"target": [], "time": []}}, "mouseout": {"state": {"target": ["0"], "time": [9945]}, "edge": {"target": [], "time": []}}}, "displayed_time": "24.09", "trialTime": 50390, "trial_type": "mouselab-mdp", "trial_index": 52, "time_elapsed": 2984007, "internal_node_id": "0.0-6.0-1.0-31.0"}}, {"uniqueid": "w52838368:a75161071", "current_trial": 53, "dateTime": 1693483968217, "trialdata": {"revealed_states": [], "clicked_states": [], "num_clicks_accrued": [0, 0, 0, 0, 0, 0, 0, 0, 0, 0, 0, 0, 0], "stateRewards": ["", -1, 2, -6, 6, 43, 78, 78, -2, 55, -29, -17, -2, -4, 1, -15, 13, 7, -79, 8, -28, -68, 36, -1, -3, 3, -16, 84, -18, 87, 10, 32, 13, -81], "withholdReward": false, "trial_id": "mdp_trial_33", "block": "test", "trialIndex": 38, "score": -36, "costs": 0, "simulationMode": [null, null, null, null, null], "rewards": [-1, 2, -6, -2, -29], "path": ["0", "0", "1", "2", "3", "8", "10"], "rt": [942, 15, 566, 167, 261], "actions": ["up", "up", "up", "left", "down"], "actionTimes": [3213, 3726, 4811, 5495, 6272], "queries": {"click": {"state": {"target": [], "time": []}, "edge": {"target": [], "time": []}}, "mouseover": {"state": {"target": [], "time": []}, "edge": {"target": [], "time": []}}, "mouseout": {"state": {"target": ["0", "0"], "time": [2114, 24326]}, "edge": {"target": [], "time": []}}}, "displayed_time": "16.27", "trialTime": 25214, "trial_type": "mouselab-mdp", "trial_index": 53, "time_elapsed": 3009446, "internal_node_id": "0.0-6.0-1.0-32.0"}}, {"uniqueid": "w52838368:a75161071", "current_trial": 54, "dateTime": 1693483991984, "trialdata": {"revealed_states": [], "clicked_states": [], "num_clicks_accrued": [0, 0, 0, 0, 0, 0, 0, 0, 0, 0, 0, 0, 0], "stateRewards": ["", 2, 3, -3, 4, 72, -28, 34, -12, 57, -64, -15, 2, 1, -4, -15, 2, 49, 31, -1, -42, -58, 31, -2, 1, -2, -13, -75, -19, -22, -6, 61, 10, -56], "withholdReward": false, "trial_id": "mdp_trial_34", "block": "test", "trialIndex": 39, "score": 40, "costs": 0, "simulationMode": [null, null, null, null, null], "rewards": [2, 3, -3, 4, 34], "path": ["0", "0", "1", "2", "3", "4", "7"], "rt": [1257, 186, 56, 150, 347], "actions": ["up", "up", "up", "right", "down"], "actionTimes": [2430, 3129, 3699, 4376, 5239], "queries": {"click": {"state": {"target": [], "time": []}, "edge": {"target": [], "time": []}}, "mouseover": {"state": {"target": ["23"], "time": [1730]}, "edge": {"target": [], "time": []}}, "mouseout": {"state": {"target": ["0", "0"], "time": [669, 1696]}, "edge": {"target": [], "time": []}}}, "displayed_time": "15.18", "trialTime": 23537, "trial_type": "mouselab-mdp", "trial_index": 54, "time_elapsed": 3033213, "internal_node_id": "0.0-6.0-1.0-33.0"}}, {"uniqueid": "w52838368:a75161071", "current_trial": 55, "dateTime": 1693484017408, "trialdata": {"revealed_states": [], "clicked_states": [], "num_clicks_accrued": [0, 0, 0, 0, 0, 0, 0, 0, 0, 0, 0, 0, 0], "stateRewards": ["", -1, 3, 8, 10, -86, 61, -36, 10, 17, -60, 24, -1, -3, 3, 11, 50, 60, 33, -3, -20, 58, -6, 1, -4, -4, 13, -70, -71, 43, 14, 52, 82, -11], "withholdReward": false, "trial_id": "mdp_trial_35", "block": "test", "trialIndex": 40, "score": -40, "costs": 0, "simulationMode": [null, null, null, null, null], "rewards": [-1, 3, 8, 10, -60], "path": ["0", "0", "1", "2", "3", "8", "10"], "rt": [1527, 706, 563, 634, 254], "actions": ["up", "up", "up", "left", "down"], "actionTimes": [3348, 4573, 5646, 6817, 7587], "queries": {"click": {"state": {"target": [], "time": []}, "edge": {"target": [], "time": []}}, "mouseover": {"state": {"target": ["1"], "time": [2499]}, "edge": {"target": [], "time": []}}, "mouseout": {"state": {"target": ["23", "0", "1"], "time": [768, 1019, 2533]}, "edge": {"target": [], "time": []}}}, "displayed_time": "15.82", "trialTime": 25180, "trial_type": "mouselab-mdp", "trial_index": 55, "time_elapsed": 3058638, "internal_node_id": "0.0-6.0-1.0-34.0"}}, {"uniqueid": "w52838368:a75161071", "current_trial": 56, "dateTime": 1693484043318, "trialdata": {"revealed_states": [], "clicked_states": [], "num_clicks_accrued": [0, 0, 0, 0, 0, 0, 0, 0, 0, 0, 0, 0, 0], "stateRewards": ["", 2, -2, -3, 10, -4, -1, -11, -8, -9, -36, -78, 2, 1, 7, -7, 44, -1, -31, -1, 26, 47, 83, 2, -4, -4, -6, -52, -76, -81, -1, -59, 45, 67], "withholdReward": false, "trial_id": "mdp_trial_36", "block": "test", "trialIndex": 41, "score": 47, "costs": 0, "simulationMode": [null, null, null, null, null], "rewards": [2, 1, 7, -7, 44], "path": ["0", "0", "12", "13", "14", "15", "16"], "rt": [2991, 78, 144, 537, 2821], "actions": ["right", "right", "right", "up", "up"], "actionTimes": [7439, 8035, 8683, 9727, 13060], "queries": {"click": {"state": {"target": [], "time": []}, "edge": {"target": [], "time": []}}, "mouseover": {"state": {"target": [], "time": []}, "edge": {"target": [], "time": []}}, "mouseout": {"state": {"target": ["10"], "time": [3460]}, "edge": {"target": [], "time": []}}}, "displayed_time": "18.45", "trialTime": 25669, "trial_type": "mouselab-mdp", "trial_index": 56, "time_elapsed": 3084547, "internal_node_id": "0.0-6.0-1.0-35.0"}}, {"uniqueid": "w52838368:a75161071", "current_trial": 57, "dateTime": 1693484071551, "trialdata": {"revealed_states": [], "clicked_states": [], "num_clicks_accrued": [0, 0, 0, 0, 0, 0, 0, 0, 0, 0, 0, 0, 0], "stateRewards": ["", -2, 2, 3, -7, 76, 63, 21, 15, 35, -8, -44, 1, 1, -2, -12, 23, 24, 76, -9, 46, 66, -49, -2, -1, 7, 12, 40, -71, -45, -6, 38, -49, 46], "withholdReward": false, "trial_id": "mdp_trial_37", "block": "test", "trialIndex": 42, "score": 12, "costs": 0, "simulationMode": [null, null, null, null, null], "rewards": [1, 1, -2, -12, 24], "path": ["0", "0", "12", "13", "14", "15", "17"], "rt": [775, 55, 312, 143, 22], "actions": ["right", "right", "right", "up", "right"], "actionTimes": [2147, 2718, 3542, 4190, 4718], "queries": {"click": {"state": {"target": [], "time": []}, "edge": {"target": [], "time": []}}, "mouseover": {"state": {"target": [], "time": []}, "edge": {"target": [], "time": []}}, "mouseout": {"state": {"target": [], "time": []}, "edge": {"target": [], "time": []}}}, "displayed_time": "15.37", "trialTime": 28001, "trial_type": "mouselab-mdp", "trial_index": 57, "time_elapsed": 3112780, "internal_node_id": "0.0-6.0-1.0-36.0"}}, {"uniqueid": "w52838368:a75161071", "current_trial": 58, "dateTime": 1693484091696, "trialdata": {"revealed_states": [], "clicked_states": [], "num_clicks_accrued": [0, 0, 0, 0, 0, 0, 0, 0, 0, 0, 0, 0, 0], "stateRewards": ["", -2, 3, -5, -7, 66, 43, -60, -4, -70, -75, 4, -1, 2, 2, -13, 54, 11, -40, -1, 77, 32, 15, -2, 3, -8, -9, -35, 83, -27, 6, -74, -34, 44], "withholdReward": false, "trial_id": "mdp_trial_38", "block": "test", "trialIndex": 43, "score": -71, "costs": 0, "simulationMode": [null, null, null, null, null], "rewards": [-2, 3, -5, -7, -60], "path": ["0", "0", "1", "2", "3", "4", "7"], "rt": [1709, 302, 548, 282, 1498], "actions": ["up", "up", "up", "right", "down"], "actionTimes": [2869, 3664, 4726, 5526, 7542], "queries": {"click": {"state": {"target": [], "time": []}, "edge": {"target": [], "time": []}}, "mouseover": {"state": {"target": [], "time": []}, "edge": {"target": [], "time": []}}, "mouseout": {"state": {"target": [], "time": []}, "edge": {"target": [], "time": []}}}, "displayed_time": "15.16", "trialTime": 19906, "trial_type": "mouselab-mdp", "trial_index": 58, "time_elapsed": 3132926, "internal_node_id": "0.0-6.0-1.0-37.0"}}, {"uniqueid": "w52838368:a75161071", "current_trial": 59, "dateTime": 1693484116834, "trialdata": {"revealed_states": [], "clicked_states": [], "num_clicks_accrued": [0, 0, 0, 0, 0, 0, 0, 0, 0, 0, 0, 0, 0], "stateRewards": ["", 2, 1, -3, 7, 46, 11, -36, 16, 71, 5, 1, 2, -2, -8, -3, -4, 6, 55, 7, 68, -54, 2, 1, 1, 6, -6, 42, -4, -84, -11, -65, 63, 25], "withholdReward": false, "trial_id": "mdp_trial_39", "block": "test", "trialIndex": 44, "score": 21, "costs": 0, "simulationMode": [null, null, null, null, null], "rewards": [2, 1, -3, 16, 5], "path": ["0", "0", "1", "2", "3", "8", "10"], "rt": [961, 457, 90, 344, 182], "actions": ["up", "up", "up", "left", "down"], "actionTimes": [2611, 3583, 4182, 5036, 5726], "queries": {"click": {"state": {"target": [], "time": []}, "edge": {"target": [], "time": []}}, "mouseover": {"state": {"target": [], "time": []}, "edge": {"target": [], "time": []}}, "mouseout": {"state": {"target": ["0"], "time": [825]}, "edge": {"target": [], "time": []}}}, "displayed_time": "15.65", "trialTime": 24895, "trial_type": "mouselab-mdp", "trial_index": 59, "time_elapsed": 3158063, "internal_node_id": "0.0-6.0-1.0-38.0"}}, {"uniqueid": "w52838368:a75161071", "current_trial": 60, "dateTime": 1693484136499, "trialdata": {"revealed_states": [], "clicked_states": [], "num_clicks_accrued": [0, 0, 0, 0, 0, 0, 0, 0, 0, 0, 0, 0, 0], "stateRewards": ["", -1, -4, -6, -15, 21, -67, -63, 9, 51, 69, -14, -1, 3, 8, -8, 39, 72, 63, 15, 19, 47, 15, 1, 4, 5, 16, -18, 34, 35, -14, -80, 40, 1], "withholdReward": false, "trial_id": "mdp_trial_40", "block": "test", "trialIndex": 45, "score": 49, "costs": 0, "simulationMode": [null, null, null, null, null], "rewards": [-1, -4, -6, 9, 51], "path": ["0", "0", "1", "2", "3", "8", "9"], "rt": [1108, 1047, 37, 105, 599], "actions": ["up", "up", "up", "left", "up"], "actionTimes": [4601, 6163, 6720, 7354, 8466], "queries": {"click": {"state": {"target": [], "time": []}, "edge": {"target": [], "time": []}}, "mouseover": {"state": {"target": [], "time": []}, "edge": {"target": [], "time": []}}, "mouseout": {"state": {"target": [], "time": []}, "edge": {"target": [], "time": []}}}, "displayed_time": "17.49", "trialTime": 19427, "trial_type": "mouselab-mdp", "trial_index": 60, "time_elapsed": 3177727, "internal_node_id": "0.0-6.0-1.0-39.0"}}, {"uniqueid": "w52838368:a75161071", "current_trial": 61, "dateTime": 1693484279628, "trialdata": {"rt": 143124, "response": {"Q0": "$-2 to $2", "Q1": "$-4 to $4", "Q2": "$-16 to $16", "Q3": "The cost for clicking on nodes varied between nodes.", "Q4": "Very motivated"}, "question_order": [0, 1, 2, 3, 4], "trial_id": "final_quiz_control", "trial_type": "survey-multi-choice", "trial_index": 61, "time_elapsed": 3320857, "internal_node_id": "0.0-6.0-2.0"}}, {"uniqueid": "w52838368:a75161071", "current_trial": 62, "dateTime": 1693484465901, "trialdata": {"rt": 186256, "response": {"Q0": "I tried to mimic past paths that gave a high score", "Q1": "After a while I neglected my first strategy and just started picking random nodes", "Q2": "It wasn't so difficult"}, "trial_id": "self_report_control", "trial_type": "survey-text", "trial_index": 62, "time_elapsed": 3507131, "internal_node_id": "0.0-6.0-3.0"}}, {"uniqueid": "w52838368:a75161071", "current_trial": 63, "dateTime": 1693484537918, "trialdata": {"rt": 72010, "response": {"Q0": "Agree", "Q1": "Agree", "Q2": "Disagree", "Q3": "Agree", "Q4": "Disagree", "Q5": "Agree", "Q6": "Disagree"}, "question_order": [0, 1, 2, 3, 4, 5, 6], "trial_id": "self_report_2", "trial_type": "survey-multi-choice", "trial_index": 63, "time_elapsed": 3579148, "internal_node_id": "0.0-6.0-4.0"}}, {"uniqueid": "w52838368:a75161071", "current_trial": 64, "dateTime": 1693484556705, "trialdata": {"rt": 18782, "response": {"gender": "female", "age": "25", "colorblind": "0", "effort": "0"}, "trial_type": "survey-html-form", "trial_index": 64, "time_elapsed": 3597935, "internal_node_id": "0.0-6.0-5.0"}}, {"uniqueid": "w52838368:a75161071", "current_trial": 65, "dateTime": 1693484595287, "trialdata": {"rt": 38576, "response": {"Q0": "No", "Q1": "No I have not completed something like this before", "Q2": "N/A"}, "trial_type": "survey-text", "trial_index": 65, "time_elapsed": 3636517, "internal_node_id": "0.0-6.0-6.0"}}, {"uniqueid": "w52838368:a75161071", "current_trial": 66, "dateTime": 1693484640066, "trialdata": {"rt": 44774, "stimulus": "<h1>Completion Code Instructions (1/2)</h1>\n<br><br><br><br>\nYou have reached the end of the experiment! The completion code consists of two parts: (1) a code with 2 characters (2) a code with 6 characters. On this page, you will receive the second part of the code. The first part of the completion code will be on the next page.\n<br><br>\nThe second part of your completion code is: <b>EWEK22</b>\n<br><br>\nPlease note this down. Then, press 'Finish HIT' in order to find the first part of your completion code. Once the data has been saved, you will receive this code either in this window or in the original browser window where you started the experiment.\n", "response": 0, "trial_type": "html-button-response", "trial_index": 66, "time_elapsed": 3681296, "internal_node_id": "0.0-6.0-7.0"}}, {"uniqueid": "w52838368:a75161071", "current_trial": 67, "dateTime": 1693484641069, "trialdata": {"success": true, "trial_type": "fullscreen", "trial_index": 67, "time_elapsed": 3682298, "internal_node_id": "0.0-7.0"}}], "questiondata": {"params": {"CODE": "C6DMOQA6", "MIN_TIME": 14, "inspectCost": 1, "startTime": "Thu Aug 31 2023 13:22:36 GMT+0200 (South Africa Standard Time)", "bonusRate": 0.002, "variance": "1_2_4_8_44", "branching": "31123"}, "final_score": 201}, "eventdata": [{"eventtype": "initialized", "value": null, "timestamp": 1693480955450, "interval": 0}, {"eventtype": "window_resize", "value": [1588, 795], "timestamp": 1693480955450, "interval": 0}, {"eventtype": "window_resize", "value": [1588, 795], "timestamp": 1693480956019, "interval": 569}, {"eventtype": "window_resize", "value": [1588, 893], "timestamp": 1693480966679, "interval": 10660}, {"eventtype": "focus", "value": "off", "timestamp": 1693481591533, "interval": 624854}, {"eventtype": "focus", "value": "on", "timestamp": 1693481591533, "interval": 0}, {"eventtype": "window_resize", "value": [1588, 795], "timestamp": 1693481591737, "interval": 204}, {"eventtype": "window_resize", "value": [1588, 893], "timestamp": 1693481595807, "interval": 4070}, {"eventtype": "focus", "value": "off", "timestamp": 1693482076915, "interval": 481108}, {"eventtype": "focus", "value": "on", "timestamp": 1693482076915, "interval": 0}, {"eventtype": "window_resize", "value": [1588, 795], "timestamp": 1693482077119, "interval": 204}, {"eventtype": "window_resize", "value": [1588, 893], "timestamp": 1693482079421, "interval": 2302}, {"eventtype": "window_resize", "value": [1588, 795], "timestamp": 1693484640283, "interval": 2560862}], "useragent": "Mozilla/5.0 (Windows NT 10.0; Win64; x64) AppleWebKit/537.36 (KHTML, like Gecko) Chrome/116.0.0.0 Safari/537.36", "mode": "live", "id": "w52838368:a75161071", "status": "user data saved", "Beginhit": "2023-08-31 11:22:31.639912", "Beginexp": "2023-08-31 11:22:47.78729", "Endhit": "2023-08-31 12:24:02.491775", "psiturkStatus": 3, "browser": "<redacted>", "platform": "windows", "language": "en-US"}