{"condition": 1, "counterbalance": 0, "assignmentId": "a33811691", "workerId": "w89858638", "hitId": "h52146574", "currenttrial": 56, "bonus": 0, "data": [{"uniqueid": "w89858638:a33811691", "current_trial": 0, "dateTime": 1693579984533, "trialdata": {"success": true, "trial_type": "fullscreen", "trial_index": 0, "time_elapsed": 45794, "internal_node_id": "0.0-0.0"}}, {"uniqueid": "w89858638:a33811691", "current_trial": 1, "dateTime": 1693579991061, "trialdata": {"view_history": [{"page_index": 0, "viewing_time": 6527}], "rt": 6527, "trial_id": "exp_instructions_misaligned", "trial_type": "instructions", "trial_index": 1, "time_elapsed": 52322, "internal_node_id": "0.0-1.0"}}, {"uniqueid": "w89858638:a33811691", "current_trial": 2, "dateTime": 1693580073540, "trialdata": {"view_history": [{"page_index": 0, "viewing_time": 29323}, {"page_index": 1, "viewing_time": 21423}, {"page_index": 2, "viewing_time": 15506}, {"page_index": 3, "viewing_time": 16228}], "rt": 82480, "trial_id": "mouselab_instructions_1_misaligned", "trial_type": "instructions", "trial_index": 2, "time_elapsed": 134801, "internal_node_id": "0.0-2.0-1.0"}}, {"uniqueid": "w89858638:a33811691", "current_trial": 3, "dateTime": 1693580085807, "trialdata": {"revealed_states": [], "clicked_states": [], "num_clicks_accrued": [0, 0, 0, 0, 0, 0, 0, 0, 0, 0, 0, 0, 0], "stateRewards": ["", -10, -10, 10, 10, -10, 10, 10, -10, 10, -10, 10, 10, 10, -10, -10, -10, 10, 10, 10, 10, -10, -10, 10, 10, -10, -10, 10, 10, -10, 10, 10, -10, 10], "withholdReward": false, "trial_id": "practice_1", "block": "test", "trialIndex": 0, "score": 33.5, "costs": 0, "simulationMode": [null, null, null, null, null], "rewards": [10, 10, -10, 10, 10], "path": ["0", "0", "23", "24", "25", "30", "33"], "rt": [924, 918, 661, 689, 642], "actions": ["left", "left", "left", "down", "left"], "actionTimes": [3245, 4665, 5824, 7003, 8140], "queries": {"click": {"state": {"target": [], "time": []}, "edge": {"target": [], "time": []}}, "mouseover": {"state": {"target": [], "time": []}, "edge": {"target": [], "time": []}}, "mouseout": {"state": {"target": ["0"], "time": [1546]}, "edge": {"target": [], "time": []}}}, "displayed_time": "8.63", "trialTime": 11770, "trial_type": "mouselab-mdp", "trial_index": 3, "time_elapsed": 147067, "internal_node_id": "0.0-2.0-2.0-0.0"}}, {"uniqueid": "w89858638:a33811691", "current_trial": 4, "dateTime": 1693580097763, "trialdata": {"revealed_states": [], "clicked_states": [], "num_clicks_accrued": [0, 0, 0, 0, 0, 0, 0, 0, 0, 0, 0, 0, 0], "stateRewards": ["", -10, 10, 10, 10, 10, 10, 10, 10, -10, -10, 10, 10, -10, -10, 10, -10, 10, -10, 10, -10, 10, 10, -10, -10, -10, -10, -10, -10, 10, -10, -10, 10, -10], "withholdReward": false, "trial_id": "practice_2", "block": "test", "trialIndex": 1, "score": -6.5, "costs": 0, "simulationMode": [null, null, null, null, null], "rewards": [10, -10, -10, 10, -10], "path": ["0", "0", "12", "13", "14", "15", "18"], "rt": [693, 453, 378, 309, 339], "actions": ["right", "right", "right", "up", "left"], "actionTimes": [2903, 3859, 4735, 5533, 6363], "queries": {"click": {"state": {"target": [], "time": []}, "edge": {"target": [], "time": []}}, "mouseover": {"state": {"target": [], "time": []}, "edge": {"target": [], "time": []}}, "mouseout": {"state": {"target": ["0"], "time": [2080]}, "edge": {"target": [], "time": []}}}, "displayed_time": "6.86", "trialTime": 11819, "trial_type": "mouselab-mdp", "trial_index": 4, "time_elapsed": 159023, "internal_node_id": "0.0-2.0-2.0-1.0"}}, {"uniqueid": "w89858638:a33811691", "current_trial": 5, "dateTime": 1693580110850, "trialdata": {"view_history": [{"page_index": 0, "viewing_time": 8457}, {"page_index": 1, "viewing_time": 4631}], "rt": 13088, "trial_id": "mouselab_instructions_2_misaligned", "trial_type": "instructions", "trial_index": 5, "time_elapsed": 172111, "internal_node_id": "0.0-2.0-3.0"}}, {"uniqueid": "w89858638:a33811691", "current_trial": 6, "dateTime": 1693580133035, "trialdata": {"rt": 22180, "response": {"Q0": "The cost for clicking on nodes may vary between nodes.", "Q1": "The better I perform the higher my bonus will be.", "Q2": "No, the amount of cash at each node of the web may be different each time.", "Q3": "To get the highest total score.", "Q4": "Only before moving the spider.", "Q5": "3 seconds"}, "question_order": [0, 1, 2, 3, 4, 5], "correct": {"Q0": "The cost for clicking on nodes may vary between nodes.", "Q1": "The better I perform the higher my bonus will be.", "Q2": "No, the amount of cash at each node of the web may be different each time.", "Q3": "To get the highest total score.", "Q4": "Only before moving the spider.", "Q5": "3 seconds"}, "trial_id": "mouselab_quiz_misaligned", "trial_type": "survey-multi-choice", "trial_index": 6, "time_elapsed": 194296, "internal_node_id": "0.0-2.0-4.0"}}, {"uniqueid": "w89858638:a33811691", "current_trial": 7, "dateTime": 1693580139693, "trialdata": {"rt": 6649, "response": {"Q0": "No"}, "question_order": [0], "trial_id": "repeat_check", "trial_type": "survey-multi-choice", "trial_index": 7, "time_elapsed": 200954, "internal_node_id": "0.0-4.0-0.0"}}, {"uniqueid": "w89858638:a33811691", "current_trial": 8, "dateTime": 1693580145946, "trialdata": {"rt": 6247, "stimulus": "\n<h1> Get ready to start the game! </h1>\n\nThank you for reading the instructions. Get ready start with the 40 rounds of this game.\n<br><br>\nIf you need to take a break, feel free to take one after the end of a round, before continuing to the next one.\n<br><br>\nRemember, the more money the spider gets, the bigger your bonus will be!\n<br><br>\n<div style='text-align: center;'>Press <code>space</code> to begin.</div>\n\n<br><br>\n(If, at any point, the <code>space</code> key does not take you to the next page, click once on the text and try again.)", "response": " ", "trial_id": "mdp_ready", "trial_type": "html-keyboard-response", "trial_index": 8, "time_elapsed": 207207, "internal_node_id": "0.0-6.0-0.0"}}, {"uniqueid": "w89858638:a33811691", "current_trial": 9, "dateTime": 1693580165288, "trialdata": {"revealed_states": [], "clicked_states": [], "num_clicks_accrued": [0, 0, 0, 0, 0, 0, 0, 0, 0, 0, 0, 0, 0], "stateRewards": ["", -1, 2, -2, 13, -56, -28, 10, 14, 53, -80, -29, 1, -3, -3, -14, 14, 9, -40, -9, 18, 18, 48, 1, 1, 1, -9, 64, -39, -9, 7, -52, -78, 7], "withholdReward": false, "trial_id": "mdp_trial_1", "block": "test", "trialIndex": 2, "score": -45, "costs": 0, "simulationMode": [null, null, null, null, null], "rewards": [1, 1, 1, -9, -39], "path": ["0", "0", "23", "24", "25", "26", "28"], "rt": [1196, 560, 265, 160, 63], "actions": ["left", "left", "left", "up", "right"], "actionTimes": [4320, 5375, 6147, 6808, 7378], "queries": {"click": {"state": {"target": [], "time": []}, "edge": {"target": [], "time": []}}, "mouseover": {"state": {"target": [], "time": []}, "edge": {"target": [], "time": []}}, "mouseout": {"state": {"target": ["0"], "time": [2514]}, "edge": {"target": [], "time": []}}}, "displayed_time": "17.13", "trialTime": 19193, "trial_type": "mouselab-mdp", "trial_index": 9, "time_elapsed": 226549, "internal_node_id": "0.0-6.0-1.0-0.0"}}, {"uniqueid": "w89858638:a33811691", "current_trial": 10, "dateTime": 1693580182254, "trialdata": {"revealed_states": [], "clicked_states": ["2"], "num_clicks_accrued": [0, 0, 0, 0, 0, 0, 0, 0, 0, 0, 0, 0, 0], "stateRewards": ["", 2, -1, 1, 10, -52, 86, -22, -2, -14, -63, 38, 1, 3, 7, -8, 11, -32, -27, 9, -71, 40, -87, -2, -1, 5, -7, 12, 31, -57, 13, 86, -58, 29], "withholdReward": false, "trial_id": "mdp_trial_2", "block": "test", "trialIndex": 3, "score": 37.65, "costs": -0.35, "simulationMode": [null, null, null, null, null], "rewards": [2, -1, 1, -2, 38], "path": ["0", "0", "1", "2", "3", "8", "11"], "rt": [3133, 132, 1001, 37, 349], "actions": ["up", "up", "up", "left", "left"], "actionTimes": [3944, 4588, 6092, 6644, 7505], "queries": {"click": {"state": {"target": ["2"], "time": [2035]}, "edge": {"target": [], "time": []}}, "mouseover": {"state": {"target": ["1", "2"], "time": [1358, 1526]}, "edge": {"target": [], "time": []}}, "mouseout": {"state": {"target": ["0", "1", "2"], "time": [699, 1408, 2254]}, "edge": {"target": [], "time": []}}}, "displayed_time": "14.81", "trialTime": 16803, "trial_type": "mouselab-mdp", "trial_index": 10, "time_elapsed": 243514, "internal_node_id": "0.0-6.0-1.0-1.0"}}, {"uniqueid": "w89858638:a33811691", "current_trial": 11, "dateTime": 1693580201144, "trialdata": {"revealed_states": [], "clicked_states": ["25"], "num_clicks_accrued": [0, 0, 0, 0, 0, 0, 0, 0, 0, 0, 0, 0, 0], "stateRewards": ["", -1, -3, 4, -10, -5, 79, -87, -2, 53, 29, -20, -2, -1, -5, 10, 27, 86, 46, -16, -29, 40, 3, 2, 4, -1, -6, 37, 79, -29, 7, 86, -62, 29], "withholdReward": false, "trial_id": "mdp_trial_3", "block": "test", "trialIndex": 4, "score": -15.95, "costs": -0.95, "simulationMode": [null, null, null, null, null], "rewards": [-1, -3, 4, -10, -5], "path": ["0", "0", "1", "2", "3", "4", "5"], "rt": [3313, 58, 3771, 256, 190], "actions": ["up", "up", "up", "right", "up"], "actionTimes": [6305, 6872, 11151, 11919, 12604], "queries": {"click": {"state": {"target": ["25"], "time": [4562]}, "edge": {"target": [], "time": []}}, "mouseover": {"state": {"target": ["23", "24", "25"], "time": [3845, 4044, 4094]}, "edge": {"target": [], "time": []}}, "mouseout": {"state": {"target": ["2", "1", "0", "23", "24"], "time": [1912, 2061, 2394, 3995, 4078]}, "edge": {"target": [], "time": []}}}, "displayed_time": "17.00", "trialTime": 18733, "trial_type": "mouselab-mdp", "trial_index": 11, "time_elapsed": 262404, "internal_node_id": "0.0-6.0-1.0-2.0"}}, {"uniqueid": "w89858638:a33811691", "current_trial": 12, "dateTime": 1693580219710, "trialdata": {"revealed_states": [], "clicked_states": ["2", "11"], "num_clicks_accrued": [0, 0, 0, 0, 0, 0, 0, 0, 0, 0, 0, 0, 0], "stateRewards": ["", 1, 4, 5, 8, -55, -11, 8, 16, -37, 77, -22, -2, 3, -8, -10, 45, 87, -67, 4, 17, -33, -22, -1, -3, 7, 6, -39, -85, 75, -1, 7, -48, 45], "withholdReward": false, "trial_id": "mdp_trial_4", "block": "test", "trialIndex": 5, "score": 4.5, "costs": -2.5, "simulationMode": [null, null, null, null, null], "rewards": [1, 4, 5, 8, -11], "path": ["0", "0", "1", "2", "3", "4", "6"], "rt": [6492, 83, 82, 14, 59], "actions": ["up", "up", "up", "right", "right"], "actionTimes": [9074, 9668, 10267, 10782, 11343], "queries": {"click": {"state": {"target": ["2", "11"], "time": [3744, 5498]}, "edge": {"target": [], "time": []}}, "mouseover": {"state": {"target": ["1", "2", "8", "11", "27", "29"], "time": [3033, 3166, 4766, 5034, 6666, 7483]}, "edge": {"target": [], "time": []}}, "mouseout": {"state": {"target": ["25", "24", "0", "1", "2", "8", "11", "27", "29"], "time": [882, 915, 3000, 3083, 4616, 4866, 6600, 7217, 17833]}, "edge": {"target": [], "time": []}}}, "displayed_time": "16.58", "trialTime": 18406, "trial_type": "mouselab-mdp", "trial_index": 12, "time_elapsed": 280970, "internal_node_id": "0.0-6.0-1.0-3.0"}}, {"uniqueid": "w89858638:a33811691", "current_trial": 13, "dateTime": 1693580238210, "trialdata": {"revealed_states": [], "clicked_states": ["21"], "num_clicks_accrued": [0, 0, 0, 0, 0, 0, 0, 0, 0, 0, 0, 0, 0], "stateRewards": ["", 1, -2, -2, 10, -31, -77, 35, 9, -47, 8, 48, -2, 1, -4, -3, -26, -50, 43, -11, 76, -38, 17, 1, -1, 6, 10, 15, -9, 12, -8, 85, 11, -55], "withholdReward": false, "trial_id": "mdp_trial_5", "block": "test", "trialIndex": 6, "score": -1.1499999999999986, "costs": -2.15, "simulationMode": [null, null, null, null, null, null], "rewards": [-2, 1, -4, -11, 17], "path": ["0", "0", "12", "13", "14", "19", "22"], "rt": [3341, 1415, 137, 102, 108, 102], "actions": ["right", "right", "right", "right", "down", "left"], "actionTimes": [5802, 7219, 7871, 8487, 9111, 9722], "queries": {"click": {"state": {"target": ["21"], "time": [4701]}, "edge": {"target": [], "time": []}}, "mouseover": {"state": {"target": ["21", "21"], "time": [3517, 3950]}, "edge": {"target": [], "time": []}}, "mouseout": {"state": {"target": ["33", "30", "0", "21", "21"], "time": [683, 1034, 2983, 3600, 17681]}, "edge": {"target": [], "time": []}}}, "displayed_time": "16.46", "trialTime": 18342, "trial_type": "mouselab-mdp", "trial_index": 13, "time_elapsed": 299471, "internal_node_id": "0.0-6.0-1.0-4.0"}}, {"uniqueid": "w89858638:a33811691", "current_trial": 14, "dateTime": 1693580257168, "trialdata": {"revealed_states": [], "clicked_states": ["11", "6", "14", "30"], "num_clicks_accrued": [0, 0, 0, 0, 0, 0, 0, 0, 0, 0, 0, 0, 0], "stateRewards": ["", 1, 2, -3, -6, 50, -7, 7, -7, -80, 21, -1, 2, 2, 4, -1, 33, 84, 1, 14, -53, 81, 6, -2, -2, -3, -9, -87, -38, -59, -5, -74, -3, -71], "withholdReward": false, "trial_id": "mdp_trial_6", "block": "test", "trialIndex": 7, "score": -109.8, "costs": -6.8, "simulationMode": [null, null, null, null, null], "rewards": [-2, -2, -3, -9, -87], "path": ["0", "0", "23", "24", "25", "26", "27"], "rt": [11719, 41, 59, 65, 57], "actions": ["left", "left", "left", "up", "up"], "actionTimes": [13881, 14436, 15002, 15559, 16118], "queries": {"click": {"state": {"target": ["11", "6", "14", "30"], "time": [4339, 7625, 10434, 12703]}, "edge": {"target": [], "time": []}}, "mouseover": {"state": {"target": ["1", "2", "3", "8", "11", "8", "3", "4", "6", "16", "15", "18", "14", "30"], "time": [3111, 3142, 3309, 3560, 3909, 5808, 5859, 5892, 6392, 8875, 9192, 9425, 9975, 12258]}, "edge": {"target": [], "time": []}}, "mouseout": {"state": {"target": ["12", "1", "2", "3", "8", "11", "8", "3", "4", "6", "16", "15", "18", "14"], "time": [892, 3126, 3225, 3476, 3625, 5775, 5843, 5875, 6342, 8808, 8907, 9341, 9758, 10646]}, "edge": {"target": [], "time": []}}}, "displayed_time": "16.63", "trialTime": 18794, "trial_type": "mouselab-mdp", "trial_index": 14, "time_elapsed": 318429, "internal_node_id": "0.0-6.0-1.0-5.0"}}, {"uniqueid": "w89858638:a33811691", "current_trial": 15, "dateTime": 1693580278508, "trialdata": {"revealed_states": [], "clicked_states": ["26", "32", "10", "14"], "num_clicks_accrued": [0, 0, 0, 0, 0, 0, 0, 0, 0, 0, 0, 0, 0], "stateRewards": ["", -2, -4, -2, -13, -15, 87, -19, -6, -80, 30, 12, 1, 1, -8, 2, 55, 56, 15, 11, -68, -7, 55, -2, 3, -3, -3, 48, 62, 4, 1, -3, 69, -33], "withholdReward": false, "trial_id": "mdp_trial_7", "block": "test", "trialIndex": 8, "score": 53.2, "costs": -6.8, "simulationMode": [null, null, null, null, null], "rewards": [1, 1, -8, 11, 55], "path": ["0", "0", "12", "13", "14", "19", "22"], "rt": [11209, 708, 527, 444, 396], "actions": ["right", "right", "right", "down", "left"], "actionTimes": [14149, 15388, 16425, 17359, 18260], "queries": {"click": {"state": {"target": ["26", "32", "10", "14"], "time": [4458, 6388, 10237, 13258]}, "edge": {"target": [], "time": []}}, "mouseover": {"state": {"target": ["23", "24", "26", "25", "32", "24", "10", "2", "18", "15", "14"], "time": [3513, 3630, 3947, 5396, 5862, 7446, 8412, 11180, 11211, 11230, 11746]}, "edge": {"target": [], "time": []}}, "mouseout": {"state": {"target": ["30", "31", "0", "23", "24", "26", "25", "32", "24", "10", "2", "18", "15"], "time": [1945, 2028, 3465, 3596, 3697, 5380, 5429, 7329, 7495, 11162, 11195, 11229, 11245]}, "edge": {"target": [], "time": []}}}, "displayed_time": "18.78", "trialTime": 21188, "trial_type": "mouselab-mdp", "trial_index": 15, "time_elapsed": 339768, "internal_node_id": "0.0-6.0-1.0-6.0"}}, {"uniqueid": "w89858638:a33811691", "current_trial": 16, "dateTime": 1693580296063, "trialdata": {"revealed_states": [], "clicked_states": ["15", "19", "25", "10"], "num_clicks_accrued": [0, 0, 0, 0, 0, 0, 0, 0, 0, 0, 0, 0, 0], "stateRewards": ["", -1, 1, -6, -1, 80, 23, 2, -11, 73, -81, 59, 1, 3, 5, -1, -26, 28, -3, 16, -59, -13, -50, -2, -2, 2, 15, -50, 86, 17, -4, 37, 35, 44], "withholdReward": false, "trial_id": "mdp_trial_8", "block": "test", "trialIndex": 9, "score": 9.8, "costs": -6.199999999999999, "simulationMode": [null, null, null, null, null, null], "rewards": [-1, 1, -6, -1, 23], "path": ["0", "0", "1", "2", "3", "4", "6"], "rt": [6363, 1136, 642, 92, 120, 147], "actions": ["up", "up", "up", "up", "right", "right"], "actionTimes": [8129, 9268, 10443, 11043, 11652, 12297], "queries": {"click": {"state": {"target": ["15", "19", "25", "10"], "time": [2807, 4351, 5708, 7294]}, "edge": {"target": [], "time": []}}, "mouseover": {"state": {"target": ["18", "15", "14", "19", "21", "19", "22", "25", "26", "28", "10", "10"], "time": [2315, 2448, 3648, 3699, 3932, 4132, 4867, 5300, 6398, 6632, 6732, 7067]}, "edge": {"target": [], "time": []}}, "mouseout": {"state": {"target": ["14", "13", "12", "18", "15", "14", "19", "21", "19", "22", "25", "26", "28", "10", "10", "2"], "time": [1130, 1180, 1364, 2365, 3615, 3682, 3715, 3950, 4865, 4882, 6298, 6615, 6665, 6850, 7419, 13880]}, "edge": {"target": [], "time": []}}}, "displayed_time": "15.77", "trialTime": 17398, "trial_type": "mouselab-mdp", "trial_index": 16, "time_elapsed": 357323, "internal_node_id": "0.0-6.0-1.0-7.0"}}, {"uniqueid": "w89858638:a33811691", "current_trial": 17, "dateTime": 1693580313602, "trialdata": {"revealed_states": [], "clicked_states": ["8", "6"], "num_clicks_accrued": [0, 0, 0, 0, 0, 0, 0, 0, 0, 0, 0, 0, 0], "stateRewards": ["", -1, 3, 8, 10, -86, 61, -36, 10, 17, -60, 24, -1, -3, 3, 11, 50, 60, 33, -3, -20, 58, -6, 1, -4, -4, 13, -70, -71, 43, 14, 52, 82, -11], "withholdReward": false, "trial_id": "mdp_trial_9", "block": "test", "trialIndex": 10, "score": 55.3, "costs": -3.7, "simulationMode": [null, null, null, null, null], "rewards": [1, -4, -4, 14, 52], "path": ["0", "0", "23", "24", "25", "30", "31"], "rt": [6675, 138, 63, 2, 19], "actions": ["left", "left", "left", "down", "right"], "actionTimes": [8382, 9034, 9593, 10099, 10649], "queries": {"click": {"state": {"target": ["8", "6"], "time": [3518, 5238]}, "edge": {"target": [], "time": []}}, "mouseover": {"state": {"target": ["10", "8", "3", "4", "6", "24", "30"], "time": [2612, 3045, 4561, 4611, 4979, 5977, 6327]}, "edge": {"target": [], "time": []}}, "mouseout": {"state": {"target": ["0", "10", "8", "3", "4", "6", "24"], "time": [2195, 2779, 4545, 4578, 4846, 5928, 6277]}, "edge": {"target": [], "time": []}}}, "displayed_time": "15.71", "trialTime": 17386, "trial_type": "mouselab-mdp", "trial_index": 17, "time_elapsed": 374862, "internal_node_id": "0.0-6.0-1.0-8.0"}}, {"uniqueid": "w89858638:a33811691", "current_trial": 18, "dateTime": 1693580331537, "trialdata": {"revealed_states": [], "clicked_states": ["19"], "num_clicks_accrued": [0, 0, 0, 0, 0, 0, 0, 0, 0, 0, 0, 0, 0], "stateRewards": ["", -2, 3, -1, 2, -72, 63, 20, -1, 62, -66, 39, -2, 3, -6, 14, 22, 47, 1, 8, -49, -1, -41, 2, 2, -6, -16, -64, -60, -34, 16, 54, 22, -7], "withholdReward": false, "trial_id": "mdp_trial_10", "block": "test", "trialIndex": 11, "score": 8.45, "costs": -1.55, "simulationMode": [null, null, null, null, null], "rewards": [-2, 3, -6, 14, 1], "path": ["0", "0", "12", "13", "14", "15", "18"], "rt": [2409, 76, 100, 28, 936], "actions": ["right", "right", "right", "up", "left"], "actionTimes": [4622, 5201, 5792, 6319, 7759], "queries": {"click": {"state": {"target": ["19"], "time": [3263]}, "edge": {"target": [], "time": []}}, "mouseover": {"state": {"target": ["12", "19"], "time": [2574, 2990]}, "edge": {"target": [], "time": []}}, "mouseout": {"state": {"target": ["30", "24", "0", "12", "19", "13"], "time": [989, 1023, 1555, 2590, 9507, 17073]}, "edge": {"target": [], "time": []}}}, "displayed_time": "16.21", "trialTime": 17784, "trial_type": "mouselab-mdp", "trial_index": 18, "time_elapsed": 392797, "internal_node_id": "0.0-6.0-1.0-9.0"}}, {"uniqueid": "w89858638:a33811691", "current_trial": 19, "dateTime": 1693580348363, "trialdata": {"revealed_states": [], "clicked_states": ["3", "24"], "num_clicks_accrued": [0, 0, 0, 0, 0, 0, 0, 0, 0, 0, 0, 0, 0], "stateRewards": ["", 2, 4, 7, -6, -76, -81, 2, 5, -66, -3, 36, -2, -4, 6, -2, -69, 4, -49, -6, 67, 38, -67, 2, 1, 1, 6, -68, -21, 52, -16, -16, 6, -70], "withholdReward": false, "trial_id": "mdp_trial_11", "block": "test", "trialIndex": 12, "score": -29.3, "costs": -1.2999999999999998, "simulationMode": [null, null, null, null, null], "rewards": [2, 1, 1, -16, -16], "path": ["0", "0", "23", "24", "25", "30", "31"], "rt": [4576, 64, 54, 292, 120], "actions": ["left", "left", "left", "down", "right"], "actionTimes": [5776, 6357, 6913, 7717, 8347], "queries": {"click": {"state": {"target": ["3", "24"], "time": [2858, 5145]}, "edge": {"target": [], "time": []}}, "mouseover": {"state": {"target": ["1", "10", "3", "3", "10", "28", "24"], "time": [1558, 1892, 2475, 2648, 4275, 4475, 4591]}, "edge": {"target": [], "time": []}}, "mouseout": {"state": {"target": ["0", "1", "10", "3", "3", "10", "28", "24"], "time": [1525, 1658, 2343, 2543, 4246, 4291, 4526, 9891]}, "edge": {"target": [], "time": []}}}, "displayed_time": "15.20", "trialTime": 16664, "trial_type": "mouselab-mdp", "trial_index": 19, "time_elapsed": 409624, "internal_node_id": "0.0-6.0-1.0-10.0"}}, {"uniqueid": "w89858638:a33811691", "current_trial": 20, "dateTime": 1693580366073, "trialdata": {"revealed_states": [], "clicked_states": [], "num_clicks_accrued": [0, 0, 0, 0, 0, 0, 0, 0, 0, 0, 0, 0, 0], "stateRewards": ["", -1, 2, -7, -12, -62, 12, -13, 5, 77, -71, 83, 1, -4, 7, 15, -42, -87, -4, 5, -25, 44, 88, -1, 4, -5, -8, 14, 51, 8, -5, 83, -24, -19], "withholdReward": false, "trial_id": "mdp_trial_12", "block": "test", "trialIndex": 13, "score": 76, "costs": 0, "simulationMode": [null, null, null, null, null], "rewards": [-1, 4, -5, -5, 83], "path": ["0", "0", "23", "24", "25", "30", "31"], "rt": [1894, 137, 20, 21, 55], "actions": ["left", "left", "left", "down", "right"], "actionTimes": [3470, 4125, 4658, 5176, 5743], "queries": {"click": {"state": {"target": [], "time": []}, "edge": {"target": [], "time": []}}, "mouseover": {"state": {"target": [], "time": []}, "edge": {"target": [], "time": []}}, "mouseout": {"state": {"target": ["0"], "time": [1155]}, "edge": {"target": [], "time": []}}}, "displayed_time": "15.58", "trialTime": 17556, "trial_type": "mouselab-mdp", "trial_index": 20, "time_elapsed": 427334, "internal_node_id": "0.0-6.0-1.0-11.0"}}, {"uniqueid": "w89858638:a33811691", "current_trial": 21, "dateTime": 1693580384090, "trialdata": {"revealed_states": [], "clicked_states": [], "num_clicks_accrued": [0, 0, 0, 0, 0, 0, 0, 0, 0, 0, 0, 0, 0], "stateRewards": ["", -2, 1, -7, -8, -37, -76, -87, 11, 30, -63, 80, -1, 4, 2, -1, 42, 17, 52, -3, -75, -80, -68, 2, -3, -5, -15, -48, 82, 24, -7, 5, -22, -71], "withholdReward": false, "trial_id": "mdp_trial_13", "block": "test", "trialIndex": 14, "score": -8, "costs": 0, "simulationMode": [null, null, null, null, null], "rewards": [2, -3, -5, -7, 5], "path": ["0", "0", "23", "24", "25", "30", "31"], "rt": [1069, 110, 191, 120, 102], "actions": ["left", "left", "left", "down", "right"], "actionTimes": [3129, 3754, 4450, 5080, 5679], "queries": {"click": {"state": {"target": [], "time": []}, "edge": {"target": [], "time": []}}, "mouseover": {"state": {"target": [], "time": []}, "edge": {"target": [], "time": []}}, "mouseout": {"state": {"target": ["0"], "time": [1927]}, "edge": {"target": [], "time": []}}}, "displayed_time": "16.06", "trialTime": 17845, "trial_type": "mouselab-mdp", "trial_index": 21, "time_elapsed": 445350, "internal_node_id": "0.0-6.0-1.0-12.0"}}, {"uniqueid": "w89858638:a33811691", "current_trial": 22, "dateTime": 1693580402560, "trialdata": {"revealed_states": [], "clicked_states": [], "num_clicks_accrued": [0, 0, 0, 0, 0, 0, 0, 0, 0, 0, 0, 0, 0], "stateRewards": ["", 1, 1, 6, -14, -40, 37, 16, -13, 33, -68, 49, 2, 4, 3, 6, 55, 27, 32, 10, -65, 20, -87, 2, 1, -6, -5, -42, 12, 29, -8, 16, 76, -33], "withholdReward": false, "trial_id": "mdp_trial_14", "block": "test", "trialIndex": 15, "score": 21, "costs": 0, "simulationMode": [null, null, null, null, null], "rewards": [2, 1, -6, -5, 29], "path": ["0", "0", "23", "24", "25", "26", "29"], "rt": [873, 58, 132, 58, 2], "actions": ["left", "left", "left", "up", "left"], "actionTimes": [1982, 2531, 3171, 3730, 4226], "queries": {"click": {"state": {"target": [], "time": []}, "edge": {"target": [], "time": []}}, "mouseover": {"state": {"target": [], "time": []}, "edge": {"target": [], "time": []}}, "mouseout": {"state": {"target": [], "time": []}, "edge": {"target": [], "time": []}}}, "displayed_time": "15.88", "trialTime": 18277, "trial_type": "mouselab-mdp", "trial_index": 22, "time_elapsed": 463820, "internal_node_id": "0.0-6.0-1.0-13.0"}}, {"uniqueid": "w89858638:a33811691", "current_trial": 23, "dateTime": 1693580420801, "trialdata": {"revealed_states": [], "clicked_states": [], "num_clicks_accrued": [0, 0, 0, 0, 0, 0, 0, 0, 0, 0, 0, 0, 0], "stateRewards": ["", -1, 2, -2, 5, 80, -61, -27, 12, 44, -26, -75, -2, -4, 1, -16, 42, -49, -50, 4, -44, 2, 80, -2, -2, 5, -2, 59, 10, 24, 7, -48, -86, -44], "withholdReward": false, "trial_id": "mdp_trial_15", "block": "test", "trialIndex": 16, "score": -23, "costs": 0, "simulationMode": [null, null, null, null, null], "rewards": [-1, 2, -2, 5, -27], "path": ["0", "0", "1", "2", "3", "4", "7"], "rt": [1192, 417, 221, 163, 98], "actions": ["up", "up", "up", "right", "down"], "actionTimes": [3159, 4089, 4826, 5502, 6122], "queries": {"click": {"state": {"target": [], "time": []}, "edge": {"target": [], "time": []}}, "mouseover": {"state": {"target": [], "time": []}, "edge": {"target": [], "time": []}}, "mouseout": {"state": {"target": [], "time": []}, "edge": {"target": [], "time": []}}}, "displayed_time": "16.36", "trialTime": 18014, "trial_type": "mouselab-mdp", "trial_index": 23, "time_elapsed": 482061, "internal_node_id": "0.0-6.0-1.0-14.0"}}, {"uniqueid": "w89858638:a33811691", "current_trial": 24, "dateTime": 1693580439806, "trialdata": {"revealed_states": [], "clicked_states": [], "num_clicks_accrued": [0, 0, 0, 0, 0, 0, 0, 0, 0, 0, 0, 0, 0], "stateRewards": ["", -1, 1, 8, -8, -49, 62, -78, 16, 28, -81, 78, -2, -3, -1, -4, 67, 49, -2, -13, -16, -39, 83, 1, -4, 4, -5, -20, 7, 84, 7, -32, -59, 19], "withholdReward": false, "trial_id": "mdp_trial_16", "block": "test", "trialIndex": 17, "score": -24, "costs": 0, "simulationMode": [null, null, null, null, null], "rewards": [1, -4, 4, 7, -32], "path": ["0", "0", "23", "24", "25", "30", "31"], "rt": [780, 72, 59, 97, 100], "actions": ["left", "left", "left", "down", "right"], "actionTimes": [3569, 4181, 4768, 5406, 6025], "queries": {"click": {"state": {"target": [], "time": []}, "edge": {"target": [], "time": []}}, "mouseover": {"state": {"target": [], "time": []}, "edge": {"target": [], "time": []}}, "mouseout": {"state": {"target": [], "time": []}, "edge": {"target": [], "time": []}}}, "displayed_time": "17.10", "trialTime": 18761, "trial_type": "mouselab-mdp", "trial_index": 24, "time_elapsed": 501066, "internal_node_id": "0.0-6.0-1.0-15.0"}}, {"uniqueid": "w89858638:a33811691", "current_trial": 25, "dateTime": 1693580457461, "trialdata": {"revealed_states": [], "clicked_states": ["18", "19"], "num_clicks_accrued": [0, 0, 0, 0, 0, 0, 0, 0, 0, 0, 0, 0, 0], "stateRewards": ["", 1, 1, 7, -11, 80, -20, -53, -14, 3, 31, 27, 2, -1, -8, -10, 33, 41, 86, 9, 78, -37, -13, -1, -2, -6, -8, -80, 75, 4, -16, -49, -74, 24], "withholdReward": false, "trial_id": "mdp_trial_17", "block": "test", "trialIndex": 18, "score": 20.3, "costs": -3.7, "simulationMode": [null, null, null, null, null], "rewards": [2, -1, -8, -10, 41], "path": ["0", "0", "12", "13", "14", "15", "17"], "rt": [5147, 19, 108, 307, 46], "actions": ["right", "right", "right", "up", "right"], "actionTimes": [6581, 7164, 7820, 8620, 9191], "queries": {"click": {"state": {"target": ["18", "19"], "time": [2914, 5741]}, "edge": {"target": [], "time": []}}, "mouseover": {"state": {"target": ["18", "13", "22", "19"], "time": [2443, 3780, 3858, 4393]}, "edge": {"target": [], "time": []}}, "mouseout": {"state": {"target": ["0", "18", "13", "22"], "time": [2019, 3778, 3808, 4042]}, "edge": {"target": [], "time": []}}}, "displayed_time": "16.09", "trialTime": 17402, "trial_type": "mouselab-mdp", "trial_index": 25, "time_elapsed": 518721, "internal_node_id": "0.0-6.0-1.0-16.0"}}, {"uniqueid": "w89858638:a33811691", "current_trial": 26, "dateTime": 1693580477067, "trialdata": {"revealed_states": [], "clicked_states": [], "num_clicks_accrued": [0, 0, 0, 0, 0, 0, 0, 0, 0, 0, 0, 0, 0], "stateRewards": ["", 1, -3, -2, 14, 49, -40, -39, 2, 26, -61, 73, 1, -4, -8, 12, 79, 29, -65, -13, 55, -26, 27, -1, 3, 3, 9, -17, -60, -18, -8, 35, -88, 69], "withholdReward": false, "trial_id": "mdp_trial_18", "block": "test", "trialIndex": 19, "score": -3, "costs": 0, "simulationMode": [null, null, null, null, null], "rewards": [-1, 3, 3, 9, -17], "path": ["0", "0", "23", "24", "25", "26", "27"], "rt": [1052, 342, 143, 69, 140], "actions": ["left", "left", "left", "up", "up"], "actionTimes": [4567, 5452, 6121, 6729, 7384], "queries": {"click": {"state": {"target": [], "time": []}, "edge": {"target": [], "time": []}}, "mouseover": {"state": {"target": [], "time": []}, "edge": {"target": [], "time": []}}, "mouseout": {"state": {"target": ["19", "22", "12"], "time": [1291, 1373, 1590]}, "edge": {"target": [], "time": []}}}, "displayed_time": "18.42", "trialTime": 19342, "trial_type": "mouselab-mdp", "trial_index": 26, "time_elapsed": 538327, "internal_node_id": "0.0-6.0-1.0-17.0"}}, {"uniqueid": "w89858638:a33811691", "current_trial": 27, "dateTime": 1693580494900, "trialdata": {"revealed_states": [], "clicked_states": [], "num_clicks_accrued": [0, 0, 0, 0, 0, 0, 0, 0, 0, 0, 0, 0, 0], "stateRewards": ["", -1, -1, 7, -15, -43, -21, -84, -9, -45, -66, 2, 1, -2, 2, 8, -27, 44, -52, -5, -84, 11, 53, 1, 4, -4, 16, 83, -82, -15, -16, 68, -43, 81], "withholdReward": false, "trial_id": "mdp_trial_19", "block": "test", "trialIndex": 20, "score": -2, "costs": 0, "simulationMode": [null, null, null, null, null], "rewards": [-1, -1, 7, -9, 2], "path": ["0", "0", "1", "2", "3", "8", "11"], "rt": [1098, 623, 231, 113, 169], "actions": ["up", "up", "up", "left", "left"], "actionTimes": [2413, 3536, 4309, 4944, 5630], "queries": {"click": {"state": {"target": [], "time": []}, "edge": {"target": [], "time": []}}, "mouseover": {"state": {"target": [], "time": []}, "edge": {"target": [], "time": []}}, "mouseout": {"state": {"target": [], "time": []}, "edge": {"target": [], "time": []}}}, "displayed_time": "15.83", "trialTime": 17577, "trial_type": "mouselab-mdp", "trial_index": 27, "time_elapsed": 556160, "internal_node_id": "0.0-6.0-1.0-18.0"}}, {"uniqueid": "w89858638:a33811691", "current_trial": 28, "dateTime": 1693580513106, "trialdata": {"revealed_states": [], "clicked_states": [], "num_clicks_accrued": [0, 0, 0, 0, 0, 0, 0, 0, 0, 0, 0, 0, 0], "stateRewards": ["", -2, 2, -1, -6, 22, 6, 6, -5, 70, -42, 65, 1, 3, 5, -6, -67, -9, 3, 14, 7, -62, -13, -2, 4, 1, 16, 42, -21, -52, -8, 32, 53, 81], "withholdReward": false, "trial_id": "mdp_trial_20", "block": "test", "trialIndex": 21, "score": -2, "costs": 0, "simulationMode": [null, null, null, null, null], "rewards": [-2, 4, 1, 16, -21], "path": ["0", "0", "23", "24", "25", "26", "28"], "rt": [832, 1051, 170, 289, 844], "actions": ["left", "left", "left", "up", "right"], "actionTimes": [2143, 3724, 4443, 5245, 6613], "queries": {"click": {"state": {"target": [], "time": []}, "edge": {"target": [], "time": []}}, "mouseover": {"state": {"target": [], "time": []}, "edge": {"target": [], "time": []}}, "mouseout": {"state": {"target": [], "time": []}, "edge": {"target": [], "time": []}}}, "displayed_time": "16.00", "trialTime": 17964, "trial_type": "mouselab-mdp", "trial_index": 28, "time_elapsed": 574367, "internal_node_id": "0.0-6.0-1.0-19.0"}}, {"uniqueid": "w89858638:a33811691", "current_trial": 29, "dateTime": 1693580531666, "trialdata": {"revealed_states": [], "clicked_states": [], "num_clicks_accrued": [0, 0, 0, 0, 0, 0, 0, 0, 0, 0, 0, 0, 0], "stateRewards": ["", -2, -3, 8, 14, -73, 73, 84, -12, -2, -50, -17, 2, 1, -2, -9, -44, -27, -33, 16, -63, -47, -66, -2, 1, 4, -5, -33, -11, 50, 9, 38, -79, 31], "withholdReward": false, "trial_id": "mdp_trial_21", "block": "test", "trialIndex": 22, "score": -30, "costs": 0, "simulationMode": [null, null, null, null, null], "rewards": [2, 1, -2, 16, -47], "path": ["0", "0", "12", "13", "14", "19", "21"], "rt": [909, 118, 39, 148, 117], "actions": ["right", "right", "right", "down", "down"], "actionTimes": [3447, 4082, 4671, 5331, 5980], "queries": {"click": {"state": {"target": [], "time": []}, "edge": {"target": [], "time": []}}, "mouseover": {"state": {"target": [], "time": []}, "edge": {"target": [], "time": []}}, "mouseout": {"state": {"target": [], "time": []}, "edge": {"target": [], "time": []}}}, "displayed_time": "16.80", "trialTime": 18318, "trial_type": "mouselab-mdp", "trial_index": 29, "time_elapsed": 592926, "internal_node_id": "0.0-6.0-1.0-20.0"}}, {"uniqueid": "w89858638:a33811691", "current_trial": 30, "dateTime": 1693580555245, "trialdata": {"revealed_states": [], "clicked_states": [], "num_clicks_accrued": [0, 0, 0, 0, 0, 0, 0, 0, 0, 0, 0, 0, 0], "stateRewards": ["", -1, -3, -3, 1, -38, 2, -53, -2, -1, -81, 70, -1, 1, -5, -9, 46, 15, 35, -1, -22, 38, 59, -2, 4, -8, 13, 1, -83, -43, 4, 76, 13, 48], "withholdReward": false, "trial_id": "mdp_trial_22", "block": "test", "trialIndex": 23, "score": 21, "costs": 0, "simulationMode": [null, null, null, null, null], "rewards": [-1, 1, -5, -9, 35], "path": ["0", "0", "12", "13", "14", "15", "18"], "rt": [670, 206, 75, 65, 101], "actions": ["right", "right", "right", "up", "left"], "actionTimes": [2909, 3637, 4257, 4862, 5499], "queries": {"click": {"state": {"target": [], "time": []}, "edge": {"target": [], "time": []}}, "mouseover": {"state": {"target": [], "time": []}, "edge": {"target": [], "time": []}}, "mouseout": {"state": {"target": [], "time": []}, "edge": {"target": [], "time": []}}}, "displayed_time": "21.24", "trialTime": 23316, "trial_type": "mouselab-mdp", "trial_index": 30, "time_elapsed": 616505, "internal_node_id": "0.0-6.0-1.0-21.0"}}, {"uniqueid": "w89858638:a33811691", "current_trial": 31, "dateTime": 1693580580002, "trialdata": {"revealed_states": [], "clicked_states": [], "num_clicks_accrued": [0, 0, 0, 0, 0, 0, 0, 0, 0, 0, 0, 0, 0], "stateRewards": ["", -1, -3, 1, -4, -48, -63, -49, -2, -84, -19, 65, 2, -2, -2, -12, -4, 59, 9, 6, 75, 69, -13, -1, -3, -3, -2, -37, -68, -36, 13, 32, 18, -14], "withholdReward": false, "trial_id": "mdp_trial_23", "block": "test", "trialIndex": 24, "score": -77, "costs": 0, "simulationMode": [null, null, null, null, null], "rewards": [-1, -3, -3, -2, -68], "path": ["0", "0", "23", "24", "25", "26", "28"], "rt": [1189, 6922, 337, 264, 295], "actions": ["left", "left", "left", "up", "right"], "actionTimes": [3010, 10442, 11276, 12033, 12848], "queries": {"click": {"state": {"target": [], "time": []}, "edge": {"target": [], "time": []}}, "mouseover": {"state": {"target": [], "time": []}, "edge": {"target": [], "time": []}}, "mouseout": {"state": {"target": [], "time": []}, "edge": {"target": [], "time": []}}}, "displayed_time": "16.63", "trialTime": 24495, "trial_type": "mouselab-mdp", "trial_index": 31, "time_elapsed": 641262, "internal_node_id": "0.0-6.0-1.0-22.0"}}, {"uniqueid": "w89858638:a33811691", "current_trial": 32, "dateTime": 1693580597749, "trialdata": {"revealed_states": [], "clicked_states": [], "num_clicks_accrued": [0, 0, 0, 0, 0, 0, 0, 0, 0, 0, 0, 0, 0], "stateRewards": ["", 1, 4, 5, -5, 58, -80, 75, 6, 25, -39, 46, 2, -2, 4, 2, 59, 31, -22, -12, -61, 15, 72, 1, -2, -7, 8, 77, 76, -23, -7, 71, -15, -3], "withholdReward": false, "trial_id": "mdp_trial_24", "block": "test", "trialIndex": 25, "score": 80, "costs": 0, "simulationMode": [null, null, null, null, null], "rewards": [1, 4, 5, -5, 75], "path": ["0", "0", "1", "2", "3", "4", "7"], "rt": [700, 655, 129, 26, 137], "actions": ["up", "up", "up", "right", "down"], "actionTimes": [2570, 3763, 4438, 5016, 5677], "queries": {"click": {"state": {"target": [], "time": []}, "edge": {"target": [], "time": []}}, "mouseover": {"state": {"target": [], "time": []}, "edge": {"target": [], "time": []}}, "mouseout": {"state": {"target": [], "time": []}, "edge": {"target": [], "time": []}}}, "displayed_time": "15.90", "trialTime": 17498, "trial_type": "mouselab-mdp", "trial_index": 32, "time_elapsed": 659010, "internal_node_id": "0.0-6.0-1.0-23.0"}}, {"uniqueid": "w89858638:a33811691", "current_trial": 33, "dateTime": 1693580615393, "trialdata": {"revealed_states": [], "clicked_states": [], "num_clicks_accrued": [0, 0, 0, 0, 0, 0, 0, 0, 0, 0, 0, 0, 0], "stateRewards": ["", -1, 1, -2, 5, 73, 15, 61, 8, 7, 38, 76, 2, 2, -4, -6, -6, -26, 43, -5, -45, -85, -35, -2, 1, -4, 15, -10, 69, 72, -11, 84, -49, -38], "withholdReward": false, "trial_id": "mdp_trial_25", "block": "test", "trialIndex": 26, "score": 64, "costs": 0, "simulationMode": [null, null, null, null, null], "rewards": [-1, 1, -2, 5, 61], "path": ["0", "0", "1", "2", "3", "4", "7"], "rt": [578, 65, 64, 636, 181], "actions": ["up", "up", "up", "right", "down"], "actionTimes": [1894, 2478, 3109, 4278, 4995], "queries": {"click": {"state": {"target": [], "time": []}, "edge": {"target": [], "time": []}}, "mouseover": {"state": {"target": [], "time": []}, "edge": {"target": [], "time": []}}, "mouseout": {"state": {"target": [], "time": []}, "edge": {"target": [], "time": []}}}, "displayed_time": "16.16", "trialTime": 17401, "trial_type": "mouselab-mdp", "trial_index": 33, "time_elapsed": 676653, "internal_node_id": "0.0-6.0-1.0-24.0"}}, {"uniqueid": "w89858638:a33811691", "current_trial": 34, "dateTime": 1693580632472, "trialdata": {"revealed_states": [], "clicked_states": [], "num_clicks_accrued": [0, 0, 0, 0, 0, 0, 0, 0, 0, 0, 0, 0, 0], "stateRewards": ["", -1, -2, 8, -6, -79, -6, 87, 9, -5, -66, -38, 2, 2, 5, -6, -82, 74, 85, -8, 67, -30, -15, 1, -2, -2, -2, 87, 64, 49, 7, 2, -38, -9], "withholdReward": false, "trial_id": "mdp_trial_26", "block": "test", "trialIndex": 27, "score": 86, "costs": 0, "simulationMode": [null, null, null, null, null], "rewards": [-1, -2, 8, -6, 87], "path": ["0", "0", "1", "2", "3", "4", "7"], "rt": [649, 143, 111, 59, 48], "actions": ["up", "up", "up", "right", "down"], "actionTimes": [1770, 2447, 3082, 3647, 4239], "queries": {"click": {"state": {"target": [], "time": []}, "edge": {"target": [], "time": []}}, "mouseover": {"state": {"target": [], "time": []}, "edge": {"target": [], "time": []}}, "mouseout": {"state": {"target": [], "time": []}, "edge": {"target": [], "time": []}}}, "displayed_time": "15.50", "trialTime": 16827, "trial_type": "mouselab-mdp", "trial_index": 34, "time_elapsed": 693732, "internal_node_id": "0.0-6.0-1.0-25.0"}}, {"uniqueid": "w89858638:a33811691", "current_trial": 35, "dateTime": 1693580652482, "trialdata": {"revealed_states": [], "clicked_states": [], "num_clicks_accrued": [0, 0, 0, 0, 0, 0, 0, 0, 0, 0, 0, 0, 0], "stateRewards": ["", 2, -3, -4, -1, 25, -16, 16, 10, -71, -20, -55, 1, 3, -4, -9, 1, 32, 11, -6, 32, -50, -41, -1, 4, 4, -8, 7, -81, 70, 2, -52, 45, -10], "withholdReward": false, "trial_id": "mdp_trial_27", "block": "test", "trialIndex": 28, "score": 10, "costs": 0, "simulationMode": [null, null, null, null, null], "rewards": [2, -3, -4, -1, 16], "path": ["0", "0", "1", "2", "3", "4", "7"], "rt": [783, 78, 4, 622, 127], "actions": ["up", "up", "up", "right", "down"], "actionTimes": [1876, 2483, 3040, 4240, 4879], "queries": {"click": {"state": {"target": [], "time": []}, "edge": {"target": [], "time": []}}, "mouseover": {"state": {"target": [], "time": []}, "edge": {"target": [], "time": []}}, "mouseout": {"state": {"target": [], "time": []}, "edge": {"target": [], "time": []}}}, "displayed_time": "15.41", "trialTime": 19747, "trial_type": "mouselab-mdp", "trial_index": 35, "time_elapsed": 713742, "internal_node_id": "0.0-6.0-1.0-26.0"}}, {"uniqueid": "w89858638:a33811691", "current_trial": 36, "dateTime": 1693580670968, "trialdata": {"revealed_states": [], "clicked_states": [], "num_clicks_accrued": [0, 0, 0, 0, 0, 0, 0, 0, 0, 0, 0, 0, 0], "stateRewards": ["", 2, 4, -3, 16, -58, 30, -35, 11, -60, 47, 27, -2, -1, -7, -16, 23, -70, 68, -10, -65, -43, -34, -2, 1, 7, 9, -63, 34, -31, -8, -12, -86, 59], "withholdReward": false, "trial_id": "mdp_trial_28", "block": "test", "trialIndex": 29, "score": -16, "costs": 0, "simulationMode": [null, null, null, null, null], "rewards": [2, 4, -3, 16, -35], "path": ["0", "0", "1", "2", "3", "4", "7"], "rt": [1033, 160, 146, 121, 131], "actions": ["up", "up", "up", "right", "down"], "actionTimes": [1706, 2382, 3051, 3676, 4337], "queries": {"click": {"state": {"target": [], "time": []}, "edge": {"target": [], "time": []}}, "mouseover": {"state": {"target": [], "time": []}, "edge": {"target": [], "time": []}}, "mouseout": {"state": {"target": [], "time": []}, "edge": {"target": [], "time": []}}}, "displayed_time": "15.40", "trialTime": 18223, "trial_type": "mouselab-mdp", "trial_index": 36, "time_elapsed": 732228, "internal_node_id": "0.0-6.0-1.0-27.0"}}, {"uniqueid": "w89858638:a33811691", "current_trial": 37, "dateTime": 1693580692385, "trialdata": {"revealed_states": [], "clicked_states": [], "num_clicks_accrued": [0, 0, 0, 0, 0, 0, 0, 0, 0, 0, 0, 0, 0], "stateRewards": ["", -1, 3, -7, 16, -32, -74, -48, 2, 10, 15, -30, 1, 1, -2, 10, 12, -83, 67, 13, -66, 47, 65, -2, 4, 2, -14, -8, -57, 24, 9, 65, 12, 46], "withholdReward": false, "trial_id": "mdp_trial_29", "block": "test", "trialIndex": 30, "score": -37, "costs": 0, "simulationMode": [null, null, null, null, null], "rewards": [-1, 3, -7, 16, -48], "path": ["0", "0", "1", "2", "3", "4", "7"], "rt": [929, 54, 36, 468, 374], "actions": ["up", "up", "up", "right", "down"], "actionTimes": [2357, 2953, 3545, 4527, 5437], "queries": {"click": {"state": {"target": [], "time": []}, "edge": {"target": [], "time": []}}, "mouseover": {"state": {"target": [], "time": []}, "edge": {"target": [], "time": []}}, "mouseout": {"state": {"target": [], "time": []}, "edge": {"target": [], "time": []}}}, "displayed_time": "15.89", "trialTime": 21134, "trial_type": "mouselab-mdp", "trial_index": 37, "time_elapsed": 753646, "internal_node_id": "0.0-6.0-1.0-28.0"}}, {"uniqueid": "w89858638:a33811691", "current_trial": 38, "dateTime": 1693580711716, "trialdata": {"revealed_states": [], "clicked_states": [], "num_clicks_accrued": [0, 0, 0, 0, 0, 0, 0, 0, 0, 0, 0, 0, 0], "stateRewards": ["", -2, 2, 3, -7, -31, -33, 29, -8, -57, 50, -83, -1, -1, 5, 13, -23, -62, 25, 5, -66, -85, 14, 1, -2, -1, 16, 71, 33, -19, -14, 5, -43, 79], "withholdReward": false, "trial_id": "mdp_trial_30", "block": "test", "trialIndex": 31, "score": 45, "costs": 0, "simulationMode": [null, null, null, null, null], "rewards": [-2, 2, 3, -8, 50], "path": ["0", "0", "1", "2", "3", "8", "10"], "rt": [771, 34, 70, 421, 176], "actions": ["up", "up", "up", "left", "down"], "actionTimes": [2205, 2736, 3354, 4322, 5010], "queries": {"click": {"state": {"target": [], "time": []}, "edge": {"target": [], "time": []}}, "mouseover": {"state": {"target": [], "time": []}, "edge": {"target": [], "time": []}}, "mouseout": {"state": {"target": [], "time": []}, "edge": {"target": [], "time": []}}}, "displayed_time": "15.47", "trialTime": 19037, "trial_type": "mouselab-mdp", "trial_index": 38, "time_elapsed": 772976, "internal_node_id": "0.0-6.0-1.0-29.0"}}, {"uniqueid": "w89858638:a33811691", "current_trial": 39, "dateTime": 1693580730175, "trialdata": {"revealed_states": [], "clicked_states": [], "num_clicks_accrued": [0, 0, 0, 0, 0, 0, 0, 0, 0, 0, 0, 0, 0], "stateRewards": ["", -1, -3, -7, -7, -76, 30, -49, 11, -70, 56, 2, 1, 4, -3, -14, -59, -83, -25, -9, -21, -67, -73, -2, 4, 4, -9, -11, -32, 60, 9, -87, 22, -64], "withholdReward": false, "trial_id": "mdp_trial_31", "block": "test", "trialIndex": 32, "score": 56, "costs": 0, "simulationMode": [null, null, null, null, null], "rewards": [-1, -3, -7, 11, 56], "path": ["0", "0", "1", "2", "3", "8", "10"], "rt": [905, 191, 111, 193, 211], "actions": ["up", "up", "up", "left", "down"], "actionTimes": [2240, 2951, 3639, 4350, 5067], "queries": {"click": {"state": {"target": [], "time": []}, "edge": {"target": [], "time": []}}, "mouseover": {"state": {"target": [], "time": []}, "edge": {"target": [], "time": []}}, "mouseout": {"state": {"target": ["0"], "time": [17323]}, "edge": {"target": [], "time": []}}}, "displayed_time": "16.13", "trialTime": 18156, "trial_type": "mouselab-mdp", "trial_index": 39, "time_elapsed": 791435, "internal_node_id": "0.0-6.0-1.0-30.0"}}, {"uniqueid": "w89858638:a33811691", "current_trial": 40, "dateTime": 1693580753138, "trialdata": {"revealed_states": [], "clicked_states": [], "num_clicks_accrued": [0, 0, 0, 0, 0, 0, 0, 0, 0, 0, 0, 0, 0], "stateRewards": ["", -2, -3, -7, 7, -54, -69, -4, -14, -77, 22, 40, -2, -1, 5, 6, -35, 50, -60, 10, -28, 75, 57, 1, -4, -2, 2, 68, 34, -18, 12, 3, -21, -43], "withholdReward": false, "trial_id": "mdp_trial_32", "block": "test", "trialIndex": 33, "score": -4, "costs": 0, "simulationMode": [null, null, null, null, null], "rewards": [-2, -3, -7, -14, 22], "path": ["0", "0", "1", "2", "3", "8", "10"], "rt": [552, 110, 83, 5, 115], "actions": ["up", "up", "up", "left", "down"], "actionTimes": [2462, 3082, 3720, 4258, 4921], "queries": {"click": {"state": {"target": [], "time": []}, "edge": {"target": [], "time": []}}, "mouseover": {"state": {"target": [], "time": []}, "edge": {"target": [], "time": []}}, "mouseout": {"state": {"target": ["0", "0"], "time": [1201, 1568]}, "edge": {"target": [], "time": []}}}, "displayed_time": "16.71", "trialTime": 22700, "trial_type": "mouselab-mdp", "trial_index": 40, "time_elapsed": 814399, "internal_node_id": "0.0-6.0-1.0-31.0"}}, {"uniqueid": "w89858638:a33811691", "current_trial": 41, "dateTime": 1693580776096, "trialdata": {"revealed_states": [], "clicked_states": [], "num_clicks_accrued": [0, 0, 0, 0, 0, 0, 0, 0, 0, 0, 0, 0, 0], "stateRewards": ["", 1, 2, -6, -13, -51, 22, -4, -12, -44, -12, 6, -2, -2, -2, -14, -46, -4, -77, -2, 36, -79, 41, 2, -4, 2, -6, -55, 59, 70, -5, 39, -19, 24], "withholdReward": false, "trial_id": "mdp_trial_33", "block": "test", "trialIndex": 34, "score": -67, "costs": 0, "simulationMode": [null, null, null, null, null], "rewards": [1, 2, -6, -13, -51], "path": ["0", "0", "1", "2", "3", "4", "5"], "rt": [1425, 365, 118, 7, 61], "actions": ["up", "up", "up", "right", "up"], "actionTimes": [2733, 3641, 4297, 4814, 5435], "queries": {"click": {"state": {"target": [], "time": []}, "edge": {"target": [], "time": []}}, "mouseover": {"state": {"target": [], "time": []}, "edge": {"target": [], "time": []}}, "mouseout": {"state": {"target": ["0"], "time": [1132]}, "edge": {"target": [], "time": []}}}, "displayed_time": "15.74", "trialTime": 22695, "trial_type": "mouselab-mdp", "trial_index": 41, "time_elapsed": 837357, "internal_node_id": "0.0-6.0-1.0-32.0"}}, {"uniqueid": "w89858638:a33811691", "current_trial": 42, "dateTime": 1693580796428, "trialdata": {"revealed_states": [], "clicked_states": [], "num_clicks_accrued": [0, 0, 0, 0, 0, 0, 0, 0, 0, 0, 0, 0, 0], "stateRewards": ["", 1, -3, -1, 9, -34, -40, 22, -7, 45, 53, -11, 2, 4, 5, 15, 21, 37, -49, -3, 80, -28, -34, 1, -3, 1, 1, -40, -6, -5, -16, -85, -86, 59], "withholdReward": false, "trial_id": "mdp_trial_34", "block": "test", "trialIndex": 35, "score": -21, "costs": 0, "simulationMode": [null, null, null, null, null], "rewards": [1, -3, -1, -7, -11], "path": ["0", "0", "1", "2", "3", "8", "11"], "rt": [826, 39, 31, 591, 84], "actions": ["up", "up", "up", "left", "left"], "actionTimes": [1712, 2259, 2803, 3929, 4553], "queries": {"click": {"state": {"target": [], "time": []}, "edge": {"target": [], "time": []}}, "mouseover": {"state": {"target": [], "time": []}, "edge": {"target": [], "time": []}}, "mouseout": {"state": {"target": ["0"], "time": [705]}, "edge": {"target": [], "time": []}}}, "displayed_time": "15.76", "trialTime": 20042, "trial_type": "mouselab-mdp", "trial_index": 42, "time_elapsed": 857688, "internal_node_id": "0.0-6.0-1.0-33.0"}}, {"uniqueid": "w89858638:a33811691", "current_trial": 43, "dateTime": 1693580816358, "trialdata": {"revealed_states": [], "clicked_states": [], "num_clicks_accrued": [0, 0, 0, 0, 0, 0, 0, 0, 0, 0, 0, 0, 0], "stateRewards": ["", 1, -1, -7, -7, -22, 15, -13, 13, 26, -32, 38, -1, 1, -7, -4, 16, -62, 86, 12, -54, 56, 64, -2, -1, 6, 14, -57, 37, 62, -6, -25, 50, -70], "withholdReward": false, "trial_id": "mdp_trial_35", "block": "test", "trialIndex": 36, "score": 69, "costs": 0, "simulationMode": [null, null, null, null, null], "rewards": [-1, 1, -7, 12, 64], "path": ["0", "0", "12", "13", "14", "19", "22"], "rt": [740, 5, 535, 102, 52], "actions": ["right", "right", "right", "down", "left"], "actionTimes": [3954, 4483, 5582, 6178, 6779], "queries": {"click": {"state": {"target": [], "time": []}, "edge": {"target": [], "time": []}}, "mouseover": {"state": {"target": [], "time": []}, "edge": {"target": [], "time": []}}, "mouseout": {"state": {"target": [], "time": []}, "edge": {"target": [], "time": []}}}, "displayed_time": "17.42", "trialTime": 19632, "trial_type": "mouselab-mdp", "trial_index": 43, "time_elapsed": 877619, "internal_node_id": "0.0-6.0-1.0-34.0"}}, {"uniqueid": "w89858638:a33811691", "current_trial": 44, "dateTime": 1693580833903, "trialdata": {"revealed_states": [], "clicked_states": [], "num_clicks_accrued": [0, 0, 0, 0, 0, 0, 0, 0, 0, 0, 0, 0, 0], "stateRewards": ["", 1, 1, -5, 8, -6, 45, 16, -6, -7, -22, -38, -1, -4, 8, -11, -16, 21, -45, -15, -59, -32, 42, -1, 3, 6, 11, -7, 34, -27, -8, 85, 43, -9], "withholdReward": false, "trial_id": "mdp_trial_36", "block": "test", "trialIndex": 37, "score": 30, "costs": 0, "simulationMode": [null, null, null, null, null], "rewards": [-1, -4, 8, -15, 42], "path": ["0", "0", "12", "13", "14", "19", "22"], "rt": [714, 341, 64, 5, 114], "actions": ["right", "right", "right", "down", "left"], "actionTimes": [1852, 2712, 3318, 3842, 4518], "queries": {"click": {"state": {"target": [], "time": []}, "edge": {"target": [], "time": []}}, "mouseover": {"state": {"target": [], "time": []}, "edge": {"target": [], "time": []}}, "mouseout": {"state": {"target": [], "time": []}, "edge": {"target": [], "time": []}}}, "displayed_time": "15.49", "trialTime": 17252, "trial_type": "mouselab-mdp", "trial_index": 44, "time_elapsed": 895163, "internal_node_id": "0.0-6.0-1.0-35.0"}}, {"uniqueid": "w89858638:a33811691", "current_trial": 45, "dateTime": 1693580851458, "trialdata": {"revealed_states": [], "clicked_states": [], "num_clicks_accrued": [0, 0, 0, 0, 0, 0, 0, 0, 0, 0, 0, 0, 0], "stateRewards": ["", 1, 1, -3, 2, 22, -25, -11, -5, 50, 49, 3, 1, -1, 8, 14, -85, -30, 57, -6, -39, -16, 59, -2, -1, 5, 5, 59, -16, 8, 4, 67, 56, -9], "withholdReward": false, "trial_id": "mdp_trial_37", "block": "test", "trialIndex": 38, "score": 61, "costs": 0, "simulationMode": [null, null, null, null, null], "rewards": [1, -1, 8, -6, 59], "path": ["0", "0", "12", "13", "14", "19", "22"], "rt": [1234, 66, 124, 70, 86], "actions": ["right", "right", "right", "down", "left"], "actionTimes": [2118, 2708, 3380, 3962, 4592], "queries": {"click": {"state": {"target": [], "time": []}, "edge": {"target": [], "time": []}}, "mouseover": {"state": {"target": [], "time": []}, "edge": {"target": [], "time": []}}, "mouseout": {"state": {"target": [], "time": []}, "edge": {"target": [], "time": []}}}, "displayed_time": "14.91", "trialTime": 17230, "trial_type": "mouselab-mdp", "trial_index": 45, "time_elapsed": 912718, "internal_node_id": "0.0-6.0-1.0-36.0"}}, {"uniqueid": "w89858638:a33811691", "current_trial": 46, "dateTime": 1693580877651, "trialdata": {"revealed_states": [], "clicked_states": [], "num_clicks_accrued": [0, 0, 0, 0, 0, 0, 0, 0, 0, 0, 0, 0, 0], "stateRewards": ["", -2, -3, 4, 1, 33, -53, 15, 9, -12, 61, -6, -2, 4, 6, -11, 47, -43, -7, -11, 46, 23, -28, -1, -1, 3, -10, 11, 76, -76, 10, 18, -38, 87], "withholdReward": false, "trial_id": "mdp_trial_38", "block": "test", "trialIndex": 39, "score": -31, "costs": 0, "simulationMode": [null, null, null, null, null], "rewards": [-2, 4, 6, -11, -28], "path": ["0", "0", "12", "13", "14", "19", "22"], "rt": [682, 12, 171, 56, 124], "actions": ["right", "right", "right", "down", "left"], "actionTimes": [1093, 1644, 2352, 2939, 3622], "queries": {"click": {"state": {"target": [], "time": []}, "edge": {"target": [], "time": []}}, "mouseover": {"state": {"target": [], "time": []}, "edge": {"target": [], "time": []}}, "mouseout": {"state": {"target": ["0"], "time": [5246]}, "edge": {"target": [], "time": []}}}, "displayed_time": "24.38", "trialTime": 25897, "trial_type": "mouselab-mdp", "trial_index": 46, "time_elapsed": 938911, "internal_node_id": "0.0-6.0-1.0-37.0"}}, {"uniqueid": "w89858638:a33811691", "current_trial": 47, "dateTime": 1693580896645, "trialdata": {"revealed_states": [], "clicked_states": [], "num_clicks_accrued": [0, 0, 0, 0, 0, 0, 0, 0, 0, 0, 0, 0, 0], "stateRewards": ["", 2, -1, -4, -13, 74, 77, 3, 2, -43, -2, -11, 2, 3, 7, 11, -26, -29, -33, -3, -3, -13, -3, 1, 3, -7, 14, -59, 33, 9, -5, 34, 79, 68], "withholdReward": false, "trial_id": "mdp_trial_39", "block": "test", "trialIndex": 40, "score": 71, "costs": 0, "simulationMode": [null, null, null, null, null], "rewards": [1, 3, -7, -5, 79], "path": ["0", "0", "23", "24", "25", "30", "32"], "rt": [388, 86, 333, 83, 192], "actions": ["left", "left", "left", "down", "down"], "actionTimes": [1984, 2573, 3418, 4024, 4761], "queries": {"click": {"state": {"target": [], "time": []}, "edge": {"target": [], "time": []}}, "mouseover": {"state": {"target": [], "time": []}, "edge": {"target": [], "time": []}}, "mouseout": {"state": {"target": ["0", "12", "12", "13", "13"], "time": [6733, 7000, 7517, 11332, 11682]}, "edge": {"target": [], "time": []}}}, "displayed_time": "16.09", "trialTime": 18600, "trial_type": "mouselab-mdp", "trial_index": 47, "time_elapsed": 957905, "internal_node_id": "0.0-6.0-1.0-38.0"}}, {"uniqueid": "w89858638:a33811691", "current_trial": 48, "dateTime": 1693580914740, "trialdata": {"revealed_states": [], "clicked_states": [], "num_clicks_accrued": [0, 0, 0, 0, 0, 0, 0, 0, 0, 0, 0, 0, 0], "stateRewards": ["", -2, 3, 8, -9, 59, 41, -50, -1, 82, 66, 33, 2, -2, 7, 8, 1, -38, 12, -16, 24, -37, 67, 1, 4, -2, 5, 35, -83, 28, 8, -27, 69, -64], "withholdReward": false, "trial_id": "mdp_trial_40", "block": "test", "trialIndex": 41, "score": 80, "costs": 0, "simulationMode": [null, null, null, null, null], "rewards": [1, 4, -2, 8, 69], "path": ["0", "0", "23", "24", "25", "30", "32"], "rt": [869, 29, 573, 77, 155], "actions": ["left", "left", "left", "down", "down"], "actionTimes": [2595, 3163, 4273, 4862, 5555], "queries": {"click": {"state": {"target": [], "time": []}, "edge": {"target": [], "time": []}}, "mouseover": {"state": {"target": [], "time": []}, "edge": {"target": [], "time": []}}, "mouseout": {"state": {"target": ["13", "0"], "time": [881, 1097]}, "edge": {"target": [], "time": []}}}, "displayed_time": "16.19", "trialTime": 17797, "trial_type": "mouselab-mdp", "trial_index": 48, "time_elapsed": 976000, "internal_node_id": "0.0-6.0-1.0-39.0"}}, {"uniqueid": "w89858638:a33811691", "current_trial": 49, "dateTime": 1693580944946, "trialdata": {"rt": 30200, "response": {"Q0": "$-2 to $2", "Q1": "$-32 to $32", "Q2": "$-32 to $32", "Q3": "The cost for clicking on nodes varied between nodes.", "Q4": "Slightly motivated"}, "question_order": [0, 1, 2, 3, 4], "trial_id": "final_quiz_control", "trial_type": "survey-multi-choice", "trial_index": 49, "time_elapsed": 1006206, "internal_node_id": "0.0-6.0-2.0"}}, {"uniqueid": "w89858638:a33811691", "current_trial": 50, "dateTime": 1693581000694, "trialdata": {"rt": 55732, "response": {"Q0": "i didn't really use a strategy i just kind of guessed", "Q1": "i found sometimes if you chose the same node, they had a good amount in for a few turns.", "Q2": "i found it difficult because a node would have a good amount in for a few tries an then suddenly change"}, "trial_id": "self_report_control", "trial_type": "survey-text", "trial_index": 50, "time_elapsed": 1061954, "internal_node_id": "0.0-6.0-3.0"}}, {"uniqueid": "w89858638:a33811691", "current_trial": 51, "dateTime": 1693581034713, "trialdata": {"rt": 34013, "response": {"Q0": "Agree", "Q1": "Disagree", "Q2": "Agree", "Q3": "Neither disagree nor agree", "Q4": "Neither disagree nor agree", "Q5": "Disagree", "Q6": "Agree"}, "question_order": [0, 1, 2, 3, 4, 5, 6], "trial_id": "self_report_2", "trial_type": "survey-multi-choice", "trial_index": 51, "time_elapsed": 1095973, "internal_node_id": "0.0-6.0-4.0"}}, {"uniqueid": "w89858638:a33811691", "current_trial": 52, "dateTime": 1693581044850, "trialdata": {"rt": 10127, "response": {"gender": "female", "age": "42", "colorblind": "0", "effort": "0"}, "trial_type": "survey-html-form", "trial_index": 52, "time_elapsed": 1106111, "internal_node_id": "0.0-6.0-5.0"}}, {"uniqueid": "w89858638:a33811691", "current_trial": 53, "dateTime": 1693581056265, "trialdata": {"rt": 11406, "response": {"Q0": "no", "Q1": "no", "Q2": "n/a"}, "trial_type": "survey-text", "trial_index": 53, "time_elapsed": 1117526, "internal_node_id": "0.0-6.0-6.0"}}, {"uniqueid": "w89858638:a33811691", "current_trial": 54, "dateTime": 1693581121677, "trialdata": {"rt": 65404, "stimulus": "<h1>Completion Code Instructions (1/2)</h1>\n<br><br><br><br>\nYou have reached the end of the experiment! The completion code consists of two parts: (1) a code with 2 characters (2) a code with 6 characters. On this page, you will receive the second part of the code. The first part of the completion code will be on the next page.\n<br><br>\nThe second part of your completion code is: <b>EWEK22</b>\n<br><br>\nPlease note this down. Then, press 'Next' in order to find the first part of your completion code. Once the data has been saved, you will receive this code either in this window or in the original browser window where you started the experiment.\n <br><br>\n<h2 style='color: red;'>Note: this is <strong>NOT</strong> the full completion code. Copy this down and click 'Next' to get the full completion code on the next page.</h2>", "response": 0, "trial_type": "html-button-response", "trial_index": 54, "time_elapsed": 1182937, "internal_node_id": "0.0-6.0-7.0"}}, {"uniqueid": "w89858638:a33811691", "current_trial": 55, "dateTime": 1693581122684, "trialdata": {"success": true, "trial_type": "fullscreen", "trial_index": 55, "time_elapsed": 1183945, "internal_node_id": "0.0-7.0"}}], "questiondata": {"params": {"CODE": "C6DMOQA6", "MIN_TIME": 14, "inspectCost": 1, "startTime": "Fri Sep 01 2023 15:52:17 GMT+0100 (British Summer Time)", "bonusRate": 0.002, "variance": "1_2_4_8_44", "branching": "31123"}, "final_score": 413}, "eventdata": [{"eventtype": "initialized", "value": null, "timestamp": 1693579936967, "interval": 0}, {"eventtype": "window_resize", "value": [1024, 748], "timestamp": 1693579936967, "interval": 0}, {"eventtype": "window_resize", "value": [1024, 748], "timestamp": 1693579937283, "interval": 316}, {"eventtype": "window_resize", "value": [1536, 864], "timestamp": 1693579983750, "interval": 46467}, {"eventtype": "window_resize", "value": [1024, 748], "timestamp": 1693581121945, "interval": 1138195}], "useragent": "Mozilla/5.0 (Windows NT 10.0; Win64; x64) AppleWebKit/537.36 (KHTML, like Gecko) Chrome/116.0.0.0 Safari/537.36 Edg/116.0.1938.62", "mode": "live", "id": "w89858638:a33811691", "status": "user data saved", "Beginhit": "2023-09-01 14:52:15.524951", "Beginexp": "2023-09-01 14:53:04.475642", "Endhit": "2023-09-01 15:12:03.047008", "psiturkStatus": 3, "browser": "<redacted>", "platform": "windows", "language": "en-GB"}