{"condition": 0, "counterbalance": 0, "assignmentId": "a97421317", "workerId": "w30933428", "hitId": "h26508016", "currenttrial": 55, "bonus": 0, "data": [{"uniqueid": "w30933428:a97421317", "current_trial": 0, "dateTime": 1691142100270, "trialdata": {"success": true, "trial_type": "fullscreen", "trial_index": 0, "time_elapsed": 4251, "internal_node_id": "0.0-0.0"}}, {"uniqueid": "w30933428:a97421317", "current_trial": 1, "dateTime": 1691142109344, "trialdata": {"view_history": [{"page_index": 0, "viewing_time": 9072}], "rt": 9072, "trial_id": "exp_instructions_control", "trial_type": "instructions", "trial_index": 1, "time_elapsed": 13326, "internal_node_id": "0.0-1.0"}}, {"uniqueid": "w30933428:a97421317", "current_trial": 2, "dateTime": 1691142112548, "trialdata": {"success": true, "trial_type": "fullscreen", "trial_index": 2, "time_elapsed": 16530, "internal_node_id": "0.0-2.0-0.0"}}, {"uniqueid": "w30933428:a97421317", "current_trial": 3, "dateTime": 1691142354784, "trialdata": {"view_history": [{"page_index": 0, "viewing_time": 79874}, {"page_index": 1, "viewing_time": 106408}, {"page_index": 2, "viewing_time": 20480}, {"page_index": 3, "viewing_time": 35472}], "rt": 242235, "trial_id": "mouselab_instructions_1_control", "trial_type": "instructions", "trial_index": 3, "time_elapsed": 258766, "internal_node_id": "0.0-2.0-1.0"}}, {"uniqueid": "w30933428:a97421317", "current_trial": 4, "dateTime": 1691142374374, "trialdata": {"revealed_states": [], "clicked_states": [], "num_clicks_accrued": [0, 0, 0, 0, 0, 0, 0, 0, 0, 0, 0, 0, 0], "stateRewards": ["", 10, -10, -10, -10, -10, -10, 10, 10, 10, -10, -10, -10, 10, -10, -10, -10, -10, -10, 10, -10, 10, -10, 10, 10, 10, -10, -10, 10, -10, -10, -10, 10, -10], "withholdReward": false, "trial_id": "practice_1", "block": "test", "trialIndex": 0, "score": 13.5, "costs": 0, "simulationMode": [null, null, null, null, null], "rewards": [10, 10, 10, -10, -10], "path": ["0", "0", "23", "24", "25", "26", "29"], "rt": [5650, 918, 318, 87, 29], "actions": ["left", "left", "left", "up", "left"], "actionTimes": [9771, 11191, 12010, 12599, 13136], "queries": {"click": {"state": {"target": [], "time": []}, "edge": {"target": [], "time": []}}, "mouseover": {"state": {"target": ["0", "12"], "time": [7573, 8194]}, "edge": {"target": [], "time": []}}, "mouseout": {"state": {"target": ["7", "4", "15", "18", "12", "0", "0", "0", "12", "23", "31", "22"], "time": [458, 842, 3175, 3196, 3249, 3286, 5268, 7587, 8510, 16304, 16617, 18476]}, "edge": {"target": [], "time": []}}}, "displayed_time": "13.64", "trialTime": 19343, "trial_type": "mouselab-mdp", "trial_index": 4, "time_elapsed": 278356, "internal_node_id": "0.0-2.0-2.0-0.0"}}, {"uniqueid": "w30933428:a97421317", "current_trial": 5, "dateTime": 1691142384457, "trialdata": {"revealed_states": [], "clicked_states": [], "num_clicks_accrued": [0, 0, 0, 0, 0, 0, 0, 0, 0, 0, 0, 0, 0], "stateRewards": ["", 10, 10, 10, 10, -10, -10, 10, -10, -10, -10, -10, -10, 10, 10, 10, 10, 10, 10, 10, -10, 10, -10, 10, 10, -10, -10, 10, 10, 10, -10, -10, -10, 10], "withholdReward": false, "trial_id": "practice_2", "block": "test", "trialIndex": 1, "score": 13.5, "costs": 0, "simulationMode": [null, null, null, null, null], "rewards": [10, 10, 10, -10, -10], "path": ["0", "0", "1", "2", "3", "8", "11"], "rt": [337, 56, 521, 39, 148], "actions": ["up", "up", "up", "left", "left"], "actionTimes": [2769, 3337, 4362, 4909, 5567], "queries": {"click": {"state": {"target": [], "time": []}, "edge": {"target": [], "time": []}}, "mouseover": {"state": {"target": [], "time": []}, "edge": {"target": [], "time": []}}, "mouseout": {"state": {"target": ["13", "12", "0", "22", "15"], "time": [1733, 1844, 8154, 9389, 9542]}, "edge": {"target": [], "time": []}}}, "displayed_time": "6.08", "trialTime": 9992, "trial_type": "mouselab-mdp", "trial_index": 5, "time_elapsed": 288439, "internal_node_id": "0.0-2.0-2.0-1.0"}}, {"uniqueid": "w30933428:a97421317", "current_trial": 6, "dateTime": 1691142450839, "trialdata": {"view_history": [{"page_index": 0, "viewing_time": 49356}, {"page_index": 1, "viewing_time": 17024}], "rt": 66380, "trial_id": "mouselab_instructions_2_control", "trial_type": "instructions", "trial_index": 6, "time_elapsed": 354821, "internal_node_id": "0.0-2.0-3.0"}}, {"uniqueid": "w30933428:a97421317", "current_trial": 7, "dateTime": 1691142520280, "trialdata": {"rt": 69438, "response": {"Q0": "The cost for clicking on nodes may vary between nodes.", "Q1": "The better I perform the higher my bonus will be.", "Q2": "No, the amount of cash at each node of the web may be different each time.", "Q3": "To get the highest total score.", "Q4": "Only before moving the spider.", "Q5": "3 seconds"}, "question_order": [0, 1, 2, 3, 4, 5], "correct": {"Q0": "The cost for clicking on nodes may vary between nodes.", "Q1": "The better I perform the higher my bonus will be.", "Q2": "No, the amount of cash at each node of the web may be different each time.", "Q3": "To get the highest total score.", "Q4": "Only before moving the spider.", "Q5": "3 seconds"}, "trial_id": "mouselab_quiz_control", "trial_type": "survey-multi-choice", "trial_index": 7, "time_elapsed": 424262, "internal_node_id": "0.0-2.0-4.0"}}, {"uniqueid": "w30933428:a97421317", "current_trial": 8, "dateTime": 1691142536478, "trialdata": {"rt": 16193, "stimulus": "\n<h1> Get ready to start the game! </h1>\n\nThank you for reading the instructions. Get ready start with the 40 rounds of this game.\n<br><br>\nIf you need to take a break, feel free to take one after the end of a round, before continuing to the next one.\n<br><br>\nRemember, the more money the spider gets, the bigger your bonus will be!\n<br><br>\n<div style='text-align: center;'>Press <code>space</code> to begin.</div>\n\n<br><br>\n(If, at any point, the <code>space</code> key does not take you to the next page, click once on the text and try again.)", "response": " ", "trial_id": "mdp_ready", "trial_type": "html-keyboard-response", "trial_index": 8, "time_elapsed": 440460, "internal_node_id": "0.0-4.0-0.0"}}, {"uniqueid": "w30933428:a97421317", "current_trial": 9, "dateTime": 1691142560926, "trialdata": {"revealed_states": [], "clicked_states": [], "num_clicks_accrued": [0, 0, 0, 0, 0, 0, 0, 0, 0, 0, 0, 0, 0], "stateRewards": ["", 2, -1, 5, 8, 75, -35, -77, 1, -9, -81, -58, 1, 2, -7, 5, 77, -16, 19, 16, -10, -18, 40, -2, 3, 7, -5, 64, 1, -62, 10, 27, 10, 65], "withholdReward": false, "trial_id": "mdp_trial_1", "block": "test", "trialIndex": 2, "score": 28, "costs": 0, "simulationMode": [null, null, null, null, null], "rewards": [-2, 3, 7, 10, 10], "path": ["0", "0", "23", "24", "25", "30", "32"], "rt": [396, 11, 76, 105, 6], "actions": ["left", "left", "left", "down", "down"], "actionTimes": [2478, 2992, 3576, 4189, 4706], "queries": {"click": {"state": {"target": [], "time": []}, "edge": {"target": [], "time": []}}, "mouseover": {"state": {"target": [], "time": []}, "edge": {"target": [], "time": []}}, "mouseout": {"state": {"target": ["0", "30", "31", "12", "0", "18", "16"], "time": [8492, 10031, 10576, 10784, 23201, 23791, 23910]}, "edge": {"target": [], "time": []}}}, "displayed_time": "16.09", "trialTime": 24349, "trial_type": "mouselab-mdp", "trial_index": 9, "time_elapsed": 464908, "internal_node_id": "0.0-4.0-1.0-0.0"}}, {"uniqueid": "w30933428:a97421317", "current_trial": 10, "dateTime": 1691142588728, "trialdata": {"revealed_states": [], "clicked_states": [], "num_clicks_accrued": [0, 0, 0, 0, 0, 0, 0, 0, 0, 0, 0, 0, 0], "stateRewards": ["", -2, 1, -5, 2, -68, 80, 33, 10, 67, -59, 20, -1, -3, 3, 14, 74, -2, 24, -16, 63, 80, 46, -1, 4, 6, 12, 83, -38, -43, -4, 43, 14, -79], "withholdReward": false, "trial_id": "mdp_trial_2", "block": "test", "trialIndex": 3, "score": -72, "costs": 0, "simulationMode": [null, null, null, null, null], "rewards": [-2, 1, -5, 2, -68], "path": ["0", "0", "1", "2", "3", "4", "5"], "rt": [1041, 196, 373, 409, 243], "actions": ["up", "up", "up", "right", "up"], "actionTimes": [8715, 9418, 10293, 11208, 11956], "queries": {"click": {"state": {"target": [], "time": []}, "edge": {"target": [], "time": []}}, "mouseover": {"state": {"target": [], "time": []}, "edge": {"target": [], "time": []}}, "mouseout": {"state": {"target": ["5", "11", "27", "25", "30", "31", "23", "0"], "time": [1410, 1426, 1442, 1474, 1498, 1770, 1810, 14089]}, "edge": {"target": [], "time": []}}}, "displayed_time": "21.68", "trialTime": 27698, "trial_type": "mouselab-mdp", "trial_index": 10, "time_elapsed": 492709, "internal_node_id": "0.0-4.0-1.0-1.0"}}, {"uniqueid": "w30933428:a97421317", "current_trial": 11, "dateTime": 1691142606085, "trialdata": {"revealed_states": [], "clicked_states": [], "num_clicks_accrued": [0, 0, 0, 0, 0, 0, 0, 0, 0, 0, 0, 0, 0], "stateRewards": ["", -2, -3, 1, -14, 48, -49, 67, -1, -35, -48, 3, -2, 1, -4, -5, 86, -84, 39, 1, 48, 41, -42, -1, -4, 2, -7, 18, -86, 17, 7, -9, 57, -69], "withholdReward": false, "trial_id": "mdp_trial_3", "block": "test", "trialIndex": 4, "score": 44, "costs": 0, "simulationMode": [null, null, null, null, null], "rewards": [-2, 1, -4, 1, 48], "path": ["0", "0", "12", "13", "14", "19", "20"], "rt": [682, 91, 66, 316, 286], "actions": ["right", "right", "right", "down", "right"], "actionTimes": [1451, 2051, 2619, 3445, 4241], "queries": {"click": {"state": {"target": [], "time": []}, "edge": {"target": [], "time": []}}, "mouseover": {"state": {"target": [], "time": []}, "edge": {"target": [], "time": []}}, "mouseout": {"state": {"target": ["0", "0", "7", "6", "15", "13", "22"], "time": [193, 10805, 10822, 10837, 16126, 16148, 16621]}, "edge": {"target": [], "time": []}}}, "displayed_time": "14.77", "trialTime": 17250, "trial_type": "mouselab-mdp", "trial_index": 11, "time_elapsed": 510067, "internal_node_id": "0.0-4.0-1.0-2.0"}}, {"uniqueid": "w30933428:a97421317", "current_trial": 12, "dateTime": 1691142626036, "trialdata": {"revealed_states": [], "clicked_states": [], "num_clicks_accrued": [0, 0, 0, 0, 0, 0, 0, 0, 0, 0, 0, 0, 0], "stateRewards": ["", -1, 3, 1, -7, 56, 76, 57, 3, 11, -9, 14, 1, -2, 2, 8, -77, -3, 79, -5, 88, 24, -66, -2, -1, 7, -7, -30, 14, -76, 11, -36, 28, -6], "withholdReward": false, "trial_id": "mdp_trial_4", "block": "test", "trialIndex": 5, "score": -3, "costs": 0, "simulationMode": [null, null, null, null, null], "rewards": [-1, 3, 1, 3, -9], "path": ["0", "0", "1", "2", "3", "8", "10"], "rt": [601, 155, 186, 107, 192], "actions": ["up", "up", "up", "left", "down"], "actionTimes": [3038, 3697, 4392, 5009, 5711], "queries": {"click": {"state": {"target": [], "time": []}, "edge": {"target": [], "time": []}}, "mouseover": {"state": {"target": [], "time": []}, "edge": {"target": [], "time": []}}, "mouseout": {"state": {"target": ["0"], "time": [8819]}, "edge": {"target": [], "time": []}}}, "displayed_time": "16.44", "trialTime": 19837, "trial_type": "mouselab-mdp", "trial_index": 12, "time_elapsed": 530018, "internal_node_id": "0.0-4.0-1.0-3.0"}}, {"uniqueid": "w30933428:a97421317", "current_trial": 13, "dateTime": 1691142647786, "trialdata": {"revealed_states": [], "clicked_states": [], "num_clicks_accrued": [0, 0, 0, 0, 0, 0, 0, 0, 0, 0, 0, 0, 0], "stateRewards": ["", 2, 3, 6, -5, -74, -53, 17, -12, 46, 44, 18, -2, 4, 1, -8, 22, -23, -49, 9, -45, 55, 81, 1, -1, -7, -16, -83, -71, -45, 2, 51, 82, 61], "withholdReward": false, "trial_id": "mdp_trial_5", "block": "test", "trialIndex": 6, "score": -94, "costs": 0, "simulationMode": [null, null, null, null, null], "rewards": [1, -1, -7, -16, -71], "path": ["0", "0", "23", "24", "25", "26", "28"], "rt": [745, 135, 446, 127, 163], "actions": ["left", "left", "left", "up", "right"], "actionTimes": [1675, 2313, 3268, 3896, 4561], "queries": {"click": {"state": {"target": [], "time": []}, "edge": {"target": [], "time": []}}, "mouseover": {"state": {"target": [], "time": []}, "edge": {"target": [], "time": []}}, "mouseout": {"state": {"target": ["0"], "time": [20400]}, "edge": {"target": [], "time": []}}}, "displayed_time": "14.93", "trialTime": 21630, "trial_type": "mouselab-mdp", "trial_index": 13, "time_elapsed": 551768, "internal_node_id": "0.0-4.0-1.0-4.0"}}, {"uniqueid": "w30933428:a97421317", "current_trial": 14, "dateTime": 1691142668171, "trialdata": {"revealed_states": [], "clicked_states": [], "num_clicks_accrued": [0, 0, 0, 0, 0, 0, 0, 0, 0, 0, 0, 0, 0], "stateRewards": ["", 2, -3, -5, 5, 11, -9, -33, 6, 67, 6, -30, -1, -2, -6, 13, 55, 13, 72, -14, 75, 21, -66, -2, -4, 6, 15, -1, -35, 60, 2, 51, -73, 12], "withholdReward": false, "trial_id": "mdp_trial_6", "block": "test", "trialIndex": 7, "score": 14, "costs": 0, "simulationMode": [null, null, null, null, null], "rewards": [-2, -4, 6, 2, 12], "path": ["0", "0", "23", "24", "25", "30", "33"], "rt": [688, 16, 148, 35, 136], "actions": ["left", "left", "left", "down", "left"], "actionTimes": [2330, 2849, 3501, 4038, 4687], "queries": {"click": {"state": {"target": [], "time": []}, "edge": {"target": [], "time": []}}, "mouseover": {"state": {"target": [], "time": []}, "edge": {"target": [], "time": []}}, "mouseout": {"state": {"target": ["0"], "time": [9909]}, "edge": {"target": [], "time": []}}}, "displayed_time": "15.65", "trialTime": 20265, "trial_type": "mouselab-mdp", "trial_index": 14, "time_elapsed": 572152, "internal_node_id": "0.0-4.0-1.0-5.0"}}, {"uniqueid": "w30933428:a97421317", "current_trial": 15, "dateTime": 1691142711654, "trialdata": {"revealed_states": [], "clicked_states": [], "num_clicks_accrued": [0, 0, 0, 0, 0, 0, 0, 0, 0, 0, 0, 0, 0], "stateRewards": ["", -1, -3, 1, 13, -64, -29, 12, -4, -33, 50, 56, 2, -3, 4, 11, -64, -58, -55, 12, 47, 38, -25, -2, 2, 5, -15, 85, 7, 84, 10, 8, 57, 26], "withholdReward": false, "trial_id": "mdp_trial_7", "block": "test", "trialIndex": 8, "score": -40, "costs": 0, "simulationMode": [null, null, null, null, null], "rewards": [-1, -3, 1, -4, -33], "path": ["0", "0", "1", "2", "3", "8", "9"], "rt": [863, 74, 121, 95, 92], "actions": ["up", "up", "up", "left", "up"], "actionTimes": [1728, 2304, 2933, 3530, 4132], "queries": {"click": {"state": {"target": [], "time": []}, "edge": {"target": [], "time": []}}, "mouseover": {"state": {"target": [], "time": []}, "edge": {"target": [], "time": []}}, "mouseout": {"state": {"target": ["0", "0", "1"], "time": [43226, 43273, 43297]}, "edge": {"target": [], "time": []}}}, "displayed_time": "14.87", "trialTime": 43359, "trial_type": "mouselab-mdp", "trial_index": 15, "time_elapsed": 615635, "internal_node_id": "0.0-4.0-1.0-6.0"}}, {"uniqueid": "w30933428:a97421317", "current_trial": 16, "dateTime": 1691142738809, "trialdata": {"revealed_states": [], "clicked_states": [], "num_clicks_accrued": [0, 0, 0, 0, 0, 0, 0, 0, 0, 0, 0, 0, 0], "stateRewards": ["", -2, -3, 4, 1, 33, -53, 15, 9, -12, 61, -6, -2, 4, 6, -11, 47, -43, -7, -11, 46, 23, -28, -1, -1, 3, -10, 11, 76, -76, 10, 18, -38, 87], "withholdReward": false, "trial_id": "mdp_trial_8", "block": "test", "trialIndex": 9, "score": 2, "costs": 0, "simulationMode": [null, null, null, null, null], "rewards": [-1, -1, 3, -10, 11], "path": ["0", "0", "23", "24", "25", "26", "27"], "rt": [617, 32, 12, 155, 145], "actions": ["left", "left", "left", "up", "up"], "actionTimes": [2286, 2829, 3355, 4026, 4673], "queries": {"click": {"state": {"target": [], "time": []}, "edge": {"target": [], "time": []}}, "mouseover": {"state": {"target": [], "time": []}, "edge": {"target": [], "time": []}}, "mouseout": {"state": {"target": ["10", "0", "0"], "time": [28, 1239, 1487]}, "edge": {"target": [], "time": []}}}, "displayed_time": "15.67", "trialTime": 27032, "trial_type": "mouselab-mdp", "trial_index": 16, "time_elapsed": 642791, "internal_node_id": "0.0-4.0-1.0-7.0"}}, {"uniqueid": "w30933428:a97421317", "current_trial": 17, "dateTime": 1691142754992, "trialdata": {"revealed_states": [], "clicked_states": [], "num_clicks_accrued": [0, 0, 0, 0, 0, 0, 0, 0, 0, 0, 0, 0, 0], "stateRewards": ["", -1, -4, -1, -11, 43, 69, 39, 4, 17, -20, -82, -2, -1, 4, 8, -79, 24, -79, 11, 36, 64, 41, 2, 4, -1, 11, -79, -47, 75, -3, 63, -36, -19], "withholdReward": false, "trial_id": "mdp_trial_9", "block": "test", "trialIndex": 10, "score": 26, "costs": 0, "simulationMode": [null, null, null, null, null], "rewards": [-1, -4, -1, -11, 43], "path": ["0", "0", "1", "2", "3", "4", "5"], "rt": [411, 26, 81, 138, 164], "actions": ["up", "up", "up", "right", "up"], "actionTimes": [1334, 1861, 2457, 3105, 3770], "queries": {"click": {"state": {"target": [], "time": []}, "edge": {"target": [], "time": []}}, "mouseover": {"state": {"target": [], "time": []}, "edge": {"target": [], "time": []}}, "mouseout": {"state": {"target": ["0"], "time": [600]}, "edge": {"target": [], "time": []}}}, "displayed_time": "14.92", "trialTime": 16052, "trial_type": "mouselab-mdp", "trial_index": 17, "time_elapsed": 658974, "internal_node_id": "0.0-4.0-1.0-8.0"}}, {"uniqueid": "w30933428:a97421317", "current_trial": 18, "dateTime": 1691142784496, "trialdata": {"revealed_states": [], "clicked_states": [], "num_clicks_accrued": [0, 0, 0, 0, 0, 0, 0, 0, 0, 0, 0, 0, 0], "stateRewards": ["", 1, 4, 5, -5, 58, -80, 75, 6, 25, -39, 46, 2, -2, 4, 2, 59, 31, -22, -12, -61, 15, 72, 1, -2, -7, 8, 77, 76, -23, -7, 71, -15, -3], "withholdReward": false, "trial_id": "mdp_trial_10", "block": "test", "trialIndex": 11, "score": 62, "costs": 0, "simulationMode": [null, null, null, null, null], "rewards": [1, 4, 5, 6, 46], "path": ["0", "0", "1", "2", "3", "8", "11"], "rt": [632, 154, 1, 172, 217], "actions": ["up", "up", "up", "left", "left"], "actionTimes": [3475, 4137, 4640, 5324, 6043], "queries": {"click": {"state": {"target": [], "time": []}, "edge": {"target": [], "time": []}}, "mouseover": {"state": {"target": [], "time": []}, "edge": {"target": [], "time": []}}, "mouseout": {"state": {"target": ["0", "0", "12"], "time": [2091, 16704, 28498]}, "edge": {"target": [], "time": []}}}, "displayed_time": "16.85", "trialTime": 29370, "trial_type": "mouselab-mdp", "trial_index": 18, "time_elapsed": 688478, "internal_node_id": "0.0-4.0-1.0-9.0"}}, {"uniqueid": "w30933428:a97421317", "current_trial": 19, "dateTime": 1691142814651, "trialdata": {"revealed_states": [], "clicked_states": [], "num_clicks_accrued": [0, 0, 0, 0, 0, 0, 0, 0, 0, 0, 0, 0, 0], "stateRewards": ["", 1, 4, -4, 14, 35, 51, 19, -13, 54, 78, -74, -2, -1, -3, 13, -11, -42, -73, -15, -24, -3, -69, 2, -1, 5, 16, -27, 73, 58, 9, -60, 5, -60], "withholdReward": false, "trial_id": "mdp_trial_11", "block": "test", "trialIndex": 12, "score": 34, "costs": 0, "simulationMode": [null, null, null, null, null], "rewards": [1, 4, -4, 14, 19], "path": ["0", "0", "1", "2", "3", "4", "7"], "rt": [419, 175, 189, 417, 503], "actions": ["up", "up", "up", "right", "down"], "actionTimes": [2955, 3641, 4338, 5257, 6262], "queries": {"click": {"state": {"target": [], "time": []}, "edge": {"target": [], "time": []}}, "mouseover": {"state": {"target": [], "time": []}, "edge": {"target": [], "time": []}}, "mouseout": {"state": {"target": ["12", "23", "0", "0", "14", "13", "12", "0", "0", "13", "12", "0"], "time": [1011, 1421, 1980, 10140, 24694, 24725, 25587, 27810, 28082, 28815, 28836, 28866]}, "edge": {"target": [], "time": []}}}, "displayed_time": "16.54", "trialTime": 30014, "trial_type": "mouselab-mdp", "trial_index": 19, "time_elapsed": 718633, "internal_node_id": "0.0-4.0-1.0-10.0"}}, {"uniqueid": "w30933428:a97421317", "current_trial": 20, "dateTime": 1691142834210, "trialdata": {"revealed_states": [], "clicked_states": [], "num_clicks_accrued": [0, 0, 0, 0, 0, 0, 0, 0, 0, 0, 0, 0, 0], "stateRewards": ["", -1, 4, 3, 12, -27, 34, -33, 3, -63, 1, 6, 2, 2, -6, -11, -77, -85, 68, -6, 51, 81, -60, -2, -2, 1, 15, 20, 15, 68, -10, -14, 6, -4], "withholdReward": false, "trial_id": "mdp_trial_12", "block": "test", "trialIndex": 13, "score": 32, "costs": 0, "simulationMode": [null, null, null, null, null], "rewards": [-2, -2, 1, 15, 20], "path": ["0", "0", "23", "24", "25", "26", "27"], "rt": [1130, 2, 258, 49, 327], "actions": ["left", "left", "left", "up", "up"], "actionTimes": [2086, 2591, 3365, 3915, 4748], "queries": {"click": {"state": {"target": [], "time": []}, "edge": {"target": [], "time": []}}, "mouseover": {"state": {"target": [], "time": []}, "edge": {"target": [], "time": []}}, "mouseout": {"state": {"target": ["0", "17", "20", "14", "13"], "time": [6597, 6619, 14409, 14582, 14652]}, "edge": {"target": [], "time": []}}}, "displayed_time": "14.96", "trialTime": 19420, "trial_type": "mouselab-mdp", "trial_index": 20, "time_elapsed": 738192, "internal_node_id": "0.0-4.0-1.0-11.0"}}, {"uniqueid": "w30933428:a97421317", "current_trial": 21, "dateTime": 1691142851973, "trialdata": {"revealed_states": [], "clicked_states": [], "num_clicks_accrued": [0, 0, 0, 0, 0, 0, 0, 0, 0, 0, 0, 0, 0], "stateRewards": ["", 2, -1, -1, 7, 11, -40, -22, -2, 69, 37, 8, -2, 4, -8, -12, -2, -72, -3, -12, 17, 63, 12, 1, 3, -7, 6, 25, 61, 61, -9, 28, -17, 27], "withholdReward": false, "trial_id": "mdp_trial_13", "block": "test", "trialIndex": 14, "score": 45, "costs": 0, "simulationMode": [null, null, null, null, null], "rewards": [-2, 4, -8, -12, 63], "path": ["0", "0", "12", "13", "14", "19", "21"], "rt": [1115, 256, 412, 373, 382], "actions": ["right", "right", "right", "down", "down"], "actionTimes": [1930, 2691, 3606, 4486, 5377], "queries": {"click": {"state": {"target": [], "time": []}, "edge": {"target": [], "time": []}}, "mouseover": {"state": {"target": [], "time": []}, "edge": {"target": [], "time": []}}, "mouseout": {"state": {"target": ["0", "1", "0", "0"], "time": [11, 304, 615, 16890]}, "edge": {"target": [], "time": []}}}, "displayed_time": "14.82", "trialTime": 17612, "trial_type": "mouselab-mdp", "trial_index": 21, "time_elapsed": 755955, "internal_node_id": "0.0-4.0-1.0-12.0"}}, {"uniqueid": "w30933428:a97421317", "current_trial": 22, "dateTime": 1691142873021, "trialdata": {"revealed_states": [], "clicked_states": [], "num_clicks_accrued": [0, 0, 0, 0, 0, 0, 0, 0, 0, 0, 0, 0, 0], "stateRewards": ["", 1, -4, -6, -1, -21, 17, -72, 10, 77, 67, -46, -1, 4, -2, 14, -66, -49, -45, -15, -52, 23, -67, 2, -2, -2, 15, -3, 45, -64, 5, -44, 83, 61], "withholdReward": false, "trial_id": "mdp_trial_14", "block": "test", "trialIndex": 15, "score": 64, "costs": 0, "simulationMode": [null, null, null, null, null], "rewards": [2, -2, -2, 5, 61], "path": ["0", "0", "23", "24", "25", "30", "33"], "rt": [704, 94, 624, 122, 138], "actions": ["left", "left", "left", "down", "left"], "actionTimes": [2912, 3511, 4644, 5275, 5931], "queries": {"click": {"state": {"target": [], "time": []}, "edge": {"target": [], "time": []}}, "mouseover": {"state": {"target": [], "time": []}, "edge": {"target": [], "time": []}}, "mouseout": {"state": {"target": [], "time": []}, "edge": {"target": [], "time": []}}}, "displayed_time": "16.21", "trialTime": 20903, "trial_type": "mouselab-mdp", "trial_index": 22, "time_elapsed": 777002, "internal_node_id": "0.0-4.0-1.0-13.0"}}, {"uniqueid": "w30933428:a97421317", "current_trial": 23, "dateTime": 1691142891698, "trialdata": {"revealed_states": [], "clicked_states": [], "num_clicks_accrued": [0, 0, 0, 0, 0, 0, 0, 0, 0, 0, 0, 0, 0], "stateRewards": ["", -1, -2, -1, -10, -57, 73, -72, -16, 75, -14, -46, -2, -3, -7, -1, -61, -60, 76, -4, 50, 4, 14, 2, 2, -7, 12, -65, -32, 15, -8, -76, -25, -61], "withholdReward": false, "trial_id": "mdp_trial_15", "block": "test", "trialIndex": 16, "score": -71, "costs": 0, "simulationMode": [null, null, null, null, null], "rewards": [-1, -2, -1, -10, -57], "path": ["0", "0", "1", "2", "3", "4", "5"], "rt": [462, 162, 51, 159, 67], "actions": ["up", "up", "up", "right", "up"], "actionTimes": [1777, 2449, 3013, 3680, 4249], "queries": {"click": {"state": {"target": [], "time": []}, "edge": {"target": [], "time": []}}, "mouseover": {"state": {"target": [], "time": []}, "edge": {"target": [], "time": []}}, "mouseout": {"state": {"target": ["0"], "time": [17762]}, "edge": {"target": [], "time": []}}}, "displayed_time": "15.32", "trialTime": 18531, "trial_type": "mouselab-mdp", "trial_index": 23, "time_elapsed": 795679, "internal_node_id": "0.0-4.0-1.0-14.0"}}, {"uniqueid": "w30933428:a97421317", "current_trial": 24, "dateTime": 1691142908438, "trialdata": {"revealed_states": [], "clicked_states": [], "num_clicks_accrued": [0, 0, 0, 0, 0, 0, 0, 0, 0, 0, 0, 0, 0], "stateRewards": ["", 2, -3, -4, -1, 25, -16, 16, 10, -71, -20, -55, 1, 3, -4, -9, 1, 32, 11, -6, 32, -50, -41, -1, 4, 4, -8, 7, -81, 70, 2, -52, 45, -10], "withholdReward": false, "trial_id": "mdp_trial_16", "block": "test", "trialIndex": 17, "score": -82, "costs": 0, "simulationMode": [null, null, null, null, null], "rewards": [-1, 4, 4, -8, -81], "path": ["0", "0", "23", "24", "25", "26", "28"], "rt": [694, 111, 144, 145, 101], "actions": ["left", "left", "left", "up", "right"], "actionTimes": [1856, 2472, 3118, 3765, 4379], "queries": {"click": {"state": {"target": [], "time": []}, "edge": {"target": [], "time": []}}, "mouseover": {"state": {"target": [], "time": []}, "edge": {"target": [], "time": []}}, "mouseout": {"state": {"target": [], "time": []}, "edge": {"target": [], "time": []}}}, "displayed_time": "15.16", "trialTime": 16589, "trial_type": "mouselab-mdp", "trial_index": 24, "time_elapsed": 812419, "internal_node_id": "0.0-4.0-1.0-15.0"}}, {"uniqueid": "w30933428:a97421317", "current_trial": 25, "dateTime": 1691142929739, "trialdata": {"revealed_states": [], "clicked_states": [], "num_clicks_accrued": [0, 0, 0, 0, 0, 0, 0, 0, 0, 0, 0, 0, 0], "stateRewards": ["", 1, 1, 1, -3, -7, -1, -41, -10, 20, -72, -63, 1, -4, -2, 2, -66, 30, -84, -2, 49, 23, 71, -1, -4, 4, -12, 67, 5, 18, -16, 88, 56, -5], "withholdReward": false, "trial_id": "mdp_trial_17", "block": "test", "trialIndex": 18, "score": 71, "costs": 0, "simulationMode": [null, null, null, null, null], "rewards": [-1, -4, 4, -16, 88], "path": ["0", "0", "23", "24", "25", "30", "31"], "rt": [653, 9, 89, 6, 122], "actions": ["left", "left", "left", "down", "right"], "actionTimes": [1792, 2304, 2904, 3412, 4051], "queries": {"click": {"state": {"target": [], "time": []}, "edge": {"target": [], "time": []}}, "mouseover": {"state": {"target": [], "time": []}, "edge": {"target": [], "time": []}}, "mouseout": {"state": {"target": ["0"], "time": [20347]}, "edge": {"target": [], "time": []}}}, "displayed_time": "15.14", "trialTime": 21151, "trial_type": "mouselab-mdp", "trial_index": 25, "time_elapsed": 833720, "internal_node_id": "0.0-4.0-1.0-16.0"}}, {"uniqueid": "w30933428:a97421317", "current_trial": 26, "dateTime": 1691142951613, "trialdata": {"revealed_states": [], "clicked_states": [], "num_clicks_accrued": [0, 0, 0, 0, 0, 0, 0, 0, 0, 0, 0, 0, 0], "stateRewards": ["", -2, 1, -3, -16, -39, -52, 30, -7, -41, -59, 11, 2, 1, 8, 2, -11, -26, -42, -13, 87, -59, -48, -1, -1, -1, 16, -79, 31, 50, -1, -84, 34, -82], "withholdReward": false, "trial_id": "mdp_trial_18", "block": "test", "trialIndex": 19, "score": 30, "costs": 0, "simulationMode": [null, null, null, null, null], "rewards": [-1, -1, -1, -1, 34], "path": ["0", "0", "23", "24", "25", "30", "32"], "rt": [619, 54, 4, 41, 118], "actions": ["left", "left", "left", "down", "down"], "actionTimes": [2465, 3022, 3539, 4091, 4723], "queries": {"click": {"state": {"target": [], "time": []}, "edge": {"target": [], "time": []}}, "mouseover": {"state": {"target": [], "time": []}, "edge": {"target": [], "time": []}}, "mouseout": {"state": {"target": ["0", "12", "13", "14", "17", "13", "12"], "time": [5921, 5938, 5953, 5961, 19797, 20068, 21379]}, "edge": {"target": [], "time": []}}}, "displayed_time": "15.85", "trialTime": 21718, "trial_type": "mouselab-mdp", "trial_index": 26, "time_elapsed": 855594, "internal_node_id": "0.0-4.0-1.0-17.0"}}, {"uniqueid": "w30933428:a97421317", "current_trial": 27, "dateTime": 1691142968403, "trialdata": {"revealed_states": [], "clicked_states": [], "num_clicks_accrued": [0, 0, 0, 0, 0, 0, 0, 0, 0, 0, 0, 0, 0], "stateRewards": ["", 1, -3, 4, 13, -72, 52, 5, 5, -58, 5, 14, 2, 1, 3, -14, -86, -4, 73, 6, -58, -50, 49, 2, -3, -4, 2, 33, -41, 42, -11, 81, 45, 53], "withholdReward": false, "trial_id": "mdp_trial_19", "block": "test", "trialIndex": 20, "score": 37, "costs": 0, "simulationMode": [null, null, null, null, null], "rewards": [2, -3, -4, -11, 53], "path": ["0", "0", "23", "24", "25", "30", "33"], "rt": [596, 29, 126, 18, 126], "actions": ["left", "left", "left", "down", "left"], "actionTimes": [1280, 1812, 2450, 2971, 3611], "queries": {"click": {"state": {"target": [], "time": []}, "edge": {"target": [], "time": []}}, "mouseover": {"state": {"target": [], "time": []}, "edge": {"target": [], "time": []}}, "mouseout": {"state": {"target": ["0", "13", "7", "2", "10"], "time": [4590, 4607, 15925, 15956, 16027]}, "edge": {"target": [], "time": []}}}, "displayed_time": "14.69", "trialTime": 16639, "trial_type": "mouselab-mdp", "trial_index": 27, "time_elapsed": 872384, "internal_node_id": "0.0-4.0-1.0-18.0"}}, {"uniqueid": "w30933428:a97421317", "current_trial": 28, "dateTime": 1691142987888, "trialdata": {"revealed_states": [], "clicked_states": [], "num_clicks_accrued": [0, 0, 0, 0, 0, 0, 0, 0, 0, 0, 0, 0, 0], "stateRewards": ["", 1, 4, 5, 8, -55, -11, 8, 16, -37, 77, -22, -2, 3, -8, -10, 45, 87, -67, 4, 17, -33, -22, -1, -3, 7, 6, -39, -85, 75, -1, 7, -48, 45], "withholdReward": false, "trial_id": "mdp_trial_20", "block": "test", "trialIndex": 21, "score": 84, "costs": 0, "simulationMode": [null, null, null, null, null], "rewards": [-1, -3, 7, 6, 75], "path": ["0", "0", "23", "24", "25", "26", "29"], "rt": [696, 125, 17, 124, 19], "actions": ["left", "left", "left", "up", "left"], "actionTimes": [1289, 1916, 2437, 3078, 3599], "queries": {"click": {"state": {"target": [], "time": []}, "edge": {"target": [], "time": []}}, "mouseover": {"state": {"target": [], "time": []}, "edge": {"target": [], "time": []}}, "mouseout": {"state": {"target": ["1", "0", "12", "13", "14", "16", "7", "2", "10", "2", "7", "16", "1"], "time": [184, 5449, 5465, 5481, 5497, 18235, 18257, 18273, 18377, 18401, 18417, 18441, 18984]}, "edge": {"target": [], "time": []}}}, "displayed_time": "14.60", "trialTime": 19321, "trial_type": "mouselab-mdp", "trial_index": 28, "time_elapsed": 891870, "internal_node_id": "0.0-4.0-1.0-19.0"}}, {"uniqueid": "w30933428:a97421317", "current_trial": 29, "dateTime": 1691143007500, "trialdata": {"revealed_states": [], "clicked_states": [], "num_clicks_accrued": [0, 0, 0, 0, 0, 0, 0, 0, 0, 0, 0, 0, 0], "stateRewards": ["", 1, -1, 4, -2, -75, -75, 84, -9, -60, -79, 59, 2, -4, 8, 9, -17, -82, 80, 14, -4, 49, 49, -1, 3, 6, -11, -33, 34, 55, 9, -57, 5, 59], "withholdReward": false, "trial_id": "mdp_trial_21", "block": "test", "trialIndex": 22, "score": -36, "costs": 0, "simulationMode": [null, null, null, null, null], "rewards": [-1, 3, 6, -11, -33], "path": ["0", "0", "23", "24", "25", "26", "27"], "rt": [939, 196, 42, 95, 22], "actions": ["left", "left", "left", "up", "up"], "actionTimes": [1498, 2205, 2756, 3362, 3897], "queries": {"click": {"state": {"target": [], "time": []}, "edge": {"target": [], "time": []}}, "mouseover": {"state": {"target": ["0"], "time": [569]}, "edge": {"target": [], "time": []}}, "mouseout": {"state": {"target": ["1", "0", "12", "13", "14", "16", "7", "2", "10", "10", "2"], "time": [173, 573, 5773, 5780, 5788, 18814, 18828, 18835, 18851, 19015, 19043]}, "edge": {"target": [], "time": []}}}, "displayed_time": "14.56", "trialTime": 19416, "trial_type": "mouselab-mdp", "trial_index": 29, "time_elapsed": 911482, "internal_node_id": "0.0-4.0-1.0-20.0"}}, {"uniqueid": "w30933428:a97421317", "current_trial": 30, "dateTime": 1691143026236, "trialdata": {"revealed_states": [], "clicked_states": [], "num_clicks_accrued": [0, 0, 0, 0, 0, 0, 0, 0, 0, 0, 0, 0, 0], "stateRewards": ["", -1, -3, -6, -2, -7, 80, -45, -3, -38, -72, 76, 2, 1, 7, 4, -62, 14, -74, 14, -87, -21, -88, -2, 1, -7, -10, 66, 56, -76, 10, -29, -72, -70], "withholdReward": false, "trial_id": "mdp_trial_22", "block": "test", "trialIndex": 23, "score": 38, "costs": 0, "simulationMode": [null, null, null, null, null], "rewards": [-2, 1, -7, -10, 56], "path": ["0", "0", "23", "24", "25", "26", "28"], "rt": [730, 80, 70, 384, 155], "actions": ["left", "left", "left", "up", "right"], "actionTimes": [1473, 2062, 2638, 3531, 4191], "queries": {"click": {"state": {"target": [], "time": []}, "edge": {"target": [], "time": []}}, "mouseover": {"state": {"target": [], "time": []}, "edge": {"target": [], "time": []}}, "mouseout": {"state": {"target": ["7", "0", "12", "13", "17", "15", "17"], "time": [207, 5527, 5535, 5545, 17447, 17625, 17711]}, "edge": {"target": [], "time": []}}}, "displayed_time": "14.74", "trialTime": 18507, "trial_type": "mouselab-mdp", "trial_index": 30, "time_elapsed": 930218, "internal_node_id": "0.0-4.0-1.0-21.0"}}, {"uniqueid": "w30933428:a97421317", "current_trial": 31, "dateTime": 1691143043132, "trialdata": {"revealed_states": [], "clicked_states": [], "num_clicks_accrued": [0, 0, 0, 0, 0, 0, 0, 0, 0, 0, 0, 0, 0], "stateRewards": ["", -2, -2, -7, -13, -10, 49, -68, -1, 84, 70, 88, 1, 4, 4, 12, -57, 25, 30, 8, -1, -77, 57, 2, 3, 2, 3, -18, -80, 23, -15, -41, 70, 11], "withholdReward": false, "trial_id": "mdp_trial_23", "block": "test", "trialIndex": 24, "score": 58, "costs": 0, "simulationMode": [null, null, null, null, null], "rewards": [-2, -2, -7, -1, 70], "path": ["0", "0", "1", "2", "3", "8", "10"], "rt": [696, 99, 129, 61, 152], "actions": ["up", "up", "up", "left", "down"], "actionTimes": [1451, 2056, 2688, 3252, 3911], "queries": {"click": {"state": {"target": [], "time": []}, "edge": {"target": [], "time": []}}, "mouseover": {"state": {"target": [], "time": []}, "edge": {"target": [], "time": []}}, "mouseout": {"state": {"target": ["17", "15", "13", "12", "0", "12", "13", "15", "18"], "time": [260, 292, 372, 428, 5086, 5102, 5110, 16317, 16535]}, "edge": {"target": [], "time": []}}}, "displayed_time": "14.76", "trialTime": 16697, "trial_type": "mouselab-mdp", "trial_index": 31, "time_elapsed": 947114, "internal_node_id": "0.0-4.0-1.0-22.0"}}, {"uniqueid": "w30933428:a97421317", "current_trial": 32, "dateTime": 1691143059994, "trialdata": {"revealed_states": [], "clicked_states": [], "num_clicks_accrued": [0, 0, 0, 0, 0, 0, 0, 0, 0, 0, 0, 0, 0], "stateRewards": ["", -1, 1, 6, -6, 70, 66, 67, -16, -75, -35, 37, -1, 4, 4, -6, 47, -9, 63, 15, 21, -63, 13, 1, 3, -6, 10, 79, -29, 18, -15, 9, -67, -19], "withholdReward": false, "trial_id": "mdp_trial_24", "block": "test", "trialIndex": 25, "score": 27, "costs": 0, "simulationMode": [null, null, null, null, null], "rewards": [-1, 1, 6, -16, 37], "path": ["0", "0", "1", "2", "3", "8", "11"], "rt": [623, 125, 140, 127, 92], "actions": ["up", "up", "up", "left", "left"], "actionTimes": [1302, 1928, 2570, 3197, 3791], "queries": {"click": {"state": {"target": [], "time": []}, "edge": {"target": [], "time": []}}, "mouseover": {"state": {"target": [], "time": []}, "edge": {"target": [], "time": []}}, "mouseout": {"state": {"target": ["16", "18", "12", "0", "12", "13", "14", "17", "5"], "time": [17, 63, 124, 4987, 5008, 5024, 5048, 5139, 16272]}, "edge": {"target": [], "time": []}}}, "displayed_time": "14.68", "trialTime": 16659, "trial_type": "mouselab-mdp", "trial_index": 32, "time_elapsed": 963976, "internal_node_id": "0.0-4.0-1.0-23.0"}}, {"uniqueid": "w30933428:a97421317", "current_trial": 33, "dateTime": 1691143173090, "trialdata": {"revealed_states": [], "clicked_states": ["9"], "num_clicks_accrued": [0, 0, 0, 0, 0, 0, 0, 0, 0, 0, 0, 0, 0], "stateRewards": ["", 2, 3, -2, -8, -8, -41, 74, 15, -23, -80, 1, 1, 3, 3, -15, -63, -78, 67, 13, 75, -41, 86, 2, -2, 6, -3, -8, -49, 50, -6, 83, 74, 80], "withholdReward": false, "trial_id": "mdp_trial_25", "block": "test", "trialIndex": 26, "score": 67.6, "costs": -1.4, "simulationMode": [null, null, null, null, null], "rewards": [2, 3, -2, -8, 74], "path": ["0", "0", "1", "2", "3", "4", "7"], "rt": [4395, 38, 265, 528, 314], "actions": ["up", "up", "up", "right", "down"], "actionTimes": [4959, 5510, 6288, 7323, 8144], "queries": {"click": {"state": {"target": ["9"], "time": [1723]}, "edge": {"target": [], "time": []}}, "mouseover": {"state": {"target": ["1", "2", "3", "9", "8", "2", "1"], "time": [700, 828, 852, 1357, 2941, 3031, 3724]}, "edge": {"target": [], "time": []}}, "mouseout": {"state": {"target": ["1", "1", "2", "3", "9", "8", "2", "1", "16", "15", "12", "12", "0", "1"], "time": [22, 796, 845, 868, 2887, 2962, 3267, 4070, 9665, 110564, 110659, 110763, 111309, 112081]}, "edge": {"target": [], "time": []}}}, "displayed_time": "14.57", "trialTime": 112894, "trial_type": "mouselab-mdp", "trial_index": 33, "time_elapsed": 1077072, "internal_node_id": "0.0-4.0-1.0-24.0"}}, {"uniqueid": "w30933428:a97421317", "current_trial": 34, "dateTime": 1691143330191, "trialdata": {"revealed_states": [], "clicked_states": [], "num_clicks_accrued": [0, 0, 0, 0, 0, 0, 0, 0, 0, 0, 0, 0, 0], "stateRewards": ["", 1, -2, -8, -3, 31, -84, -55, -14, 15, -58, 17, -2, -3, 7, 7, -12, 48, 67, 4, -44, -68, 46, 2, 3, -5, -7, 76, 27, 5, 11, 57, 52, 59], "withholdReward": false, "trial_id": "mdp_trial_26", "block": "test", "trialIndex": 27, "score": -67, "costs": 0, "simulationMode": [null, null, null, null, null], "rewards": [1, -2, -8, -3, -55], "path": ["0", "0", "1", "2", "3", "4", "7"], "rt": [1044, 76, 97, 118, 63], "actions": ["up", "up", "up", "right", "down"], "actionTimes": [2215, 2801, 3403, 4024, 4590], "queries": {"click": {"state": {"target": [], "time": []}, "edge": {"target": [], "time": []}}, "mouseover": {"state": {"target": ["1", "2"], "time": [1441, 1534]}, "edge": {"target": [], "time": []}}, "mouseout": {"state": {"target": ["0", "0", "1", "2", "15", "18", "13", "14", "17", "15", "18"], "time": [460, 1416, 1486, 1566, 155824, 155843, 155984, 156003, 156447, 156502, 156575]}, "edge": {"target": [], "time": []}}}, "displayed_time": "15.17", "trialTime": 156943, "trial_type": "mouselab-mdp", "trial_index": 34, "time_elapsed": 1234173, "internal_node_id": "0.0-4.0-1.0-25.0"}}, {"uniqueid": "w30933428:a97421317", "current_trial": 35, "dateTime": 1691143730393, "trialdata": {"revealed_states": [], "clicked_states": [], "num_clicks_accrued": [0, 0, 0, 0, 0, 0, 0, 0, 0, 0, 0, 0, 0], "stateRewards": ["", -1, 1, -2, 5, 73, 15, 61, 8, 7, 38, 76, 2, 2, -4, -6, -6, -26, 43, -5, -45, -85, -35, -2, 1, -4, 15, -10, 69, 72, -11, 84, -49, -38], "withholdReward": false, "trial_id": "mdp_trial_27", "block": "test", "trialIndex": 28, "score": 64, "costs": 0, "simulationMode": [null, null, null, null, null], "rewards": [-1, 1, -2, 5, 61], "path": ["0", "0", "1", "2", "3", "4", "7"], "rt": [978, 227, 243, 61318, 86], "actions": ["up", "up", "up", "right", "down"], "actionTimes": [1394, 2137, 2883, 64706, 65305], "queries": {"click": {"state": {"target": [], "time": []}, "edge": {"target": [], "time": []}}, "mouseover": {"state": {"target": [], "time": []}, "edge": {"target": [], "time": []}}, "mouseout": {"state": {"target": ["0", "13", "13", "12", "0"], "time": [3738, 3753, 398830, 398870, 399042]}, "edge": {"target": [], "time": []}}}, "displayed_time": "65.82", "trialTime": 400040, "trial_type": "mouselab-mdp", "trial_index": 35, "time_elapsed": 1634375, "internal_node_id": "0.0-4.0-1.0-26.0"}}, {"uniqueid": "w30933428:a97421317", "current_trial": 36, "dateTime": 1691143930745, "trialdata": {"revealed_states": [], "clicked_states": [], "num_clicks_accrued": [0, 0, 0, 0, 0, 0, 0, 0, 0, 0, 0, 0, 0], "stateRewards": ["", -1, 4, -6, -5, -22, -38, -38, -2, -56, 88, 14, -1, -1, -7, -6, 61, -60, 21, 11, 57, 31, -30, -2, -2, 6, -9, -44, -70, -44, -15, 34, 16, -78], "withholdReward": false, "trial_id": "mdp_trial_28", "block": "test", "trialIndex": 29, "score": -28, "costs": 0, "simulationMode": [null, null, null, null, null], "rewards": [-1, -1, -7, 11, -30], "path": ["0", "0", "12", "13", "14", "19", "22"], "rt": [667, 105, 150, 100, 43], "actions": ["right", "right", "right", "down", "left"], "actionTimes": [2595, 3209, 3862, 4478, 5029], "queries": {"click": {"state": {"target": [], "time": []}, "edge": {"target": [], "time": []}}, "mouseover": {"state": {"target": [], "time": []}, "edge": {"target": [], "time": []}}, "mouseout": {"state": {"target": ["0", "12", "9", "9", "3"], "time": [6224, 6231, 199124, 199332, 199365]}, "edge": {"target": [], "time": []}}}, "displayed_time": "15.93", "trialTime": 200175, "trial_type": "mouselab-mdp", "trial_index": 36, "time_elapsed": 1834726, "internal_node_id": "0.0-4.0-1.0-27.0"}}, {"uniqueid": "w30933428:a97421317", "current_trial": 37, "dateTime": 1691143956827, "trialdata": {"revealed_states": [], "clicked_states": [], "num_clicks_accrued": [0, 0, 0, 0, 0, 0, 0, 0, 0, 0, 0, 0, 0], "stateRewards": ["", -2, 2, -5, -6, 10, -66, -58, -10, -11, -63, -70, -1, -4, -5, 7, 66, -64, -43, -3, 45, -37, 4, -2, -2, -6, -4, -30, 33, 43, 15, -32, -65, -59], "withholdReward": false, "trial_id": "mdp_trial_29", "block": "test", "trialIndex": 30, "score": 32, "costs": 0, "simulationMode": [null, null, null, null, null], "rewards": [-1, -4, -5, -3, 45], "path": ["0", "0", "12", "13", "14", "19", "20"], "rt": [2064, 60, 357, 791, 206], "actions": ["right", "right", "right", "down", "right"], "actionTimes": [2985, 3551, 4418, 5725, 6432], "queries": {"click": {"state": {"target": [], "time": []}, "edge": {"target": [], "time": []}}, "mouseover": {"state": {"target": [], "time": []}, "edge": {"target": [], "time": []}}, "mouseout": {"state": {"target": ["22", "0", "12", "13", "6", "4"], "time": [328, 7609, 7680, 7853, 24273, 24636]}, "edge": {"target": [], "time": []}}}, "displayed_time": "14.93", "trialTime": 25870, "trial_type": "mouselab-mdp", "trial_index": 37, "time_elapsed": 1860809, "internal_node_id": "0.0-4.0-1.0-28.0"}}, {"uniqueid": "w30933428:a97421317", "current_trial": 38, "dateTime": 1691144172185, "trialdata": {"revealed_states": [], "clicked_states": [], "num_clicks_accrued": [0, 0, 0, 0, 0, 0, 0, 0, 0, 0, 0, 0, 0], "stateRewards": ["", 1, -4, -6, 11, -20, 8, -30, 1, -38, 88, 42, 2, 3, 5, -12, -8, -74, 30, -8, 67, -19, 42, 2, -1, 4, 13, 50, -68, 2, -8, -15, 87, -46], "withholdReward": false, "trial_id": "mdp_trial_30", "block": "test", "trialIndex": 31, "score": -50, "costs": 0, "simulationMode": [null, null, null, null, null], "rewards": [2, -1, 4, 13, -68], "path": ["0", "0", "23", "24", "25", "26", "28"], "rt": [718, 80, 48, 165, 114], "actions": ["left", "left", "left", "up", "right"], "actionTimes": [1575, 2159, 2715, 3386, 4003], "queries": {"click": {"state": {"target": [], "time": []}, "edge": {"target": [], "time": []}}, "mouseover": {"state": {"target": [], "time": []}, "edge": {"target": [], "time": []}}, "mouseout": {"state": {"target": ["0", "5", "4", "16", "15", "14"], "time": [4956, 5269, 5381, 5540, 214419, 214436]}, "edge": {"target": [], "time": []}}}, "displayed_time": "14.86", "trialTime": 215190, "trial_type": "mouselab-mdp", "trial_index": 38, "time_elapsed": 2076166, "internal_node_id": "0.0-4.0-1.0-29.0"}}, {"uniqueid": "w30933428:a97421317", "current_trial": 39, "dateTime": 1691144428977, "trialdata": {"revealed_states": [], "clicked_states": [], "num_clicks_accrued": [0, 0, 0, 0, 0, 0, 0, 0, 0, 0, 0, 0, 0], "stateRewards": ["", 1, 4, 7, -16, -84, -6, -46, -12, -7, -49, -26, -1, 2, -4, 2, 22, 37, -64, 1, 88, -13, -10, 1, -4, -2, 5, 2, -10, -34, 9, 66, 55, 38], "withholdReward": false, "trial_id": "mdp_trial_31", "block": "test", "trialIndex": 32, "score": 36, "costs": 0, "simulationMode": [null, null, null, null, null], "rewards": [-1, 2, -4, 2, 37], "path": ["0", "0", "12", "13", "14", "15", "17"], "rt": [1085, 70, 5, 52, 35], "actions": ["right", "right", "right", "up", "right"], "actionTimes": [1867, 2461, 2977, 3549, 4096], "queries": {"click": {"state": {"target": [], "time": []}, "edge": {"target": [], "time": []}}, "mouseover": {"state": {"target": [], "time": []}, "edge": {"target": [], "time": []}}, "mouseout": {"state": {"target": ["23", "0"], "time": [378, 7003]}, "edge": {"target": [], "time": []}}}, "displayed_time": "14.78", "trialTime": 256493, "trial_type": "mouselab-mdp", "trial_index": 39, "time_elapsed": 2332959, "internal_node_id": "0.0-4.0-1.0-30.0"}}, {"uniqueid": "w30933428:a97421317", "current_trial": 40, "dateTime": 1691144450948, "trialdata": {"revealed_states": [], "clicked_states": [], "num_clicks_accrued": [0, 0, 0, 0, 0, 0, 0, 0, 0, 0, 0, 0, 0], "stateRewards": ["", -1, 1, -1, 2, 19, 85, -18, 2, -3, -26, 36, 2, 4, 7, -9, -18, 70, 72, -5, 35, -20, -28, 1, -2, -4, -3, -59, -11, -63, -2, -72, 59, -69], "withholdReward": false, "trial_id": "mdp_trial_32", "block": "test", "trialIndex": 33, "score": -20, "costs": 0, "simulationMode": [null, null, null, null, null], "rewards": [2, 4, 7, -5, -28], "path": ["0", "0", "12", "13", "14", "19", "22"], "rt": [1200, 34, 378, 101, 70], "actions": ["right", "right", "right", "down", "left"], "actionTimes": [2092, 2641, 3535, 4157, 4732], "queries": {"click": {"state": {"target": [], "time": []}, "edge": {"target": [], "time": []}}, "mouseover": {"state": {"target": ["1"], "time": [1132]}, "edge": {"target": [], "time": []}}, "mouseout": {"state": {"target": ["12", "1"], "time": [483, 1339]}, "edge": {"target": [], "time": []}}}, "displayed_time": "14.89", "trialTime": 21714, "trial_type": "mouselab-mdp", "trial_index": 40, "time_elapsed": 2354930, "internal_node_id": "0.0-4.0-1.0-31.0"}}, {"uniqueid": "w30933428:a97421317", "current_trial": 41, "dateTime": 1691144482775, "trialdata": {"revealed_states": [], "clicked_states": [], "num_clicks_accrued": [0, 0, 0, 0, 0, 0, 0, 0, 0, 0, 0, 0, 0], "stateRewards": ["", 2, -3, -2, 14, -4, 85, 46, 15, -28, 41, 31, -1, -1, -1, 5, 62, 79, 57, 12, -73, -64, 86, -1, 1, -3, -5, 68, 11, -32, 8, -80, -21, -56], "withholdReward": false, "trial_id": "mdp_trial_33", "block": "test", "trialIndex": 34, "score": 81, "costs": 0, "simulationMode": [null, null, null, null, null], "rewards": [-1, -1, -1, 5, 79], "path": ["0", "0", "12", "13", "14", "15", "17"], "rt": [732, 171, 926, 12, 128], "actions": ["right", "right", "right", "up", "right"], "actionTimes": [2263, 2947, 4385, 4907, 5544], "queries": {"click": {"state": {"target": [], "time": []}, "edge": {"target": [], "time": []}}, "mouseover": {"state": {"target": [], "time": []}, "edge": {"target": [], "time": []}}, "mouseout": {"state": {"target": ["13", "14"], "time": [8310, 8320]}, "edge": {"target": [], "time": []}}}, "displayed_time": "15.53", "trialTime": 31624, "trial_type": "mouselab-mdp", "trial_index": 41, "time_elapsed": 2386757, "internal_node_id": "0.0-4.0-1.0-32.0"}}, {"uniqueid": "w30933428:a97421317", "current_trial": 42, "dateTime": 1691144526688, "trialdata": {"revealed_states": [], "clicked_states": [], "num_clicks_accrued": [0, 0, 0, 0, 0, 0, 0, 0, 0, 0, 0, 0, 0], "stateRewards": ["", -1, -4, 8, 8, -68, 47, 24, -7, -61, 49, -69, -1, -1, 8, -7, 42, 1, -45, -11, 10, -63, -6, 1, 4, 6, -16, 79, -37, -58, -12, 81, 18, -53], "withholdReward": false, "trial_id": "mdp_trial_34", "block": "test", "trialIndex": 35, "score": -63, "costs": 0, "simulationMode": [null, null, null, null, null], "rewards": [1, 4, 6, -16, -58], "path": ["0", "0", "23", "24", "25", "26", "29"], "rt": [552, 296, 278, 27, 44], "actions": ["left", "left", "left", "up", "left"], "actionTimes": [1577, 2395, 3182, 3714, 4274], "queries": {"click": {"state": {"target": [], "time": []}, "edge": {"target": [], "time": []}}, "mouseover": {"state": {"target": [], "time": []}, "edge": {"target": [], "time": []}}, "mouseout": {"state": {"target": ["17", "14", "13", "12", "0", "15"], "time": [120, 144, 161, 376, 15504, 15529]}, "edge": {"target": [], "time": []}}}, "displayed_time": "15.03", "trialTime": 43715, "trial_type": "mouselab-mdp", "trial_index": 42, "time_elapsed": 2430670, "internal_node_id": "0.0-4.0-1.0-33.0"}}, {"uniqueid": "w30933428:a97421317", "current_trial": 43, "dateTime": 1691144555733, "trialdata": {"revealed_states": [], "clicked_states": [], "num_clicks_accrued": [0, 0, 0, 0, 0, 0, 0, 0, 0, 0, 0, 0, 0], "stateRewards": ["", 1, 2, -3, 6, -88, 74, -45, 7, -46, 40, -77, 1, -4, 4, 3, 22, -25, -59, 8, -83, 19, -60, -1, -1, -1, -8, 26, -29, 64, -7, -88, -51, -55], "withholdReward": false, "trial_id": "mdp_trial_35", "block": "test", "trialIndex": 36, "score": -82, "costs": 0, "simulationMode": [null, null, null, null, null], "rewards": [1, 2, -3, 6, -88], "path": ["0", "0", "1", "2", "3", "4", "5"], "rt": [716, 144, 154, 32, 4], "actions": ["up", "up", "up", "right", "up"], "actionTimes": [1440, 2096, 2759, 3298, 3816], "queries": {"click": {"state": {"target": [], "time": []}, "edge": {"target": [], "time": []}}, "mouseover": {"state": {"target": [], "time": []}, "edge": {"target": [], "time": []}}, "mouseout": {"state": {"target": ["16", "15", "13", "12", "0", "14", "13", "12"], "time": [167, 202, 329, 389, 5577, 27497, 27509, 27753]}, "edge": {"target": [], "time": []}}}, "displayed_time": "14.72", "trialTime": 28833, "trial_type": "mouselab-mdp", "trial_index": 43, "time_elapsed": 2459715, "internal_node_id": "0.0-4.0-1.0-34.0"}}, {"uniqueid": "w30933428:a97421317", "current_trial": 44, "dateTime": 1691144609510, "trialdata": {"revealed_states": [], "clicked_states": [], "num_clicks_accrued": [0, 0, 0, 0, 0, 0, 0, 0, 0, 0, 0, 0, 0], "stateRewards": ["", -1, -3, -7, -7, -76, 30, -49, 11, -70, 56, 2, 1, 4, -3, -14, -59, -83, -25, -9, -21, -67, -73, -2, 4, 4, -9, -11, -32, 60, 9, -87, 22, -64], "withholdReward": false, "trial_id": "mdp_trial_36", "block": "test", "trialIndex": 37, "score": -70, "costs": 0, "simulationMode": [null, null, null, null, null], "rewards": [-1, -3, -7, 11, -70], "path": ["0", "0", "1", "2", "3", "8", "9"], "rt": [1108, 162, 526, 4, 108], "actions": ["up", "up", "up", "left", "up"], "actionTimes": [3394, 4065, 5103, 5614, 6247], "queries": {"click": {"state": {"target": [], "time": []}, "edge": {"target": [], "time": []}}, "mouseover": {"state": {"target": ["1", "2"], "time": [2560, 2592]}, "edge": {"target": [], "time": []}}, "mouseout": {"state": {"target": ["13", "15", "17", "16", "18", "13", "12", "0", "0", "1", "2"], "time": [255, 351, 487, 1607, 1655, 1695, 1824, 1863, 2551, 2575, 2631]}, "edge": {"target": [], "time": []}}}, "displayed_time": "16.29", "trialTime": 53529, "trial_type": "mouselab-mdp", "trial_index": 44, "time_elapsed": 2513492, "internal_node_id": "0.0-4.0-1.0-35.0"}}, {"uniqueid": "w30933428:a97421317", "current_trial": 45, "dateTime": 1691144630743, "trialdata": {"revealed_states": [], "clicked_states": [], "num_clicks_accrued": [0, 0, 0, 0, 0, 0, 0, 0, 0, 0, 0, 0, 0], "stateRewards": ["", 1, 1, 5, 6, -29, -7, 3, -16, 9, -46, 65, -1, 4, -1, -16, -63, -77, -87, 8, 80, -50, 43, -1, -1, -5, 5, -38, -71, -62, 9, 81, -50, -52], "withholdReward": false, "trial_id": "mdp_trial_37", "block": "test", "trialIndex": 38, "score": -48, "costs": 0, "simulationMode": [null, null, null, null, null], "rewards": [-1, -1, -5, 9, -50], "path": ["0", "0", "23", "24", "25", "30", "32"], "rt": [776, 237, 421, 74, 88], "actions": ["left", "left", "left", "down", "down"], "actionTimes": [2981, 3723, 4650, 5236, 5829], "queries": {"click": {"state": {"target": [], "time": []}, "edge": {"target": [], "time": []}}, "mouseover": {"state": {"target": [], "time": []}, "edge": {"target": [], "time": []}}, "mouseout": {"state": {"target": ["17", "14", "13", "0", "16", "20"], "time": [1713, 1753, 1778, 6913, 6940, 19787]}, "edge": {"target": [], "time": []}}}, "displayed_time": "16.20", "trialTime": 21011, "trial_type": "mouselab-mdp", "trial_index": 45, "time_elapsed": 2534724, "internal_node_id": "0.0-4.0-1.0-36.0"}}, {"uniqueid": "w30933428:a97421317", "current_trial": 46, "dateTime": 1691144781520, "trialdata": {"revealed_states": [], "clicked_states": [], "num_clicks_accrued": [0, 0, 0, 0, 0, 0, 0, 0, 0, 0, 0, 0, 0], "stateRewards": ["", -2, -3, -5, 8, 27, 11, 43, -6, -24, -87, 69, -2, 1, 1, 9, 19, 48, -37, 9, -14, 45, 62, 1, 2, 1, 16, -81, -41, 22, 4, -6, -63, 47], "withholdReward": false, "trial_id": "mdp_trial_38", "block": "test", "trialIndex": 39, "score": 28, "costs": 0, "simulationMode": [null, null, null, null, null], "rewards": [-2, 1, 1, 9, 19], "path": ["0", "0", "12", "13", "14", "15", "16"], "rt": [727, 149, 54, 481, 134], "actions": ["right", "right", "right", "up", "up"], "actionTimes": [1774, 2429, 2995, 3980, 4619], "queries": {"click": {"state": {"target": [], "time": []}, "edge": {"target": [], "time": []}}, "mouseover": {"state": {"target": [], "time": []}, "edge": {"target": [], "time": []}}, "mouseout": {"state": {"target": ["22", "0", "18", "16", "17", "15", "18", "17"], "time": [156, 5788, 5900, 5948, 149492, 149504, 149511, 150348]}, "edge": {"target": [], "time": []}}}, "displayed_time": "15.05", "trialTime": 150504, "trial_type": "mouselab-mdp", "trial_index": 46, "time_elapsed": 2685502, "internal_node_id": "0.0-4.0-1.0-37.0"}}, {"uniqueid": "w30933428:a97421317", "current_trial": 47, "dateTime": 1691144828216, "trialdata": {"revealed_states": [], "clicked_states": [], "num_clicks_accrued": [0, 0, 0, 0, 0, 0, 0, 0, 0, 0, 0, 0, 0], "stateRewards": ["", -2, 3, -5, -7, 66, 43, -60, -4, -70, -75, 4, -1, 2, 2, -13, 54, 11, -40, -1, 77, 32, 15, -2, 3, -8, -9, -35, 83, -27, 6, -74, -34, 44], "withholdReward": false, "trial_id": "mdp_trial_39", "block": "test", "trialIndex": 40, "score": 43, "costs": 0, "simulationMode": [null, null, null, null, null], "rewards": [-2, 3, -8, 6, 44], "path": ["0", "0", "23", "24", "25", "30", "33"], "rt": [727, 11, 270, 394, 37], "actions": ["left", "left", "left", "down", "left"], "actionTimes": [2066, 2591, 3372, 4295, 4842], "queries": {"click": {"state": {"target": [], "time": []}, "edge": {"target": [], "time": []}}, "mouseover": {"state": {"target": [], "time": []}, "edge": {"target": [], "time": []}}, "mouseout": {"state": {"target": ["15", "18", "12", "15", "18", "23", "24", "2", "3", "5", "15", "18", "17"], "time": [314, 347, 682, 7203, 7215, 7259, 7443, 7522, 7548, 7571, 42475, 42901, 45980]}, "edge": {"target": [], "time": []}}}, "displayed_time": "15.34", "trialTime": 46406, "trial_type": "mouselab-mdp", "trial_index": 47, "time_elapsed": 2732198, "internal_node_id": "0.0-4.0-1.0-38.0"}}, {"uniqueid": "w30933428:a97421317", "current_trial": 48, "dateTime": 1691144865409, "trialdata": {"revealed_states": [], "clicked_states": [], "num_clicks_accrued": [0, 0, 0, 0, 0, 0, 0, 0, 0, 0, 0, 0, 0], "stateRewards": ["", -2, -3, 1, -7, 39, -67, 16, 5, -20, 73, 66, -1, 4, 5, -3, 23, -68, -87, -8, 3, -3, 17, 1, -4, -2, -13, -32, 34, 61, -5, -11, -18, 12], "withholdReward": false, "trial_id": "mdp_trial_40", "block": "test", "trialIndex": 41, "score": 74, "costs": 0, "simulationMode": [null, null, null, null, null], "rewards": [-2, -3, 1, 5, 73], "path": ["0", "0", "1", "2", "3", "8", "10"], "rt": [880, 49, 143, 116, 30], "actions": ["up", "up", "up", "left", "down"], "actionTimes": [1662, 2223, 2876, 3502, 4039], "queries": {"click": {"state": {"target": [], "time": []}, "edge": {"target": [], "time": []}}, "mouseover": {"state": {"target": [], "time": []}, "edge": {"target": [], "time": []}}, "mouseout": {"state": {"target": ["0"], "time": [5091]}, "edge": {"target": [], "time": []}}}, "displayed_time": "14.78", "trialTime": 36943, "trial_type": "mouselab-mdp", "trial_index": 48, "time_elapsed": 2769391, "internal_node_id": "0.0-4.0-1.0-39.0"}}, {"uniqueid": "w30933428:a97421317", "current_trial": 49, "dateTime": 1691144923883, "trialdata": {"rt": 58471, "response": {"Q0": "$-16 to 16", "Q1": "$-16 to $16", "Q2": "$-88 to $88", "Q3": "The cost for clicking on nodes varied between nodes.", "Q4": "Neither motivated nor unmotivated"}, "question_order": [0, 1, 2, 3, 4], "trial_id": "final_quiz_control", "trial_type": "survey-multi-choice", "trial_index": 49, "time_elapsed": 2827865, "internal_node_id": "0.0-4.0-2.0"}}, {"uniqueid": "w30933428:a97421317", "current_trial": 50, "dateTime": 1691145043971, "trialdata": {"rt": 120074, "response": {"Q0": "id go to the opposite of where the previous location of the spider ", "Q1": "i didnt really improved it i was mostly guessing where to go ", "Q2": "the difficult part was the random prices "}, "trial_id": "self_report_control", "trial_type": "survey-text", "trial_index": 50, "time_elapsed": 2947953, "internal_node_id": "0.0-4.0-3.0"}}, {"uniqueid": "w30933428:a97421317", "current_trial": 51, "dateTime": 1691145072107, "trialdata": {"rt": 28133, "response": {"gender": "male", "age": "19", "colorblind": "0", "effort": "1"}, "trial_type": "survey-html-form", "trial_index": 51, "time_elapsed": 2976089, "internal_node_id": "0.0-4.0-4.0"}}, {"uniqueid": "w30933428:a97421317", "current_trial": 52, "dateTime": 1691145113155, "trialdata": {"rt": 41045, "response": {"Q0": "it  wasnt hard nor confusing ", "Q1": "no ", "Q2": ""}, "trial_type": "survey-text", "trial_index": 52, "time_elapsed": 3017137, "internal_node_id": "0.0-4.0-5.0"}}, {"uniqueid": "w30933428:a97421317", "current_trial": 53, "dateTime": 1691145114660, "trialdata": {"rt": 1502, "stimulus": "Press 'Finish HIT' in order to reach the completion code. Once the data has been saved, you will receive the code either in this window or in the original browser window where you started the experiment.\n", "response": 0, "trial_type": "html-button-response", "trial_index": 53, "time_elapsed": 3018642, "internal_node_id": "0.0-5.0"}}, {"uniqueid": "w30933428:a97421317", "current_trial": 54, "dateTime": 1691145115674, "trialdata": {"success": true, "trial_type": "fullscreen", "trial_index": 54, "time_elapsed": 3019655, "internal_node_id": "0.0-6.0"}}], "questiondata": {"params": {"CODE": "C6DMOQA6", "MIN_TIME": 14, "inspectCost": 1, "startTime": "Fri Aug 04 2023 10:41:34 GMT+0100 (British Summer Time)", "bonusRate": 0.002, "variance": "1_2_4_8_44", "branching": "31123"}, "final_score": 295.6}, "eventdata": [{"eventtype": "initialized", "value": null, "timestamp": 1691142094539, "interval": 0}, {"eventtype": "window_resize", "value": [1536, 762], "timestamp": 1691142094539, "interval": 0}, {"eventtype": "window_resize", "value": [1536, 762], "timestamp": 1691142094860, "interval": 321}, {"eventtype": "window_resize", "value": [1536, 864], "timestamp": 1691142099489, "interval": 4629}, {"eventtype": "window_resize", "value": [1536, 762], "timestamp": 1691142191194, "interval": 91705}, {"eventtype": "focus", "value": "off", "timestamp": 1691142795530, "interval": 604336}, {"eventtype": "focus", "value": "on", "timestamp": 1691142813207, "interval": 17677}, {"eventtype": "focus", "value": "off", "timestamp": 1691142825835, "interval": 12628}, {"eventtype": "focus", "value": "on", "timestamp": 1691142833405, "interval": 7570}, {"eventtype": "focus", "value": "off", "timestamp": 1691142944898, "interval": 111493}, {"eventtype": "focus", "value": "on", "timestamp": 1691142950610, "interval": 5712}, {"eventtype": "focus", "value": "off", "timestamp": 1691142995505, "interval": 44895}, {"eventtype": "focus", "value": "on", "timestamp": 1691143007295, "interval": 11790}, {"eventtype": "focus", "value": "off", "timestamp": 1691143050163, "interval": 42868}, {"eventtype": "focus", "value": "on", "timestamp": 1691143059827, "interval": 9664}, {"eventtype": "focus", "value": "off", "timestamp": 1691143078002, "interval": 18175}, {"eventtype": "focus", "value": "on", "timestamp": 1691143172473, "interval": 94471}, {"eventtype": "focus", "value": "off", "timestamp": 1691143181947, "interval": 9474}, {"eventtype": "focus", "value": "on", "timestamp": 1691143329437, "interval": 147490}, {"eventtype": "focus", "value": "off", "timestamp": 1691143337945, "interval": 8508}, {"eventtype": "focus", "value": "on", "timestamp": 1691143394584, "interval": 56639}, {"eventtype": "focus", "value": "off", "timestamp": 1691143531042, "interval": 136458}, {"eventtype": "focus", "value": "on", "timestamp": 1691143729291, "interval": 198249}, {"eventtype": "focus", "value": "off", "timestamp": 1691143912464, "interval": 183173}, {"eventtype": "focus", "value": "on", "timestamp": 1691143930426, "interval": 17962}, {"eventtype": "focus", "value": "off", "timestamp": 1691143951688, "interval": 21262}, {"eventtype": "focus", "value": "on", "timestamp": 1691143955803, "interval": 4115}, {"eventtype": "focus", "value": "off", "timestamp": 1691143963608, "interval": 7805}, {"eventtype": "focus", "value": "on", "timestamp": 1691144171850, "interval": 208242}, {"eventtype": "focus", "value": "off", "timestamp": 1691144182295, "interval": 10445}, {"eventtype": "focus", "value": "on", "timestamp": 1691144428427, "interval": 246132}, {"eventtype": "focus", "value": "off", "timestamp": 1691144461255, "interval": 32828}, {"eventtype": "focus", "value": "on", "timestamp": 1691144464436, "interval": 3181}, {"eventtype": "focus", "value": "off", "timestamp": 1691144499103, "interval": 34667}, {"eventtype": "focus", "value": "on", "timestamp": 1691144499652, "interval": 549}, {"eventtype": "focus", "value": "off", "timestamp": 1691144535406, "interval": 35754}, {"eventtype": "focus", "value": "on", "timestamp": 1691144555130, "interval": 19724}, {"eventtype": "focus", "value": "off", "timestamp": 1691144557125, "interval": 1995}, {"eventtype": "focus", "value": "on", "timestamp": 1691144557457, "interval": 332}, {"eventtype": "focus", "value": "off", "timestamp": 1691144565165, "interval": 7708}, {"eventtype": "focus", "value": "on", "timestamp": 1691144609170, "interval": 44005}, {"eventtype": "focus", "value": "off", "timestamp": 1691144610942, "interval": 1772}, {"eventtype": "focus", "value": "on", "timestamp": 1691144611249, "interval": 307}, {"eventtype": "focus", "value": "off", "timestamp": 1691144638351, "interval": 27102}, {"eventtype": "focus", "value": "on", "timestamp": 1691144781178, "interval": 142827}, {"eventtype": "focus", "value": "off", "timestamp": 1691144800241, "interval": 19063}, {"eventtype": "focus", "value": "on", "timestamp": 1691144826099, "interval": 25858}, {"eventtype": "focus", "value": "off", "timestamp": 1691144827541, "interval": 1442}, {"eventtype": "focus", "value": "on", "timestamp": 1691144827953, "interval": 412}, {"eventtype": "focus", "value": "off", "timestamp": 1691144838758, "interval": 10805}, {"eventtype": "focus", "value": "on", "timestamp": 1691144865185, "interval": 26427}, {"eventtype": "focus", "value": "off", "timestamp": 1691144940340, "interval": 75155}, {"eventtype": "focus", "value": "on", "timestamp": 1691144947801, "interval": 7461}], "useragent": "Mozilla/5.0 (Windows NT 10.0; Win64; x64) AppleWebKit/537.36 (KHTML, like Gecko) Chrome/115.0.0.0 Safari/537.36 Edg/115.0.1901.188", "mode": "live", "id": "w30933428:a97421317", "status": "user data saved", "Beginhit": "2023-08-04 09:41:32.846459", "Beginexp": "2023-08-04 09:41:40.793492", "Endhit": "2023-08-04 10:31:56.647099", "psiturkStatus": 3, "browser": "<redacted>", "platform": "windows", "language": "en-US"}