{"condition": 0, "counterbalance": 0, "assignmentId": "a12286330", "workerId": "w72046273", "hitId": "h78868507", "currenttrial": 55, "bonus": 0, "data": [{"uniqueid": "w72046273:a12286330", "current_trial": 0, "dateTime": 1693580005669, "trialdata": {"success": true, "trial_type": "fullscreen", "trial_index": 0, "time_elapsed": 8402, "internal_node_id": "0.0-0.0"}}, {"uniqueid": "w72046273:a12286330", "current_trial": 1, "dateTime": 1693580078395, "trialdata": {"view_history": [{"page_index": 0, "viewing_time": 72716}], "rt": 72718, "trial_id": "exp_instructions_control", "trial_type": "instructions", "trial_index": 1, "time_elapsed": 81129, "internal_node_id": "0.0-1.0"}}, {"uniqueid": "w72046273:a12286330", "current_trial": 2, "dateTime": 1693580360020, "trialdata": {"view_history": [{"page_index": 0, "viewing_time": 77010}, {"page_index": 1, "viewing_time": 93076}, {"page_index": 2, "viewing_time": 60849}, {"page_index": 3, "viewing_time": 50685}], "rt": 281620, "trial_id": "mouselab_instructions_1_control", "trial_type": "instructions", "trial_index": 2, "time_elapsed": 362754, "internal_node_id": "0.0-2.0-1.0"}}, {"uniqueid": "w72046273:a12286330", "current_trial": 3, "dateTime": 1693580408882, "trialdata": {"revealed_states": [], "clicked_states": ["12", "14", "13", "16"], "num_clicks_accrued": [0, 0, 0, 0, 0, 0, 0, 0, 0, 0, 0, 0, 0], "stateRewards": ["", 10, 10, -10, 10, 10, -10, 10, -10, 10, -10, 10, 10, 10, -10, -10, 10, 10, -10, 10, -10, -10, -10, -10, 10, 10, 10, -10, 10, -10, -10, -10, 10, -10], "withholdReward": false, "trial_id": "practice_1", "block": "test", "trialIndex": 0, "score": 11.5, "costs": -2, "simulationMode": [null, null, null, null, null], "rewards": [10, 10, -10, -10, 10], "path": ["0", "0", "12", "13", "14", "15", "16"], "rt": [33636, 1809, 1109, 3479, 305], "actions": ["right", "right", "right", "up", "up"], "actionTimes": [35091, 37416, 39033, 43019, 43828], "queries": {"click": {"state": {"target": ["12", "14", "13", "16"], "time": [4961, 8626, 12298, 18667]}, "edge": {"target": [], "time": []}}, "mouseover": {"state": {"target": ["12", "0", "12", "1", "2", "3", "4", "13", "14", "14", "19", "22", "13", "13", "14", "15", "15", "16", "17", "14", "13", "22", "22", "14", "14", "13", "12"], "time": [2392, 2959, 4209, 6561, 7076, 7142, 7391, 7625, 7925, 8227, 9709, 10492, 11025, 11608, 17141, 17691, 17991, 18174, 19574, 21274, 21790, 22739, 26089, 26140, 26542, 31689, 32007]}, "edge": {"target": [], "time": []}}, "mouseout": {"state": {"target": ["0", "12", "0", "12", "1", "2", "3", "4", "13", "14", "14", "19", "22", "13", "13", "14", "15", "15", "16", "17", "14", "13", "22", "22", "14", "14", "13"], "time": [2327, 2825, 3825, 6357, 7074, 7108, 7357, 7541, 7876, 8126, 9490, 10092, 10992, 11126, 17041, 17608, 17706, 18125, 19556, 20476, 21374, 21824, 23273, 26106, 26156, 31656, 31773]}, "edge": {"target": [], "time": []}}}, "displayed_time": "44.32", "trialTime": 47698, "trial_type": "mouselab-mdp", "trial_index": 3, "time_elapsed": 411615, "internal_node_id": "0.0-2.0-2.0-0.0"}}, {"uniqueid": "w72046273:a12286330", "current_trial": 4, "dateTime": 1693580436548, "trialdata": {"revealed_states": [], "clicked_states": ["24", "2", "1", "6"], "num_clicks_accrued": [0, 0, 0, 0, 0, 0, 0, 0, 0, 0, 0, 0, 0], "stateRewards": ["", 10, 10, 10, -10, -10, 10, 10, -10, 10, -10, -10, -10, -10, 10, 10, -10, -10, -10, -10, 10, 10, 10, 10, -10, 10, -10, 10, 10, 10, -10, -10, -10, 10], "withholdReward": false, "trial_id": "practice_2", "block": "test", "trialIndex": 1, "score": 31.5, "costs": -2, "simulationMode": [null, null, null, null, null], "rewards": [10, 10, 10, -10, 10], "path": ["0", "0", "1", "2", "3", "4", "6"], "rt": [18747, 297, 81, 29, 343], "actions": ["up", "up", "up", "right", "right"], "actionTimes": [22447, 23255, 23837, 24386, 25250], "queries": {"click": {"state": {"target": ["24", "2", "1", "6"], "time": [7981, 11703, 14732, 17101]}, "edge": {"target": [], "time": []}}, "mouseover": {"state": {"target": ["1", "4", "2", "1", "23", "24", "24", "23", "1", "2", "2", "1", "1", "3", "1", "7", "4", "6", "7", "7"], "time": [4523, 5172, 5221, 5470, 6238, 6707, 7189, 9671, 9739, 10019, 10371, 13137, 13654, 13954, 14471, 16188, 16305, 16755, 19404, 19921]}, "edge": {"target": [], "time": []}}, "mouseout": {"state": {"target": ["12", "0", "1", "4", "2", "1", "23", "24", "24", "23", "1", "2", "2", "1", "1", "2", "3", "2", "1", "7", "4", "6", "7", "7"], "time": [1421, 1554, 4537, 5186, 5338, 6104, 6705, 6855, 8754, 9686, 9804, 10255, 12571, 13205, 13870, 13903, 14171, 14221, 14957, 16220, 16570, 17705, 19470, 19955]}, "edge": {"target": [], "time": []}}}, "displayed_time": "25.75", "trialTime": 27412, "trial_type": "mouselab-mdp", "trial_index": 4, "time_elapsed": 439281, "internal_node_id": "0.0-2.0-2.0-1.0"}}, {"uniqueid": "w72046273:a12286330", "current_trial": 5, "dateTime": 1693580510429, "trialdata": {"view_history": [{"page_index": 0, "viewing_time": 64460}, {"page_index": 1, "viewing_time": 9414}], "rt": 73875, "trial_id": "mouselab_instructions_2_control", "trial_type": "instructions", "trial_index": 5, "time_elapsed": 513163, "internal_node_id": "0.0-2.0-3.0"}}, {"uniqueid": "w72046273:a12286330", "current_trial": 6, "dateTime": 1693580552326, "trialdata": {"rt": 41886, "response": {"Q0": "The cost for clicking on nodes may vary between nodes.", "Q1": "The better I perform the higher my bonus will be.", "Q2": "No, the amount of cash at each node of the web may be different each time.", "Q3": "To get the highest total score.", "Q4": "Only before moving the spider.", "Q5": "3 seconds"}, "question_order": [0, 1, 2, 3, 4, 5], "correct": {"Q0": "The cost for clicking on nodes may vary between nodes.", "Q1": "The better I perform the higher my bonus will be.", "Q2": "No, the amount of cash at each node of the web may be different each time.", "Q3": "To get the highest total score.", "Q4": "Only before moving the spider.", "Q5": "3 seconds"}, "trial_id": "mouselab_quiz_control", "trial_type": "survey-multi-choice", "trial_index": 6, "time_elapsed": 555059, "internal_node_id": "0.0-2.0-4.0"}}, {"uniqueid": "w72046273:a12286330", "current_trial": 7, "dateTime": 1693580560249, "trialdata": {"rt": 7912, "response": {"Q0": "No"}, "question_order": [0], "trial_id": "repeat_check", "trial_type": "survey-multi-choice", "trial_index": 7, "time_elapsed": 562983, "internal_node_id": "0.0-4.0-0.0"}}, {"uniqueid": "w72046273:a12286330", "current_trial": 8, "dateTime": 1693580567455, "trialdata": {"rt": 7194, "stimulus": "\n<h1> Get ready to start the game! </h1>\n\nThank you for reading the instructions. Get ready start with the 40 rounds of this game.\n<br><br>\nIf you need to take a break, feel free to take one after the end of a round, before continuing to the next one.\n<br><br>\nRemember, the more money the spider gets, the bigger your bonus will be!\n<br><br>\n<div style='text-align: center;'>Press <code>space</code> to begin.</div>\n\n<br><br>\n(If, at any point, the <code>space</code> key does not take you to the next page, click once on the text and try again.)", "response": " ", "trial_id": "mdp_ready", "trial_type": "html-keyboard-response", "trial_index": 8, "time_elapsed": 570188, "internal_node_id": "0.0-6.0-0.0"}}, {"uniqueid": "w72046273:a12286330", "current_trial": 9, "dateTime": 1693580587694, "trialdata": {"revealed_states": [], "clicked_states": [], "num_clicks_accrued": [0, 0, 0, 0, 0, 0, 0, 0, 0, 0, 0, 0, 0], "stateRewards": ["", -1, -3, -7, -7, -76, 30, -49, 11, -70, 56, 2, 1, 4, -3, -14, -59, -83, -25, -9, -21, -67, -73, -2, 4, 4, -9, -11, -32, 60, 9, -87, 22, -64], "withholdReward": false, "trial_id": "mdp_trial_1", "block": "test", "trialIndex": 2, "score": 12, "costs": 0, "simulationMode": [null, null, null, null, null], "rewards": [-1, -3, -7, -7, 30], "path": ["0", "0", "1", "2", "3", "4", "6"], "rt": [7642, 272, 74, 738, 226], "actions": ["up", "up", "up", "right", "right"], "actionTimes": [10631, 11403, 11988, 13217, 13957], "queries": {"click": {"state": {"target": [], "time": []}, "edge": {"target": [], "time": []}}, "mouseover": {"state": {"target": ["12", "13", "13", "12", "2"], "time": [4010, 4096, 5278, 5331, 6447]}, "edge": {"target": [], "time": []}}, "mouseout": {"state": {"target": ["0", "12", "13", "13", "12"], "time": [3996, 4060, 4162, 5328, 6027]}, "edge": {"target": [], "time": []}}}, "displayed_time": "16.99", "trialTime": 19958, "trial_type": "mouselab-mdp", "trial_index": 9, "time_elapsed": 590427, "internal_node_id": "0.0-6.0-1.0-0.0"}}, {"uniqueid": "w72046273:a12286330", "current_trial": 10, "dateTime": 1693580621058, "trialdata": {"revealed_states": [], "clicked_states": ["3", "6", "14", "25", "27"], "num_clicks_accrued": [0, 0, 0, 0, 0, 0, 0, 0, 0, 0, 0, 0, 0], "stateRewards": ["", -2, -1, -3, -1, -78, -6, 2, -1, 22, -88, 32, 2, 2, -7, -8, -51, -17, 54, 2, -44, 54, 75, 2, -2, -8, -15, -29, 12, -67, 15, -1, -47, -47], "withholdReward": false, "trial_id": "mdp_trial_2", "block": "test", "trialIndex": 3, "score": 18, "costs": -7, "simulationMode": [null, null, null, null, null], "rewards": [-2, -1, -3, -1, 32], "path": ["0", "0", "1", "2", "3", "8", "11"], "rt": [17813, 36, 55, 265, 86], "actions": ["up", "up", "up", "left", "left"], "actionTimes": [24906, 25442, 26012, 26802, 27393], "queries": {"click": {"state": {"target": ["3", "6", "14", "25", "27"], "time": [8408, 10397, 13494, 16198, 19835]}, "edge": {"target": [], "time": []}}, "mouseover": {"state": {"target": ["1", "2", "3", "3", "4", "6", "7", "18", "15", "14", "13", "12", "23", "24", "25", "25", "28", "28", "27", "28", "23", "0"], "time": [7590, 7689, 7775, 8090, 8856, 9040, 11105, 12724, 12873, 13140, 13989, 14021, 14105, 14187, 14503, 15888, 18539, 19021, 19373, 20671, 20738, 20838]}, "edge": {"target": [], "time": []}}, "mouseout": {"state": {"target": ["2", "1", "1", "2", "3", "3", "4", "6", "7", "18", "15", "14", "13", "12", "23", "24", "25", "25", "28", "28", "27", "28", "23", "0"], "time": [1605, 1838, 7622, 7772, 7872, 8839, 8872, 10955, 11439, 12807, 12886, 13988, 14004, 14053, 14138, 14471, 14771, 18411, 18552, 19088, 20637, 20704, 20806, 20871]}, "edge": {"target": [], "time": []}}}, "displayed_time": "27.91", "trialTime": 33068, "trial_type": "mouselab-mdp", "trial_index": 10, "time_elapsed": 623791, "internal_node_id": "0.0-6.0-1.0-1.0"}}, {"uniqueid": "w72046273:a12286330", "current_trial": 11, "dateTime": 1693580640340, "trialdata": {"revealed_states": [], "clicked_states": ["3", "25", "14", "27", "16"], "num_clicks_accrued": [0, 0, 0, 0, 0, 0, 0, 0, 0, 0, 0, 0, 0], "stateRewards": ["", 2, -2, -8, 9, -20, 55, -58, 14, 42, 2, 36, 1, -3, -5, 5, -58, 57, 60, 16, 57, 30, -70, -2, 1, 3, 10, 59, 23, 77, -13, -26, 88, -72], "withholdReward": false, "trial_id": "mdp_trial_3", "block": "test", "trialIndex": 4, "score": 64, "costs": -7, "simulationMode": [null, null, null, null, null], "rewards": [-2, 1, 3, 10, 59], "path": ["0", "0", "23", "24", "25", "26", "27"], "rt": [11495, 12, 116, 124, 105], "actions": ["left", "left", "left", "up", "up"], "actionTimes": [14107, 14632, 15255, 15897, 16511], "queries": {"click": {"state": {"target": ["3", "25", "14", "27", "16"], "time": [3634, 5539, 7623, 9554, 11417]}, "edge": {"target": [], "time": []}}, "mouseover": {"state": {"target": ["1", "2", "3", "24", "25", "18", "14", "13", "12", "28", "27", "18", "15", "17", "16", "18"], "time": [3036, 3069, 3343, 4169, 4552, 6103, 6620, 8337, 8404, 8836, 9121, 10053, 10073, 10106, 10404, 12135]}, "edge": {"target": [], "time": []}}, "mouseout": {"state": {"target": ["0", "1", "2", "3", "24", "25", "18", "14", "13", "12", "28", "27", "18", "15", "17", "16", "18"], "time": [3018, 3052, 3086, 4069, 4236, 5746, 6136, 8320, 8387, 8453, 8853, 10004, 10070, 10087, 10220, 12107, 12170]}, "edge": {"target": [], "time": []}}}, "displayed_time": "17.02", "trialTime": 18985, "trial_type": "mouselab-mdp", "trial_index": 11, "time_elapsed": 643073, "internal_node_id": "0.0-6.0-1.0-2.0"}}, {"uniqueid": "w72046273:a12286330", "current_trial": 12, "dateTime": 1693580660344, "trialdata": {"revealed_states": [], "clicked_states": ["16", "9", "13", "14", "12", "15"], "num_clicks_accrued": [0, 0, 0, 0, 0, 0, 0, 0, 0, 0, 0, 0, 0], "stateRewards": ["", 2, 4, 7, 7, -79, -2, -21, -5, -53, 47, -21, 1, -3, -1, 7, 83, 7, 84, -7, 80, -37, 69, 2, -4, 5, 2, 4, -20, -30, 7, 71, 44, -81], "withholdReward": false, "trial_id": "mdp_trial_4", "block": "test", "trialIndex": 5, "score": 78.6, "costs": -8.4, "simulationMode": [null, null, null, null, null], "rewards": [1, -3, -1, 7, 83], "path": ["0", "0", "12", "13", "14", "15", "16"], "rt": [13546, 47, 8, 215, 20], "actions": ["right", "right", "right", "up", "up"], "actionTimes": [15523, 16073, 16617, 17339, 17879], "queries": {"click": {"state": {"target": ["16", "9", "13", "14", "12", "15"], "time": [3010, 5043, 7573, 9590, 11561, 13572]}, "edge": {"target": [], "time": []}}, "mouseover": {"state": {"target": ["12", "18", "16", "6", "4", "9", "8", "12", "13", "13", "14", "12", "15"], "time": [2223, 2308, 2676, 3389, 3423, 3857, 5589, 5873, 6892, 7291, 8140, 10256, 12207]}, "edge": {"target": [], "time": []}}, "mouseout": {"state": {"target": ["23", "0", "12", "18", "16", "6", "4", "9", "8", "12", "13", "13", "14", "13", "12", "15", "14"], "time": [1040, 2209, 2240, 2408, 3373, 3407, 3439, 5573, 5606, 6591, 7192, 8073, 10091, 10157, 12106, 14140, 19641]}, "edge": {"target": [], "time": []}}}, "displayed_time": "18.39", "trialTime": 19728, "trial_type": "mouselab-mdp", "trial_index": 12, "time_elapsed": 663077, "internal_node_id": "0.0-6.0-1.0-3.0"}}, {"uniqueid": "w72046273:a12286330", "current_trial": 13, "dateTime": 1693580687531, "trialdata": {"revealed_states": [], "clicked_states": ["14", "32", "27", "5", "17", "20"], "num_clicks_accrued": [0, 0, 0, 0, 0, 0, 0, 0, 0, 0, 0, 0, 0], "stateRewards": ["", -2, -3, 1, -7, 39, -67, 16, 5, -20, 73, 66, -1, 4, 5, -3, 23, -68, -87, -8, 3, -3, 17, 1, -4, -2, -13, -32, 34, 61, -5, -11, -18, 12], "withholdReward": false, "trial_id": "mdp_trial_5", "block": "test", "trialIndex": 6, "score": 58.6, "costs": -8.4, "simulationMode": [null, null, null, null, null], "rewards": [-2, -3, 1, 5, 66], "path": ["0", "0", "1", "2", "3", "8", "11"], "rt": [18929, 99, 1, 146, 122], "actions": ["up", "up", "up", "left", "left"], "actionTimes": [22405, 23010, 23529, 24207, 24849], "queries": {"click": {"state": {"target": ["14", "32", "27", "5", "17", "20"], "time": [5359, 7395, 10351, 12562, 15112, 17879]}, "edge": {"target": [], "time": []}}, "mouseover": {"state": {"target": ["12", "13", "19", "14", "13", "0", "31", "32", "24", "5", "15", "2", "10", "27", "8", "3", "5", "5", "6", "16", "17", "20"], "time": [3877, 4079, 4526, 4927, 5978, 6027, 6243, 6660, 8094, 8860, 8927, 9479, 9509, 10093, 10727, 10745, 10809, 11093, 13258, 13742, 13808, 17492]}, "edge": {"target": [], "time": []}}, "mouseout": {"state": {"target": ["13", "19", "22", "0", "12", "13", "19", "14", "13", "0", "31", "32", "24", "5", "15", "2", "10", "27", "8", "3", "5", "5", "6", "16", "17", "20"], "time": [844, 912, 2578, 3844, 3927, 4478, 4794, 5977, 5995, 6042, 6259, 8077, 8110, 8877, 8944, 9492, 9524, 10710, 10743, 10759, 10944, 13142, 13275, 13776, 15591, 19761]}, "edge": {"target": [], "time": []}}}, "displayed_time": "25.36", "trialTime": 26919, "trial_type": "mouselab-mdp", "trial_index": 13, "time_elapsed": 690264, "internal_node_id": "0.0-6.0-1.0-4.0"}}, {"uniqueid": "w72046273:a12286330", "current_trial": 14, "dateTime": 1693580723409, "trialdata": {"revealed_states": [], "clicked_states": ["9", "32", "21", "17", "29", "27", "25", "4", "5", "13", "20"], "num_clicks_accrued": [0, 0, 0, 0, 0, 0, 0, 0, 0, 0, 0, 0, 0], "stateRewards": ["", -2, -4, -6, 12, -58, -70, -80, 2, 16, -88, -62, 1, 2, -5, 11, 77, -35, -44, -5, 18, -83, 87, 1, -3, -5, 13, -44, -21, -86, 10, -52, 8, 29], "withholdReward": false, "trial_id": "mdp_trial_6", "block": "test", "trialIndex": 7, "score": -95.4, "costs": -15.400000000000002, "simulationMode": [null, null, null, null, null], "rewards": [-2, -4, -6, 12, -80], "path": ["0", "0", "1", "2", "3", "4", "7"], "rt": [27262, 103, 14, 7, 455], "actions": ["up", "up", "up", "right", "down"], "actionTimes": [30439, 31045, 31572, 32112, 33079], "queries": {"click": {"state": {"target": ["9", "32", "21", "17", "29", "27", "25", "4", "5", "13", "20"], "time": [4277, 5928, 7806, 10427, 12591, 14589, 16564, 18192, 20925, 24356, 26459]}, "edge": {"target": [], "time": []}}, "mouseover": {"state": {"target": ["1", "9", "28", "24", "31", "32", "21", "21", "19", "17", "17", "17", "18", "26", "29", "26", "27", "28", "26", "25", "24", "1", "4", "7", "18", "6", "5", "5", "4", "7", "13", "19", "20"], "time": [3528, 3743, 4660, 4674, 4706, 5114, 6607, 7106, 8192, 8257, 8489, 9924, 10857, 10924, 11190, 13324, 13807, 15606, 15922, 16058, 16973, 17277, 17590, 19289, 19992, 20155, 20222, 20357, 23589, 23607, 24124, 25523, 25939]}, "edge": {"target": [], "time": []}}, "mouseout": {"state": {"target": ["20", "22", "0", "1", "9", "28", "24", "31", "32", "21", "21", "19", "17", "17", "17", "18", "26", "29", "26", "27", "28", "26", "25", "24", "1", "4", "7", "18", "6", "5", "5", "4", "7", "13", "19"], "time": [2057, 2107, 3518, 3555, 4486, 4673, 4690, 4756, 6524, 6640, 8190, 8207, 8274, 9741, 10842, 10874, 11173, 13273, 13422, 15089, 15656, 15940, 16777, 16990, 17323, 19256, 19340, 20106, 20205, 20256, 23556, 23606, 23621, 25505, 25539]}, "edge": {"target": [], "time": []}}}, "displayed_time": "33.59", "trialTime": 35579, "trial_type": "mouselab-mdp", "trial_index": 14, "time_elapsed": 726142, "internal_node_id": "0.0-6.0-1.0-5.0"}}, {"uniqueid": "w72046273:a12286330", "current_trial": 15, "dateTime": 1693580741539, "trialdata": {"revealed_states": [], "clicked_states": ["9", "5", "20", "29"], "num_clicks_accrued": [0, 0, 0, 0, 0, 0, 0, 0, 0, 0, 0, 0, 0], "stateRewards": ["", 1, -1, 4, 5, -32, 18, 20, 6, -88, -74, 9, -2, 1, -2, -14, 34, -77, -38, -1, 80, -36, 73, 2, 3, -8, 10, -48, -73, -71, -11, -22, 20, 54], "withholdReward": false, "trial_id": "mdp_trial_7", "block": "test", "trialIndex": 8, "score": 70.4, "costs": -5.6, "simulationMode": [null, null, null, null, null], "rewards": [-2, 1, -2, -1, 80], "path": ["0", "0", "12", "13", "14", "19", "20"], "rt": [10757, 175, 24, 42, 26], "actions": ["right", "right", "right", "down", "right"], "actionTimes": [13385, 14066, 14599, 15149, 15683], "queries": {"click": {"state": {"target": ["9", "5", "20", "29"], "time": [4173, 5962, 8260, 10032]}, "edge": {"target": [], "time": []}}, "mouseover": {"state": {"target": ["10", "8", "9", "3", "5", "5", "14", "20", "23", "29", "26", "28", "12", "13", "21"], "time": [2992, 3072, 3889, 4707, 4807, 5124, 6557, 6989, 8748, 9139, 10676, 10724, 11239, 11373, 12440]}, "edge": {"target": [], "time": []}}, "mouseout": {"state": {"target": ["20", "22", "0", "10", "8", "9", "9", "3", "5", "5", "14", "20", "23", "29", "26", "28", "12", "13", "21"], "time": [1665, 1822, 2190, 3005, 3191, 4394, 4674, 4756, 4823, 6455, 6572, 8719, 8773, 10673, 10706, 10756, 11273, 11656, 12473]}, "edge": {"target": [], "time": []}}}, "displayed_time": "16.63", "trialTime": 17860, "trial_type": "mouselab-mdp", "trial_index": 15, "time_elapsed": 744272, "internal_node_id": "0.0-6.0-1.0-6.0"}}, {"uniqueid": "w72046273:a12286330", "current_trial": 16, "dateTime": 1693580759157, "trialdata": {"revealed_states": [], "clicked_states": ["9", "32", "17"], "num_clicks_accrued": [0, 0, 0, 0, 0, 0, 0, 0, 0, 0, 0, 0, 0], "stateRewards": ["", -2, 1, -5, 2, -68, 80, 33, 10, 67, -59, 20, -1, -3, 3, 14, 74, -2, 24, -16, 63, 80, 46, -1, 4, 6, 12, 83, -38, -43, -4, 43, 14, -79], "withholdReward": false, "trial_id": "mdp_trial_8", "block": "test", "trialIndex": 9, "score": 66.8, "costs": -4.199999999999999, "simulationMode": [null, null, null, null, null], "rewards": [-2, 1, -5, 10, 67], "path": ["0", "0", "1", "2", "3", "8", "9"], "rt": [8650, 160, 87, 57, 374], "actions": ["up", "up", "up", "left", "up"], "actionTimes": [10641, 11301, 11894, 12465, 13345], "queries": {"click": {"state": {"target": ["9", "32", "17"], "time": [3367, 5315, 7240]}, "edge": {"target": [], "time": []}}, "mouseover": {"state": {"target": ["1", "8", "9", "28", "24", "31", "32", "15", "17", "15", "12", "23", "3", "2"], "time": [2322, 2589, 2755, 3788, 3854, 4087, 4406, 5872, 6070, 7704, 8021, 8071, 9756, 9771]}, "edge": {"target": [], "time": []}}, "mouseout": {"state": {"target": ["0", "1", "8", "9", "28", "24", "31", "32", "15", "17", "15", "12", "23", "3", "2", "12"], "time": [2312, 2336, 2603, 3688, 3821, 3904, 4225, 5525, 5887, 7670, 7720, 8038, 8120, 9770, 9789, 16720]}, "edge": {"target": [], "time": []}}}, "displayed_time": "15.99", "trialTime": 17345, "trial_type": "mouselab-mdp", "trial_index": 16, "time_elapsed": 761890, "internal_node_id": "0.0-6.0-1.0-7.0"}}, {"uniqueid": "w72046273:a12286330", "current_trial": 17, "dateTime": 1693580777560, "trialdata": {"revealed_states": [], "clicked_states": ["5", "32"], "num_clicks_accrued": [0, 0, 0, 0, 0, 0, 0, 0, 0, 0, 0, 0, 0], "stateRewards": ["", 2, -1, -4, -13, 74, 77, 3, 2, -43, -2, -11, 2, 3, 7, 11, -26, -29, -33, -3, -3, -13, -3, 1, 3, -7, 14, -59, 33, 9, -5, 34, 79, 68], "withholdReward": false, "trial_id": "mdp_trial_9", "block": "test", "trialIndex": 10, "score": 55.2, "costs": -2.8, "simulationMode": [null, null, null, null, null], "rewards": [2, -1, -4, -13, 74], "path": ["0", "0", "1", "2", "3", "4", "5"], "rt": [4737, 37, 360, 47, 404], "actions": ["up", "up", "up", "right", "up"], "actionTimes": [6687, 7227, 8102, 8669, 9593], "queries": {"click": {"state": {"target": ["5", "32"], "time": [2959, 4859]}, "edge": {"target": [], "time": []}}, "mouseover": {"state": {"target": ["1", "7", "4", "5", "3", "24", "32", "12", "13"], "time": [2272, 2339, 2405, 2655, 3372, 3421, 3506, 5487, 5520]}, "edge": {"target": [], "time": []}}, "mouseout": {"state": {"target": ["0", "1", "7", "4", "5", "3", "24", "32", "12", "13"], "time": [1172, 2287, 2371, 2537, 3191, 3388, 3438, 5405, 5505, 5871]}, "edge": {"target": [], "time": []}}}, "displayed_time": "15.95", "trialTime": 18100, "trial_type": "mouselab-mdp", "trial_index": 17, "time_elapsed": 780294, "internal_node_id": "0.0-6.0-1.0-8.0"}}, {"uniqueid": "w72046273:a12286330", "current_trial": 18, "dateTime": 1693580798164, "trialdata": {"revealed_states": [], "clicked_states": ["32"], "num_clicks_accrued": [0, 0, 0, 0, 0, 0, 0, 0, 0, 0, 0, 0, 0], "stateRewards": ["", -1, -3, -7, -4, -85, -70, 79, 8, 84, -66, 42, 2, -2, -3, -16, -54, -66, 68, -3, 21, -14, 7, -2, -1, -3, -8, 75, 80, 86, -7, -84, 73, -16], "withholdReward": false, "trial_id": "mdp_trial_10", "block": "test", "trialIndex": 11, "score": 58.6, "costs": -1.4, "simulationMode": [null, null, null, null, null], "rewards": [-2, -1, -3, -7, 73], "path": ["0", "0", "23", "24", "25", "30", "32"], "rt": [4185, 15, 45, 1, 140], "actions": ["left", "left", "left", "down", "down"], "actionTimes": [7216, 7744, 8307, 8830, 9484], "queries": {"click": {"state": {"target": ["32"], "time": [4465]}, "edge": {"target": [], "time": []}}, "mouseover": {"state": {"target": ["1", "1", "31", "32", "12", "18", "16", "16"], "time": [3445, 3595, 3744, 4046, 5127, 5145, 5176, 5412]}, "edge": {"target": [], "time": []}}, "mouseout": {"state": {"target": ["1", "1", "31", "32", "12", "18", "16", "16"], "time": [3510, 3611, 3911, 4531, 5144, 5159, 5226, 18710]}, "edge": {"target": [], "time": []}}}, "displayed_time": "17.03", "trialTime": 20259, "trial_type": "mouselab-mdp", "trial_index": 18, "time_elapsed": 800897, "internal_node_id": "0.0-6.0-1.0-9.0"}}, {"uniqueid": "w72046273:a12286330", "current_trial": 19, "dateTime": 1693580816185, "trialdata": {"revealed_states": [], "clicked_states": ["9", "32", "17", "29"], "num_clicks_accrued": [0, 0, 0, 0, 0, 0, 0, 0, 0, 0, 0, 0, 0], "stateRewards": ["", 1, 4, 5, 8, -55, -11, 8, 16, -37, 77, -22, -2, 3, -8, -10, 45, 87, -67, 4, 17, -33, -22, -1, -3, 7, 6, -39, -85, 75, -1, 7, -48, 45], "withholdReward": false, "trial_id": "mdp_trial_11", "block": "test", "trialIndex": 12, "score": 64.4, "costs": -5.6, "simulationMode": [null, null, null, null, null], "rewards": [-2, 3, -8, -10, 87], "path": ["0", "0", "12", "13", "14", "15", "17"], "rt": [9716, 4, 261, 397, 127], "actions": ["right", "right", "right", "up", "right"], "actionTimes": [11501, 12028, 12798, 13719, 14362], "queries": {"click": {"state": {"target": ["9", "32", "17", "29"], "time": [2800, 4714, 6902, 8877]}, "edge": {"target": [], "time": []}}, "mouseover": {"state": {"target": ["10", "8", "9", "8", "28", "24", "31", "32", "17", "15", "28", "26", "29", "1", "13"], "time": [2151, 2200, 2521, 3169, 3200, 3219, 3236, 3434, 5536, 7437, 7485, 7504, 7986, 9368, 9735]}, "edge": {"target": [], "time": []}}, "mouseout": {"state": {"target": ["14", "0", "10", "8", "9", "8", "28", "24", "31", "32", "17", "15", "28", "26", "29", "1", "13"], "time": [818, 2106, 2185, 2235, 3167, 3185, 3217, 3234, 3273, 5086, 7435, 7451, 7501, 7537, 9319, 9384, 9769]}, "edge": {"target": [], "time": []}}}, "displayed_time": "15.79", "trialTime": 17723, "trial_type": "mouselab-mdp", "trial_index": 19, "time_elapsed": 818918, "internal_node_id": "0.0-6.0-1.0-10.0"}}, {"uniqueid": "w72046273:a12286330", "current_trial": 20, "dateTime": 1693580837520, "trialdata": {"revealed_states": [], "clicked_states": ["5", "29", "21", "17", "33", "32", "11"], "num_clicks_accrued": [0, 0, 0, 0, 0, 0, 0, 0, 0, 0, 0, 0, 0], "stateRewards": ["", -2, 1, -8, 12, -65, -79, 16, 7, -80, -17, -45, -2, 2, -5, -2, -85, 23, -4, -7, 48, 27, -76, 2, 3, 5, 2, 43, 71, -13, 7, -49, 59, -31], "withholdReward": false, "trial_id": "mdp_trial_12", "block": "test", "trialIndex": 13, "score": 66.2, "costs": -9.8, "simulationMode": [null, null, null, null, null], "rewards": [2, 3, 5, 7, 59], "path": ["0", "0", "23", "24", "25", "30", "32"], "rt": [14560, 2, 219, 190, 145], "actions": ["left", "left", "left", "down", "down"], "actionTimes": [16707, 17216, 17968, 18670, 19326], "queries": {"click": {"state": {"target": ["5", "29", "21", "17", "33", "32", "11"], "time": [3200, 5044, 6756, 8649, 10482, 12425, 14725]}, "edge": {"target": [], "time": []}}, "mouseover": {"state": {"target": ["1", "2", "5", "8", "27", "29", "26", "0", "22", "21", "19", "14", "17", "15", "23", "30", "33", "32", "23", "2", "3", "9", "11", "10"], "time": [2451, 2471, 2861, 3610, 3693, 3977, 5480, 5546, 5578, 5962, 7364, 7382, 7445, 9163, 9211, 9229, 9862, 11627, 12911, 13313, 13345, 13613, 13893, 15277]}, "edge": {"target": [], "time": []}}, "mouseout": {"state": {"target": ["0", "1", "2", "5", "8", "27", "29", "26", "0", "22", "21", "19", "14", "17", "15", "23", "30", "33", "32", "23", "2", "3", "9", "11", "10"], "time": [1777, 2465, 2481, 3545, 3627, 3877, 5478, 5495, 5562, 5596, 7362, 7379, 7395, 9161, 9177, 9227, 9244, 11144, 12827, 12927, 13328, 13445, 13627, 15245, 15293]}, "edge": {"target": [], "time": []}}}, "displayed_time": "19.85", "trialTime": 21037, "trial_type": "mouselab-mdp", "trial_index": 20, "time_elapsed": 840253, "internal_node_id": "0.0-6.0-1.0-11.0"}}, {"uniqueid": "w72046273:a12286330", "current_trial": 21, "dateTime": 1693580856640, "trialdata": {"revealed_states": [], "clicked_states": ["6", "11", "32", "20", "17", "29"], "num_clicks_accrued": [0, 0, 0, 0, 0, 0, 0, 0, 0, 0, 0, 0, 0], "stateRewards": ["", 1, -4, -4, 8, 1, -79, 68, -10, -79, 8, -74, -1, -3, -6, 14, 43, 23, 9, 5, -51, 63, 61, -2, 4, 6, -10, 69, -32, 57, 15, -80, -80, -77], "withholdReward": false, "trial_id": "mdp_trial_13", "block": "test", "trialIndex": 14, "score": 46.6, "costs": -8.4, "simulationMode": [null, null, null, null, null], "rewards": [-2, 4, 6, -10, 57], "path": ["0", "0", "23", "24", "25", "26", "29"], "rt": [13321, 13, 367, 71, 2], "actions": ["left", "left", "left", "up", "left"], "actionTimes": [15017, 15537, 16440, 17030, 17543], "queries": {"click": {"state": {"target": ["6", "11", "32", "20", "17", "29"], "time": [3000, 4917, 6649, 8547, 10549, 12080]}, "edge": {"target": [], "time": []}}, "mouseover": {"state": {"target": ["1", "2", "6", "4", "3", "8", "11", "32", "32", "21", "20", "17", "18", "1", "28", "29", "27", "28"], "time": [2308, 2339, 2692, 3355, 3374, 3405, 3474, 5781, 6275, 7339, 7656, 8989, 11004, 11022, 11055, 11355, 12919, 14255]}, "edge": {"target": [], "time": []}}, "mouseout": {"state": {"target": ["0", "1", "2", "6", "4", "3", "8", "11", "32", "32", "21", "20", "17", "18", "1", "28", "29", "27", "28"], "time": [1361, 2322, 2372, 3072, 3372, 3389, 3442, 5130, 5972, 7239, 7605, 8906, 10978, 11020, 11038, 11070, 12298, 14245, 14270]}, "edge": {"target": [], "time": []}}}, "displayed_time": "18.06", "trialTime": 18820, "trial_type": "mouselab-mdp", "trial_index": 21, "time_elapsed": 859374, "internal_node_id": "0.0-6.0-1.0-12.0"}}, {"uniqueid": "w72046273:a12286330", "current_trial": 22, "dateTime": 1693580874087, "trialdata": {"revealed_states": [], "clicked_states": ["5", "29", "20"], "num_clicks_accrued": [0, 0, 0, 0, 0, 0, 0, 0, 0, 0, 0, 0, 0], "stateRewards": ["", -2, 4, -7, -3, -76, 39, -28, 10, 14, 12, 60, 2, -3, 6, -10, 88, -34, -41, -3, 72, -13, -56, 1, 3, 2, 8, -51, 23, -57, 1, 14, -46, -16], "withholdReward": false, "trial_id": "mdp_trial_14", "block": "test", "trialIndex": 15, "score": 69.8, "costs": -4.199999999999999, "simulationMode": [null, null, null, null, null], "rewards": [2, -3, 6, -3, 72], "path": ["0", "0", "12", "13", "14", "19", "20"], "rt": [7925, 102, 35, 32, 10], "actions": ["right", "right", "right", "down", "right"], "actionTimes": [10182, 10790, 11337, 11870, 12399], "queries": {"click": {"state": {"target": ["5", "29", "20"], "time": [3277, 5232, 7243]}, "edge": {"target": [], "time": []}}, "mouseover": {"state": {"target": ["6", "5", "29", "25", "24", "22", "19", "20", "17"], "time": [2772, 2869, 4353, 5685, 5709, 5786, 6102, 6386, 8103]}, "edge": {"target": [], "time": []}}, "mouseout": {"state": {"target": ["0", "6", "5", "29", "25", "24", "22", "19", "20", "17"], "time": [1900, 2818, 3635, 5450, 5705, 5725, 5818, 6119, 7636, 16987]}, "edge": {"target": [], "time": []}}}, "displayed_time": "16.26", "trialTime": 17164, "trial_type": "mouselab-mdp", "trial_index": 22, "time_elapsed": 876820, "internal_node_id": "0.0-6.0-1.0-13.0"}}, {"uniqueid": "w72046273:a12286330", "current_trial": 23, "dateTime": 1693580891350, "trialdata": {"revealed_states": [], "clicked_states": ["5", "17"], "num_clicks_accrued": [0, 0, 0, 0, 0, 0, 0, 0, 0, 0, 0, 0, 0], "stateRewards": ["", -1, 1, -6, -1, 80, 23, 2, -11, 73, -81, 59, 1, 3, 5, -1, -26, 28, -3, 16, -59, -13, -50, -2, -2, 2, 15, -50, 86, 17, -4, 37, 35, 44], "withholdReward": false, "trial_id": "mdp_trial_15", "block": "test", "trialIndex": 16, "score": 70.2, "costs": -2.8, "simulationMode": [null, null, null, null, null, null], "rewards": [-1, 1, -6, -1, 80], "path": ["0", "0", "1", "2", "3", "4", "5"], "rt": [6115, 316, 115, 91, 20, 16], "actions": ["up", "up", "up", "up", "right", "up"], "actionTimes": [7626, 7945, 8574, 9170, 9710, 10225], "queries": {"click": {"state": {"target": ["5", "17"], "time": [4255, 6139]}, "edge": {"target": [], "time": []}}, "mouseover": {"state": {"target": ["1", "7", "7", "2", "5", "17"], "time": [2025, 2224, 2441, 3124, 3842, 5157]}, "edge": {"target": [], "time": []}}, "mouseout": {"state": {"target": ["14", "13", "1", "7", "7", "2", "5"], "time": [691, 740, 2157, 2256, 2472, 3742, 4723]}, "edge": {"target": [], "time": []}}}, "displayed_time": "15.51", "trialTime": 16933, "trial_type": "mouselab-mdp", "trial_index": 23, "time_elapsed": 894084, "internal_node_id": "0.0-6.0-1.0-14.0"}}, {"uniqueid": "w72046273:a12286330", "current_trial": 24, "dateTime": 1693580908563, "trialdata": {"revealed_states": [], "clicked_states": ["9", "17"], "num_clicks_accrued": [0, 0, 0, 0, 0, 0, 0, 0, 0, 0, 0, 0, 0], "stateRewards": ["", -2, 3, 8, -9, 59, 41, -50, -1, 82, 66, 33, 2, -2, 7, 8, 1, -38, 12, -16, 24, -37, 67, 1, 4, -2, 5, 35, -83, 28, 8, -27, 69, -64], "withholdReward": false, "trial_id": "mdp_trial_16", "block": "test", "trialIndex": 17, "score": 87.2, "costs": -2.8, "simulationMode": [null, null, null, null, null], "rewards": [-2, 3, 8, -1, 82], "path": ["0", "0", "1", "2", "3", "8", "9"], "rt": [4999, 268, 476, 94, 33], "actions": ["up", "up", "up", "left", "up"], "actionTimes": [6766, 7542, 8516, 9117, 9657], "queries": {"click": {"state": {"target": ["9", "17"], "time": [3018, 5008]}, "edge": {"target": [], "time": []}}, "mouseover": {"state": {"target": ["1", "2", "9", "4", "17"], "time": [2120, 2188, 2607, 3456, 4356]}, "edge": {"target": [], "time": []}}, "mouseout": {"state": {"target": ["17", "14", "13", "12", "0", "1", "2", "9", "4"], "time": [739, 770, 820, 872, 2102, 2153, 2221, 3422, 3471]}, "edge": {"target": [], "time": []}}}, "displayed_time": "15.77", "trialTime": 16894, "trial_type": "mouselab-mdp", "trial_index": 24, "time_elapsed": 911296, "internal_node_id": "0.0-6.0-1.0-15.0"}}, {"uniqueid": "w72046273:a12286330", "current_trial": 25, "dateTime": 1693580926016, "trialdata": {"revealed_states": [], "clicked_states": ["9", "20"], "num_clicks_accrued": [0, 0, 0, 0, 0, 0, 0, 0, 0, 0, 0, 0, 0], "stateRewards": ["", -1, -2, -1, -10, -57, 73, -72, -16, 75, -14, -46, -2, -3, -7, -1, -61, -60, 76, -4, 50, 4, 14, 2, 2, -7, 12, -65, -32, 15, -8, -76, -25, -61], "withholdReward": false, "trial_id": "mdp_trial_17", "block": "test", "trialIndex": 18, "score": 52.2, "costs": -2.8, "simulationMode": [null, null, null, null, null], "rewards": [-1, -2, -1, -16, 75], "path": ["0", "0", "1", "2", "3", "8", "9"], "rt": [5956, 128, 140, 32, 345], "actions": ["up", "up", "up", "left", "up"], "actionTimes": [8062, 8710, 9371, 9913, 10775], "queries": {"click": {"state": {"target": ["9", "20"], "time": [3386, 5486]}, "edge": {"target": [], "time": []}}, "mouseover": {"state": {"target": ["1", "2", "9", "4", "14", "20", "14", "13"], "time": [2664, 2696, 3107, 3895, 4330, 4730, 6078, 6129]}, "edge": {"target": [], "time": []}}, "mouseout": {"state": {"target": ["17", "12", "0", "1", "2", "9", "4", "14", "20", "14", "13", "15"], "time": [713, 1330, 2572, 2678, 2713, 3864, 3913, 4348, 6047, 6095, 6196, 13281]}, "edge": {"target": [], "time": []}}}, "displayed_time": "16.11", "trialTime": 17124, "trial_type": "mouselab-mdp", "trial_index": 25, "time_elapsed": 928749, "internal_node_id": "0.0-6.0-1.0-16.0"}}, {"uniqueid": "w72046273:a12286330", "current_trial": 26, "dateTime": 1693580944641, "trialdata": {"revealed_states": [], "clicked_states": ["6", "9", "21", "17", "33"], "num_clicks_accrued": [0, 0, 0, 0, 0, 0, 0, 0, 0, 0, 0, 0, 0], "stateRewards": ["", -1, 4, -8, 12, 14, 69, -8, 5, -72, -14, 56, -1, -1, -1, 9, 67, 19, 11, -9, -88, -58, 3, 2, -4, -8, 4, 62, 77, -74, 5, -31, 65, 88], "withholdReward": false, "trial_id": "mdp_trial_18", "block": "test", "trialIndex": 19, "score": 76, "costs": -7, "simulationMode": [null, null, null, null, null], "rewards": [2, -4, -8, 5, 88], "path": ["0", "0", "23", "24", "25", "30", "33"], "rt": [12457, 76, 2, 83, 28], "actions": ["left", "left", "left", "down", "left"], "actionTimes": [14491, 15074, 15602, 16199, 16743], "queries": {"click": {"state": {"target": ["6", "9", "21", "17", "33"], "time": [3026, 5170, 7226, 9969, 12377]}, "edge": {"target": [], "time": []}}, "mouseover": {"state": {"target": ["7", "6", "4", "9", "2", "22", "21", "21", "19", "17", "18", "26", "29", "33", "30", "12"], "time": [2465, 2613, 3532, 3829, 5664, 5712, 5746, 6197, 7748, 9730, 10448, 10796, 10813, 11447, 12880, 12962]}, "edge": {"target": [], "time": []}}, "mouseout": {"state": {"target": ["7", "6", "4", "9", "2", "22", "21", "21", "19", "17", "18", "26", "29", "33", "30"], "time": [2495, 3498, 3562, 5662, 5680, 5730, 5779, 7730, 7797, 10446, 10463, 10812, 10846, 12587, 12897]}, "edge": {"target": [], "time": []}}}, "displayed_time": "17.26", "trialTime": 18302, "trial_type": "mouselab-mdp", "trial_index": 26, "time_elapsed": 947374, "internal_node_id": "0.0-6.0-1.0-17.0"}}, {"uniqueid": "w72046273:a12286330", "current_trial": 27, "dateTime": 1693580965155, "trialdata": {"revealed_states": [], "clicked_states": ["9", "21", "32", "18", "28"], "num_clicks_accrued": [0, 0, 0, 0, 0, 0, 0, 0, 0, 0, 0, 0, 0], "stateRewards": ["", 2, -1, -1, 7, 11, -40, -22, -2, 69, 37, 8, -2, 4, -8, -12, -2, -72, -3, -12, 17, 63, 12, 1, 3, -7, 6, 25, 61, 61, -9, 28, -17, 27], "withholdReward": false, "trial_id": "mdp_trial_19", "block": "test", "trialIndex": 20, "score": 60, "costs": -7, "simulationMode": [null, null, null, null, null], "rewards": [2, -1, -1, -2, 69], "path": ["0", "0", "1", "2", "3", "8", "9"], "rt": [13022, 120, 238, 299, 220], "actions": ["up", "up", "up", "left", "up"], "actionTimes": [14465, 15074, 15826, 16636, 17374], "queries": {"click": {"state": {"target": ["9", "21", "32", "18", "28"], "time": [2404, 4912, 7075, 8912, 11491]}, "edge": {"target": [], "time": []}}, "mouseover": {"state": {"target": ["1", "8", "9", "3", "13", "21", "32", "16", "15", "18", "25", "28", "0"], "time": [1670, 1719, 1752, 2836, 2919, 3570, 6036, 7720, 7901, 8303, 9753, 11101, 12302]}, "edge": {"target": [], "time": []}}, "mouseout": {"state": {"target": ["12", "0", "1", "8", "9", "3", "13", "21", "32", "16", "15", "18", "25", "28"], "time": [699, 1651, 1689, 1736, 2612, 2853, 2937, 5419, 7469, 7802, 8267, 9618, 10960, 12185]}, "edge": {"target": [], "time": []}}}, "displayed_time": "17.89", "trialTime": 20189, "trial_type": "mouselab-mdp", "trial_index": 27, "time_elapsed": 967888, "internal_node_id": "0.0-6.0-1.0-18.0"}}, {"uniqueid": "w72046273:a12286330", "current_trial": 28, "dateTime": 1693580989731, "trialdata": {"revealed_states": [], "clicked_states": ["17", "5", "29", "32", "21", "20", "10"], "num_clicks_accrued": [0, 0, 0, 0, 0, 0, 0, 0, 0, 0, 0, 0, 0], "stateRewards": ["", 2, 3, -1, 16, -78, -11, 46, 2, -20, 79, -67, 2, 3, 2, 11, -83, -42, -58, -11, -67, -22, 55, 2, -1, -1, -16, -83, -82, 23, -11, -29, 13, 13], "withholdReward": false, "trial_id": "mdp_trial_20", "block": "test", "trialIndex": 21, "score": 75.2, "costs": -9.8, "simulationMode": [null, null, null, null, null], "rewards": [2, 3, -1, 2, 79], "path": ["0", "0", "1", "2", "3", "8", "10"], "rt": [16629, 46, 83, 29, 37], "actions": ["up", "up", "up", "left", "down"], "actionTimes": [19901, 20460, 21081, 21627, 22169], "queries": {"click": {"state": {"target": ["17", "5", "29", "32", "21", "20", "10"], "time": [5080, 7455, 9356, 11273, 13164, 15053, 17007]}, "edge": {"target": [], "time": []}}, "mouseover": {"state": {"target": ["15", "17", "13", "13", "17", "16", "6", "5", "8", "29", "32", "21", "20", "11", "2", "10", "28", "28", "1"], "time": [3731, 3863, 4031, 4181, 4648, 5613, 5646, 5679, 8047, 8479, 10163, 12214, 13946, 15929, 16279, 16747, 17946, 18263, 19263]}, "edge": {"target": [], "time": []}}, "mouseout": {"state": {"target": ["0", "0", "12", "13", "12", "0", "0", "15", "17", "13", "13", "17", "16", "6", "5", "8", "29", "32", "21", "20", "11", "2", "10", "28", "28", "1"], "time": [681, 1765, 1779, 1980, 2116, 2380, 3568, 3780, 3963, 4045, 4555, 5581, 5629, 5663, 8030, 8063, 9863, 11779, 13546, 15513, 16246, 16513, 17463, 17980, 19183, 19313]}, "edge": {"target": [], "time": []}}}, "displayed_time": "22.68", "trialTime": 24243, "trial_type": "mouselab-mdp", "trial_index": 28, "time_elapsed": 992464, "internal_node_id": "0.0-6.0-1.0-19.0"}}, {"uniqueid": "w72046273:a12286330", "current_trial": 29, "dateTime": 1693581021901, "trialdata": {"revealed_states": [], "clicked_states": ["9", "11", "28", "31", "21", "17", "29", "32", "16", "5"], "num_clicks_accrued": [0, 0, 0, 0, 0, 0, 0, 0, 0, 0, 0, 0, 0], "stateRewards": ["", -1, 2, -2, 5, 80, -61, -27, 12, 44, -26, -75, -2, -4, 1, -16, 42, -49, -50, 4, -44, 2, 80, -2, -2, 5, -2, 59, 10, 24, 7, -48, -86, -44], "withholdReward": false, "trial_id": "mdp_trial_21", "block": "test", "trialIndex": 22, "score": 70, "costs": -14.000000000000002, "simulationMode": [null, null, null, null, null], "rewards": [-1, 2, -2, 5, 80], "path": ["0", "0", "1", "2", "3", "4", "5"], "rt": [26089, 66, 76, 35, 380], "actions": ["up", "up", "up", "right", "up"], "actionTimes": [27942, 28519, 29112, 29655, 30550], "queries": {"click": {"state": {"target": ["9", "11", "28", "31", "21", "17", "29", "32", "16", "5"], "time": [2929, 4856, 6768, 8814, 11410, 13543, 15509, 18265, 20507, 24909]}, "edge": {"target": [], "time": []}}, "mouseover": {"state": {"target": ["10", "8", "9", "11", "26", "28", "24", "31", "12", "18", "13", "21", "19", "17", "18", "1", "28", "29", "29", "33", "32", "12", "15", "16", "22", "21", "18", "5", "6", "6"], "time": [2170, 2454, 2617, 3620, 5371, 5638, 7220, 7370, 9269, 9421, 10719, 11103, 11819, 12236, 13921, 13937, 13954, 13987, 14752, 16017, 16769, 18870, 18920, 19578, 21586, 22170, 23218, 23637, 26035, 26385]}, "edge": {"target": [], "time": []}}, "mouseout": {"state": {"target": ["10", "8", "9", "11", "26", "28", "28", "24", "31", "12", "18", "13", "21", "19", "17", "18", "1", "28", "29", "29", "33", "32", "12", "15", "16", "22", "21", "18", "5", "6"], "time": [2354, 2505, 3403, 5270, 5570, 6985, 7188, 7270, 9026, 9305, 10717, 10735, 11630, 11853, 13919, 13936, 13952, 13968, 14002, 15974, 16586, 18820, 18886, 19386, 21085, 21601, 23171, 23233, 25755, 26070]}, "edge": {"target": [], "time": []}}}, "displayed_time": "31.07", "trialTime": 31856, "trial_type": "mouselab-mdp", "trial_index": 29, "time_elapsed": 1024634, "internal_node_id": "0.0-6.0-1.0-20.0"}}, {"uniqueid": "w72046273:a12286330", "current_trial": 30, "dateTime": 1693581039281, "trialdata": {"revealed_states": [], "clicked_states": ["17", "9", "31"], "num_clicks_accrued": [0, 0, 0, 0, 0, 0, 0, 0, 0, 0, 0, 0, 0], "stateRewards": ["", 1, -3, -4, -11, -56, 61, -47, -16, -28, -9, 69, -2, -3, -4, -8, 40, -86, 59, -4, 80, 27, 54, -1, 3, -1, 8, 67, 23, 50, 6, 83, -43, -29], "withholdReward": false, "trial_id": "mdp_trial_22", "block": "test", "trialIndex": 23, "score": 85.8, "costs": -4.199999999999999, "simulationMode": [null, null, null, null, null], "rewards": [-1, 3, -1, 6, 83], "path": ["0", "0", "23", "24", "25", "30", "31"], "rt": [7720, 44, 174, 51, 26], "actions": ["left", "left", "left", "down", "right"], "actionTimes": [9409, 9974, 10669, 11230, 11773], "queries": {"click": {"state": {"target": ["17", "9", "31"], "time": [2750, 4717, 6669]}, "edge": {"target": [], "time": []}}, "mouseover": {"state": {"target": ["18", "15", "17", "16", "4", "9", "24", "32", "31", "21", "22", "13", "18"], "time": [2012, 2043, 2428, 3160, 3192, 3693, 5177, 5244, 5611, 7493, 7628, 8184, 8328]}, "edge": {"target": [], "time": []}}, "mouseout": {"state": {"target": ["6", "7", "18", "15", "17", "16", "4", "9", "24", "32", "31", "21", "22", "13"], "time": [810, 1044, 2026, 2059, 3142, 3176, 3226, 5127, 5193, 5544, 7061, 7560, 8182, 8194]}, "edge": {"target": [], "time": []}}}, "displayed_time": "15.69", "trialTime": 17079, "trial_type": "mouselab-mdp", "trial_index": 30, "time_elapsed": 1042014, "internal_node_id": "0.0-6.0-1.0-21.0"}}, {"uniqueid": "w72046273:a12286330", "current_trial": 31, "dateTime": 1693581056896, "trialdata": {"revealed_states": [], "clicked_states": ["17", "29", "9"], "num_clicks_accrued": [0, 0, 0, 0, 0, 0, 0, 0, 0, 0, 0, 0, 0], "stateRewards": ["", -1, 1, 8, -8, -49, 62, -78, 16, 28, -81, 78, -2, -3, -1, -4, 67, 49, -2, -13, -16, -39, 83, 1, -4, 4, -5, -20, 7, 84, 7, -32, -59, 19], "withholdReward": false, "trial_id": "mdp_trial_23", "block": "test", "trialIndex": 24, "score": 75.8, "costs": -4.199999999999999, "simulationMode": [null, null, null, null, null, null], "rewards": [1, -4, 4, -5, 84], "path": ["0", "0", "23", "24", "25", "26", "29"], "rt": [5642, 352, 118, 31, 83, 18], "actions": ["left", "left", "left", "left", "up", "left"], "actionTimes": [7936, 8293, 8929, 9473, 10075, 10611], "queries": {"click": {"state": {"target": ["17", "29", "9"], "time": [3330, 5360, 7257]}, "edge": {"target": [], "time": []}}, "mouseover": {"state": {"target": ["16", "17", "29", "27", "11", "9"], "time": [2659, 3024, 4206, 5941, 5974, 6290]}, "edge": {"target": [], "time": []}}, "mouseout": {"state": {"target": ["18", "16", "17", "29", "27", "11"], "time": [863, 2857, 3550, 5923, 5957, 6024]}, "edge": {"target": [], "time": []}}}, "displayed_time": "16.30", "trialTime": 17308, "trial_type": "mouselab-mdp", "trial_index": 31, "time_elapsed": 1059629, "internal_node_id": "0.0-6.0-1.0-22.0"}}, {"uniqueid": "w72046273:a12286330", "current_trial": 32, "dateTime": 1693581073801, "trialdata": {"revealed_states": [], "clicked_states": ["17", "5", "29", "31"], "num_clicks_accrued": [0, 0, 0, 0, 0, 0, 0, 0, 0, 0, 0, 0, 0], "stateRewards": ["", -2, 2, 2, -6, 9, 37, 50, -13, -7, -18, -75, -2, -4, 4, 7, 23, -57, -66, -7, -81, -48, -76, 1, 1, -8, 1, 51, -2, 70, 14, 59, 71, -37], "withholdReward": false, "trial_id": "mdp_trial_24", "block": "test", "trialIndex": 25, "score": 59.4, "costs": -5.6, "simulationMode": [null, null, null, null, null], "rewards": [1, 1, -8, 1, 70], "path": ["0", "0", "23", "24", "25", "26", "29"], "rt": [10354, 146, 124, 36, 34], "actions": ["left", "left", "left", "up", "left"], "actionTimes": [12071, 12735, 13362, 13913, 14440], "queries": {"click": {"state": {"target": ["17", "5", "29", "31"], "time": [2873, 5004, 7101, 9247]}, "edge": {"target": [], "time": []}}, "mouseover": {"state": {"target": ["18", "15", "17", "5", "29", "27", "29", "30", "31"], "time": [2072, 2120, 2437, 3638, 5937, 6222, 6554, 7737, 7804]}, "edge": {"target": [], "time": []}}, "mouseout": {"state": {"target": ["9", "8", "2", "1", "18", "15", "17", "5", "29", "27", "29", "30"], "time": [673, 686, 753, 987, 2104, 2336, 3097, 5489, 6038, 6522, 7656, 7754]}, "edge": {"target": [], "time": []}}}, "displayed_time": "15.72", "trialTime": 16563, "trial_type": "mouselab-mdp", "trial_index": 32, "time_elapsed": 1076535, "internal_node_id": "0.0-6.0-1.0-23.0"}}, {"uniqueid": "w72046273:a12286330", "current_trial": 33, "dateTime": 1693581099608, "trialdata": {"revealed_states": [], "clicked_states": ["17", "21", "11", "28", "7", "6", "5", "9", "20"], "num_clicks_accrued": [0, 0, 0, 0, 0, 0, 0, 0, 0, 0, 0, 0, 0], "stateRewards": ["", 2, -1, 5, 8, 75, -35, -77, 1, -9, -81, -58, 1, 2, -7, 5, 77, -16, 19, 16, -10, -18, 40, -2, 3, 7, -5, 64, 1, -62, 10, 27, 10, 65], "withholdReward": false, "trial_id": "mdp_trial_25", "block": "test", "trialIndex": 26, "score": 76.4, "costs": -12.600000000000001, "simulationMode": [null, null, null, null, null], "rewards": [2, -1, 5, 8, 75], "path": ["0", "0", "1", "2", "3", "4", "5"], "rt": [19299, 6, 150, 367, 25], "actions": ["up", "up", "up", "right", "up"], "actionTimes": [21032, 21552, 22210, 23092, 23616], "queries": {"click": {"state": {"target": ["17", "21", "11", "28", "7", "6", "5", "9", "20"], "time": [2709, 4574, 6476, 8390, 10396, 12570, 14491, 16314, 18560]}, "edge": {"target": [], "time": []}}, "mouseover": {"state": {"target": ["18", "15", "17", "20", "21", "11", "28", "7", "4", "5", "6", "5", "9", "18", "14", "20"], "time": [2058, 2275, 2374, 3175, 3392, 5442, 7008, 8808, 10774, 10823, 11225, 13340, 15290, 17056, 17120, 17907]}, "edge": {"target": [], "time": []}}, "mouseout": {"state": {"target": ["31", "0", "18", "15", "17", "20", "21", "11", "28", "7", "4", "5", "6", "5", "9", "18", "14", "20"], "time": [992, 1993, 2091, 2306, 3042, 3208, 4925, 6909, 8741, 10759, 10808, 10857, 13040, 14957, 16940, 17094, 17490, 25122]}, "edge": {"target": [], "time": []}}}, "displayed_time": "24.13", "trialTime": 25490, "trial_type": "mouselab-mdp", "trial_index": 33, "time_elapsed": 1102341, "internal_node_id": "0.0-6.0-1.0-24.0"}}, {"uniqueid": "w72046273:a12286330", "current_trial": 34, "dateTime": 1693581121100, "trialdata": {"revealed_states": [], "clicked_states": ["29", "31", "5", "6", "10", "21", "32"], "num_clicks_accrued": [0, 0, 0, 0, 0, 0, 0, 0, 0, 0, 0, 0, 0], "stateRewards": ["", -1, 3, -7, 16, -32, -74, -48, 2, 10, 15, -30, 1, 1, -2, 10, 12, -83, 67, 13, -66, 47, 65, -2, 4, 2, -14, -8, -57, 24, 9, 65, 12, 46], "withholdReward": false, "trial_id": "mdp_trial_26", "block": "test", "trialIndex": 27, "score": 68.2, "costs": -9.8, "simulationMode": [null, null, null, null, null], "rewards": [-2, 4, 2, 9, 65], "path": ["0", "0", "23", "24", "25", "30", "31"], "rt": [15410, 37, 115, 455, 56], "actions": ["left", "left", "left", "down", "right"], "actionTimes": [16985, 17542, 18153, 19127, 19694], "queries": {"click": {"state": {"target": ["29", "31", "5", "6", "10", "21", "32"], "time": [2585, 4655, 6746, 8602, 10545, 12806, 15178]}, "edge": {"target": [], "time": []}}, "mouseover": {"state": {"target": ["26", "29", "26", "28", "24", "31", "0", "18", "18", "4", "5", "5", "4", "6", "4", "3", "8", "11", "10", "1", "12", "22", "21", "32"], "time": [2152, 2336, 2970, 3303, 3887, 4135, 5169, 5351, 5686, 5987, 6052, 6386, 7388, 7786, 9088, 9136, 9186, 9302, 9887, 11003, 11021, 11053, 11105, 14137]}, "edge": {"target": [], "time": []}}, "mouseout": {"state": {"target": ["22", "0", "26", "29", "26", "28", "24", "31", "0", "18", "18", "4", "5", "5", "4", "6", "4", "3", "8", "11", "10", "1", "12", "22", "21"], "time": [819, 1869, 2202, 2953, 3020, 3836, 3987, 4864, 5187, 5386, 5952, 6002, 6154, 7354, 7452, 9069, 9120, 9173, 9220, 9870, 10986, 11019, 11036, 11069, 13334]}, "edge": {"target": [], "time": []}}}, "displayed_time": "20.20", "trialTime": 21147, "trial_type": "mouselab-mdp", "trial_index": 34, "time_elapsed": 1123833, "internal_node_id": "0.0-6.0-1.0-25.0"}}, {"uniqueid": "w72046273:a12286330", "current_trial": 35, "dateTime": 1693581149886, "trialdata": {"revealed_states": [], "clicked_states": ["16", "32", "9", "5", "20", "27", "29", "28", "11", "7"], "num_clicks_accrued": [0, 0, 0, 0, 0, 0, 0, 0, 0, 0, 0, 0, 0], "stateRewards": ["", 1, -1, 4, -2, -75, -75, 84, -9, -60, -79, 59, 2, -4, 8, 9, -17, -82, 80, 14, -4, 49, 49, -1, 3, 6, -11, -33, 34, 55, 9, -57, 5, 59], "withholdReward": false, "trial_id": "mdp_trial_27", "block": "test", "trialIndex": 28, "score": 72, "costs": -14.000000000000002, "simulationMode": [null, null, null, null, null], "rewards": [1, -1, 4, -2, 84], "path": ["0", "0", "1", "2", "3", "4", "7"], "rt": [21887, 19, 3, 26, 351], "actions": ["up", "up", "up", "right", "down"], "actionTimes": [23887, 24418, 24952, 25490, 26349], "queries": {"click": {"state": {"target": ["16", "32", "9", "5", "20", "27", "29", "28", "11", "7"], "time": [3072, 5166, 6973, 8690, 10606, 12600, 14552, 16609, 18679, 20726]}, "edge": {"target": [], "time": []}}, "mouseover": {"state": {"target": ["16", "25", "33", "32", "30", "25", "11", "9", "5", "15", "20", "19", "27", "26", "29", "26", "28", "24", "24", "28", "3", "8", "11", "8", "2", "7", "7", "13", "19", "21"], "time": [2832, 3481, 3513, 4029, 5583, 5601, 5663, 5729, 7664, 9229, 9979, 10998, 11463, 13345, 13596, 15046, 15162, 15346, 15711, 15779, 17329, 17430, 17596, 19196, 19229, 19248, 19963, 21512, 21596, 22129]}, "edge": {"target": [], "time": []}}, "mouseout": {"state": {"target": ["32", "31", "0", "16", "25", "33", "32", "30", "25", "11", "9", "5", "15", "20", "19", "27", "26", "29", "26", "28", "24", "24", "28", "3", "8", "11", "8", "2", "7", "7", "13", "19", "21"], "time": [863, 1046, 1446, 3413, 3496, 3530, 5581, 5598, 5613, 5678, 7430, 9179, 9246, 10996, 11013, 13314, 13513, 15029, 15111, 15194, 15529, 15729, 17062, 17346, 17546, 18893, 19212, 19245, 19296, 21346, 21561, 21978, 23210]}, "edge": {"target": [], "time": []}}}, "displayed_time": "26.87", "trialTime": 28462, "trial_type": "mouselab-mdp", "trial_index": 35, "time_elapsed": 1152620, "internal_node_id": "0.0-6.0-1.0-26.0"}}, {"uniqueid": "w72046273:a12286330", "current_trial": 36, "dateTime": 1693581167250, "trialdata": {"revealed_states": [], "clicked_states": ["9", "31", "22", "18", "27"], "num_clicks_accrued": [0, 0, 0, 0, 0, 0, 0, 0, 0, 0, 0, 0, 0], "stateRewards": ["", 1, 1, 7, -11, 80, -20, -53, -14, 3, 31, 27, 2, -1, -8, -10, 33, 41, 86, 9, 78, -37, -13, -1, -2, -6, -8, -80, 75, 4, -16, -49, -74, 24], "withholdReward": false, "trial_id": "mdp_trial_28", "block": "test", "trialIndex": 29, "score": 62, "costs": -7, "simulationMode": [null, null, null, null, null], "rewards": [2, -1, -8, -10, 86], "path": ["0", "0", "12", "13", "14", "15", "18"], "rt": [10989, 141, 36, 166, 352], "actions": ["right", "right", "right", "up", "left"], "actionTimes": [12593, 13248, 13790, 14472, 15342], "queries": {"click": {"state": {"target": ["9", "31", "22", "18", "27"], "time": [2544, 4409, 6396, 8557, 10672]}, "edge": {"target": [], "time": []}}, "mouseover": {"state": {"target": ["8", "9", "10", "24", "31", "22", "13", "18", "1", "28", "26", "29", "27", "28", "23", "21"], "time": [2072, 2254, 3037, 3238, 3454, 5189, 6804, 6871, 9037, 9071, 9087, 9121, 9472, 11336, 11387, 12004]}, "edge": {"target": [], "time": []}}, "mouseout": {"state": {"target": ["2", "0", "8", "9", "10", "24", "31", "22", "13", "18", "1", "28", "26", "29", "27", "28", "23", "21"], "time": [838, 1223, 2104, 3004, 3071, 3405, 4788, 6616, 6820, 9004, 9053, 9086, 9103, 9388, 11304, 11354, 11419, 12120]}, "edge": {"target": [], "time": []}}}, "displayed_time": "15.86", "trialTime": 17017, "trial_type": "mouselab-mdp", "trial_index": 36, "time_elapsed": 1169983, "internal_node_id": "0.0-6.0-1.0-27.0"}}, {"uniqueid": "w72046273:a12286330", "current_trial": 37, "dateTime": 1693581184455, "trialdata": {"revealed_states": [], "clicked_states": ["5", "32"], "num_clicks_accrued": [0, 0, 0, 0, 0, 0, 0, 0, 0, 0, 0, 0, 0], "stateRewards": ["", 1, 1, 4, 11, 83, -66, 18, -16, -23, 5, 25, 1, -3, 1, -12, 18, 24, -86, -11, -64, 36, 40, 2, 1, -6, 13, 55, 29, 72, -2, 81, -72, -41], "withholdReward": false, "trial_id": "mdp_trial_29", "block": "test", "trialIndex": 30, "score": 97.2, "costs": -2.8, "simulationMode": [null, null, null, null, null, null], "rewards": [1, 1, 4, 11, 83], "path": ["0", "0", "1", "2", "3", "4", "5"], "rt": [3909, 280, 95, 416, 49, 34], "actions": ["up", "up", "up", "up", "right", "up"], "actionTimes": [5540, 5824, 6428, 7373, 7931, 8481], "queries": {"click": {"state": {"target": ["5", "32"], "time": [2942, 4838]}, "edge": {"target": [], "time": []}}, "mouseover": {"state": {"target": ["1", "7", "7", "2", "3", "5", "10", "24", "32"], "time": [1897, 1945, 2113, 2315, 2331, 2678, 3346, 3380, 3779]}, "edge": {"target": [], "time": []}}, "mouseout": {"state": {"target": ["21", "0", "1", "7", "7", "2", "3", "5", "10", "24", "32", "32"], "time": [681, 1884, 1913, 2012, 2162, 2329, 2344, 3316, 3363, 3397, 5056, 16314]}, "edge": {"target": [], "time": []}}}, "displayed_time": "15.63", "trialTime": 16884, "trial_type": "mouselab-mdp", "trial_index": 37, "time_elapsed": 1187189, "internal_node_id": "0.0-6.0-1.0-28.0"}}, {"uniqueid": "w72046273:a12286330", "current_trial": 38, "dateTime": 1693581215462, "trialdata": {"revealed_states": [], "clicked_states": ["5", "27", "21", "11", "9", "32", "31", "20", "29", "33"], "num_clicks_accrued": [0, 0, 0, 0, 0, 0, 0, 0, 0, 0, 0, 0, 0], "stateRewards": ["", 1, 2, 3, 16, 63, -25, 16, -4, -14, 82, -66, -1, -3, -3, -11, -14, 19, 46, 3, -34, -82, 66, -2, -3, 4, -5, -63, 77, -37, -1, -45, -41, 84], "withholdReward": false, "trial_id": "mdp_trial_30", "block": "test", "trialIndex": 31, "score": 68, "costs": -14.000000000000002, "simulationMode": [null, null, null, null, null], "rewards": [-2, -3, 4, -1, 84], "path": ["0", "0", "23", "24", "25", "30", "33"], "rt": [24467, 24, 88, 60, 27], "actions": ["left", "left", "left", "down", "left"], "actionTimes": [27014, 27547, 28143, 28715, 29250], "queries": {"click": {"state": {"target": ["5", "27", "21", "11", "9", "32", "31", "20", "29", "33"], "time": [4055, 5965, 7923, 10996, 13003, 15180, 17277, 19579, 22003, 24042]}, "edge": {"target": [], "time": []}}, "mouseover": {"state": {"target": ["7", "4", "5", "8", "11", "27", "0", "21", "21", "20", "10", "11", "9", "8", "10", "31", "32", "31", "21", "20", "13", "12", "28", "26", "29", "33", "24", "10", "10"], "time": [2989, 3139, 3655, 4522, 4638, 5005, 6404, 6454, 7039, 8588, 10470, 10504, 11722, 13489, 13506, 13603, 14288, 15721, 18520, 19254, 20254, 20288, 20720, 20740, 21054, 22954, 24720, 24819, 25420]}, "edge": {"target": [], "time": []}}, "mouseout": {"state": {"target": ["0", "7", "4", "5", "8", "11", "27", "0", "21", "21", "20", "10", "11", "9", "8", "10", "31", "32", "31", "21", "20", "13", "12", "28", "26", "29", "33", "24", "10"], "time": [2940, 3021, 3257, 4438, 4556, 4673, 6373, 6421, 6475, 8355, 10423, 10486, 11472, 13487, 13504, 13521, 13655, 15574, 17753, 18975, 20221, 20270, 20653, 20737, 20821, 22537, 24704, 24736, 24835]}, "edge": {"target": [], "time": []}}}, "displayed_time": "29.77", "trialTime": 30650, "trial_type": "mouselab-mdp", "trial_index": 38, "time_elapsed": 1218195, "internal_node_id": "0.0-6.0-1.0-29.0"}}, {"uniqueid": "w72046273:a12286330", "current_trial": 39, "dateTime": 1693581234029, "trialdata": {"revealed_states": [], "clicked_states": ["5", "32"], "num_clicks_accrued": [0, 0, 0, 0, 0, 0, 0, 0, 0, 0, 0, 0, 0], "stateRewards": ["", -1, 3, -4, -14, 78, 67, 2, 13, -32, 28, 39, -2, 1, -4, -4, -4, -42, -86, 11, 64, -29, -32, -1, -4, 2, -7, 5, 68, -61, 2, -21, 85, 50], "withholdReward": false, "trial_id": "mdp_trial_31", "block": "test", "trialIndex": 32, "score": 59.2, "costs": -2.8, "simulationMode": [null, null, null, null, null], "rewards": [-1, 3, -4, -14, 78], "path": ["0", "0", "1", "2", "3", "4", "5"], "rt": [4619, 533, 737, 75, 379], "actions": ["up", "up", "up", "right", "up"], "actionTimes": [6056, 7099, 8354, 8941, 9828], "queries": {"click": {"state": {"target": ["5", "32"], "time": [2337, 4263]}, "edge": {"target": [], "time": []}}, "mouseover": {"state": {"target": ["7", "4", "5", "3", "10", "24", "31", "32", "31", "18"], "time": [1798, 1896, 2030, 2797, 2815, 2865, 2913, 3264, 4934, 5015]}, "edge": {"target": [], "time": []}}, "mouseout": {"state": {"target": ["10", "1", "7", "4", "5", "3", "10", "24", "31", "32", "31", "18"], "time": [730, 831, 1882, 1948, 2780, 2813, 2830, 2897, 2930, 4931, 4947, 5030]}, "edge": {"target": [], "time": []}}}, "displayed_time": "15.44", "trialTime": 18211, "trial_type": "mouselab-mdp", "trial_index": 39, "time_elapsed": 1236762, "internal_node_id": "0.0-6.0-1.0-30.0"}}, {"uniqueid": "w72046273:a12286330", "current_trial": 40, "dateTime": 1693581280063, "trialdata": {"revealed_states": [], "clicked_states": ["6", "29", "21", "9", "31", "18", "28", "27", "32", "33", "11", "10", "7", "22", "20", "17", "16", "5"], "num_clicks_accrued": [0, 0, 0, 0, 0, 0, 0, 0, 0, 0, 0, 0, 0], "stateRewards": ["", 2, -1, -2, -5, -47, -57, -33, -11, 31, -18, -72, -2, 1, -4, -8, -46, -53, -50, 15, -85, -9, 39, -2, -2, 1, 14, -1, -8, 53, -12, -41, -74, 62], "withholdReward": false, "trial_id": "mdp_trial_32", "block": "test", "trialIndex": 33, "score": 21.80000000000001, "costs": -25.199999999999992, "simulationMode": [null, null, null, null, null], "rewards": [-2, -2, 1, -12, 62], "path": ["0", "0", "23", "24", "25", "30", "33"], "rt": [40385, 179, 62, 45, 9], "actions": ["left", "left", "left", "down", "left"], "actionTimes": [41960, 42646, 43231, 43793, 44323], "queries": {"click": {"state": {"target": ["6", "29", "21", "9", "31", "18", "28", "27", "32", "33", "11", "10", "7", "22", "20", "17", "16", "5"], "time": [2831, 4766, 6668, 8550, 10707, 12694, 14742, 16798, 18927, 20976, 23450, 25610, 28068, 30113, 32371, 34702, 36758, 38957]}, "edge": {"target": [], "time": []}}, "mouseover": {"state": {"target": ["7", "4", "6", "2", "10", "28", "26", "29", "23", "22", "19", "21", "24", "8", "9", "8", "28", "24", "31", "31", "13", "14", "15", "18", "1", "28", "27", "26", "25", "30", "32", "32", "33", "25", "10", "8", "11", "2", "1", "10", "2", "7", "13", "7", "12", "22", "20", "17", "16", "5"], "time": [2136, 2199, 2432, 3217, 3235, 3333, 3450, 3601, 5167, 5216, 5249, 5850, 7598, 7648, 7698, 9002, 9101, 9120, 9182, 9502, 11284, 11304, 11600, 11648, 13166, 13265, 15449, 17218, 17249, 17281, 17598, 18265, 19715, 21418, 21482, 22966, 23131, 23999, 24499, 24748, 26085, 26099, 27482, 27814, 28563, 29064, 31315, 32897, 35233, 37682]}, "edge": {"target": [], "time": []}}, "mouseout": {"state": {"target": ["13", "0", "7", "4", "6", "2", "10", "28", "26", "29", "23", "22", "19", "21", "24", "8", "9", "9", "8", "28", "24", "31", "31", "13", "14", "15", "18", "1", "28", "27", "26", "25", "30", "32", "32", "33", "25", "10", "8", "11", "2", "1", "10", "2", "7", "13", "7", "12", "22", "22", "20", "17", "16", "5"], "time": [682, 1976, 2166, 2416, 3167, 3232, 3250, 3383, 3534, 5133, 5183, 5233, 5615, 7198, 7614, 7682, 8773, 8999, 9017, 9117, 9150, 9199, 11249, 11300, 11316, 11617, 13118, 13182, 15266, 17216, 17231, 17265, 17315, 17633, 19350, 21416, 21432, 21498, 23082, 23950, 24014, 24683, 26082, 26097, 26115, 27496, 28497, 28597, 30697, 30949, 32830, 35164, 37281, 39681]}, "edge": {"target": [], "time": []}}}, "displayed_time": "44.83", "trialTime": 45682, "trial_type": "mouselab-mdp", "trial_index": 40, "time_elapsed": 1282796, "internal_node_id": "0.0-6.0-1.0-31.0"}}, {"uniqueid": "w72046273:a12286330", "current_trial": 41, "dateTime": 1693581322272, "trialdata": {"revealed_states": [], "clicked_states": ["9", "21", "6", "29", "20", "27", "31", "33", "32", "16", "17", "5", "11"], "num_clicks_accrued": [0, 0, 0, 0, 0, 0, 0, 0, 0, 0, 0, 0, 0], "stateRewards": ["", -2, -3, -5, 8, 27, 11, 43, -6, -24, -87, 69, -2, 1, 1, 9, 19, 48, -37, 9, -14, 45, 62, 1, 2, 1, 16, -81, -41, 22, 4, -6, -63, 47], "withholdReward": false, "trial_id": "mdp_trial_33", "block": "test", "trialIndex": 34, "score": -16.2, "costs": -18.2, "simulationMode": [null, null, null, null, null], "rewards": [1, 2, 1, 4, -6], "path": ["0", "0", "23", "24", "25", "30", "31"], "rt": [32436, 2081, 524, 1470, 53], "actions": ["left", "left", "left", "down", "right"], "actionTimes": [33889, 36491, 37516, 39495, 40047], "queries": {"click": {"state": {"target": ["9", "21", "6", "29", "20", "27", "31", "33", "32", "16", "17", "5", "11"], "time": [2378, 4312, 6490, 8698, 11090, 13922, 16514, 18636, 20883, 23705, 26530, 28868, 31268]}, "edge": {"target": [], "time": []}}, "mouseover": {"state": {"target": ["1", "3", "9", "3", "13", "21", "18", "6", "6", "5", "5", "6", "2", "28", "26", "29", "23", "0", "12", "19", "20", "11", "11", "27", "0", "31", "33", "32", "12", "18", "15", "16", "17", "5", "3", "8", "11", "10"], "time": [1695, 1944, 2077, 2741, 2792, 3158, 4674, 4707, 5041, 5258, 5541, 5658, 6925, 6958, 6977, 7407, 9375, 9407, 9759, 10192, 10841, 11892, 12360, 13373, 14493, 16010, 17440, 19593, 22657, 22993, 23074, 23260, 25042, 28608, 30492, 30508, 31026, 31958]}, "edge": {"target": [], "time": []}}, "mouseout": {"state": {"target": ["0", "1", "3", "9", "3", "13", "21", "18", "6", "6", "5", "5", "6", "2", "28", "26", "29", "23", "0", "12", "19", "20", "11", "11", "27", "0", "31", "33", "32", "12", "18", "15", "16", "17", "5", "3", "8", "11"], "time": [1683, 1710, 1994, 2725, 2757, 2807, 4659, 4691, 4724, 5242, 5275, 5558, 6894, 6942, 6975, 6992, 9326, 9391, 9458, 9774, 10757, 11509, 12158, 12659, 14425, 14561, 17092, 19342, 21674, 22691, 23008, 23106, 24292, 26751, 29307, 30506, 30875, 31741]}, "edge": {"target": [], "time": []}}}, "displayed_time": "40.56", "trialTime": 41870, "trial_type": "mouselab-mdp", "trial_index": 41, "time_elapsed": 1325005, "internal_node_id": "0.0-6.0-1.0-32.0"}}, {"uniqueid": "w72046273:a12286330", "current_trial": 42, "dateTime": 1693581339964, "trialdata": {"revealed_states": [], "clicked_states": ["9", "29", "21"], "num_clicks_accrued": [0, 0, 0, 0, 0, 0, 0, 0, 0, 0, 0, 0, 0], "stateRewards": ["", -2, -4, 6, 14, -34, 49, 36, -8, -3, 32, -4, 1, -2, 1, -8, -20, -71, -57, -7, -86, -62, -16, -2, -3, -5, 11, 23, -21, 53, 5, -5, 85, 73], "withholdReward": false, "trial_id": "mdp_trial_34", "block": "test", "trialIndex": 35, "score": 49.8, "costs": -4.199999999999999, "simulationMode": [null, null, null, null, null], "rewards": [-2, -3, -5, 11, 53], "path": ["0", "0", "23", "24", "25", "26", "29"], "rt": [6978, 168, 18, 10, 400], "actions": ["left", "left", "left", "up", "left"], "actionTimes": [9499, 10172, 10707, 11228, 12152], "queries": {"click": {"state": {"target": ["9", "29", "21"], "time": [3384, 5351, 7532]}, "edge": {"target": [], "time": []}}, "mouseover": {"state": {"target": ["1", "8", "9", "28", "26", "29", "23", "12", "19", "21"], "time": [2788, 2967, 3117, 3818, 4050, 4317, 5800, 5819, 5835, 6468]}, "edge": {"target": [], "time": []}}, "mouseout": {"state": {"target": ["10", "1", "1", "8", "9", "28", "26", "29", "23", "12", "19", "21"], "time": [1688, 1784, 2804, 3035, 3735, 3970, 4167, 5574, 5817, 5834, 5851, 17169]}, "edge": {"target": [], "time": []}}}, "displayed_time": "16.53", "trialTime": 17340, "trial_type": "mouselab-mdp", "trial_index": 42, "time_elapsed": 1342697, "internal_node_id": "0.0-6.0-1.0-33.0"}}, {"uniqueid": "w72046273:a12286330", "current_trial": 43, "dateTime": 1693581356576, "trialdata": {"revealed_states": [], "clicked_states": ["5", "31", "27"], "num_clicks_accrued": [0, 0, 0, 0, 0, 0, 0, 0, 0, 0, 0, 0, 0], "stateRewards": ["", 1, 1, -2, 7, -31, -6, 76, 1, -36, -16, -53, 2, 1, 7, 13, -47, -10, 47, -7, 72, 46, -56, -2, -2, -2, 11, -80, 44, 38, 16, 67, 85, -78], "withholdReward": false, "trial_id": "mdp_trial_35", "block": "test", "trialIndex": 36, "score": 72.8, "costs": -4.199999999999999, "simulationMode": [null, null, null, null, null, null], "rewards": [-2, -2, -2, 16, 67], "path": ["0", "0", "23", "24", "25", "30", "31"], "rt": [6026, 966, 68, 61, 63, 29], "actions": ["left", "left", "left", "left", "down", "right"], "actionTimes": [7330, 8299, 8875, 9452, 10035, 10584], "queries": {"click": {"state": {"target": ["5", "31", "27"], "time": [2391, 4443, 6494]}, "edge": {"target": [], "time": []}}, "mouseover": {"state": {"target": ["1", "4", "5", "10", "31", "23", "1", "8", "11", "27", "27"], "time": [1637, 1804, 2123, 2943, 3369, 4990, 5187, 5236, 5587, 5637, 5969]}, "edge": {"target": [], "time": []}}, "mouseout": {"state": {"target": ["0", "1", "4", "5", "10", "31", "23", "1", "8", "11", "27", "27", "28", "23"], "time": [887, 1669, 1971, 2929, 2987, 4987, 5023, 5203, 5271, 5602, 5720, 11837, 11937, 12252]}, "edge": {"target": [], "time": []}}}, "displayed_time": "15.30", "trialTime": 16238, "trial_type": "mouselab-mdp", "trial_index": 43, "time_elapsed": 1359309, "internal_node_id": "0.0-6.0-1.0-34.0"}}, {"uniqueid": "w72046273:a12286330", "current_trial": 44, "dateTime": 1693581375357, "trialdata": {"revealed_states": [], "clicked_states": ["5", "32", "16"], "num_clicks_accrued": [0, 0, 0, 0, 0, 0, 0, 0, 0, 0, 0, 0, 0], "stateRewards": ["", -2, -4, -2, -13, -15, 87, -19, -6, -80, 30, 12, 1, 1, -8, 2, 55, 56, 15, 11, -68, -7, 55, -2, 3, -3, -3, 48, 62, 4, 1, -3, 69, -33], "withholdReward": false, "trial_id": "mdp_trial_36", "block": "test", "trialIndex": 37, "score": 63.8, "costs": -4.199999999999999, "simulationMode": [null, null, null, null, null, null], "rewards": [-2, 3, -3, 1, 69], "path": ["0", "0", "23", "24", "25", "30", "32"], "rt": [6226, 297, 372, 50, 67, 52], "actions": ["left", "left", "left", "left", "down", "down"], "actionTimes": [9487, 9786, 10674, 11235, 11816, 12368], "queries": {"click": {"state": {"target": ["5", "32", "16"], "time": [4901, 6975, 8933]}, "edge": {"target": [], "time": []}}, "mouseover": {"state": {"target": ["0", "1", "2", "3", "5", "3", "24", "32", "22", "17", "16"], "time": [3832, 3915, 3931, 3980, 4601, 5285, 5331, 5399, 7482, 7802, 7982]}, "edge": {"target": [], "time": []}}, "mouseout": {"state": {"target": ["0", "0", "1", "2", "3", "5", "3", "24", "32", "22", "17", "16"], "time": [3534, 3846, 3930, 3964, 4298, 5282, 5297, 5348, 7431, 7501, 7899, 13716]}, "edge": {"target": [], "time": []}}}, "displayed_time": "17.26", "trialTime": 18383, "trial_type": "mouselab-mdp", "trial_index": 44, "time_elapsed": 1378091, "internal_node_id": "0.0-6.0-1.0-35.0"}}, {"uniqueid": "w72046273:a12286330", "current_trial": 45, "dateTime": 1693581392358, "trialdata": {"revealed_states": [], "clicked_states": ["17", "9", "33", "6", "21"], "num_clicks_accrued": [0, 0, 0, 0, 0, 0, 0, 0, 0, 0, 0, 0, 0], "stateRewards": ["", 2, -1, 5, 6, 10, 86, 55, 10, -45, 63, -71, 1, -2, 5, -8, -50, -72, 36, 15, 61, 12, 33, -1, -4, 6, 5, 79, -56, -21, -16, -87, 60, -81], "withholdReward": false, "trial_id": "mdp_trial_37", "block": "test", "trialIndex": 38, "score": 91, "costs": -7, "simulationMode": [null, null, null, null, null, null], "rewards": [2, -1, 5, 6, 86], "path": ["0", "0", "1", "2", "3", "4", "6"], "rt": [9540, 221, 72, 3, 168, 63], "actions": ["up", "up", "up", "up", "right", "right"], "actionTimes": [11161, 11386, 11992, 12507, 13204, 13783], "queries": {"click": {"state": {"target": ["17", "9", "33", "6", "21"], "time": [2691, 4632, 6513, 8398, 10356]}, "edge": {"target": [], "time": []}}, "mouseover": {"state": {"target": ["18", "15", "17", "17", "16", "4", "9", "11", "26", "33", "2", "4", "6", "19", "21"], "time": [1755, 1970, 1987, 2368, 3090, 3169, 3435, 5087, 5167, 5500, 6918, 6951, 7352, 8852, 9268]}, "edge": {"target": [], "time": []}}, "mouseout": {"state": {"target": ["17", "15", "18", "18", "15", "17", "17", "16", "4", "9", "11", "26", "33", "2", "4", "6", "19"], "time": [402, 434, 789, 1770, 1986, 2002, 3086, 3103, 3302, 5085, 5118, 5235, 6886, 6935, 6968, 8610, 8868]}, "edge": {"target": [], "time": []}}}, "displayed_time": "15.62", "trialTime": 16639, "trial_type": "mouselab-mdp", "trial_index": 45, "time_elapsed": 1395091, "internal_node_id": "0.0-6.0-1.0-36.0"}}, {"uniqueid": "w72046273:a12286330", "current_trial": 46, "dateTime": 1693581428250, "trialdata": {"revealed_states": [], "clicked_states": ["6", "29", "31", "20", "11", "33", "32", "28", "27", "16", "18", "10", "17"], "num_clicks_accrued": [0, 0, 0, 0, 0, 0, 0, 0, 0, 0, 0, 0, 0], "stateRewards": ["", -1, -3, -6, 14, 41, 18, 63, -14, 80, 21, 17, -2, -4, -2, -5, 13, 70, 8, -4, -64, -10, -20, 2, -1, 4, -1, -17, -55, 42, -7, 47, 54, 15], "withholdReward": false, "trial_id": "mdp_trial_38", "block": "test", "trialIndex": 39, "score": 38.8, "costs": -18.2, "simulationMode": [null, null, null, null, null], "rewards": [-2, -4, -2, -5, 70], "path": ["0", "0", "12", "13", "14", "15", "17"], "rt": [29489, 32, 23, 111, 396], "actions": ["right", "right", "right", "up", "right"], "actionTimes": [31299, 31853, 32377, 32998, 33898], "queries": {"click": {"state": {"target": ["6", "29", "31", "20", "11", "33", "32", "28", "27", "16", "18", "10", "17"], "time": [2795, 4674, 6615, 8561, 10469, 13107, 15100, 17601, 19985, 22007, 23992, 26154, 28159]}, "edge": {"target": [], "time": []}}, "mouseover": {"state": {"target": ["6", "10", "26", "29", "25", "31", "20", "2", "11", "11", "9", "5", "28", "25", "33", "32", "30", "25", "26", "27", "28", "28", "27", "18", "15", "16", "18", "18", "7", "3", "8", "9", "8", "10", "2", "7", "15", "17", "15", "7", "4", "5", "5", "6"], "time": [2520, 3271, 3503, 3770, 5139, 5535, 7487, 9003, 9056, 9553, 10869, 11268, 12384, 12536, 12752, 13734, 15605, 15635, 15668, 15719, 16035, 16886, 19503, 20437, 20454, 21036, 22752, 23051, 24552, 24669, 24752, 25069, 25218, 25585, 26654, 26701, 27101, 27451, 28868, 29451, 29485, 29671, 29984, 30652]}, "edge": {"target": [], "time": []}}, "mouseout": {"state": {"target": ["21", "0", "6", "10", "26", "29", "29", "25", "31", "20", "2", "11", "11", "9", "5", "28", "25", "33", "33", "32", "30", "25", "26", "27", "28", "28", "27", "18", "15", "16", "18", "18", "7", "3", "8", "9", "8", "10", "2", "7", "15", "17", "15", "7", "4", "5", "5", "6"], "time": [670, 1951, 3169, 3303, 3520, 4884, 5103, 5301, 7019, 8969, 9020, 9352, 10836, 10885, 12330, 12418, 12568, 13326, 13568, 15603, 15618, 15652, 15686, 16002, 16219, 19406, 20369, 20451, 20470, 22485, 22903, 24485, 24569, 24684, 24951, 25184, 25235, 26652, 26685, 26735, 27385, 28852, 28887, 29467, 29601, 29768, 30623, 30671]}, "edge": {"target": [], "time": []}}}, "displayed_time": "34.40", "trialTime": 35550, "trial_type": "mouselab-mdp", "trial_index": 46, "time_elapsed": 1430983, "internal_node_id": "0.0-6.0-1.0-37.0"}}, {"uniqueid": "w72046273:a12286330", "current_trial": 47, "dateTime": 1693581445752, "trialdata": {"revealed_states": [], "clicked_states": ["17", "5", "32"], "num_clicks_accrued": [0, 0, 0, 0, 0, 0, 0, 0, 0, 0, 0, 0, 0], "stateRewards": ["", -1, 3, 8, 9, -53, 20, -84, 2, -28, -62, -31, -1, -2, -7, 2, 51, 58, 45, -4, -17, -41, 36, 2, -2, -7, -15, 29, -54, -37, -16, -43, 65, -17], "withholdReward": false, "trial_id": "mdp_trial_39", "block": "test", "trialIndex": 40, "score": 37.8, "costs": -4.199999999999999, "simulationMode": [null, null, null, null, null], "rewards": [2, -2, -7, -16, 65], "path": ["0", "0", "23", "24", "25", "30", "32"], "rt": [8744, 55, 47, 71, 94], "actions": ["left", "left", "left", "down", "down"], "actionTimes": [11187, 11759, 12316, 12907, 13530], "queries": {"click": {"state": {"target": ["17", "5", "32"], "time": [4233, 6339, 8357]}, "edge": {"target": [], "time": []}}, "mouseover": {"state": {"target": ["12", "17", "4", "5", "24", "32", "30", "25", "27", "26"], "time": [3135, 3786, 4902, 4935, 6888, 6938, 8903, 8935, 9368, 10702]}, "edge": {"target": [], "time": []}}, "mouseout": {"state": {"target": ["18", "12", "0", "12", "17", "4", "5", "24", "32", "30", "25", "27", "26"], "time": [1552, 1617, 3105, 3168, 4855, 4918, 6835, 6907, 8901, 8917, 8951, 10688, 10717]}, "edge": {"target": [], "time": []}}}, "displayed_time": "16.45", "trialTime": 17153, "trial_type": "mouselab-mdp", "trial_index": 47, "time_elapsed": 1448486, "internal_node_id": "0.0-6.0-1.0-38.0"}}, {"uniqueid": "w72046273:a12286330", "current_trial": 48, "dateTime": 1693581499380, "trialdata": {"revealed_states": [], "clicked_states": ["5", "17", "29", "32", "20", "21", "11", "9", "31", "33", "7", "28", "27", "10", "22", "18", "16", "6"], "num_clicks_accrued": [0, 0, 0, 0, 0, 0, 0, 0, 0, 0, 0, 0, 0], "stateRewards": ["", -1, 4, -5, 9, 29, -75, -42, -16, 24, -28, -41, 2, -3, 1, 10, 60, 47, 55, -1, -53, 22, -40, 2, -3, -6, 4, -26, 44, 54, 15, -76, 42, 14], "withholdReward": false, "trial_id": "mdp_trial_40", "block": "test", "trialIndex": 41, "score": 44.80000000000001, "costs": -25.199999999999992, "simulationMode": [null, null, null, null, null], "rewards": [2, -3, 1, 10, 60], "path": ["0", "0", "12", "13", "14", "15", "16"], "rt": [43209, 24, 229, 196, 83], "actions": ["right", "right", "right", "up", "up"], "actionTimes": [48689, 49236, 49977, 50690, 51276], "queries": {"click": {"state": {"target": ["5", "17", "29", "32", "20", "21", "11", "9", "31", "33", "7", "28", "27", "10", "22", "18", "16", "6"], "time": [6781, 8739, 10697, 13912, 16584, 18865, 21338, 23399, 25062, 27087, 29243, 31587, 34135, 36826, 39373, 41365, 43481, 46326]}, "edge": {"target": [], "time": []}}, "mouseover": {"state": {"target": ["1", "7", "5", "6", "16", "17", "15", "18", "1", "28", "26", "29", "29", "33", "32", "22", "19", "19", "20", "21", "13", "9", "11", "9", "31", "30", "33", "1", "7", "2", "10", "28", "27", "27", "12", "10", "23", "0", "12", "22", "13", "18", "16", "6"], "time": [6081, 6096, 6413, 7238, 7495, 7995, 9179, 9197, 9246, 9362, 9397, 9501, 9663, 11312, 11495, 14611, 14661, 15817, 16344, 18279, 19328, 19777, 21097, 22130, 24511, 26311, 26494, 27769, 28211, 29711, 29745, 30428, 33562, 33811, 34643, 35476, 37844, 38543, 38726, 39061, 39977, 40209, 42509, 44193]}, "edge": {"target": [], "time": []}}, "mouseout": {"state": {"target": ["0", "0", "0", "1", "7", "5", "6", "16", "17", "15", "18", "1", "28", "26", "29", "29", "29", "33", "32", "22", "19", "19", "20", "21", "13", "9", "11", "9", "31", "31", "30", "33", "1", "7", "2", "10", "28", "27", "27", "12", "10", "23", "0", "12", "22", "13", "18", "16", "6"], "time": [1013, 3796, 4146, 6094, 6112, 7199, 7261, 7512, 9163, 9195, 9211, 9280, 9395, 9432, 9515, 10919, 11162, 11329, 14562, 14630, 15429, 16113, 17945, 19077, 19344, 20629, 21930, 23812, 26095, 26294, 26361, 27695, 27789, 29679, 29727, 29961, 31811, 33610, 34576, 34660, 37478, 38463, 38578, 38759, 39892, 40092, 41793, 43700, 46829]}, "edge": {"target": [], "time": []}}}, "displayed_time": "51.79", "trialTime": 53277, "trial_type": "mouselab-mdp", "trial_index": 48, "time_elapsed": 1502114, "internal_node_id": "0.0-6.0-1.0-39.0"}}, {"uniqueid": "w72046273:a12286330", "current_trial": 49, "dateTime": 1693581591819, "trialdata": {"rt": 92428, "response": {"Q0": "$-2 to $2", "Q1": "$-16 to $16", "Q2": "$-88 to $88", "Q3": "The cost was always $1.4.", "Q4": "Very unmotivated"}, "question_order": [0, 1, 2, 3, 4], "trial_id": "final_quiz_control", "trial_type": "survey-multi-choice", "trial_index": 49, "time_elapsed": 1594553, "internal_node_id": "0.0-6.0-2.0"}}, {"uniqueid": "w72046273:a12286330", "current_trial": 50, "dateTime": 1693581766568, "trialdata": {"rt": 174728, "response": {"Q0": "I realised the last tree/link are the ones with the most money so I was revealing them before moving.", "Q1": "Yes, I also realised 80 was the most I could get so when I reveal a number around that. I stop revealing to save cash.", "Q2": "I was easy but as the game went on it felt like there were more negative numbers when revealing."}, "trial_id": "self_report_control", "trial_type": "survey-text", "trial_index": 50, "time_elapsed": 1769302, "internal_node_id": "0.0-6.0-3.0"}}, {"uniqueid": "w72046273:a12286330", "current_trial": 51, "dateTime": 1693581799664, "trialdata": {"rt": 33083, "response": {"gender": "male", "age": "24", "colorblind": "0", "effort": "0"}, "trial_type": "survey-html-form", "trial_index": 51, "time_elapsed": 1802398, "internal_node_id": "0.0-6.0-4.0"}}, {"uniqueid": "w72046273:a12286330", "current_trial": 52, "dateTime": 1693581824002, "trialdata": {"rt": 24320, "response": {"Q0": "No.", "Q1": "No.", "Q2": ""}, "trial_type": "survey-text", "trial_index": 52, "time_elapsed": 1826736, "internal_node_id": "0.0-6.0-5.0"}}, {"uniqueid": "w72046273:a12286330", "current_trial": 53, "dateTime": 1693581910359, "trialdata": {"rt": 86348, "stimulus": "<h1>Completion Code Instructions (1/2)</h1>\n<br><br><br><br>\nYou have reached the end of the experiment! The completion code consists of two parts: (1) a code with 2 characters (2) a code with 6 characters. On this page, you will receive the second part of the code. The first part of the completion code will be on the next page.\n<br><br>\nThe second part of your completion code is: <b>EWEK22</b>\n<br><br>\nPlease note this down. Then, press 'Next' in order to find the first part of your completion code. Once the data has been saved, you will receive this code either in this window or in the original browser window where you started the experiment.\n <br><br>\n<h2 style='color: red;'>Note: this is <strong>NOT</strong> the full completion code. Copy this down and click 'Next' to get the full completion code on the next page.</h2>", "response": 0, "trial_type": "html-button-response", "trial_index": 53, "time_elapsed": 1913093, "internal_node_id": "0.0-6.0-6.0"}}, {"uniqueid": "w72046273:a12286330", "current_trial": 54, "dateTime": 1693581911363, "trialdata": {"success": true, "trial_type": "fullscreen", "trial_index": 54, "time_elapsed": 1914097, "internal_node_id": "0.0-7.0"}}], "questiondata": {"params": {"CODE": "C6DMOQA6", "MIN_TIME": 14, "inspectCost": 1, "startTime": "Fri Sep 01 2023 16:52:20 GMT+0200 (South Africa Standard Time)", "bonusRate": 0.002, "variance": "1_2_4_8_44", "branching": "31123"}, "final_score": 2253}, "eventdata": [{"eventtype": "initialized", "value": null, "timestamp": 1693579939617, "interval": 0}, {"eventtype": "window_resize", "value": [1024, 646], "timestamp": 1693579939617, "interval": 0}, {"eventtype": "window_resize", "value": [1024, 646], "timestamp": 1693579940173, "interval": 556}, {"eventtype": "focus", "value": "off", "timestamp": 1693579995346, "interval": 55173}, {"eventtype": "focus", "value": "on", "timestamp": 1693579995346, "interval": 0}, {"eventtype": "focus", "value": "off", "timestamp": 1693579995348, "interval": 2}, {"eventtype": "focus", "value": "on", "timestamp": 1693579995349, "interval": 1}, {"eventtype": "focus", "value": "off", "timestamp": 1693579995350, "interval": 1}, {"eventtype": "focus", "value": "on", "timestamp": 1693579995351, "interval": 1}, {"eventtype": "focus", "value": "off", "timestamp": 1693579995354, "interval": 3}, {"eventtype": "focus", "value": "on", "timestamp": 1693579995354, "interval": 0}, {"eventtype": "focus", "value": "off", "timestamp": 1693579995355, "interval": 1}, {"eventtype": "window_resize", "value": [1366, 662], "timestamp": 1693579995577, "interval": 222}, {"eventtype": "focus", "value": "on", "timestamp": 1693580004457, "interval": 8880}, {"eventtype": "window_resize", "value": [1366, 768], "timestamp": 1693580004884, "interval": 427}, {"eventtype": "window_resize", "value": [1366, 662], "timestamp": 1693581910606, "interval": 1905722}], "useragent": "Mozilla/5.0 (Windows NT 10.0; Win64; x64) AppleWebKit/537.36 (KHTML, like Gecko) Chrome/116.0.0.0 Safari/537.36", "mode": "live", "id": "w72046273:a12286330", "status": "user data saved", "Beginhit": "2023-09-01 14:51:44.778873", "Beginexp": "2023-09-01 14:53:26.361843", "Endhit": "2023-09-01 15:25:17.974236", "psiturkStatus": 3, "browser": "<redacted>", "platform": "windows", "language": "en-US"}