{"condition": 1, "counterbalance": 0, "assignmentId": "a71287415", "workerId": "w92539977", "hitId": "h54230966", "currenttrial": 56, "bonus": 0, "data": [{"uniqueid": "w92539977:a71287415", "current_trial": 0, "dateTime": 1693579958107, "trialdata": {"success": true, "trial_type": "fullscreen", "trial_index": 0, "time_elapsed": 6229, "internal_node_id": "0.0-0.0"}}, {"uniqueid": "w92539977:a71287415", "current_trial": 1, "dateTime": 1693580053615, "trialdata": {"view_history": [{"page_index": 0, "viewing_time": 95507}], "rt": 95507, "trial_id": "exp_instructions_misaligned", "trial_type": "instructions", "trial_index": 1, "time_elapsed": 101737, "internal_node_id": "0.0-1.0"}}, {"uniqueid": "w92539977:a71287415", "current_trial": 2, "dateTime": 1693580391709, "trialdata": {"view_history": [{"page_index": 0, "viewing_time": 124055}, {"page_index": 1, "viewing_time": 112818}, {"page_index": 2, "viewing_time": 34022}, {"page_index": 3, "viewing_time": 67196}], "rt": 338092, "trial_id": "mouselab_instructions_1_misaligned", "trial_type": "instructions", "trial_index": 2, "time_elapsed": 439831, "internal_node_id": "0.0-2.0-1.0"}}, {"uniqueid": "w92539977:a71287415", "current_trial": 3, "dateTime": 1693580419099, "trialdata": {"revealed_states": [], "clicked_states": ["23", "24", "25", "12", "13", "1", "2", "3"], "num_clicks_accrued": [0, 0, 0, 0, 0, 0, 0, 0, 0, 0, 0, 0, 0], "stateRewards": ["", -10, 10, 10, -10, -10, 10, -10, 10, -10, 10, 10, -10, -10, -10, 10, 10, 10, 10, -10, 10, -10, -10, -10, -10, 10, -10, -10, 10, 10, 10, 10, 10, 10], "withholdReward": false, "trial_id": "practice_1", "block": "test", "trialIndex": 0, "score": -30.5, "costs": -4, "simulationMode": [null, null, null, null, null], "rewards": [-10, -10, 10, -10, -10], "path": ["0", "0", "23", "24", "25", "26", "27"], "rt": [14003, 647, 366, 240, 446], "actions": ["left", "left", "left", "up", "up"], "actionTimes": [16462, 17615, 18484, 19224, 20180], "queries": {"click": {"state": {"target": ["23", "24", "25", "12", "13", "1", "2", "3"], "time": [3445, 4585, 6146, 8060, 9160, 10227, 12000, 13060]}, "edge": {"target": [], "time": []}}, "mouseover": {"state": {"target": ["23", "24", "25", "0", "0", "12", "13", "14", "1", "2", "2", "7", "3", "4"], "time": [3053, 4183, 5166, 6983, 7361, 7902, 8483, 9633, 10033, 10933, 11778, 12400, 12883, 13417]}, "edge": {"target": [], "time": []}}, "mouseout": {"state": {"target": ["0", "23", "24", "25", "24", "23", "0", "0", "12", "13", "13", "14", "13", "1", "2", "2", "7", "3"], "time": [2853, 3917, 4983, 6900, 6933, 6966, 7000, 7869, 8433, 9416, 9600, 9683, 9833, 10683, 11277, 12300, 12800, 13367]}, "edge": {"target": [], "time": []}}}, "displayed_time": "20.68", "trialTime": 26935, "trial_type": "mouselab-mdp", "trial_index": 3, "time_elapsed": 467221, "internal_node_id": "0.0-2.0-2.0-0.0"}}, {"uniqueid": "w92539977:a71287415", "current_trial": 4, "dateTime": 1693580446212, "trialdata": {"revealed_states": [], "clicked_states": ["23", "12", "1", "2", "7", "4", "5"], "num_clicks_accrued": [0, 0, 0, 0, 0, 0, 0, 0, 0, 0, 0, 0, 0], "stateRewards": ["", -10, -10, -10, 10, -10, -10, 10, -10, -10, 10, 10, -10, -10, 10, -10, 10, -10, -10, -10, 10, 10, 10, -10, -10, -10, 10, -10, 10, 10, -10, 10, 10, -10], "withholdReward": false, "trial_id": "practice_2", "block": "test", "trialIndex": 1, "score": -30, "costs": -3.5, "simulationMode": [null, null, null, null, null], "rewards": [-10, -10, -10, 10, -10], "path": ["0", "0", "1", "2", "3", "4", "6"], "rt": [10353, 111, 5300, 117, 313], "actions": ["up", "up", "up", "right", "right"], "actionTimes": [11859, 12490, 18296, 18930, 19759], "queries": {"click": {"state": {"target": ["23", "12", "1", "2", "7", "4", "5"], "time": [2069, 3387, 4545, 5619, 6657, 7871, 9419]}, "edge": {"target": [], "time": []}}, "mouseover": {"state": {"target": ["0", "23", "24", "0", "12", "1", "2", "7", "4", "5", "6"], "time": [1622, 1856, 2378, 3128, 3146, 3895, 5228, 6228, 7161, 8478, 11050]}, "edge": {"target": [], "time": []}}, "mouseout": {"state": {"target": ["4", "1", "0", "0", "23", "24", "0", "12", "1", "2", "7", "4", "5", "6", "6", "0", "0", "1", "7"], "time": [822, 980, 1352, 1672, 2344, 3095, 3145, 3503, 4689, 6080, 7061, 8228, 10672, 15723, 15789, 15914, 16139, 16339, 16753]}, "edge": {"target": [], "time": []}}}, "displayed_time": "20.26", "trialTime": 26976, "trial_type": "mouselab-mdp", "trial_index": 4, "time_elapsed": 494333, "internal_node_id": "0.0-2.0-2.0-1.0"}}, {"uniqueid": "w92539977:a71287415", "current_trial": 5, "dateTime": 1693580507366, "trialdata": {"view_history": [{"page_index": 0, "viewing_time": 52191}, {"page_index": 1, "viewing_time": 8961}], "rt": 61152, "trial_id": "mouselab_instructions_2_misaligned", "trial_type": "instructions", "trial_index": 5, "time_elapsed": 555488, "internal_node_id": "0.0-2.0-3.0"}}, {"uniqueid": "w92539977:a71287415", "current_trial": 6, "dateTime": 1693580576149, "trialdata": {"rt": 68781, "response": {"Q0": "The cost for clicking on nodes may vary between nodes.", "Q1": "The better I perform the higher my bonus will be.", "Q2": "No, the amount of cash at each node of the web may be different each time.", "Q3": "To get the highest total score.", "Q4": "Only before moving the spider.", "Q5": "3 seconds"}, "question_order": [0, 1, 2, 3, 4, 5], "correct": {"Q0": "The cost for clicking on nodes may vary between nodes.", "Q1": "The better I perform the higher my bonus will be.", "Q2": "No, the amount of cash at each node of the web may be different each time.", "Q3": "To get the highest total score.", "Q4": "Only before moving the spider.", "Q5": "3 seconds"}, "trial_id": "mouselab_quiz_misaligned", "trial_type": "survey-multi-choice", "trial_index": 6, "time_elapsed": 624271, "internal_node_id": "0.0-2.0-4.0"}}, {"uniqueid": "w92539977:a71287415", "current_trial": 7, "dateTime": 1693580581409, "trialdata": {"rt": 5256, "response": {"Q0": "No"}, "question_order": [0], "trial_id": "repeat_check", "trial_type": "survey-multi-choice", "trial_index": 7, "time_elapsed": 629531, "internal_node_id": "0.0-4.0-0.0"}}, {"uniqueid": "w92539977:a71287415", "current_trial": 8, "dateTime": 1693580729045, "trialdata": {"rt": 147633, "stimulus": "\n<h1> Get ready to start the game! </h1>\n\nThank you for reading the instructions. Get ready start with the 40 rounds of this game.\n<br><br>\nIf you need to take a break, feel free to take one after the end of a round, before continuing to the next one.\n<br><br>\nRemember, the more money the spider gets, the bigger your bonus will be!\n<br><br>\n<div style='text-align: center;'>Press <code>space</code> to begin.</div>\n\n<br><br>\n(If, at any point, the <code>space</code> key does not take you to the next page, click once on the text and try again.)", "response": " ", "trial_id": "mdp_ready", "trial_type": "html-keyboard-response", "trial_index": 8, "time_elapsed": 777167, "internal_node_id": "0.0-6.0-0.0"}}, {"uniqueid": "w92539977:a71287415", "current_trial": 9, "dateTime": 1693580747482, "trialdata": {"revealed_states": [], "clicked_states": ["12", "13", "14", "19"], "num_clicks_accrued": [0, 0, 0, 0, 0, 0, 0, 0, 0, 0, 0, 0, 0], "stateRewards": ["", -1, 1, 3, -8, -23, -15, -14, -11, -23, 58, 68, 1, 3, 5, 12, -17, -41, -7, -10, -4, 82, 10, 1, 4, -4, 11, 73, 55, -55, -1, -86, -86, 54], "withholdReward": false, "trial_id": "mdp_trial_1", "block": "test", "trialIndex": 2, "score": -22.6, "costs": -2.5999999999999996, "simulationMode": [null, null, null, null, null], "rewards": [1, 3, 5, 12, -41], "path": ["0", "0", "12", "13", "14", "15", "17"], "rt": [9024, 568, 588, 384, 233], "actions": ["right", "right", "right", "up", "right"], "actionTimes": [11623, 12700, 13802, 14699, 15449], "queries": {"click": {"state": {"target": ["12", "13", "14", "19"], "time": [3700, 4477, 5303, 6860]}, "edge": {"target": [], "time": []}}, "mouseover": {"state": {"target": ["0", "12", "13", "14", "19", "15", "18", "1"], "time": [2849, 2924, 4364, 5163, 6483, 7933, 9866, 9949]}, "edge": {"target": [], "time": []}}, "mouseout": {"state": {"target": ["8", "28", "0", "12", "13", "14", "19", "14", "15", "18"], "time": [624, 974, 2882, 4230, 5100, 6230, 6988, 7864, 9274, 9899]}, "edge": {"target": [], "time": []}}}, "displayed_time": "16.60", "trialTime": 18296, "trial_type": "mouselab-mdp", "trial_index": 9, "time_elapsed": 795603, "internal_node_id": "0.0-6.0-1.0-0.0"}}, {"uniqueid": "w92539977:a71287415", "current_trial": 10, "dateTime": 1693580766424, "trialdata": {"revealed_states": [], "clicked_states": ["1", "2", "7", "4", "3"], "num_clicks_accrued": [0, 0, 0, 0, 0, 0, 0, 0, 0, 0, 0, 0, 0], "stateRewards": ["", 2, 3, -3, 4, 72, -28, 34, -12, 57, -64, -15, 2, 1, -4, -15, 2, 49, 31, -1, -42, -58, 31, -2, 1, -2, -13, -75, -19, -22, -6, 61, 10, -56], "withholdReward": false, "trial_id": "mdp_trial_2", "block": "test", "trialIndex": 3, "score": 35.25, "costs": -4.75, "simulationMode": [null, null, null, null, null], "rewards": [2, 3, -3, 4, 34], "path": ["0", "0", "1", "2", "3", "4", "7"], "rt": [9800, 122, 97, 19, 81], "actions": ["up", "up", "up", "right", "down"], "actionTimes": [11327, 11974, 12582, 13103, 13702], "queries": {"click": {"state": {"target": ["1", "2", "7", "4", "3"], "time": [2086, 2784, 3691, 7028, 8248]}, "edge": {"target": [], "time": []}}, "mouseover": {"state": {"target": ["1", "2", "7", "3", "4", "3"], "time": [1869, 2583, 3600, 4550, 6167, 7650]}, "edge": {"target": [], "time": []}}, "mouseout": {"state": {"target": ["1", "0", "1", "2", "7", "3", "4"], "time": [952, 1744, 2483, 3517, 4334, 6150, 7583]}, "edge": {"target": [], "time": []}}}, "displayed_time": "15.53", "trialTime": 18808, "trial_type": "mouselab-mdp", "trial_index": 10, "time_elapsed": 814545, "internal_node_id": "0.0-6.0-1.0-1.0"}}, {"uniqueid": "w92539977:a71287415", "current_trial": 11, "dateTime": 1693580786505, "trialdata": {"revealed_states": [], "clicked_states": ["23", "24", "25", "26", "28"], "num_clicks_accrued": [0, 0, 0, 0, 0, 0, 0, 0, 0, 0, 0, 0, 0], "stateRewards": ["", 2, -1, 5, 8, 75, -35, -77, 1, -9, -81, -58, 1, 2, -7, 5, 77, -16, 19, 16, -10, -18, 40, -2, 3, 7, -5, 64, 1, -62, 10, 27, 10, 65], "withholdReward": false, "trial_id": "mdp_trial_3", "block": "test", "trialIndex": 4, "score": 23.25, "costs": -4.75, "simulationMode": [null, null, null, null, null, null], "rewards": [-2, 3, 7, 10, 10], "path": ["0", "0", "23", "24", "25", "30", "32"], "rt": [7661, 690, 168, 185, 83, 116], "actions": ["left", "left", "left", "left", "down", "down"], "actionTimes": [9284, 9976, 10651, 11337, 11930, 12563], "queries": {"click": {"state": {"target": ["23", "24", "25", "26", "28"], "time": [2980, 4473, 5303, 6333, 7175]}, "edge": {"target": [], "time": []}}, "mouseover": {"state": {"target": ["0", "23", "24", "25", "26", "28", "23"], "time": [2141, 2699, 4082, 5047, 5813, 6980, 7714]}, "edge": {"target": [], "time": []}}, "mouseout": {"state": {"target": ["3", "10", "0", "0", "0", "23", "24", "25", "26", "28", "23"], "time": [291, 449, 674, 1891, 2295, 3380, 4880, 5713, 6880, 7613, 7720]}, "edge": {"target": [], "time": []}}}, "displayed_time": "15.62", "trialTime": 19953, "trial_type": "mouselab-mdp", "trial_index": 11, "time_elapsed": 834627, "internal_node_id": "0.0-6.0-1.0-2.0"}}, {"uniqueid": "w92539977:a71287415", "current_trial": 12, "dateTime": 1693580811229, "trialdata": {"revealed_states": [], "clicked_states": ["12", "13", "14", "19", "21"], "num_clicks_accrued": [0, 0, 0, 0, 0, 0, 0, 0, 0, 0, 0, 0, 0], "stateRewards": ["", -1, 1, 8, -3, -24, 11, -65, -6, -77, 48, 44, -2, 1, -2, -7, -55, -35, 33, 8, -28, 19, -53, -1, -1, -5, -5, -70, 10, 44, 8, -58, -70, 51], "withholdReward": false, "trial_id": "mdp_trial_4", "block": "test", "trialIndex": 5, "score": 19.25, "costs": -4.75, "simulationMode": [null, null, null, null, null, null], "rewards": [-2, 1, -2, 8, 19], "path": ["0", "0", "12", "13", "14", "19", "21"], "rt": [5629, 634, 237, 156, 76, 46], "actions": ["right", "right", "right", "right", "down", "down"], "actionTimes": [8428, 9063, 9824, 10481, 11064, 11635], "queries": {"click": {"state": {"target": ["12", "13", "14", "19", "21"], "time": [3607, 4278, 5012, 5691, 6234]}, "edge": {"target": [], "time": []}}, "mouseover": {"state": {"target": ["12", "12", "13", "14", "19", "21"], "time": [3148, 3448, 4087, 4887, 5488, 6120]}, "edge": {"target": [], "time": []}}, "mouseout": {"state": {"target": ["0", "12", "12", "13", "14", "19", "21"], "time": [3123, 3198, 4021, 4787, 5387, 5987, 6337]}, "edge": {"target": [], "time": []}}}, "displayed_time": "16.80", "trialTime": 24583, "trial_type": "mouselab-mdp", "trial_index": 12, "time_elapsed": 859351, "internal_node_id": "0.0-6.0-1.0-3.0"}}, {"uniqueid": "w92539977:a71287415", "current_trial": 13, "dateTime": 1693580839553, "trialdata": {"revealed_states": [], "clicked_states": ["1", "2", "3", "8", "10", "23", "24", "25", "30", "32", "31"], "num_clicks_accrued": [0, 0, 0, 0, 0, 0, 0, 0, 0, 0, 0, 0, 0], "stateRewards": ["", 2, -3, 5, -14, -63, -9, -24, -11, -54, -43, 68, 2, -2, -4, 7, -64, 30, 47, 12, -74, 11, 86, 1, -3, 3, 10, -71, -42, -52, -1, -29, -16, 69], "withholdReward": false, "trial_id": "mdp_trial_5", "block": "test", "trialIndex": 6, "score": 7.35, "costs": -11.65, "simulationMode": [null, null, null, null, null], "rewards": [2, -2, -4, 12, 11], "path": ["0", "0", "12", "13", "14", "19", "21"], "rt": [17621, 69, 56, 95, 107], "actions": ["right", "right", "right", "down", "down"], "actionTimes": [19623, 20198, 20787, 21394, 22004], "queries": {"click": {"state": {"target": ["1", "2", "3", "8", "10", "23", "24", "25", "30", "32", "31"], "time": [2551, 3367, 4242, 4699, 5935, 8987, 9805, 10523, 11096, 12154, 15564]}, "edge": {"target": [], "time": []}}, "mouseover": {"state": {"target": ["1", "2", "3", "8", "11", "10", "27", "26", "24", "23", "24", "25", "30", "31", "32", "31"], "time": [2381, 3029, 4067, 4595, 5295, 5807, 6396, 8329, 8529, 8823, 9495, 10329, 10933, 11562, 12062, 13962]}, "edge": {"target": [], "time": []}}, "mouseout": {"state": {"target": ["0", "1", "2", "3", "8", "11", "10", "27", "26", "24", "23", "24", "25", "30", "31", "32", "31"], "time": [1616, 2995, 3729, 4529, 5195, 5529, 6022, 6462, 8396, 8696, 9429, 10229, 10862, 11529, 11896, 12290, 15829]}, "edge": {"target": [], "time": []}}}, "displayed_time": "22.50", "trialTime": 28182, "trial_type": "mouselab-mdp", "trial_index": 13, "time_elapsed": 887675, "internal_node_id": "0.0-6.0-1.0-4.0"}}, {"uniqueid": "w92539977:a71287415", "current_trial": 14, "dateTime": 1693580875833, "trialdata": {"revealed_states": [], "clicked_states": ["12", "13", "14", "15", "18", "17", "16"], "num_clicks_accrued": [0, 0, 0, 0, 0, 0, 0, 0, 0, 0, 0, 0, 0], "stateRewards": ["", -2, -3, 7, -13, 60, 9, 37, -6, 37, 20, 1, 2, -2, -8, 6, -80, -31, -10, -7, 70, -65, -44, -1, 1, 7, 6, -11, 73, -85, 16, -21, 47, 34], "withholdReward": false, "trial_id": "mdp_trial_6", "block": "test", "trialIndex": 7, "score": 47.95, "costs": -9.05, "simulationMode": [null, null, null, null, null], "rewards": [-1, 1, 7, 16, 34], "path": ["0", "0", "23", "24", "25", "30", "33"], "rt": [14043, 319, 593, 106, 536], "actions": ["left", "left", "left", "down", "left"], "actionTimes": [15224, 16045, 17152, 17765, 18798], "queries": {"click": {"state": {"target": ["12", "13", "14", "15", "18", "17", "16"], "time": [2021, 2663, 3427, 4096, 4753, 8381, 11754]}, "edge": {"target": [], "time": []}}, "mouseover": {"state": {"target": ["12", "13", "14", "15", "18", "15", "17", "15", "16"], "time": [1703, 2426, 3192, 3759, 4459, 8094, 8136, 8930, 10758]}, "edge": {"target": [], "time": []}}, "mouseout": {"state": {"target": ["23", "0", "12", "13", "14", "15", "18", "15", "17", "15", "18", "16"], "time": [861, 1531, 2359, 3125, 3692, 4213, 5159, 8111, 8892, 9058, 10558, 12158]}, "edge": {"target": [], "time": []}}}, "displayed_time": "19.30", "trialTime": 36126, "trial_type": "mouselab-mdp", "trial_index": 14, "time_elapsed": 923955, "internal_node_id": "0.0-6.0-1.0-5.0"}}, {"uniqueid": "w92539977:a71287415", "current_trial": 15, "dateTime": 1693580894248, "trialdata": {"revealed_states": [], "clicked_states": ["1", "2", "3", "8", "9"], "num_clicks_accrued": [0, 0, 0, 0, 0, 0, 0, 0, 0, 0, 0, 0, 0], "stateRewards": ["", -2, 1, -5, 2, -68, 80, 33, 10, 67, -59, 20, -1, -3, 3, 14, 74, -2, 24, -16, 63, 80, 46, -1, 4, 6, 12, 83, -38, -43, -4, 43, 14, -79], "withholdReward": false, "trial_id": "mdp_trial_7", "block": "test", "trialIndex": 8, "score": 66.25, "costs": -4.75, "simulationMode": [null, null, null, null, null], "rewards": [-2, 1, -5, 10, 67], "path": ["0", "0", "1", "2", "3", "8", "9"], "rt": [6781, 612, 194, 90, 82], "actions": ["up", "up", "up", "left", "up"], "actionTimes": [8396, 9528, 10220, 10808, 11398], "queries": {"click": {"state": {"target": ["1", "2", "3", "8", "9"], "time": [2351, 3100, 4021, 4602, 5021]}, "edge": {"target": [], "time": []}}, "mouseover": {"state": {"target": ["1", "2", "3", "8", "9", "10", "28"], "time": [2126, 2782, 3818, 4486, 4849, 5582, 5718]}, "edge": {"target": [], "time": []}}, "mouseout": {"state": {"target": ["18", "1", "0", "1", "2", "3", "8", "9", "8", "10"], "time": [792, 1034, 1759, 2685, 3719, 4349, 4781, 5482, 5548, 5586]}, "edge": {"target": [], "time": []}}}, "displayed_time": "15.62", "trialTime": 18263, "trial_type": "mouselab-mdp", "trial_index": 15, "time_elapsed": 942370, "internal_node_id": "0.0-6.0-1.0-6.0"}}, {"uniqueid": "w92539977:a71287415", "current_trial": 16, "dateTime": 1693580915479, "trialdata": {"revealed_states": [], "clicked_states": ["23", "24", "25", "30", "32", "12", "13", "14", "15", "16"], "num_clicks_accrued": [0, 0, 0, 0, 0, 0, 0, 0, 0, 0, 0, 0, 0], "stateRewards": ["", -1, 1, -5, -6, -78, 47, -13, 12, 48, -88, 20, 2, -3, -2, 13, -20, 37, -57, 14, -38, 30, 31, -2, -2, 8, 2, -23, 78, 28, 12, -74, -88, 8], "withholdReward": false, "trial_id": "mdp_trial_8", "block": "test", "trialIndex": 9, "score": -98.5, "costs": -9.5, "simulationMode": [null, null, null, null, null], "rewards": [-1, 1, -5, -6, -78], "path": ["0", "0", "1", "2", "3", "4", "5"], "rt": [13361, 27, 230, 659, 63], "actions": ["up", "up", "up", "right", "up"], "actionTimes": [15469, 15994, 16759, 17922, 18495], "queries": {"click": {"state": {"target": ["23", "24", "25", "30", "32", "12", "13", "14", "15", "16"], "time": [2722, 3293, 4126, 4605, 5138, 9823, 10245, 10866, 11303, 11791]}, "edge": {"target": [], "time": []}}, "mouseover": {"state": {"target": ["23", "24", "25", "30", "32", "33", "30", "31", "22", "22", "12", "12", "13", "14", "15", "16", "1"], "time": [2447, 3095, 3761, 4494, 4961, 5862, 8647, 8681, 8756, 8989, 9114, 9547, 10128, 10728, 11195, 11662, 12328]}, "edge": {"target": [], "time": []}}, "mouseout": {"state": {"target": ["28", "23", "0", "23", "24", "25", "30", "30", "32", "33", "30", "31", "22", "22", "12", "12", "13", "14", "15", "16", "1"], "time": [1530, 1588, 2397, 3028, 3628, 4428, 4716, 4928, 5762, 8622, 8673, 8689, 8889, 8997, 9297, 10061, 10662, 11095, 11562, 12195, 12362]}, "edge": {"target": [], "time": []}}}, "displayed_time": "19.00", "trialTime": 21073, "trial_type": "mouselab-mdp", "trial_index": 16, "time_elapsed": 963600, "internal_node_id": "0.0-6.0-1.0-7.0"}}, {"uniqueid": "w92539977:a71287415", "current_trial": 17, "dateTime": 1693580935130, "trialdata": {"revealed_states": [], "clicked_states": ["1", "2", "3", "8", "9", "4", "5"], "num_clicks_accrued": [0, 0, 0, 0, 0, 0, 0, 0, 0, 0, 0, 0, 0], "stateRewards": ["", 1, 3, 1, -13, 52, -28, 67, -14, 3, 63, -70, -1, -4, 7, -11, -10, 47, -18, 6, 69, -9, -61, 2, 3, -6, 10, 63, -34, 40, -6, -79, -35, -32], "withholdReward": false, "trial_id": "mdp_trial_9", "block": "test", "trialIndex": 10, "score": 35.55, "costs": -8.45, "simulationMode": [null, null, null, null, null], "rewards": [1, 3, 1, -13, 52], "path": ["0", "0", "1", "2", "3", "4", "5"], "rt": [12455, 23, 35, 17, 27], "actions": ["up", "up", "up", "right", "up"], "actionTimes": [14033, 14571, 15120, 15635, 16175], "queries": {"click": {"state": {"target": ["1", "2", "3", "8", "9", "4", "5"], "time": [2470, 3280, 4322, 5314, 6178, 9419, 10095]}, "edge": {"target": [], "time": []}}, "mouseover": {"state": {"target": ["1", "2", "3", "8", "9", "4", "5", "6"], "time": [2241, 2880, 3914, 4850, 5947, 7013, 9783, 12080]}, "edge": {"target": [], "time": []}}, "mouseout": {"state": {"target": ["0", "1", "2", "3", "8", "9", "4", "5", "4"], "time": [1949, 2746, 3813, 4813, 5813, 6580, 9713, 10553, 11880]}, "edge": {"target": [], "time": []}}}, "displayed_time": "16.68", "trialTime": 19509, "trial_type": "mouselab-mdp", "trial_index": 17, "time_elapsed": 983251, "internal_node_id": "0.0-6.0-1.0-8.0"}}, {"uniqueid": "w92539977:a71287415", "current_trial": 18, "dateTime": 1693580973271, "trialdata": {"revealed_states": [], "clicked_states": ["23", "24", "25", "30", "32", "31", "33", "26", "27", "28", "29"], "num_clicks_accrued": [0, 0, 0, 0, 0, 0, 0, 0, 0, 0, 0, 0, 0], "stateRewards": ["", 2, 2, 3, -15, 23, -14, 73, -7, -32, -20, -6, 1, 1, -5, -12, 73, 6, -84, 11, -81, -57, 13, -2, -1, -4, -8, -52, -58, 49, 13, 5, -41, -41], "withholdReward": false, "trial_id": "mdp_trial_10", "block": "test", "trialIndex": 11, "score": 16.950000000000003, "costs": -17.05, "simulationMode": [null, null, null, null, null], "rewards": [-2, -1, -4, -8, 49], "path": ["0", "0", "23", "24", "25", "26", "29"], "rt": [25156, 572, 270, 99, 53], "actions": ["left", "left", "left", "up", "left"], "actionTimes": [26734, 27832, 28600, 29196, 29749], "queries": {"click": {"state": {"target": ["23", "24", "25", "30", "32", "31", "33", "26", "27", "28", "29"], "time": [2151, 2829, 3539, 4153, 4740, 7890, 11123, 14375, 16649, 19776, 22890]}, "edge": {"target": [], "time": []}}, "mouseover": {"state": {"target": ["23", "24", "25", "30", "32", "31", "30", "33", "25", "26", "27", "28", "26", "29", "26"], "time": [2005, 2625, 3362, 3925, 4425, 7225, 8258, 8458, 11858, 11959, 14992, 17192, 20125, 20326, 23592]}, "edge": {"target": [], "time": []}}, "mouseout": {"state": {"target": ["6", "4", "7", "0", "23", "24", "25", "30", "30", "32", "31", "30", "33", "25", "26", "27", "28", "26", "29", "26"], "time": [819, 877, 919, 1894, 2529, 3229, 3829, 4262, 4392, 6959, 8225, 8392, 11695, 11892, 14725, 17025, 20059, 20225, 23559, 23659]}, "edge": {"target": [], "time": []}}}, "displayed_time": "30.26", "trialTime": 37995, "trial_type": "mouselab-mdp", "trial_index": 18, "time_elapsed": 1021393, "internal_node_id": "0.0-6.0-1.0-9.0"}}, {"uniqueid": "w92539977:a71287415", "current_trial": 19, "dateTime": 1693580998563, "trialdata": {"revealed_states": [], "clicked_states": ["12", "13", "14", "19", "15", "20"], "num_clicks_accrued": [0, 0, 0, 0, 0, 0, 0, 0, 0, 0, 0, 0, 0], "stateRewards": ["", -1, 1, -1, 2, 19, 85, -18, 2, -3, -26, 36, 2, 4, 7, -9, -18, 70, 72, -5, 35, -20, -28, 1, -2, -4, -3, -59, -11, -63, -2, -72, 59, -69], "withholdReward": false, "trial_id": "mdp_trial_11", "block": "test", "trialIndex": 12, "score": 36.7, "costs": -6.299999999999999, "simulationMode": [null, null, null, null, null], "rewards": [2, 4, 7, -5, 35], "path": ["0", "0", "12", "13", "14", "19", "20"], "rt": [9467, 455, 117, 26, 35], "actions": ["right", "right", "right", "down", "right"], "actionTimes": [11069, 12041, 12669, 13212, 13757], "queries": {"click": {"state": {"target": ["12", "13", "14", "19", "15", "20"], "time": [2261, 2941, 3592, 4586, 5663, 6975]}, "edge": {"target": [], "time": []}}, "mouseover": {"state": {"target": ["0", "12", "13", "14", "19", "15", "20", "21"], "time": [1904, 1954, 2588, 3418, 4384, 5555, 6829, 7952]}, "edge": {"target": [], "time": []}}, "mouseout": {"state": {"target": ["24", "23", "0", "12", "13", "14", "19", "19", "15", "14", "20"], "time": [953, 1070, 1912, 2551, 3351, 4084, 4687, 5221, 6218, 6284, 7388]}, "edge": {"target": [], "time": []}}}, "displayed_time": "15.60", "trialTime": 25146, "trial_type": "mouselab-mdp", "trial_index": 19, "time_elapsed": 1046685, "internal_node_id": "0.0-6.0-1.0-10.0"}}, {"uniqueid": "w92539977:a71287415", "current_trial": 20, "dateTime": 1693581037558, "trialdata": {"revealed_states": [], "clicked_states": ["23", "24", "25", "26", "27"], "num_clicks_accrued": [0, 0, 0, 0, 0, 0, 0, 0, 0, 0, 0, 0, 0], "stateRewards": ["", 1, 4, 5, -5, 58, -80, 75, 6, 25, -39, 46, 2, -2, 4, 2, 59, 31, -22, -12, -61, 15, 72, 1, -2, -7, 8, 77, 76, -23, -7, 71, -15, -3], "withholdReward": false, "trial_id": "mdp_trial_12", "block": "test", "trialIndex": 13, "score": 72.25, "costs": -4.75, "simulationMode": [null, null, null, null, null], "rewards": [1, -2, -7, 8, 77], "path": ["0", "0", "23", "24", "25", "26", "27"], "rt": [7116, 17, 527, 35, 63], "actions": ["left", "left", "left", "up", "up"], "actionTimes": [8987, 9513, 10549, 11087, 11683], "queries": {"click": {"state": {"target": ["23", "24", "25", "26", "27"], "time": [2482, 3038, 3670, 4462, 5074]}, "edge": {"target": [], "time": []}}, "mouseover": {"state": {"target": ["23", "24", "25", "26", "27", "28"], "time": [2279, 2885, 3551, 4285, 4985, 5651]}, "edge": {"target": [], "time": []}}, "mouseout": {"state": {"target": ["21", "0", "0", "23", "24", "25", "26", "27"], "time": [978, 1587, 2221, 2818, 3422, 4151, 4884, 5551]}, "edge": {"target": [], "time": []}}}, "displayed_time": "15.87", "trialTime": 38841, "trial_type": "mouselab-mdp", "trial_index": 20, "time_elapsed": 1085680, "internal_node_id": "0.0-6.0-1.0-11.0"}}, {"uniqueid": "w92539977:a71287415", "current_trial": 21, "dateTime": 1693581064966, "trialdata": {"revealed_states": [], "clicked_states": ["1", "2", "3", "8", "11", "9", "10"], "num_clicks_accrued": [0, 0, 0, 0, 0, 0, 0, 0, 0, 0, 0, 0, 0], "stateRewards": ["", 2, 3, 3, 10, 19, -21, 6, 9, 54, 68, 16, 2, 2, -6, -8, 40, -2, -75, -2, -42, 55, 59, -1, 2, 4, -14, 11, -34, -30, -6, 61, -53, 13], "withholdReward": false, "trial_id": "mdp_trial_13", "block": "test", "trialIndex": 14, "score": 75.95, "costs": -9.05, "simulationMode": [null, null, null, null, null], "rewards": [2, 3, 3, 9, 68], "path": ["0", "0", "1", "2", "3", "8", "10"], "rt": [14237, 3, 9, 561, 66], "actions": ["up", "up", "up", "left", "down"], "actionTimes": [16423, 16949, 17488, 18573, 19145], "queries": {"click": {"state": {"target": ["1", "2", "3", "8", "11", "9", "10"], "time": [3586, 4188, 4906, 5730, 6486, 9795, 13173]}, "edge": {"target": [], "time": []}}, "mouseover": {"state": {"target": ["23", "1", "2", "3", "8", "11", "9", "8", "10"], "time": [2922, 3372, 3948, 4744, 5578, 6278, 7914, 10212, 10414]}, "edge": {"target": [], "time": []}}, "mouseout": {"state": {"target": ["28", "23", "0", "23", "1", "2", "3", "8", "11", "9", "9", "8", "10", "10"], "time": [1671, 1746, 2705, 3272, 3878, 4544, 5411, 5851, 7111, 9897, 10178, 10245, 13778, 14044]}, "edge": {"target": [], "time": []}}}, "displayed_time": "19.64", "trialTime": 27242, "trial_type": "mouselab-mdp", "trial_index": 21, "time_elapsed": 1113088, "internal_node_id": "0.0-6.0-1.0-12.0"}}, {"uniqueid": "w92539977:a71287415", "current_trial": 22, "dateTime": 1693581145130, "trialdata": {"revealed_states": [], "clicked_states": ["12", "13", "14", "15", "17", "16", "18", "19", "20", "21", "22"], "num_clicks_accrued": [0, 0, 0, 0, 0, 0, 0, 0, 0, 0, 0, 0, 0], "stateRewards": ["", 2, -1, -4, -13, 74, 77, 3, 2, -43, -2, -11, 2, 3, 7, 11, -26, -29, -33, -3, -3, -13, -3, 1, 3, -7, 14, -59, 33, 9, -5, 34, 79, 68], "withholdReward": false, "trial_id": "mdp_trial_14", "block": "test", "trialIndex": 15, "score": 8.95, "costs": -17.05, "simulationMode": [null, null, null, null, null], "rewards": [1, 3, -7, -5, 34], "path": ["0", "0", "23", "24", "25", "30", "31"], "rt": [24694, 659, 163, 101, 120], "actions": ["left", "left", "left", "down", "right"], "actionTimes": [26349, 27505, 28173, 28777, 29399], "queries": {"click": {"state": {"target": ["12", "13", "14", "15", "17", "16", "18", "19", "20", "21", "22"], "time": [2138, 2855, 3606, 4313, 5563, 8799, 11998, 15326, 16238, 19397, 22563]}, "edge": {"target": [], "time": []}}, "mouseover": {"state": {"target": ["12", "13", "14", "15", "16", "17", "16", "16", "18", "14", "19", "20", "21", "22"], "time": [1894, 2642, 3242, 4075, 5041, 5444, 6075, 7142, 9242, 12542, 12875, 15942, 16708, 19942]}, "edge": {"target": [], "time": []}}, "mouseout": {"state": {"target": ["0", "0", "12", "13", "14", "15", "16", "17", "16", "16", "16", "18", "14", "19", "20", "20", "21"], "time": [994, 1827, 2508, 3209, 3975, 4975, 5279, 5665, 6475, 8899, 9142, 12508, 12578, 15775, 16346, 16608, 19742]}, "edge": {"target": [], "time": []}}}, "displayed_time": "29.91", "trialTime": 80003, "trial_type": "mouselab-mdp", "trial_index": 22, "time_elapsed": 1193252, "internal_node_id": "0.0-6.0-1.0-13.0"}}, {"uniqueid": "w92539977:a71287415", "current_trial": 23, "dateTime": 1693581280609, "trialdata": {"revealed_states": [], "clicked_states": ["12", "13", "14", "15", "17"], "num_clicks_accrued": [0, 0, 0, 0, 0, 0, 0, 0, 0, 0, 0, 0, 0], "stateRewards": ["", 1, -1, 8, 4, 76, -33, -17, -3, -1, -54, -74, -2, 2, -5, 13, -51, 63, 83, 1, 84, 29, -36, 2, -1, 7, -12, -10, -44, -43, -14, 8, -69, 19], "withholdReward": false, "trial_id": "mdp_trial_15", "block": "test", "trialIndex": 16, "score": 66.25, "costs": -4.75, "simulationMode": [null, null, null, null, null], "rewards": [-2, 2, -5, 13, 63], "path": ["0", "0", "12", "13", "14", "15", "17"], "rt": [8630, 591, 488, 166, 44], "actions": ["right", "right", "right", "up", "right"], "actionTimes": [10866, 11983, 12979, 13657, 14202], "queries": {"click": {"state": {"target": ["12", "13", "14", "15", "17"], "time": [2815, 3617, 4381, 4981, 5656]}, "edge": {"target": [], "time": []}}, "mouseover": {"state": {"target": ["12", "13", "14", "15", "17"], "time": [2535, 3523, 4023, 4724, 5357]}, "edge": {"target": [], "time": []}}, "mouseout": {"state": {"target": ["22", "12", "13", "14", "15", "17", "9"], "time": [1534, 3191, 3957, 4624, 5324, 5755, 18518]}, "edge": {"target": [], "time": []}}}, "displayed_time": "16.24", "trialTime": 135297, "trial_type": "mouselab-mdp", "trial_index": 23, "time_elapsed": 1328731, "internal_node_id": "0.0-6.0-1.0-14.0"}}, {"uniqueid": "w92539977:a71287415", "current_trial": 24, "dateTime": 1693581304202, "trialdata": {"revealed_states": [], "clicked_states": ["12", "13", "14", "23", "24", "25", "1", "2", "7", "6"], "num_clicks_accrued": [0, 0, 0, 0, 0, 0, 0, 0, 0, 0, 0, 0, 0], "stateRewards": ["", -1, 3, -4, -14, 78, 67, 2, 13, -32, 28, 39, -2, 1, -4, -4, -4, -42, -86, 11, 64, -29, -32, -1, -4, 2, -7, 5, 68, -61, 2, -21, 85, 50], "withholdReward": false, "trial_id": "mdp_trial_16", "block": "test", "trialIndex": 17, "score": 44.5, "costs": -6.5, "simulationMode": [null, null, null, null, null], "rewards": [-1, 3, -4, -14, 67], "path": ["0", "0", "1", "2", "3", "4", "6"], "rt": [12891, 331, 73, 528, 133], "actions": ["up", "up", "up", "right", "right"], "actionTimes": [14327, 15179, 15755, 16810, 17448], "queries": {"click": {"state": {"target": ["12", "13", "14", "23", "24", "25", "1", "2", "7", "6"], "time": [1915, 2290, 2935, 4047, 4612, 5042, 5760, 6219, 6787, 10316]}, "edge": {"target": [], "time": []}}, "mouseover": {"state": {"target": ["12", "13", "14", "23", "23", "24", "25", "1", "2", "7", "3", "4", "6", "4", "5", "3"], "time": [1733, 2181, 2714, 3580, 3914, 4314, 4947, 5615, 6114, 6652, 7147, 8148, 10191, 10814, 11148, 13792]}, "edge": {"target": [], "time": []}}, "mouseout": {"state": {"target": ["0", "12", "13", "14", "23", "23", "24", "25", "1", "2", "7", "3", "4", "6", "4", "5", "3", "2", "0"], "time": [1708, 2114, 2681, 3319, 3647, 4281, 4847, 5448, 5914, 6580, 6888, 7714, 10108, 10747, 10852, 13758, 22608, 22642, 22766]}, "edge": {"target": [], "time": []}}}, "displayed_time": "17.95", "trialTime": 23429, "trial_type": "mouselab-mdp", "trial_index": 24, "time_elapsed": 1352324, "internal_node_id": "0.0-6.0-1.0-15.0"}}, {"uniqueid": "w92539977:a71287415", "current_trial": 25, "dateTime": 1693581339989, "trialdata": {"revealed_states": [], "clicked_states": ["31", "32", "33", "29", "27"], "num_clicks_accrued": [0, 0, 0, 0, 0, 0, 0, 0, 0, 0, 0, 0, 0], "stateRewards": ["", 1, -2, 4, 7, -43, -83, -60, -5, -86, -80, 83, -1, -2, 6, 11, -15, 21, 13, 9, 29, -49, 11, -1, 4, -6, -11, 87, 40, 63, -8, -39, -11, 62], "withholdReward": false, "trial_id": "mdp_trial_17", "block": "test", "trialIndex": 18, "score": 62.25, "costs": -10.75, "simulationMode": [null, null, null, null, null], "rewards": [-1, 4, -6, -11, 87], "path": ["0", "0", "23", "24", "25", "26", "27"], "rt": [17462, 2, 596, 52, 56], "actions": ["left", "left", "left", "up", "up"], "actionTimes": [18729, 19257, 20384, 20940, 21527], "queries": {"click": {"state": {"target": ["31", "32", "33", "29", "27"], "time": [2112, 5319, 8415, 11556, 14654]}, "edge": {"target": [], "time": []}}, "mouseover": {"state": {"target": ["23", "31", "31", "32", "33", "26", "29", "26", "27", "28"], "time": [1389, 1556, 1973, 2487, 5720, 8857, 9120, 12987, 13120, 15487]}, "edge": {"target": [], "time": []}}, "mouseout": {"state": {"target": ["0", "23", "31", "31", "32", "33", "26", "29", "26", "27"], "time": [1089, 1489, 1614, 2387, 5587, 8653, 9020, 11920, 13020, 15354]}, "edge": {"target": [], "time": []}}}, "displayed_time": "22.05", "trialTime": 35622, "trial_type": "mouselab-mdp", "trial_index": 25, "time_elapsed": 1388111, "internal_node_id": "0.0-6.0-1.0-16.0"}}, {"uniqueid": "w92539977:a71287415", "current_trial": 26, "dateTime": 1693581373177, "trialdata": {"revealed_states": [], "clicked_states": ["21", "22", "20", "17", "16", "18"], "num_clicks_accrued": [0, 0, 0, 0, 0, 0, 0, 0, 0, 0, 0, 0, 0], "stateRewards": ["", 2, -2, 7, -11, -76, -65, -23, 16, -58, 30, 81, 1, 2, 7, 14, 9, 55, -2, 6, 11, -15, 31, -1, -1, -3, 2, 15, 2, 46, 15, 18, 45, -34], "withholdReward": false, "trial_id": "mdp_trial_18", "block": "test", "trialIndex": 19, "score": -36.9, "costs": -12.9, "simulationMode": [null, null, null, null, null], "rewards": [-1, -1, -3, 15, -34], "path": ["0", "0", "23", "24", "25", "30", "33"], "rt": [21609, 623, 196, 508, 131], "actions": ["left", "left", "left", "down", "left"], "actionTimes": [26150, 27284, 27987, 28999, 29625], "queries": {"click": {"state": {"target": ["21", "22", "20", "17", "16", "18"], "time": [5432, 8577, 12067, 15343, 18686, 21852]}, "edge": {"target": [], "time": []}}, "mouseover": {"state": {"target": ["22", "21", "21", "22", "19", "20", "17", "17", "16", "18"], "time": [4917, 4992, 5351, 6057, 8823, 8890, 12423, 12660, 15628, 19094]}, "edge": {"target": [], "time": []}}, "mouseout": {"state": {"target": ["28", "25", "31", "22", "22", "0", "22", "21", "21", "22", "19", "20", "17", "17", "16", "18", "12"], "time": [875, 900, 3459, 3542, 3750, 4859, 4934, 5026, 5794, 8660, 8856, 12290, 12490, 15523, 19057, 22923, 31626]}, "edge": {"target": [], "time": []}}}, "displayed_time": "30.13", "trialTime": 33013, "trial_type": "mouselab-mdp", "trial_index": 26, "time_elapsed": 1421299, "internal_node_id": "0.0-6.0-1.0-17.0"}}, {"uniqueid": "w92539977:a71287415", "current_trial": 27, "dateTime": 1693581407827, "trialdata": {"revealed_states": [], "clicked_states": ["10", "11", "9"], "num_clicks_accrued": [0, 0, 0, 0, 0, 0, 0, 0, 0, 0, 0, 0, 0], "stateRewards": ["", -2, 3, 8, -9, 59, 41, -50, -1, 82, 66, 33, 2, -2, 7, 8, 1, -38, 12, -16, 24, -37, 67, 1, 4, -2, 5, 35, -83, 28, 8, -27, 69, -64], "withholdReward": false, "trial_id": "mdp_trial_19", "block": "test", "trialIndex": 20, "score": 83.55, "costs": -6.449999999999999, "simulationMode": [null, null, null, null, null], "rewards": [-2, 3, 8, -1, 82], "path": ["0", "0", "1", "2", "3", "8", "9"], "rt": [11301, 168, 141, 2, 456], "actions": ["up", "up", "up", "left", "up"], "actionTimes": [12891, 13576, 14220, 14744, 15731], "queries": {"click": {"state": {"target": ["10", "11", "9"], "time": [2551, 6153, 9360]}, "edge": {"target": [], "time": []}}, "mouseover": {"state": {"target": ["1", "2", "10", "11", "11", "9"], "time": [1893, 1985, 2418, 3574, 3940, 6377]}, "edge": {"target": [], "time": []}}, "mouseout": {"state": {"target": ["0", "1", "2", "10", "10", "11", "11", "9", "9", "8", "10", "23"], "time": [1784, 1960, 2035, 2639, 3507, 3774, 6307, 9452, 32951, 32976, 32992, 33026]}, "edge": {"target": [], "time": []}}}, "displayed_time": "16.24", "trialTime": 34480, "trial_type": "mouselab-mdp", "trial_index": 27, "time_elapsed": 1455949, "internal_node_id": "0.0-6.0-1.0-18.0"}}, {"uniqueid": "w92539977:a71287415", "current_trial": 28, "dateTime": 1693581435699, "trialdata": {"revealed_states": [], "clicked_states": ["28", "27", "29", "33", "32"], "num_clicks_accrued": [0, 0, 0, 0, 0, 0, 0, 0, 0, 0, 0, 0, 0], "stateRewards": ["", 2, 3, 8, 14, 69, -27, 17, 2, -71, -65, -10, 2, -3, 7, 8, 65, -10, 65, -12, 73, -12, 13, -2, -2, 6, 10, -79, -69, -18, 10, -85, 67, 74], "withholdReward": false, "trial_id": "mdp_trial_20", "block": "test", "trialIndex": 21, "score": 75.25, "costs": -10.75, "simulationMode": [null, null, null, null, null], "rewards": [-2, -2, 6, 10, 74], "path": ["0", "0", "23", "24", "25", "30", "33"], "rt": [17651, 123, 34, 7, 31], "actions": ["left", "left", "left", "down", "left"], "actionTimes": [19402, 20032, 20576, 21117, 21673], "queries": {"click": {"state": {"target": ["28", "27", "29", "33", "32"], "time": [3181, 6396, 9583, 12845, 16025]}, "edge": {"target": [], "time": []}}, "mouseover": {"state": {"target": ["23", "25", "26", "28", "27", "29", "33", "32", "32"], "time": [1861, 2178, 2236, 3102, 3909, 7108, 10142, 13142, 13408]}, "edge": {"target": [], "time": []}}, "mouseout": {"state": {"target": ["23", "0", "23", "25", "26", "28", "27", "29", "29", "33", "32", "32"], "time": [852, 1844, 1894, 2202, 2319, 3612, 6808, 9643, 9909, 13076, 13147, 16375]}, "edge": {"target": [], "time": []}}}, "displayed_time": "22.18", "trialTime": 27687, "trial_type": "mouselab-mdp", "trial_index": 28, "time_elapsed": 1483821, "internal_node_id": "0.0-6.0-1.0-19.0"}}, {"uniqueid": "w92539977:a71287415", "current_trial": 29, "dateTime": 1693581466220, "trialdata": {"revealed_states": [], "clicked_states": ["9", "5", "11", "6", "10", "7"], "num_clicks_accrued": [0, 0, 0, 0, 0, 0, 0, 0, 0, 0, 0, 0, 0], "stateRewards": ["", 2, -3, -2, 14, -4, 85, 46, 15, -28, 41, 31, -1, -1, -1, 5, 62, 79, 57, 12, -73, -64, 86, -1, 1, -3, -5, 68, 11, -32, 8, -80, -21, -56], "withholdReward": false, "trial_id": "mdp_trial_21", "block": "test", "trialIndex": 22, "score": 83.1, "costs": -12.9, "simulationMode": [null, null, null, null, null], "rewards": [2, -3, -2, 14, 85], "path": ["0", "0", "1", "2", "3", "4", "6"], "rt": [20562, 27, 45, 488, 180], "actions": ["up", "up", "up", "right", "right"], "actionTimes": [22492, 23020, 23571, 24581, 25273], "queries": {"click": {"state": {"target": ["9", "5", "11", "6", "10", "7"], "time": [2872, 6023, 9165, 12379, 15936, 19278]}, "edge": {"target": [], "time": []}}, "mouseover": {"state": {"target": ["1", "2", "3", "9", "5", "8", "11", "8", "3", "4", "6", "4", "10", "7"], "time": [2261, 2303, 2353, 2511, 3926, 6360, 6459, 9497, 9559, 9598, 9726, 12792, 13192, 16492]}, "edge": {"target": [], "time": []}}, "mouseout": {"state": {"target": ["31", "23", "0", "1", "2", "3", "9", "5", "8", "11", "8", "3", "4", "6", "6", "4", "10"], "time": [1228, 1553, 2128, 2286, 2328, 2395, 3292, 6293, 6392, 9492, 9530, 9592, 9692, 12465, 12726, 12826, 16426]}, "edge": {"target": [], "time": []}}}, "displayed_time": "25.79", "trialTime": 30325, "trial_type": "mouselab-mdp", "trial_index": 29, "time_elapsed": 1514341, "internal_node_id": "0.0-6.0-1.0-20.0"}}, {"uniqueid": "w92539977:a71287415", "current_trial": 30, "dateTime": 1693581514065, "trialdata": {"revealed_states": [], "clicked_states": ["18", "16", "17", "20", "21", "22", "31", "32", "33", "29", "27", "28"], "num_clicks_accrued": [0, 0, 0, 0, 0, 0, 0, 0, 0, 0, 0, 0, 0], "stateRewards": ["", 2, -4, -4, 13, -80, 62, 13, -11, 57, -13, -44, 1, 4, 3, -4, -29, -88, 15, 16, -58, 68, -45, -1, -3, -1, -9, -44, -86, -19, -7, -36, 59, 66], "withholdReward": false, "trial_id": "mdp_trial_22", "block": "test", "trialIndex": 23, "score": 66.2, "costs": -25.799999999999994, "simulationMode": [null, null, null, null, null], "rewards": [1, 4, 3, 16, 68], "path": ["0", "0", "12", "13", "14", "19", "21"], "rt": [40356, 65, 51, 49, 41], "actions": ["right", "right", "right", "down", "down"], "actionTimes": [42003, 42571, 43156, 43719, 44278], "queries": {"click": {"state": {"target": ["18", "16", "17", "20", "21", "22", "31", "32", "33", "29", "27", "28"], "time": [2737, 5952, 9064, 12199, 15345, 18771, 21984, 25106, 28663, 32367, 35545, 38690]}, "edge": {"target": [], "time": []}}, "mouseover": {"state": {"target": ["18", "15", "17", "16", "18", "16", "17", "20", "21", "22", "31", "32", "33", "29", "27", "28", "12", "19", "22"], "time": [1896, 1913, 1963, 2271, 2571, 3240, 6435, 9968, 12702, 15939, 19502, 22335, 25520, 29507, 32702, 36035, 39102, 39169, 39369]}, "edge": {"target": [], "time": []}}, "mouseout": {"state": {"target": ["7", "1", "18", "15", "17", "16", "18", "16", "17", "20", "21", "22", "31", "32", "33", "29", "27", "28", "28", "12", "19", "22"], "time": [995, 1096, 1904, 1929, 2085, 2504, 2968, 6202, 9369, 12537, 15640, 19102, 22235, 25335, 29169, 32606, 35902, 38802, 39039, 39107, 39302, 39602]}, "edge": {"target": [], "time": []}}}, "displayed_time": "44.80", "trialTime": 47679, "trial_type": "mouselab-mdp", "trial_index": 30, "time_elapsed": 1562187, "internal_node_id": "0.0-6.0-1.0-21.0"}}, {"uniqueid": "w92539977:a71287415", "current_trial": 31, "dateTime": 1693581560610, "trialdata": {"revealed_states": [], "clicked_states": ["10", "11", "9", "5", "6", "7", "18", "16", "17", "20"], "num_clicks_accrued": [0, 0, 0, 0, 0, 0, 0, 0, 0, 0, 0, 0, 0], "stateRewards": ["", -1, -4, -1, -5, -28, -23, -15, -15, -38, 59, -87, 2, 2, -5, 9, -55, -39, -71, -6, 85, -85, -11, -1, -2, 5, -10, 1, 25, 41, -4, 69, -35, 86], "withholdReward": false, "trial_id": "mdp_trial_23", "block": "test", "trialIndex": 24, "score": 56.5, "costs": -21.499999999999996, "simulationMode": [null, null, null, null, null], "rewards": [2, 2, -5, -6, 85], "path": ["0", "0", "12", "13", "14", "19", "20"], "rt": [33984, 96, 199, 139, 79], "actions": ["right", "right", "right", "down", "right"], "actionTimes": [36835, 37447, 38153, 38793, 39397], "queries": {"click": {"state": {"target": ["10", "11", "9", "5", "6", "7", "18", "16", "17", "20"], "time": [4037, 7340, 10544, 13748, 16892, 20015, 23161, 26263, 29379, 32522]}, "edge": {"target": [], "time": []}}, "mouseover": {"state": {"target": ["1", "2", "9", "11", "10", "11", "9", "9", "5", "5", "6", "7", "18", "16", "17", "19", "21", "19", "14", "20", "21"], "time": [3218, 3260, 3360, 3618, 3893, 4449, 7749, 8049, 10916, 12149, 14216, 17349, 21316, 23483, 26682, 29782, 29849, 30116, 30216, 30716, 32954]}, "edge": {"target": [], "time": []}}, "mouseout": {"state": {"target": ["22", "0", "0", "1", "2", "9", "11", "10", "11", "9", "9", "5", "5", "6", "7", "18", "16", "17", "19", "21", "19", "14", "20", "21", "21"], "time": [1709, 2268, 3168, 3243, 3277, 3393, 3668, 4282, 7582, 7849, 10854, 10949, 13983, 17149, 20382, 23416, 26550, 29716, 29816, 29883, 30182, 30450, 32749, 36177, 42459]}, "edge": {"target": [], "time": []}}}, "displayed_time": "39.92", "trialTime": 46372, "trial_type": "mouselab-mdp", "trial_index": 31, "time_elapsed": 1608732, "internal_node_id": "0.0-6.0-1.0-22.0"}}, {"uniqueid": "w92539977:a71287415", "current_trial": 32, "dateTime": 1693581635742, "trialdata": {"revealed_states": [], "clicked_states": ["22", "21", "20", "17", "16", "18", "7", "6", "5", "9", "11", "10", "28", "27", "29", "33", "32", "31"], "num_clicks_accrued": [0, 0, 0, 0, 0, 0, 0, 0, 0, 0, 0, 0, 0], "stateRewards": ["", 1, 1, 6, -14, -40, 37, 16, -13, 33, -68, 49, 2, 4, 3, 6, 55, 27, 32, 10, -65, 20, -87, 2, 1, -6, -5, -42, 12, 29, -8, 16, 76, -33], "withholdReward": false, "trial_id": "mdp_trial_24", "block": "test", "trialIndex": 25, "score": 26.30000000000001, "costs": -38.69999999999999, "simulationMode": [null, null, null, null, null], "rewards": [2, 1, -6, -8, 76], "path": ["0", "0", "23", "24", "25", "30", "32"], "rt": [61867, 520, 184, 75, 72], "actions": ["left", "left", "left", "down", "down"], "actionTimes": [63705, 64738, 65436, 66026, 66623], "queries": {"click": {"state": {"target": ["22", "21", "20", "17", "16", "18", "7", "6", "5", "9", "11", "10", "28", "27", "29", "33", "32", "31"], "time": [3057, 6261, 9378, 12520, 15618, 19369, 22951, 26226, 30403, 33614, 36866, 40042, 43825, 46943, 50586, 53732, 56826, 60021]}, "edge": {"target": [], "time": []}}, "mouseover": {"state": {"target": ["12", "22", "21", "22", "21", "20", "17", "16", "18", "7", "6", "5", "9", "8", "11", "8", "10", "28", "27", "29", "33", "32", "31"], "time": [2194, 2335, 2652, 2902, 3583, 6683, 10050, 13083, 16250, 20450, 23250, 26684, 30922, 33917, 34117, 37222, 37551, 42621, 44284, 47450, 51284, 54384, 57084]}, "edge": {"target": [], "time": []}}, "mouseout": {"state": {"target": ["12", "0", "12", "22", "21", "22", "21", "20", "17", "16", "16", "18", "7", "6", "5", "9", "8", "11", "8", "10", "28", "27", "29", "33", "32", "31", "23", "22", "22", "19", "20"], "time": [1352, 2111, 2294, 2360, 2819, 3350, 6616, 9750, 12606, 15876, 16183, 19717, 23183, 26303, 30817, 33850, 33984, 37189, 37250, 40417, 44150, 47217, 50984, 54117, 57051, 62351, 71612, 71861, 71887, 71920, 71937]}, "edge": {"target": [], "time": []}}}, "displayed_time": "67.15", "trialTime": 74970, "trial_type": "mouselab-mdp", "trial_index": 32, "time_elapsed": 1683864, "internal_node_id": "0.0-6.0-1.0-23.0"}}, {"uniqueid": "w92539977:a71287415", "current_trial": 33, "dateTime": 1693581685726, "trialdata": {"revealed_states": [], "clicked_states": ["16", "17", "20", "21", "22", "18", "7", "6", "5", "9", "11", "10"], "num_clicks_accrued": [0, 0, 0, 0, 0, 0, 0, 0, 0, 0, 0, 0, 0], "stateRewards": ["", 1, 1, -3, 2, 22, -25, -11, -5, 50, 49, 3, 1, -1, 8, 14, -85, -30, 57, -6, -39, -16, 59, -2, -1, 5, 5, 59, -16, 8, 4, 67, 56, -9], "withholdReward": false, "trial_id": "mdp_trial_25", "block": "test", "trialIndex": 26, "score": 35.2, "costs": -25.799999999999994, "simulationMode": [null, null, null, null, null], "rewards": [1, -1, 8, -6, 59], "path": ["0", "0", "12", "13", "14", "19", "22"], "rt": [42859, 15, 86, 47, 64], "actions": ["right", "right", "right", "down", "left"], "actionTimes": [44937, 45460, 46065, 46626, 47209], "queries": {"click": {"state": {"target": ["16", "17", "20", "21", "22", "18", "7", "6", "5", "9", "11", "10"], "time": [3901, 7047, 10296, 13450, 16612, 19891, 24079, 27407, 30588, 34084, 38341, 41481]}, "edge": {"target": [], "time": []}}, "mouseover": {"state": {"target": ["12", "13", "14", "15", "16", "17", "17", "20", "21", "22", "13", "18", "7", "6", "6", "5", "5", "9", "9", "9", "11", "10", "2"], "time": [2280, 3338, 3396, 3530, 3755, 4377, 6477, 7653, 10648, 13877, 16910, 17081, 20848, 24444, 24910, 27710, 28077, 31677, 33402, 33996, 34777, 38877, 41883]}, "edge": {"target": [], "time": []}}, "mouseout": {"state": {"target": ["22", "12", "0", "12", "13", "14", "15", "16", "17", "17", "20", "21", "22", "13", "18", "7", "6", "6", "5", "5", "9", "9", "9", "9", "11", "10", "2"], "time": [1413, 1629, 2197, 3314, 3372, 3472, 3605, 4116, 4411, 7311, 10544, 13710, 16844, 16977, 20377, 24343, 24610, 27513, 27810, 31577, 31883, 33608, 34164, 34416, 38644, 41877, 41944]}, "edge": {"target": [], "time": []}}}, "displayed_time": "47.71", "trialTime": 49814, "trial_type": "mouselab-mdp", "trial_index": 33, "time_elapsed": 1733847, "internal_node_id": "0.0-6.0-1.0-24.0"}}, {"uniqueid": "w92539977:a71287415", "current_trial": 34, "dateTime": 1693581732205, "trialdata": {"revealed_states": [], "clicked_states": ["28", "27"], "num_clicks_accrued": [0, 0, 0, 0, 0, 0, 0, 0, 0, 0, 0, 0, 0], "stateRewards": ["", -2, 1, -8, 12, -65, -79, 16, 7, -80, -17, -45, -2, 2, -5, -2, -85, 23, -4, -7, 48, 27, -76, 2, 3, 5, 2, 43, 71, -13, 7, -49, 59, -31], "withholdReward": false, "trial_id": "mdp_trial_26", "block": "test", "trialIndex": 27, "score": 78.7, "costs": -4.3, "simulationMode": [null, null, null, null, null], "rewards": [2, 3, 5, 2, 71], "path": ["0", "0", "23", "24", "25", "26", "28"], "rt": [7480, 72, 570, 63, 31], "actions": ["left", "left", "left", "up", "right"], "actionTimes": [8642, 9230, 10328, 10892, 11456], "queries": {"click": {"state": {"target": ["28", "27"], "time": [2037, 5366]}, "edge": {"target": [], "time": []}}, "mouseover": {"state": {"target": ["23", "28", "27", "29"], "time": [1434, 1851, 2357, 5829]}, "edge": {"target": [], "time": []}}, "mouseout": {"state": {"target": ["23", "28", "27"], "time": [1443, 2257, 5724]}, "edge": {"target": [], "time": []}}}, "displayed_time": "15.16", "trialTime": 46306, "trial_type": "mouselab-mdp", "trial_index": 34, "time_elapsed": 1780326, "internal_node_id": "0.0-6.0-1.0-25.0"}}, {"uniqueid": "w92539977:a71287415", "current_trial": 35, "dateTime": 1693581769436, "trialdata": {"revealed_states": [], "clicked_states": ["23", "31", "32", "22", "21"], "num_clicks_accrued": [0, 0, 0, 0, 0, 0, 0, 0, 0, 0, 0, 0, 0], "stateRewards": ["", 1, -2, -3, 14, -42, -87, -37, -11, -50, 33, -44, -2, 4, -7, 13, 48, -75, -66, 12, 23, -2, 82, 1, -4, 3, 12, 51, -15, -26, -11, -52, -29, 82], "withholdReward": false, "trial_id": "mdp_trial_27", "block": "test", "trialIndex": 28, "score": 80.65, "costs": -8.35, "simulationMode": [null, null, null, null, null], "rewards": [-2, 4, -7, 12, 82], "path": ["0", "0", "12", "13", "14", "19", "22"], "rt": [15055, 118, 76, 134, 119], "actions": ["right", "right", "right", "down", "left"], "actionTimes": [16636, 17269, 17861, 18519, 19140], "queries": {"click": {"state": {"target": ["23", "31", "32", "22", "21"], "time": [2179, 3848, 7036, 10220, 13364]}, "edge": {"target": [], "time": []}}, "mouseover": {"state": {"target": ["23", "24", "25", "31", "32", "22", "22", "22", "21", "19", "14"], "time": [2003, 2818, 2918, 3441, 4184, 7451, 7751, 8351, 10518, 13757, 13818]}, "edge": {"target": [], "time": []}}, "mouseout": {"state": {"target": ["29", "10", "2", "18", "13", "23", "23", "24", "25", "31", "32", "22", "22", "22", "21", "19"], "time": [511, 628, 670, 728, 970, 1236, 2751, 2884, 3089, 4089, 7318, 7490, 8085, 10451, 13718, 13785]}, "edge": {"target": [], "time": []}}}, "displayed_time": "19.65", "trialTime": 37031, "trial_type": "mouselab-mdp", "trial_index": 35, "time_elapsed": 1817558, "internal_node_id": "0.0-6.0-1.0-26.0"}}, {"uniqueid": "w92539977:a71287415", "current_trial": 36, "dateTime": 1693581814305, "trialdata": {"revealed_states": [], "clicked_states": ["6"], "num_clicks_accrued": [0, 0, 0, 0, 0, 0, 0, 0, 0, 0, 0, 0, 0], "stateRewards": ["", -1, -3, -6, -2, -7, 80, -45, -3, -38, -72, 76, 2, 1, 7, 4, -62, 14, -74, 14, -87, -21, -88, -2, 1, -7, -10, 66, 56, -76, 10, -29, -72, -70], "withholdReward": false, "trial_id": "mdp_trial_28", "block": "test", "trialIndex": 29, "score": 65.85, "costs": -2.15, "simulationMode": [null, null, null, null, null], "rewards": [-1, -3, -6, -2, 80], "path": ["0", "0", "1", "2", "3", "4", "6"], "rt": [5088, 56, 56, 2, 89], "actions": ["up", "up", "up", "right", "right"], "actionTimes": [7298, 7858, 8421, 8937, 9558], "queries": {"click": {"state": {"target": ["6"], "time": [3359]}, "edge": {"target": [], "time": []}}, "mouseover": {"state": {"target": ["16", "6", "6", "7"], "time": [2800, 2958, 3158, 4164]}, "edge": {"target": [], "time": []}}, "mouseout": {"state": {"target": ["14", "13", "12", "16", "6", "6", "7"], "time": [1516, 1674, 1849, 2883, 2991, 3731, 43667]}, "edge": {"target": [], "time": []}}}, "displayed_time": "16.21", "trialTime": 44679, "trial_type": "mouselab-mdp", "trial_index": 36, "time_elapsed": 1862427, "internal_node_id": "0.0-6.0-1.0-27.0"}}, {"uniqueid": "w92539977:a71287415", "current_trial": 37, "dateTime": 1693581834318, "trialdata": {"revealed_states": [], "clicked_states": ["10", "11"], "num_clicks_accrued": [0, 0, 0, 0, 0, 0, 0, 0, 0, 0, 0, 0, 0], "stateRewards": ["", 1, -1, 8, -3, 38, 85, -20, -4, 8, 23, 73, 2, -4, 6, -13, 44, 7, -28, -11, -77, 45, -69, 1, -1, -7, -11, 75, -51, -87, 7, 36, -53, -26], "withholdReward": false, "trial_id": "mdp_trial_29", "block": "test", "trialIndex": 30, "score": 72.7, "costs": -4.3, "simulationMode": [null, null, null, null, null], "rewards": [1, -1, 8, -4, 73], "path": ["0", "0", "1", "2", "3", "8", "11"], "rt": [8252, 123, 127, 79, 124], "actions": ["up", "up", "up", "left", "left"], "actionTimes": [9839, 10479, 11116, 11702, 12347], "queries": {"click": {"state": {"target": ["10", "11"], "time": [2421, 5709]}, "edge": {"target": [], "time": []}}, "mouseover": {"state": {"target": ["1", "10", "11", "10", "11", "11", "9", "9"], "time": [1841, 1882, 1941, 2241, 2789, 3155, 6155, 6555]}, "edge": {"target": [], "time": []}}, "mouseout": {"state": {"target": ["4", "2", "1", "10", "11", "10", "11", "11", "9"], "time": [682, 740, 1849, 1908, 2058, 2519, 2855, 6088, 6288]}, "edge": {"target": [], "time": []}}}, "displayed_time": "15.59", "trialTime": 19816, "trial_type": "mouselab-mdp", "trial_index": 37, "time_elapsed": 1882440, "internal_node_id": "0.0-6.0-1.0-28.0"}}, {"uniqueid": "w92539977:a71287415", "current_trial": 38, "dateTime": 1693581910844, "trialdata": {"revealed_states": [], "clicked_states": ["23", "24", "31", "32", "29", "27", "28", "16", "17", "18", "20", "21", "22", "33", "7", "6", "5"], "num_clicks_accrued": [0, 0, 0, 0, 0, 0, 0, 0, 0, 0, 0, 0, 0], "stateRewards": ["", 2, -4, 4, 9, 69, 9, -75, 12, -86, 66, 25, -1, 3, 2, -13, -88, -3, 1, 4, -69, 49, -84, 2, -1, 4, 2, -18, -81, -52, -15, -69, -54, 25], "withholdReward": false, "trial_id": "mdp_trial_30", "block": "test", "trialIndex": 31, "score": 47.650000000000006, "costs": -32.349999999999994, "simulationMode": [null, null, null, null, null], "rewards": [2, -4, 4, 9, 69], "path": ["0", "0", "1", "2", "3", "4", "5"], "rt": [53958, 348, 117, 447, 130], "actions": ["up", "up", "up", "right", "up"], "actionTimes": [55625, 56495, 57131, 58095, 58744], "queries": {"click": {"state": {"target": ["23", "24", "31", "32", "29", "27", "28", "16", "17", "18", "20", "21", "22", "33", "7", "6", "5"], "time": [2380, 2880, 4180, 7379, 10971, 14122, 17218, 20600, 23745, 26920, 30148, 33284, 36665, 41135, 44861, 48014, 51294]}, "edge": {"target": [], "time": []}}, "mouseover": {"state": {"target": ["23", "24", "31", "32", "33", "26", "29", "27", "28", "10", "28", "10", "18", "17", "16", "17", "15", "18", "14", "20", "21", "22", "12", "7", "7", "2", "26", "25", "30", "33", "3", "5", "6", "7", "7", "6", "6", "5", "9"], "time": [2057, 2713, 3413, 4880, 7779, 10640, 10866, 11713, 14546, 14618, 15418, 17718, 18246, 18713, 18946, 20913, 24918, 25313, 27213, 27518, 30481, 33680, 37113, 37213, 37580, 39916, 40299, 40566, 40591, 40924, 41813, 41880, 42247, 42486, 44699, 45146, 46352, 48713, 51646]}, "edge": {"target": [], "time": []}}, "mouseout": {"state": {"target": ["9", "3", "2", "1", "0", "23", "24", "31", "32", "33", "26", "29", "27", "28", "10", "28", "10", "18", "17", "16", "17", "15", "18", "14", "20", "21", "22", "12", "7", "7", "2", "26", "25", "30", "33", "3", "5", "6", "7", "7", "6", "6", "5"], "time": [723, 973, 990, 1015, 2024, 2646, 3379, 4413, 7647, 10557, 10807, 11246, 14413, 14555, 15118, 17446, 18185, 18280, 18746, 20813, 24851, 25013, 27185, 27249, 30447, 33480, 37080, 37147, 37246, 39246, 39932, 40557, 40582, 40849, 41680, 41846, 42085, 42346, 44582, 45046, 45980, 48280, 51546]}, "edge": {"target": [], "time": []}}}, "displayed_time": "59.25", "trialTime": 76333, "trial_type": "mouselab-mdp", "trial_index": 38, "time_elapsed": 1958966, "internal_node_id": "0.0-6.0-1.0-29.0"}}, {"uniqueid": "w92539977:a71287415", "current_trial": 39, "dateTime": 1693581950854, "trialdata": {"revealed_states": [], "clicked_states": ["28", "27", "29", "33", "32", "31", "22", "21", "20"], "num_clicks_accrued": [0, 0, 0, 0, 0, 0, 0, 0, 0, 0, 0, 0, 0], "stateRewards": ["", -2, 4, -7, -3, -76, 39, -28, 10, 14, 12, 60, 2, -3, 6, -10, 88, -34, -41, -3, 72, -13, -56, 1, 3, 2, 8, -51, 23, -57, 1, 14, -46, -16], "withholdReward": false, "trial_id": "mdp_trial_31", "block": "test", "trialIndex": 32, "score": 54.650000000000006, "costs": -19.349999999999998, "simulationMode": [null, null, null, null, null], "rewards": [2, -3, 6, -3, 72], "path": ["0", "0", "12", "13", "14", "19", "20"], "rt": [31792, 87, 140, 33, 34], "actions": ["right", "right", "right", "down", "right"], "actionTimes": [34695, 35298, 35951, 36481, 37045], "queries": {"click": {"state": {"target": ["28", "27", "29", "33", "32", "31", "22", "21", "20"], "time": [4054, 7229, 10472, 14322, 17497, 20653, 24123, 27284, 30432]}, "edge": {"target": [], "time": []}}, "mouseover": {"state": {"target": ["23", "28", "27", "29", "29", "33", "33", "32", "31", "22", "21", "20", "20", "17", "17"], "time": [3304, 3837, 4343, 7710, 8243, 10816, 11243, 14682, 18010, 23896, 25710, 27643, 28010, 30910, 31043]}, "edge": {"target": [], "time": []}}, "mouseout": {"state": {"target": ["9", "8", "10", "0", "0", "23", "28", "27", "29", "29", "29", "33", "33", "32", "31", "22", "21", "20", "20", "17"], "time": [1928, 2012, 2070, 2120, 3187, 3721, 4176, 7510, 7777, 10570, 10776, 10843, 14582, 17573, 21077, 24443, 27543, 27815, 30474, 30943]}, "edge": {"target": [], "time": []}}}, "displayed_time": "37.58", "trialTime": 39806, "trial_type": "mouselab-mdp", "trial_index": 39, "time_elapsed": 1998975, "internal_node_id": "0.0-6.0-1.0-30.0"}}, {"uniqueid": "w92539977:a71287415", "current_trial": 40, "dateTime": 1693581993444, "trialdata": {"revealed_states": [], "clicked_states": ["5", "9", "11"], "num_clicks_accrued": [0, 0, 0, 0, 0, 0, 0, 0, 0, 0, 0, 0, 0], "stateRewards": ["", 1, -3, -4, -11, -56, 61, -47, -16, -28, -9, 69, -2, -3, -4, -8, 40, -86, 59, -4, 80, 27, 54, -1, 3, -1, 8, 67, 23, 50, 6, 83, -43, -29], "withholdReward": false, "trial_id": "mdp_trial_32", "block": "test", "trialIndex": 33, "score": 40.55, "costs": -6.449999999999999, "simulationMode": [null, null, null, null, null], "rewards": [1, -3, -4, -16, 69], "path": ["0", "0", "1", "2", "3", "8", "11"], "rt": [11433, 63, 51, 3, 44], "actions": ["up", "up", "up", "left", "left"], "actionTimes": [14950, 15510, 16093, 16616, 17187], "queries": {"click": {"state": {"target": ["5", "9", "11"], "time": [4318, 7542, 10677]}, "edge": {"target": [], "time": []}}, "mouseover": {"state": {"target": ["1", "2", "3", "5", "9", "11", "8", "4", "6", "6"], "time": [3752, 3827, 3894, 4160, 4841, 8042, 10909, 10946, 10975, 11241]}, "edge": {"target": [], "time": []}}, "mouseout": {"state": {"target": ["17", "1", "0", "1", "2", "3", "5", "5", "9", "11", "8", "4", "6", "6", "18", "13", "0"], "time": [2785, 3093, 3677, 3802, 3860, 4019, 4378, 4775, 7629, 10908, 10915, 10959, 11008, 21952, 22286, 22319, 24236]}, "edge": {"target": [], "time": []}}}, "displayed_time": "17.71", "trialTime": 42394, "trial_type": "mouselab-mdp", "trial_index": 40, "time_elapsed": 2041566, "internal_node_id": "0.0-6.0-1.0-31.0"}}, {"uniqueid": "w92539977:a71287415", "current_trial": 41, "dateTime": 1693582026833, "trialdata": {"revealed_states": [], "clicked_states": ["12", "17", "16", "18", "20", "21", "22", "6"], "num_clicks_accrued": [0, 0, 0, 0, 0, 0, 0, 0, 0, 0, 0, 0, 0], "stateRewards": ["", 1, -2, -8, -3, 31, -84, -55, -14, 15, -58, 17, -2, -3, 7, 7, -12, 48, 67, 4, -44, -68, 46, 2, 3, -5, -7, 76, 27, 5, 11, 57, 52, 59], "withholdReward": false, "trial_id": "mdp_trial_33", "block": "test", "trialIndex": 34, "score": 61.2, "costs": -14.8, "simulationMode": [null, null, null, null, null], "rewards": [-2, -3, 7, 7, 67], "path": ["0", "0", "12", "13", "14", "15", "18"], "rt": [25194, 85, 62, 65, 19], "actions": ["right", "right", "right", "up", "left"], "actionTimes": [27056, 27662, 28239, 28809, 29329], "queries": {"click": {"state": {"target": ["12", "17", "16", "18", "20", "21", "22", "6"], "time": [2836, 4312, 7549, 10634, 14042, 17198, 20378, 23843]}, "edge": {"target": [], "time": []}}, "mouseover": {"state": {"target": ["12", "13", "14", "14", "17", "17", "16", "15", "18", "14", "20", "14", "20", "21", "22", "13", "18", "6", "13"], "time": [2637, 3476, 3543, 3843, 4003, 4204, 4643, 7909, 8343, 11009, 11049, 11543, 11809, 14376, 17509, 22476, 22517, 23180, 24282]}, "edge": {"target": [], "time": []}}, "mouseout": {"state": {"target": ["0", "12", "13", "14", "14", "17", "17", "16", "15", "18", "14", "20", "14", "20", "21", "22", "13", "18", "6", "13"], "time": [1420, 3443, 3515, 3609, 3904, 4053, 4476, 7876, 7916, 10976, 11043, 11376, 11776, 14311, 17409, 22443, 22510, 22543, 24209, 24344]}, "edge": {"target": [], "time": []}}}, "displayed_time": "29.85", "trialTime": 33184, "trial_type": "mouselab-mdp", "trial_index": 41, "time_elapsed": 2074955, "internal_node_id": "0.0-6.0-1.0-32.0"}}, {"uniqueid": "w92539977:a71287415", "current_trial": 42, "dateTime": 1693582067894, "trialdata": {"revealed_states": [], "clicked_states": ["32", "33", "29", "27", "28"], "num_clicks_accrued": [0, 0, 0, 0, 0, 0, 0, 0, 0, 0, 0, 0, 0], "stateRewards": ["", -1, -3, 4, -10, -5, 79, -87, -2, 53, 29, -20, -2, -1, -5, 10, 27, 86, 46, -16, -29, 40, 3, 2, 4, -1, -6, 37, 79, -29, 7, 86, -62, 29], "withholdReward": false, "trial_id": "mdp_trial_34", "block": "test", "trialIndex": 35, "score": 67.25, "costs": -10.75, "simulationMode": [null, null, null, null, null], "rewards": [2, 4, -1, -6, 79], "path": ["0", "0", "23", "24", "25", "26", "28"], "rt": [17757, 99, 54, 566, 87], "actions": ["left", "left", "left", "up", "right"], "actionTimes": [21630, 22237, 22792, 23867, 24458], "queries": {"click": {"state": {"target": ["32", "33", "29", "27", "28"], "time": [4976, 8164, 11359, 14517, 17720]}, "edge": {"target": [], "time": []}}, "mouseover": {"state": {"target": ["31", "32", "32", "33", "33", "29", "27", "28", "24", "31", "31"], "time": [4244, 4336, 4870, 5600, 6050, 8700, 11766, 15016, 18033, 18100, 18500]}, "edge": {"target": [], "time": []}}, "mouseout": {"state": {"target": ["13", "12", "0", "23", "0", "31", "32", "32", "33", "33", "29", "27", "28", "24", "31"], "time": [702, 761, 802, 1136, 4086, 4286, 4461, 5300, 5767, 8533, 11666, 14800, 18000, 18066, 18133]}, "edge": {"target": [], "time": []}}}, "displayed_time": "24.97", "trialTime": 40869, "trial_type": "mouselab-mdp", "trial_index": 42, "time_elapsed": 2116016, "internal_node_id": "0.0-6.0-1.0-33.0"}}, {"uniqueid": "w92539977:a71287415", "current_trial": 43, "dateTime": 1693582135775, "trialdata": {"revealed_states": [], "clicked_states": ["27"], "num_clicks_accrued": [0, 0, 0, 0, 0, 0, 0, 0, 0, 0, 0, 0, 0], "stateRewards": ["", -1, -1, 7, -15, -43, -21, -84, -9, -45, -66, 2, 1, -2, 2, 8, -27, 44, -52, -5, -84, 11, 53, 1, 4, -4, 16, 83, -82, -15, -16, 68, -43, 81], "withholdReward": false, "trial_id": "mdp_trial_35", "block": "test", "trialIndex": 36, "score": 97.85, "costs": -2.15, "simulationMode": [null, null, null, null, null], "rewards": [1, 4, -4, 16, 83], "path": ["0", "0", "23", "24", "25", "26", "27"], "rt": [4536, 583, 253, 124, 148], "actions": ["left", "left", "left", "up", "up"], "actionTimes": [6248, 7340, 8110, 8747, 9405], "queries": {"click": {"state": {"target": ["27"], "time": [2316]}, "edge": {"target": [], "time": []}}, "mouseover": {"state": {"target": ["23", "28", "27", "11", "11"], "time": [1867, 1975, 2084, 2623, 2856]}, "edge": {"target": [], "time": []}}, "mouseout": {"state": {"target": ["31", "23", "23", "28", "27", "11"], "time": [934, 1067, 1925, 2042, 2556, 2630]}, "edge": {"target": [], "time": []}}}, "displayed_time": "15.71", "trialTime": 67673, "trial_type": "mouselab-mdp", "trial_index": 43, "time_elapsed": 2183897, "internal_node_id": "0.0-6.0-1.0-34.0"}}, {"uniqueid": "w92539977:a71287415", "current_trial": 44, "dateTime": 1693582172533, "trialdata": {"revealed_states": [], "clicked_states": ["10", "11", "9", "5", "6", "7", "18", "16", "17"], "num_clicks_accrued": [0, 0, 0, 0, 0, 0, 0, 0, 0, 0, 0, 0, 0], "stateRewards": ["", -2, -4, -8, 8, 63, -50, -19, -7, -17, -31, 31, 1, 3, -5, 12, -35, -63, -29, -4, -17, -75, -79, -2, -3, -2, 8, -3, -85, 10, -2, -82, -82, 56], "withholdReward": false, "trial_id": "mdp_trial_36", "block": "test", "trialIndex": 37, "score": 37.650000000000006, "costs": -19.349999999999998, "simulationMode": [null, null, null, null, null], "rewards": [-2, -4, -8, 8, 63], "path": ["0", "0", "1", "2", "3", "4", "5"], "rt": [29780, 633, 120, 32, 11], "actions": ["up", "up", "up", "right", "up"], "actionTimes": [31778, 32935, 33560, 34101, 34646], "queries": {"click": {"state": {"target": ["10", "11", "9", "5", "6", "7", "18", "16", "17"], "time": [2863, 6090, 9360, 12539, 15667, 18829, 22312, 25426, 28556]}, "edge": {"target": [], "time": []}}, "mouseover": {"state": {"target": ["10", "10", "11", "9", "5", "6", "7", "16", "18", "16", "17", "15"], "time": [2295, 2653, 3168, 6535, 9735, 13173, 16373, 19651, 20184, 22640, 25718, 28919]}, "edge": {"target": [], "time": []}}, "mouseout": {"state": {"target": ["11", "23", "10", "10", "11", "9", "5", "6", "7", "16", "18", "16", "17", "15"], "time": [1095, 1478, 2403, 2943, 6175, 9484, 12624, 16168, 19251, 19884, 22568, 25684, 28918, 28968]}, "edge": {"target": [], "time": []}}}, "displayed_time": "35.17", "trialTime": 36542, "trial_type": "mouselab-mdp", "trial_index": 44, "time_elapsed": 2220654, "internal_node_id": "0.0-6.0-1.0-35.0"}}, {"uniqueid": "w92539977:a71287415", "current_trial": 45, "dateTime": 1693582204885, "trialdata": {"revealed_states": [], "clicked_states": ["31", "32", "21", "16", "6", "11", "27"], "num_clicks_accrued": [0, 0, 0, 0, 0, 0, 0, 0, 0, 0, 0, 0, 0], "stateRewards": ["", 1, -1, 4, -2, -75, -75, 84, -9, -60, -79, 59, 2, -4, 8, 9, -17, -82, 80, 14, -4, 49, 49, -1, 3, 6, -11, -33, 34, 55, 9, -57, 5, 59], "withholdReward": false, "trial_id": "mdp_trial_37", "block": "test", "trialIndex": 38, "score": 38.95, "costs": -15.05, "simulationMode": [null, null, null, null, null], "rewards": [1, -1, 4, -9, 59], "path": ["0", "0", "1", "2", "3", "8", "11"], "rt": [25185, 6, 80, 571, 102], "actions": ["up", "up", "up", "left", "left"], "actionTimes": [26736, 27269, 27876, 28968, 29570], "queries": {"click": {"state": {"target": ["31", "32", "21", "16", "6", "11", "27"], "time": [3264, 6478, 9725, 13165, 16335, 19614, 22969]}, "edge": {"target": [], "time": []}}, "mouseover": {"state": {"target": ["23", "24", "24", "28", "24", "31", "32", "21", "17", "16", "4", "6", "3", "8", "11", "27", "26"], "time": [1872, 1964, 2614, 2697, 2922, 3164, 4095, 6994, 9995, 10195, 13701, 14168, 16595, 16646, 16711, 20178, 25634]}, "edge": {"target": [], "time": []}}, "mouseout": {"state": {"target": ["18", "12", "0", "0", "23", "24", "24", "28", "24", "31", "31", "32", "21", "17", "16", "4", "6", "3", "8", "11", "11", "27", "26"], "time": [722, 822, 963, 1830, 1922, 2364, 2631, 2897, 2947, 3360, 3828, 6695, 9895, 10028, 13478, 13829, 16534, 16645, 16662, 19718, 20062, 25595, 26430]}, "edge": {"target": [], "time": []}}}, "displayed_time": "30.08", "trialTime": 32154, "trial_type": "mouselab-mdp", "trial_index": 45, "time_elapsed": 2253006, "internal_node_id": "0.0-6.0-1.0-36.0"}}, {"uniqueid": "w92539977:a71287415", "current_trial": 46, "dateTime": 1693582223737, "trialdata": {"revealed_states": [], "clicked_states": ["32", "33", "29"], "num_clicks_accrued": [0, 0, 0, 0, 0, 0, 0, 0, 0, 0, 0, 0, 0], "stateRewards": ["", -1, 4, 3, 12, -27, 34, -33, 3, -63, 1, 6, 2, 2, -6, -11, -77, -85, 68, -6, 51, 81, -60, -2, -2, 1, 15, 20, 15, 68, -10, -14, 6, -4], "withholdReward": false, "trial_id": "mdp_trial_38", "block": "test", "trialIndex": 39, "score": 73.55, "costs": -6.449999999999999, "simulationMode": [null, null, null, null, null], "rewards": [-2, -2, 1, 15, 68], "path": ["0", "0", "23", "24", "25", "26", "29"], "rt": [11747, 61, 6, 568, 102], "actions": ["left", "left", "left", "up", "left"], "actionTimes": [13158, 13729, 14269, 15365, 15970], "queries": {"click": {"state": {"target": ["32", "33", "29"], "time": [2847, 6056, 9196]}, "edge": {"target": [], "time": []}}, "mouseover": {"state": {"target": ["0", "31", "32", "33", "29", "27"], "time": [1640, 1873, 2648, 4163, 6402, 9629]}, "edge": {"target": [], "time": []}}, "mouseout": {"state": {"target": ["0", "31", "32", "33", "29"], "time": [1648, 1890, 3212, 6296, 9396]}, "edge": {"target": [], "time": []}}}, "displayed_time": "16.47", "trialTime": 18673, "trial_type": "mouselab-mdp", "trial_index": 46, "time_elapsed": 2271859, "internal_node_id": "0.0-6.0-1.0-37.0"}}, {"uniqueid": "w92539977:a71287415", "current_trial": 47, "dateTime": 1693582249485, "trialdata": {"revealed_states": [], "clicked_states": ["27", "11"], "num_clicks_accrued": [0, 0, 0, 0, 0, 0, 0, 0, 0, 0, 0, 0, 0], "stateRewards": ["", -2, 1, -7, -8, -37, -76, -87, 11, 30, -63, 80, -1, 4, 2, -1, 42, 17, 52, -3, -75, -80, -68, 2, -3, -5, -15, -48, 82, 24, -7, 5, -22, -71], "withholdReward": false, "trial_id": "mdp_trial_39", "block": "test", "trialIndex": 40, "score": 78.7, "costs": -4.3, "simulationMode": [null, null, null, null, null], "rewards": [-2, 1, -7, 11, 80], "path": ["0", "0", "1", "2", "3", "8", "11"], "rt": [8118, 42, 55, 3, 466], "actions": ["up", "up", "up", "left", "left"], "actionTimes": [9912, 10478, 11041, 11555, 12552], "queries": {"click": {"state": {"target": ["27", "11"], "time": [2769, 6013]}, "edge": {"target": [], "time": []}}, "mouseover": {"state": {"target": ["23", "24", "25", "26", "27", "11", "8", "3", "4", "6"], "time": [2095, 2229, 2345, 2437, 2546, 3585, 6307, 8785, 8979, 9120]}, "edge": {"target": [], "time": []}}, "mouseout": {"state": {"target": ["27", "0", "23", "24", "25", "26", "27", "11", "8", "3", "4", "6"], "time": [845, 2062, 2187, 2287, 2404, 2479, 2974, 6268, 8735, 8895, 9070, 9254]}, "edge": {"target": [], "time": []}}}, "displayed_time": "15.79", "trialTime": 25560, "trial_type": "mouselab-mdp", "trial_index": 47, "time_elapsed": 2297607, "internal_node_id": "0.0-6.0-1.0-38.0"}}, {"uniqueid": "w92539977:a71287415", "current_trial": 48, "dateTime": 1693582273743, "trialdata": {"revealed_states": [], "clicked_states": ["16", "17", "20", "21"], "num_clicks_accrued": [0, 0, 0, 0, 0, 0, 0, 0, 0, 0, 0, 0, 0], "stateRewards": ["", 2, -1, 4, -9, -43, 7, 54, -13, 38, -40, -83, -1, 2, -8, -10, 34, -33, 11, -14, -79, 65, 26, 1, 2, 4, 10, 21, 1, 86, 4, -53, 28, -29], "withholdReward": false, "trial_id": "mdp_trial_40", "block": "test", "trialIndex": 41, "score": 35.4, "costs": -8.6, "simulationMode": [null, null, null, null, null], "rewards": [-1, 2, -8, -14, 65], "path": ["0", "0", "12", "13", "14", "19", "21"], "rt": [14424, 58, 53, 3, 381], "actions": ["right", "right", "right", "down", "down"], "actionTimes": [16030, 16598, 17160, 17677, 18588], "queries": {"click": {"state": {"target": ["16", "17", "20", "21"], "time": [2578, 5719, 8820, 11946]}, "edge": {"target": [], "time": []}}, "mouseover": {"state": {"target": ["12", "13", "14", "17", "16", "17", "20", "21", "22"], "time": [1991, 2024, 2049, 2266, 2466, 3689, 6538, 9372, 12322]}, "edge": {"target": [], "time": []}}, "mouseout": {"state": {"target": ["7", "1", "0", "12", "13", "14", "17", "16", "16", "17", "17", "20", "21"], "time": [816, 1040, 1974, 2016, 2041, 2191, 2349, 2671, 3222, 5819, 6022, 9105, 12256]}, "edge": {"target": [], "time": []}}}, "displayed_time": "19.09", "trialTime": 24056, "trial_type": "mouselab-mdp", "trial_index": 48, "time_elapsed": 2321865, "internal_node_id": "0.0-6.0-1.0-39.0"}}, {"uniqueid": "w92539977:a71287415", "current_trial": 49, "dateTime": 1693582340990, "trialdata": {"rt": 67244, "response": {"Q0": "$-2 to $2", "Q1": "$-16 to $16", "Q2": "$-88 to $88", "Q3": "The cost for clicking on nodes varied between nodes.", "Q4": "Very motivated"}, "question_order": [0, 1, 2, 3, 4], "trial_id": "final_quiz_control", "trial_type": "survey-multi-choice", "trial_index": 49, "time_elapsed": 2389112, "internal_node_id": "0.0-6.0-2.0"}}, {"uniqueid": "w92539977:a71287415", "current_trial": 50, "dateTime": 1693582584125, "trialdata": {"rt": 243129, "response": {"Q0": "Originally I started from the beginning node and went in a direction, however I noticed that the highest value was on the fifth step so what I did was I went to all the ending tiles and clicked them to see which offered the highest amount. I then realised that if the ending tile was high enough it would cancel out all the other tiles before it.", "Q1": "Like stated previously I begin clicking all the tiles but eventually I switched to clicking only the end tiles. This meant that I minimised the amount of money spent and maximised the amount gained.", "Q2": "I didn't find it difficult at all, it almost felt natural the way I was progressing."}, "trial_id": "self_report_control", "trial_type": "survey-text", "trial_index": 50, "time_elapsed": 2632247, "internal_node_id": "0.0-6.0-3.0"}}, {"uniqueid": "w92539977:a71287415", "current_trial": 51, "dateTime": 1693582654879, "trialdata": {"rt": 70752, "response": {"Q0": "Disagree", "Q1": "Strongly disagree", "Q2": "Agree", "Q3": "Agree", "Q4": "Agree", "Q5": "Neither disagree nor agree", "Q6": "Disagree"}, "question_order": [0, 1, 2, 3, 4, 5, 6], "trial_id": "self_report_2", "trial_type": "survey-multi-choice", "trial_index": 51, "time_elapsed": 2703001, "internal_node_id": "0.0-6.0-4.0"}}, {"uniqueid": "w92539977:a71287415", "current_trial": 52, "dateTime": 1693582703433, "trialdata": {"rt": 48550, "response": {"gender": "male", "age": "32", "colorblind": "0", "effort": "0"}, "trial_type": "survey-html-form", "trial_index": 52, "time_elapsed": 2751555, "internal_node_id": "0.0-6.0-5.0"}}, {"uniqueid": "w92539977:a71287415", "current_trial": 53, "dateTime": 1693582743524, "trialdata": {"rt": 40087, "response": {"Q0": "No all of it was very easy to understand.", "Q1": "No", "Q2": ""}, "trial_type": "survey-text", "trial_index": 53, "time_elapsed": 2791646, "internal_node_id": "0.0-6.0-6.0"}}, {"uniqueid": "w92539977:a71287415", "current_trial": 54, "dateTime": 1693582787248, "trialdata": {"rt": 43720, "stimulus": "<h1>Completion Code Instructions (1/2)</h1>\n<br><br><br><br>\nYou have reached the end of the experiment! The completion code consists of two parts: (1) a code with 2 characters (2) a code with 6 characters. On this page, you will receive the second part of the code. The first part of the completion code will be on the next page.\n<br><br>\nThe second part of your completion code is: <b>EWEK22</b>\n<br><br>\nPlease note this down. Then, press 'Next' in order to find the first part of your completion code. Once the data has been saved, you will receive this code either in this window or in the original browser window where you started the experiment.\n <br><br>\n<h2 style='color: red;'>Note: this is <strong>NOT</strong> the full completion code. Copy this down and click 'Next' to get the full completion code on the next page.</h2>", "response": 0, "trial_type": "html-button-response", "trial_index": 54, "time_elapsed": 2835369, "internal_node_id": "0.0-6.0-7.0"}}, {"uniqueid": "w92539977:a71287415", "current_trial": 55, "dateTime": 1693582788251, "trialdata": {"success": true, "trial_type": "fullscreen", "trial_index": 55, "time_elapsed": 2836373, "internal_node_id": "0.0-7.0"}}], "questiondata": {"params": {"CODE": "C6DMOQA6", "MIN_TIME": 14, "inspectCost": 1, "startTime": "Fri Sep 01 2023 15:52:31 GMT+0100 (British Summer Time)", "bonusRate": 0.002, "variance": "1_2_4_8_44", "branching": "31123"}, "final_score": 1818.05}, "eventdata": [{"eventtype": "initialized", "value": null, "timestamp": 1693579950848, "interval": 0}, {"eventtype": "window_resize", "value": [1000, 673], "timestamp": 1693579950848, "interval": 0}, {"eventtype": "window_resize", "value": [1000, 673], "timestamp": 1693579951174, "interval": 326}, {"eventtype": "window_resize", "value": [1920, 1080], "timestamp": 1693579957319, "interval": 6145}, {"eventtype": "focus", "value": "off", "timestamp": 1693580350073, "interval": 392754}, {"eventtype": "focus", "value": "on", "timestamp": 1693580358223, "interval": 8150}, {"eventtype": "focus", "value": "off", "timestamp": 1693580491658, "interval": 133435}, {"eventtype": "focus", "value": "on", "timestamp": 1693580498297, "interval": 6639}, {"eventtype": "focus", "value": "off", "timestamp": 1693581164402, "interval": 666105}, {"eventtype": "focus", "value": "on", "timestamp": 1693581279814, "interval": 115412}, {"eventtype": "focus", "value": "off", "timestamp": 1693582755325, "interval": 1475511}, {"eventtype": "focus", "value": "on", "timestamp": 1693582787132, "interval": 31807}, {"eventtype": "window_resize", "value": [1000, 673], "timestamp": 1693582787474, "interval": 342}], "useragent": "Mozilla/5.0 (Windows NT 10.0; Win64; x64) AppleWebKit/537.36 (KHTML, like Gecko) Chrome/115.0.0.0 Safari/537.36 OPR/101.0.0.0", "mode": "live", "id": "w92539977:a71287415", "status": "user data saved", "Beginhit": "2023-09-01 14:52:30.224535", "Beginexp": "2023-09-01 14:52:38.556428", "Endhit": "2023-09-01 15:39:49.026831", "psiturkStatus": 3, "browser": "<redacted>", "platform": "windows", "language": "en-GB"}