{"condition": 1, "counterbalance": 0, "assignmentId": "a66831197", "workerId": "w41951197", "hitId": "h75582842", "currenttrial": 62, "bonus": 0, "data": [{"uniqueid": "w41951197:a66831197", "current_trial": 0, "dateTime": 1693564847857, "trialdata": {"success": true, "trial_type": "fullscreen", "trial_index": 0, "time_elapsed": 7703, "internal_node_id": "0.0-0.0"}}, {"uniqueid": "w41951197:a66831197", "current_trial": 1, "dateTime": 1693564864925, "trialdata": {"view_history": [{"page_index": 0, "viewing_time": 17065}], "rt": 17065, "trial_id": "exp_instructions_misaligned", "trial_type": "instructions", "trial_index": 1, "time_elapsed": 24771, "internal_node_id": "0.0-1.0"}}, {"uniqueid": "w41951197:a66831197", "current_trial": 2, "dateTime": 1693565061739, "trialdata": {"view_history": [{"page_index": 0, "viewing_time": 55368}, {"page_index": 1, "viewing_time": 76380}, {"page_index": 2, "viewing_time": 22274}, {"page_index": 3, "viewing_time": 42794}], "rt": 196815, "trial_id": "mouselab_instructions_1_misaligned", "trial_type": "instructions", "trial_index": 2, "time_elapsed": 221585, "internal_node_id": "0.0-2.0-1.0"}}, {"uniqueid": "w41951197:a66831197", "current_trial": 3, "dateTime": 1693565088063, "trialdata": {"revealed_states": [], "clicked_states": ["12", "1", "23"], "num_clicks_accrued": [0, 0, 0, 0, 0, 0, 0, 0, 0, 0, 0, 0, 0], "stateRewards": ["", 10, 10, 10, -10, 10, 10, -10, 10, -10, 10, -10, -10, -10, 10, -10, 10, 10, -10, 10, 10, -10, -10, 10, 10, -10, 10, 10, -10, -10, -10, -10, -10, 10], "withholdReward": false, "trial_id": "practice_1", "block": "test", "trialIndex": 0, "score": 32, "costs": -1.5, "simulationMode": [null, null, null, null, null], "rewards": [10, 10, -10, 10, 10], "path": ["0", "0", "23", "24", "25", "26", "27"], "rt": [13474, 2185, 815, 1077, 664], "actions": ["left", "left", "left", "up", "up"], "actionTimes": [15644, 18331, 19647, 21227, 22384], "queries": {"click": {"state": {"target": ["12", "1", "23"], "time": [6840, 11494, 13393]}, "edge": {"target": [], "time": []}}, "mouseover": {"state": {"target": ["1", "12", "12", "0", "1", "23", "22"], "time": [3284, 5018, 6103, 10740, 11140, 12492, 14060]}, "edge": {"target": [], "time": []}}, "mouseout": {"state": {"target": ["0", "0", "1", "12", "12", "0", "1", "23", "22"], "time": [1449, 2799, 4785, 5902, 8571, 10823, 11974, 14010, 14077]}, "edge": {"target": [], "time": []}}}, "displayed_time": "22.89", "trialTime": 25903, "trial_type": "mouselab-mdp", "trial_index": 3, "time_elapsed": 247909, "internal_node_id": "0.0-2.0-2.0-0.0"}}, {"uniqueid": "w41951197:a66831197", "current_trial": 4, "dateTime": 1693565104612, "trialdata": {"revealed_states": [], "clicked_states": ["1", "12", "23"], "num_clicks_accrued": [0, 0, 0, 0, 0, 0, 0, 0, 0, 0, 0, 0, 0], "stateRewards": ["", -10, 10, 10, -10, -10, -10, -10, -10, -10, 10, 10, -10, -10, 10, 10, -10, 10, -10, 10, 10, -10, 10, 10, 10, 10, -10, -10, 10, -10, -10, 10, -10, 10], "withholdReward": false, "trial_id": "practice_2", "block": "test", "trialIndex": 1, "score": 12, "costs": -1.5, "simulationMode": [null, null, null, null, null], "rewards": [10, 10, 10, -10, -10], "path": ["0", "0", "23", "24", "25", "30", "32"], "rt": [8990, 225, 244, 152, 228], "actions": ["left", "left", "left", "down", "down"], "actionTimes": [11298, 12039, 12775, 13419, 14144], "queries": {"click": {"state": {"target": ["1", "12", "23"], "time": [2876, 5076, 9267]}, "edge": {"target": [], "time": []}}, "mouseover": {"state": {"target": ["1", "12", "12", "0", "23", "18"], "time": [2739, 3473, 4474, 8410, 8727, 9729]}, "edge": {"target": [], "time": []}}, "mouseout": {"state": {"target": ["21", "0", "1", "12", "12", "0", "23", "18"], "time": [1821, 2038, 3323, 4012, 5609, 8510, 9612, 9746]}, "edge": {"target": [], "time": []}}}, "displayed_time": "14.63", "trialTime": 16370, "trial_type": "mouselab-mdp", "trial_index": 4, "time_elapsed": 264458, "internal_node_id": "0.0-2.0-2.0-1.0"}}, {"uniqueid": "w41951197:a66831197", "current_trial": 5, "dateTime": 1693565132530, "trialdata": {"view_history": [{"page_index": 0, "viewing_time": 20838}, {"page_index": 1, "viewing_time": 7077}], "rt": 27915, "trial_id": "mouselab_instructions_2_misaligned", "trial_type": "instructions", "trial_index": 5, "time_elapsed": 292376, "internal_node_id": "0.0-2.0-3.0"}}, {"uniqueid": "w41951197:a66831197", "current_trial": 6, "dateTime": 1693565183680, "trialdata": {"rt": 51150, "response": {"Q0": "The cost for clicking on nodes may vary between nodes.", "Q1": "The better I perform the higher my bonus will be.", "Q2": "No, the amount of cash at each node of the web may be different each time.", "Q3": "To get the highest total score.", "Q4": "Any time during the round.", "Q5": "3 seconds"}, "question_order": [0, 1, 2, 3, 4, 5], "correct": {"Q0": "The cost for clicking on nodes may vary between nodes.", "Q1": "The better I perform the higher my bonus will be.", "Q2": "No, the amount of cash at each node of the web may be different each time.", "Q3": "To get the highest total score.", "Q4": "Only before moving the spider.", "Q5": "3 seconds"}, "trial_id": "mouselab_quiz_misaligned", "trial_type": "survey-multi-choice", "trial_index": 6, "time_elapsed": 343526, "internal_node_id": "0.0-2.0-4.0"}}, {"uniqueid": "w41951197:a66831197", "current_trial": 7, "dateTime": 1693565190168, "trialdata": {"success": true, "trial_type": "fullscreen", "trial_index": 7, "time_elapsed": 350014, "internal_node_id": "0.0-2.1-0.1-0.1"}}, {"uniqueid": "w41951197:a66831197", "current_trial": 8, "dateTime": 1693565207135, "trialdata": {"view_history": [{"page_index": 0, "viewing_time": 3573}, {"page_index": 1, "viewing_time": 11042}, {"page_index": 2, "viewing_time": 854}, {"page_index": 3, "viewing_time": 1496}], "rt": 16965, "trial_id": "mouselab_instructions_1_misaligned", "trial_type": "instructions", "trial_index": 8, "time_elapsed": 366981, "internal_node_id": "0.0-2.1-1.1"}}, {"uniqueid": "w41951197:a66831197", "current_trial": 9, "dateTime": 1693565222121, "trialdata": {"revealed_states": [], "clicked_states": ["23", "24", "25"], "num_clicks_accrued": [0, 0, 0, 0, 0, 0, 0, 0, 0, 0, 0, 0, 0], "stateRewards": ["", 10, 10, 10, -10, 10, 10, -10, 10, -10, 10, -10, -10, -10, 10, -10, 10, 10, -10, 10, 10, -10, -10, 10, 10, -10, 10, 10, -10, -10, -10, -10, -10, 10], "withholdReward": false, "trial_id": "practice_1", "block": "test", "trialIndex": 2, "score": 12, "costs": -1.5, "simulationMode": [null, null, null, null, null, null], "rewards": [10, 10, -10, 10, -10], "path": ["0", "0", "23", "24", "25", "26", "29"], "rt": [5277, 190, 51, 67, 11, 3568], "actions": ["left", "left", "left", "left", "up", "left"], "actionTimes": [7201, 7393, 7936, 8518, 9029, 13103], "queries": {"click": {"state": {"target": ["23", "24", "25"], "time": [3266, 4592, 6272]}, "edge": {"target": [], "time": []}}, "mouseover": {"state": {"target": ["23", "24", "25", "25", "21"], "time": [2762, 3646, 4850, 6015, 6665]}, "edge": {"target": [], "time": []}}, "mouseout": {"state": {"target": ["0", "23", "24", "25", "25", "24", "21", "19", "12", "0", "27"], "time": [2728, 3614, 4814, 5781, 6566, 6599, 6683, 10919, 10985, 11002, 12287]}, "edge": {"target": [], "time": []}}}, "displayed_time": "13.61", "trialTime": 14756, "trial_type": "mouselab-mdp", "trial_index": 9, "time_elapsed": 381967, "internal_node_id": "0.0-2.1-2.1-0.1"}}, {"uniqueid": "w41951197:a66831197", "current_trial": 10, "dateTime": 1693565231655, "trialdata": {"revealed_states": [], "clicked_states": ["12", "1"], "num_clicks_accrued": [0, 0, 0, 0, 0, 0, 0, 0, 0, 0, 0, 0, 0], "stateRewards": ["", -10, 10, 10, -10, -10, -10, -10, -10, -10, 10, 10, -10, -10, 10, 10, -10, 10, -10, 10, 10, -10, 10, 10, 10, 10, -10, -10, 10, -10, -10, 10, -10, 10], "withholdReward": false, "trial_id": "practice_2", "block": "test", "trialIndex": 3, "score": -7.5, "costs": -1, "simulationMode": [null, null, null, null, null, null], "rewards": [-10, 10, 10, -10, -10], "path": ["0", "0", "1", "2", "3", "4", "5"], "rt": [3105, 419, 2, 76, 141, 34], "actions": ["up", "up", "up", "up", "right", "up"], "actionTimes": [4856, 5278, 5782, 6372, 7006, 7531], "queries": {"click": {"state": {"target": ["12", "1"], "time": [2209, 4001]}, "edge": {"target": [], "time": []}}, "mouseover": {"state": {"target": ["12", "1", "1"], "time": [2109, 2826, 3710]}, "edge": {"target": [], "time": []}}, "mouseout": {"state": {"target": ["28", "0", "12", "1", "1", "1"], "time": [1158, 2025, 2542, 3393, 4027, 4261]}, "edge": {"target": [], "time": []}}}, "displayed_time": "8.05", "trialTime": 9324, "trial_type": "mouselab-mdp", "trial_index": 10, "time_elapsed": 391500, "internal_node_id": "0.0-2.1-2.1-1.1"}}, {"uniqueid": "w41951197:a66831197", "current_trial": 11, "dateTime": 1693565235199, "trialdata": {"view_history": [{"page_index": 0, "viewing_time": 2366}, {"page_index": 1, "viewing_time": 1176}], "rt": 3542, "trial_id": "mouselab_instructions_2_misaligned", "trial_type": "instructions", "trial_index": 11, "time_elapsed": 395045, "internal_node_id": "0.0-2.1-3.1"}}, {"uniqueid": "w41951197:a66831197", "current_trial": 12, "dateTime": 1693565251172, "trialdata": {"rt": 15967, "response": {"Q0": "The cost for clicking on nodes may vary between nodes.", "Q1": "The better I perform the higher my bonus will be.", "Q2": "No, the amount of cash at each node of the web may be different each time.", "Q3": "To get the highest total score.", "Q4": "Only before moving the spider.", "Q5": "3 seconds"}, "question_order": [0, 1, 2, 3, 4, 5], "correct": {"Q0": "The cost for clicking on nodes may vary between nodes.", "Q1": "The better I perform the higher my bonus will be.", "Q2": "No, the amount of cash at each node of the web may be different each time.", "Q3": "To get the highest total score.", "Q4": "Only before moving the spider.", "Q5": "3 seconds"}, "trial_id": "mouselab_quiz_misaligned", "trial_type": "survey-multi-choice", "trial_index": 12, "time_elapsed": 411018, "internal_node_id": "0.0-2.1-4.1"}}, {"uniqueid": "w41951197:a66831197", "current_trial": 13, "dateTime": 1693565257884, "trialdata": {"rt": 6707, "response": {"Q0": "No"}, "question_order": [0], "trial_id": "repeat_check", "trial_type": "survey-multi-choice", "trial_index": 13, "time_elapsed": 417730, "internal_node_id": "0.0-4.0-0.0"}}, {"uniqueid": "w41951197:a66831197", "current_trial": 14, "dateTime": 1693565260567, "trialdata": {"rt": 2677, "stimulus": "\n<h1> Get ready to start the game! </h1>\n\nThank you for reading the instructions. Get ready start with the 40 rounds of this game.\n<br><br>\nIf you need to take a break, feel free to take one after the end of a round, before continuing to the next one.\n<br><br>\nRemember, the more money the spider gets, the bigger your bonus will be!\n<br><br>\n<div style='text-align: center;'>Press <code>space</code> to begin.</div>\n\n<br><br>\n(If, at any point, the <code>space</code> key does not take you to the next page, click once on the text and try again.)", "response": " ", "trial_id": "mdp_ready", "trial_type": "html-keyboard-response", "trial_index": 14, "time_elapsed": 420412, "internal_node_id": "0.0-6.0-0.0"}}, {"uniqueid": "w41951197:a66831197", "current_trial": 15, "dateTime": 1693565278706, "trialdata": {"revealed_states": [], "clicked_states": ["23", "24", "12"], "num_clicks_accrued": [0, 0, 0, 0, 0, 0, 0, 0, 0, 0, 0, 0, 0], "stateRewards": ["", -1, 3, 8, 9, -53, 20, -84, 2, -28, -62, -31, -1, -2, -7, 2, 51, 58, 45, -4, -17, -41, 36, 2, -2, -7, -15, 29, -54, -37, -16, -43, 65, -17], "withholdReward": false, "trial_id": "mdp_trial_1", "block": "test", "trialIndex": 4, "score": -58.85, "costs": 0.15000000000000002, "simulationMode": [null, null, null, null, null], "rewards": [2, -2, -7, -15, -37], "path": ["0", "0", "23", "24", "25", "26", "29"], "rt": [4625, 28, 459, 53, 430], "actions": ["left", "left", "left", "up", "left"], "actionTimes": [6668, 7206, 8156, 8699, 9642], "queries": {"click": {"state": {"target": ["23", "24", "12"], "time": [2640, 4533, 5748]}, "edge": {"target": [], "time": []}}, "mouseover": {"state": {"target": ["23", "24", "0", "12", "13", "14"], "time": [2406, 3957, 5025, 5491, 6059, 6159]}, "edge": {"target": [], "time": []}}, "mouseout": {"state": {"target": ["22", "19", "19", "13", "15", "18", "0", "23", "24", "23", "0", "12", "13", "14"], "time": [387, 420, 704, 771, 804, 1071, 2356, 2748, 4560, 4908, 5192, 6009, 6125, 6192]}, "edge": {"target": [], "time": []}}}, "displayed_time": "16.05", "trialTime": 17887, "trial_type": "mouselab-mdp", "trial_index": 15, "time_elapsed": 438551, "internal_node_id": "0.0-6.0-1.0-0.0"}}, {"uniqueid": "w41951197:a66831197", "current_trial": 16, "dateTime": 1693565297373, "trialdata": {"revealed_states": [], "clicked_states": ["12", "23", "24", "25", "26", "30"], "num_clicks_accrued": [0, 0, 0, 0, 0, 0, 0, 0, 0, 0, 0, 0, 0], "stateRewards": ["", -1, 2, -6, 6, -82, -19, -39, -16, -83, 11, -33, -2, -2, 4, -6, -82, -1, -19, -6, -10, -67, -41, -2, 1, -7, 16, -23, -78, -52, 14, 31, -71, 74], "withholdReward": false, "trial_id": "mdp_trial_2", "block": "test", "trialIndex": 5, "score": -47.9, "costs": -3.9000000000000004, "simulationMode": [null, null, null, null, null], "rewards": [-2, 1, -7, 16, -52], "path": ["0", "0", "23", "24", "25", "26", "29"], "rt": [8114, 394, 42, 585, 328], "actions": ["left", "left", "left", "up", "left"], "actionTimes": [10040, 10931, 11465, 12559, 13385], "queries": {"click": {"state": {"target": ["12", "23", "24", "25", "26", "30"], "time": [3105, 4713, 6022, 7440, 8049, 8923]}, "edge": {"target": [], "time": []}}, "mouseover": {"state": {"target": ["12", "13", "0", "23", "24", "25", "26", "30", "31"], "time": [2679, 3481, 4214, 4415, 5399, 7333, 8001, 8584, 9286]}, "edge": {"target": [], "time": []}}, "mouseout": {"state": {"target": ["6", "2", "1", "0", "12", "13", "12", "0", "23", "24", "25", "26", "25", "30", "31", "0"], "time": [911, 1028, 1194, 2429, 3447, 3797, 3998, 4347, 5265, 6566, 7767, 8451, 8551, 9252, 9335, 18192]}, "edge": {"target": [], "time": []}}}, "displayed_time": "15.93", "trialTime": 18446, "trial_type": "mouselab-mdp", "trial_index": 16, "time_elapsed": 457219, "internal_node_id": "0.0-6.0-1.0-1.0"}}, {"uniqueid": "w41951197:a66831197", "current_trial": 17, "dateTime": 1693565316148, "trialdata": {"revealed_states": [], "clicked_states": ["1", "2", "3", "4", "8"], "num_clicks_accrued": [0, 0, 0, 0, 0, 0, 0, 0, 0, 0, 0, 0, 0], "stateRewards": ["", 1, 1, 1, -3, -7, -1, -41, -10, 20, -72, -63, 1, -4, -2, 2, -66, 30, -84, -2, 49, 23, 71, -1, -4, 4, -12, 67, 5, 18, -16, 88, 56, -5], "withholdReward": false, "trial_id": "mdp_trial_3", "block": "test", "trialIndex": 6, "score": -45.15, "costs": -4.1499999999999995, "simulationMode": [null, null, null, null, null], "rewards": [1, 1, 1, -3, -41], "path": ["0", "0", "1", "2", "3", "4", "7"], "rt": [5303, 573, 39, 507, 190], "actions": ["up", "up", "up", "right", "down"], "actionTimes": [7189, 8255, 8789, 9808, 10490], "queries": {"click": {"state": {"target": ["1", "2", "3", "4", "8"], "time": [2693, 3382, 4261, 4772, 5574]}, "edge": {"target": [], "time": []}}, "mouseover": {"state": {"target": ["0", "1", "2", "3", "4", "8"], "time": [1892, 2393, 3144, 4028, 4579, 5446]}, "edge": {"target": [], "time": []}}, "mouseout": {"state": {"target": ["10", "2", "12", "0", "0", "1", "2", "3", "4", "3", "8", "3", "4"], "time": [658, 775, 908, 1325, 2167, 2945, 3861, 4512, 5129, 5213, 6113, 6180, 6213]}, "edge": {"target": [], "time": []}}}, "displayed_time": "15.89", "trialTime": 18553, "trial_type": "mouselab-mdp", "trial_index": 17, "time_elapsed": 475993, "internal_node_id": "0.0-6.0-1.0-2.0"}}, {"uniqueid": "w41951197:a66831197", "current_trial": 18, "dateTime": 1693565334573, "trialdata": {"revealed_states": [], "clicked_states": ["12", "23", "24", "25", "30", "32", "26"], "num_clicks_accrued": [0, 0, 0, 0, 0, 0, 0, 0, 0, 0, 0, 0, 0], "stateRewards": ["", 1, -1, 8, 4, 76, -33, -17, -3, -1, -54, -74, -2, 2, -5, 13, -51, 63, 83, 1, 84, 29, -36, 2, -1, 7, -12, -10, -44, -43, -14, 8, -69, 19], "withholdReward": false, "trial_id": "mdp_trial_4", "block": "test", "trialIndex": 7, "score": 64.95, "costs": -6.05, "simulationMode": [null, null, null, null, null], "rewards": [-2, 2, -5, 13, 63], "path": ["0", "0", "12", "13", "14", "15", "17"], "rt": [9475, 6, 508, 1, 126], "actions": ["right", "right", "right", "up", "right"], "actionTimes": [11214, 11723, 12740, 13233, 13875], "queries": {"click": {"state": {"target": ["12", "23", "24", "25", "30", "32", "26"], "time": [2363, 3601, 4218, 4659, 5379, 5823, 9138]}, "edge": {"target": [], "time": []}}, "mouseover": {"state": {"target": ["0", "12", "13", "0", "23", "24", "25", "30", "32", "26", "18", "15", "17"], "time": [2039, 2172, 2689, 3190, 3440, 4007, 4624, 5009, 5817, 7076, 9946, 9964, 9981]}, "edge": {"target": [], "time": []}}, "mouseout": {"state": {"target": ["0", "12", "13", "0", "23", "24", "25", "30", "32", "32", "30", "25", "26", "18", "15", "17"], "time": [2089, 2656, 3056, 3273, 3907, 4457, 4975, 5725, 5828, 6409, 6943, 7026, 9746, 9962, 9979, 9995]}, "edge": {"target": [], "time": []}}}, "displayed_time": "15.75", "trialTime": 18192, "trial_type": "mouselab-mdp", "trial_index": 18, "time_elapsed": 494419, "internal_node_id": "0.0-6.0-1.0-3.0"}}, {"uniqueid": "w41951197:a66831197", "current_trial": 19, "dateTime": 1693565355562, "trialdata": {"revealed_states": [], "clicked_states": ["12", "13", "14", "17", "20"], "num_clicks_accrued": [0, 0, 0, 0, 0, 0, 0, 0, 0, 0, 0, 0, 0], "stateRewards": ["", -1, 3, -5, -2, -13, -9, -34, -7, -81, 32, 35, -2, -2, 1, -14, -32, 81, 7, 4, 82, 56, -8, -1, 3, -8, 6, -24, -24, -53, 2, 38, 61, 54], "withholdReward": false, "trial_id": "mdp_trial_5", "block": "test", "trialIndex": 8, "score": 58.65, "costs": -5.35, "simulationMode": [null, null, null, null, null, null], "rewards": [-2, -2, 1, -14, 81], "path": ["0", "0", "12", "13", "14", "15", "17"], "rt": [6914, 173, 133, 128, 48, 143], "actions": ["right", "right", "right", "right", "up", "right"], "actionTimes": [9243, 9418, 10064, 10710, 11247, 11909], "queries": {"click": {"state": {"target": ["12", "13", "14", "17", "20"], "time": [3581, 3996, 4430, 5044, 7867]}, "edge": {"target": [], "time": []}}, "mouseover": {"state": {"target": ["12", "12", "13", "14", "17", "20", "19"], "time": [3041, 3308, 3875, 4192, 4860, 5593, 8378]}, "edge": {"target": [], "time": []}}, "mouseout": {"state": {"target": ["0", "12", "12", "13", "14", "17", "20", "19", "8", "27", "29"], "time": [2724, 3235, 3808, 4159, 4625, 5326, 8345, 17886, 18136, 18637, 18787]}, "edge": {"target": [], "time": []}}}, "displayed_time": "16.33", "trialTime": 20767, "trial_type": "mouselab-mdp", "trial_index": 19, "time_elapsed": 515408, "internal_node_id": "0.0-6.0-1.0-4.0"}}, {"uniqueid": "w41951197:a66831197", "current_trial": 20, "dateTime": 1693565384731, "trialdata": {"revealed_states": [], "clicked_states": ["33", "29", "9", "5", "17", "20"], "num_clicks_accrued": [0, 0, 0, 0, 0, 0, 0, 0, 0, 0, 0, 0, 0], "stateRewards": ["", 1, 1, -3, 2, 22, -25, -11, -5, 50, 49, 3, 1, -1, 8, 14, -85, -30, 57, -6, -39, -16, 59, -2, -1, 5, 5, 59, -16, 8, 4, 67, 56, -9], "withholdReward": false, "trial_id": "mdp_trial_6", "block": "test", "trialIndex": 9, "score": 31.1, "costs": -12.9, "simulationMode": [null, null, null, null, null], "rewards": [1, 1, -3, -5, 50], "path": ["0", "0", "1", "2", "3", "8", "9"], "rt": [20290, 117, 575, 433, 487], "actions": ["up", "up", "up", "left", "up"], "actionTimes": [23423, 24034, 25108, 26034, 27024], "queries": {"click": {"state": {"target": ["33", "29", "9", "5", "17", "20"], "time": [3887, 7753, 11097, 14089, 17177, 20297]}, "edge": {"target": [], "time": []}}, "mouseover": {"state": {"target": ["31", "33", "29", "27", "11", "9", "9", "5", "6", "16", "17", "16", "17", "20", "20"], "time": [3287, 3637, 4339, 8119, 8269, 8636, 9570, 12206, 14508, 14558, 15075, 15659, 16695, 17678, 18095]}, "edge": {"target": [], "time": []}}, "mouseout": {"state": {"target": ["33", "33", "23", "0", "31", "33", "29", "27", "11", "9", "9", "5", "6", "16", "17", "16", "17", "20", "20"], "time": [902, 2352, 2403, 3237, 3304, 4071, 8036, 8169, 8420, 8970, 11439, 14492, 14541, 14575, 15576, 16160, 17611, 17711, 20864]}, "edge": {"target": [], "time": []}}}, "displayed_time": "27.52", "trialTime": 28915, "trial_type": "mouselab-mdp", "trial_index": 20, "time_elapsed": 544577, "internal_node_id": "0.0-6.0-1.0-5.0"}}, {"uniqueid": "w41951197:a66831197", "current_trial": 21, "dateTime": 1693565412278, "trialdata": {"revealed_states": [], "clicked_states": ["9", "5", "16", "17", "20"], "num_clicks_accrued": [0, 0, 0, 0, 0, 0, 0, 0, 0, 0, 0, 0, 0], "stateRewards": ["", -2, -3, 1, -7, 39, -67, 16, 5, -20, 73, 66, -1, 4, 5, -3, 23, -68, -87, -8, 3, -3, 17, 1, -4, -2, -13, -32, 34, 61, -5, -11, -18, 12], "withholdReward": false, "trial_id": "mdp_trial_7", "block": "test", "trialIndex": 10, "score": 17.25, "costs": -10.75, "simulationMode": [null, null, null, null, null], "rewards": [-2, -3, 1, -7, 39], "path": ["0", "0", "1", "2", "3", "4", "5"], "rt": [17782, 281, 531, 507, 174], "actions": ["up", "up", "up", "right", "up"], "actionTimes": [22106, 22878, 23911, 24921, 25589], "queries": {"click": {"state": {"target": ["9", "5", "16", "17", "20"], "time": [5764, 8962, 12491, 15830, 18938]}, "edge": {"target": [], "time": []}}, "mouseover": {"state": {"target": ["1", "2", "3", "9", "5", "3", "8", "27", "8", "5", "3", "10", "15", "17", "16", "17", "20", "13", "18"], "time": [4697, 4747, 4864, 5331, 6183, 7383, 7450, 7517, 7734, 8801, 9368, 9452, 10402, 10586, 10769, 12988, 16443, 19476, 20644]}, "edge": {"target": [], "time": []}}, "mouseout": {"state": {"target": ["21", "13", "11", "0", "1", "2", "3", "9", "5", "3", "8", "27", "8", "5", "3", "10", "15", "17", "16", "17", "20", "13", "18"], "time": [1577, 2078, 2795, 4647, 4731, 4814, 4897, 6115, 7300, 7416, 7466, 7667, 7767, 9318, 9418, 9468, 10419, 10603, 12855, 16257, 19376, 19760, 20678]}, "edge": {"target": [], "time": []}}}, "displayed_time": "26.08", "trialTime": 27319, "trial_type": "mouselab-mdp", "trial_index": 21, "time_elapsed": 572124, "internal_node_id": "0.0-6.0-1.0-6.0"}}, {"uniqueid": "w41951197:a66831197", "current_trial": 22, "dateTime": 1693565430020, "trialdata": {"revealed_states": [], "clicked_states": ["32", "33"], "num_clicks_accrued": [0, 0, 0, 0, 0, 0, 0, 0, 0, 0, 0, 0, 0], "stateRewards": ["", -1, -1, 7, -15, -43, -21, -84, -9, -45, -66, 2, 1, -2, 2, 8, -27, 44, -52, -5, -84, 11, 53, 1, 4, -4, 16, 83, -82, -15, -16, 68, -43, 81], "withholdReward": false, "trial_id": "mdp_trial_8", "block": "test", "trialIndex": 11, "score": 61.7, "costs": -4.3, "simulationMode": [null, null, null, null, null], "rewards": [1, 4, -4, -16, 81], "path": ["0", "0", "23", "24", "25", "30", "33"], "rt": [8112, 549, 4, 460, 88], "actions": ["left", "left", "left", "down", "left"], "actionTimes": [10284, 11335, 11841, 12814, 13393], "queries": {"click": {"state": {"target": ["32", "33"], "time": [3367, 6441]}, "edge": {"target": [], "time": []}}, "mouseover": {"state": {"target": ["32", "33", "32", "33", "29", "27", "11", "27", "29", "29"], "time": [2489, 2989, 3189, 3907, 6993, 7260, 7427, 7694, 7827, 9195]}, "edge": {"target": [], "time": []}}, "mouseout": {"state": {"target": ["16", "18", "12", "0", "32", "33", "32", "33", "29", "27", "11", "27", "29", "29"], "time": [1304, 1454, 1704, 2372, 2556, 3140, 3744, 6726, 7143, 7343, 7644, 7777, 8711, 9511]}, "edge": {"target": [], "time": []}}}, "displayed_time": "16.18", "trialTime": 17465, "trial_type": "mouselab-mdp", "trial_index": 22, "time_elapsed": 589866, "internal_node_id": "0.0-6.0-1.0-7.0"}}, {"uniqueid": "w41951197:a66831197", "current_trial": 23, "dateTime": 1693565472064, "trialdata": {"revealed_states": [], "clicked_states": ["5", "9", "11", "27", "29", "33", "32", "21", "20", "17"], "num_clicks_accrued": [0, 0, 0, 0, 0, 0, 0, 0, 0, 0, 0, 0, 0], "stateRewards": ["", -2, 1, -7, 9, 8, 25, 61, -7, -17, 69, -81, 1, 4, -4, -11, 16, 67, 44, 3, 6, -45, -54, -2, 3, 6, -11, -15, 32, -47, 3, -39, -6, -88], "withholdReward": false, "trial_id": "mdp_trial_9", "block": "test", "trialIndex": 12, "score": 35.5, "costs": -21.499999999999996, "simulationMode": [null, null, null, null, null], "rewards": [1, 4, -4, -11, 67], "path": ["0", "0", "12", "13", "14", "15", "17"], "rt": [33871, 65, 237, 539, 411], "actions": ["right", "right", "right", "up", "right"], "actionTimes": [36877, 37436, 38175, 39211, 40117], "queries": {"click": {"state": {"target": ["5", "9", "11", "27", "29", "33", "32", "21", "20", "17"], "time": [3690, 6831, 9976, 13079, 16352, 19447, 22576, 26326, 29112, 32799]}, "edge": {"target": [], "time": []}}, "mouseover": {"state": {"target": ["5", "9", "11", "11", "27", "29", "33", "33", "32", "21", "20", "17", "16"], "time": [3542, 5895, 7813, 8096, 11165, 15152, 17387, 18489, 20072, 26161, 27929, 30564, 35585]}, "edge": {"target": [], "time": []}}, "mouseout": {"state": {"target": ["8", "3", "7", "16", "18", "12", "0", "5", "5", "9", "11", "11", "27", "29", "33", "33", "32", "21", "20", "17"], "time": [1156, 1189, 1307, 2157, 2541, 2741, 3292, 3789, 4043, 7179, 7879, 10398, 14234, 16736, 17421, 19855, 22992, 26678, 29647, 35085]}, "edge": {"target": [], "time": []}}}, "displayed_time": "40.61", "trialTime": 41824, "trial_type": "mouselab-mdp", "trial_index": 23, "time_elapsed": 631909, "internal_node_id": "0.0-6.0-1.0-8.0"}}, {"uniqueid": "w41951197:a66831197", "current_trial": 24, "dateTime": 1693565496567, "trialdata": {"revealed_states": [], "clicked_states": ["5", "17", "29", "32", "21"], "num_clicks_accrued": [0, 0, 0, 0, 0, 0, 0, 0, 0, 0, 0, 0, 0], "stateRewards": ["", -2, 1, -5, 2, -68, 80, 33, 10, 67, -59, 20, -1, -3, 3, 14, 74, -2, 24, -16, 63, 80, 46, -1, 4, 6, 12, 83, -38, -43, -4, 43, 14, -79], "withholdReward": false, "trial_id": "mdp_trial_10", "block": "test", "trialIndex": 13, "score": 52.25, "costs": -10.75, "simulationMode": [null, null, null, null, null], "rewards": [-1, -3, 3, -16, 80], "path": ["0", "0", "12", "13", "14", "19", "21"], "rt": [17760, 248, 288, 375, 168], "actions": ["right", "right", "right", "down", "down"], "actionTimes": [19665, 20411, 21202, 22073, 22735], "queries": {"click": {"state": {"target": ["5", "17", "29", "32", "21"], "time": [2857, 5907, 9137, 12171, 15769]}, "edge": {"target": [], "time": []}}, "mouseover": {"state": {"target": ["1", "7", "4", "5", "6", "16", "17", "15", "27", "29", "33", "32", "21"], "time": [2329, 2379, 2663, 2713, 3364, 4232, 4768, 6317, 7867, 8201, 9569, 9803, 15541]}, "edge": {"target": [], "time": []}}, "mouseout": {"state": {"target": ["16", "12", "0", "1", "7", "4", "5", "6", "16", "17", "15", "27", "29", "33", "32", "21", "32"], "time": [1295, 1595, 2296, 2347, 2396, 2680, 3264, 3748, 4565, 6284, 6350, 7900, 9486, 9585, 12606, 16392, 19010]}, "edge": {"target": [], "time": []}}}, "displayed_time": "23.23", "trialTime": 24282, "trial_type": "mouselab-mdp", "trial_index": 24, "time_elapsed": 656412, "internal_node_id": "0.0-6.0-1.0-9.0"}}, {"uniqueid": "w41951197:a66831197", "current_trial": 25, "dateTime": 1693565514026, "trialdata": {"revealed_states": [], "clicked_states": ["32"], "num_clicks_accrued": [0, 0, 0, 0, 0, 0, 0, 0, 0, 0, 0, 0, 0], "stateRewards": ["", -1, 4, -5, 9, 29, -75, -42, -16, 24, -28, -41, 2, -3, 1, 10, 60, 47, 55, -1, -53, 22, -40, 2, -3, -6, 4, -26, 44, 54, 15, -76, 42, 14], "withholdReward": false, "trial_id": "mdp_trial_11", "block": "test", "trialIndex": 14, "score": 47.85, "costs": -2.15, "simulationMode": [null, null, null, null, null], "rewards": [2, -3, -6, 15, 42], "path": ["0", "0", "23", "24", "25", "30", "32"], "rt": [6230, 257, 376, 342, 92], "actions": ["left", "left", "left", "down", "down"], "actionTimes": [8084, 8833, 9701, 10535, 11119], "queries": {"click": {"state": {"target": ["32"], "time": [3871]}, "edge": {"target": [], "time": []}}, "mouseover": {"state": {"target": ["10", "28", "25", "30", "32", "33", "32", "21"], "time": [2452, 2819, 2952, 3002, 3069, 3369, 3636, 6939]}, "edge": {"target": [], "time": []}}, "mouseout": {"state": {"target": ["0", "10", "28", "25", "30", "32", "33", "32", "21"], "time": [2335, 2485, 2885, 2969, 3035, 3119, 3553, 4320, 7606]}, "edge": {"target": [], "time": []}}}, "displayed_time": "15.86", "trialTime": 17226, "trial_type": "mouselab-mdp", "trial_index": 25, "time_elapsed": 673872, "internal_node_id": "0.0-6.0-1.0-10.0"}}, {"uniqueid": "w41951197:a66831197", "current_trial": 26, "dateTime": 1693565537060, "trialdata": {"revealed_states": [], "clicked_states": ["9", "28", "20", "33"], "num_clicks_accrued": [0, 0, 0, 0, 0, 0, 0, 0, 0, 0, 0, 0, 0], "stateRewards": ["", 2, -1, -3, 16, -3, -16, -62, -1, 13, -26, 43, -1, 4, 3, -9, -54, -37, -3, -12, -71, -68, -57, 1, -3, 2, -9, 2, -2, -9, -11, 84, -52, 55], "withholdReward": false, "trial_id": "mdp_trial_12", "block": "test", "trialIndex": 15, "score": 35.4, "costs": -8.6, "simulationMode": [null, null, null, null, null], "rewards": [1, -3, 2, -11, 55], "path": ["0", "0", "23", "24", "25", "30", "33"], "rt": [16078, 2, 108, 41, 294], "actions": ["left", "left", "left", "down", "left"], "actionTimes": [18646, 19141, 19762, 20296, 21100], "queries": {"click": {"state": {"target": ["9", "28", "20", "33"], "time": [3281, 6585, 10497, 14681]}, "edge": {"target": [], "time": []}}, "mouseover": {"state": {"target": ["1", "9", "8", "11", "27", "29", "26", "28", "23", "22", "24", "25", "24", "22", "20", "19", "22", "23", "27", "26", "25", "31", "31", "30", "33", "33"], "time": [2806, 2956, 3856, 3890, 4107, 4657, 5191, 5292, 7209, 9228, 9527, 9561, 9895, 9978, 10395, 10879, 10912, 11396, 12030, 12146, 12630, 12697, 13998, 14048, 14231, 14582]}, "edge": {"target": [], "time": []}}, "mouseout": {"state": {"target": ["0", "1", "9", "9", "8", "11", "27", "29", "26", "28", "23", "22", "24", "25", "24", "22", "20", "19", "22", "23", "27", "26", "25", "31", "31", "30", "33", "33"], "time": [2705, 2872, 3307, 3656, 3873, 3923, 4157, 5158, 5224, 7093, 7277, 9245, 9544, 9878, 9911, 10011, 10862, 10896, 10929, 11480, 12080, 12180, 12663, 12713, 14031, 14160, 14248, 15166]}, "edge": {"target": [], "time": []}}}, "displayed_time": "21.59", "trialTime": 22798, "trial_type": "mouselab-mdp", "trial_index": 26, "time_elapsed": 696905, "internal_node_id": "0.0-6.0-1.0-11.0"}}, {"uniqueid": "w41951197:a66831197", "current_trial": 27, "dateTime": 1693565556704, "trialdata": {"revealed_states": [], "clicked_states": ["5", "18", "29"], "num_clicks_accrued": [0, 0, 0, 0, 0, 0, 0, 0, 0, 0, 0, 0, 0], "stateRewards": ["", -1, -3, -7, -7, -76, 30, -49, 11, -70, 56, 2, 1, 4, -3, -14, -59, -83, -25, -9, -21, -67, -73, -2, 4, 4, -9, -11, -32, 60, 9, -87, 22, -64], "withholdReward": false, "trial_id": "mdp_trial_13", "block": "test", "trialIndex": 16, "score": 50.55, "costs": -6.449999999999999, "simulationMode": [null, null, null, null, null], "rewards": [-2, 4, 4, -9, 60], "path": ["0", "0", "23", "24", "25", "26", "29"], "rt": [11479, 240, 535, 372, 223], "actions": ["left", "left", "left", "up", "left"], "actionTimes": [14943, 15681, 16710, 17581, 18299], "queries": {"click": {"state": {"target": ["5", "18", "29"], "time": [4751, 7957, 10962]}, "edge": {"target": [], "time": []}}, "mouseover": {"state": {"target": ["4", "5", "4", "18", "15", "18", "13", "10", "27", "26", "29", "26", "28"], "time": [4452, 4585, 5486, 6515, 7299, 7716, 8433, 8883, 9217, 9384, 9784, 12020, 12203]}, "edge": {"target": [], "time": []}}, "mouseout": {"state": {"target": ["0", "4", "5", "4", "18", "15", "18", "13", "10", "27", "26", "29", "26", "28"], "time": [4135, 4519, 5370, 5615, 6699, 7466, 8349, 8650, 8933, 9250, 9487, 11520, 12087, 14321]}, "edge": {"target": [], "time": []}}}, "displayed_time": "18.79", "trialTime": 19369, "trial_type": "mouselab-mdp", "trial_index": 27, "time_elapsed": 716549, "internal_node_id": "0.0-6.0-1.0-12.0"}}, {"uniqueid": "w41951197:a66831197", "current_trial": 28, "dateTime": 1693565576264, "trialdata": {"revealed_states": [], "clicked_states": ["22", "32", "29"], "num_clicks_accrued": [0, 0, 0, 0, 0, 0, 0, 0, 0, 0, 0, 0, 0], "stateRewards": ["", 1, 1, 4, 11, 83, -66, 18, -16, -23, 5, 25, 1, -3, 1, -12, 18, 24, -86, -11, -64, 36, 40, 2, 1, -6, 13, 55, 29, 72, -2, 81, -72, -41], "withholdReward": false, "trial_id": "mdp_trial_14", "block": "test", "trialIndex": 17, "score": 75.55, "costs": -6.449999999999999, "simulationMode": [null, null, null, null, null], "rewards": [2, 1, -6, 13, 72], "path": ["0", "0", "23", "24", "25", "26", "29"], "rt": [12253, 404, 5, 478, 67], "actions": ["left", "left", "left", "up", "left"], "actionTimes": [14081, 14989, 15490, 16481, 17037], "queries": {"click": {"state": {"target": ["22", "32", "29"], "time": [4125, 7179, 10234]}, "edge": {"target": [], "time": []}}, "mouseover": {"state": {"target": ["12", "22", "23", "31", "32", "32", "32", "32", "30", "33", "29", "25", "30", "31", "24", "28", "11", "9"], "time": [3146, 4007, 4591, 4641, 4709, 5259, 5475, 5876, 8328, 8879, 9829, 11097, 11147, 11664, 11764, 11831, 12048, 12415]}, "edge": {"target": [], "time": []}}, "mouseout": {"state": {"target": ["24", "23", "0", "12", "22", "23", "31", "32", "32", "32", "32", "30", "33", "29", "25", "30", "31", "24", "28", "11", "9"], "time": [1272, 1322, 1538, 3557, 4475, 4608, 4658, 5042, 5293, 5526, 7777, 8344, 9279, 11047, 11114, 11214, 11697, 11814, 11849, 12114, 13616]}, "edge": {"target": [], "time": []}}}, "displayed_time": "17.54", "trialTime": 19258, "trial_type": "mouselab-mdp", "trial_index": 28, "time_elapsed": 736110, "internal_node_id": "0.0-6.0-1.0-13.0"}}, {"uniqueid": "w41951197:a66831197", "current_trial": 29, "dateTime": 1693565604100, "trialdata": {"revealed_states": [], "clicked_states": ["9", "22", "33", "31", "27"], "num_clicks_accrued": [0, 0, 0, 0, 0, 0, 0, 0, 0, 0, 0, 0, 0], "stateRewards": ["", -1, -2, 8, -6, -79, -6, 87, 9, -5, -66, -38, 2, 2, 5, -6, -82, 74, 85, -8, 67, -30, -15, 1, -2, -2, -2, 87, 64, 49, 7, 2, -38, -9], "withholdReward": false, "trial_id": "mdp_trial_15", "block": "test", "trialIndex": 18, "score": 71.25, "costs": -10.75, "simulationMode": [null, null, null, null, null], "rewards": [1, -2, -2, -2, 87], "path": ["0", "0", "23", "24", "25", "26", "27"], "rt": [18508, 449, 50, 291, 171], "actions": ["left", "left", "left", "up", "up"], "actionTimes": [22448, 23397, 23948, 24740, 25404], "queries": {"click": {"state": {"target": ["9", "22", "33", "31", "27"], "time": [4911, 7999, 12253, 15333, 18462]}, "edge": {"target": [], "time": []}}, "mouseover": {"state": {"target": ["1", "8", "9", "3", "15", "14", "19", "22", "32", "33", "31", "26", "27", "8", "5", "4"], "time": [4315, 4414, 4664, 5233, 5332, 5382, 6300, 7033, 11504, 12137, 14423, 15857, 15974, 20445, 20695, 21945]}, "edge": {"target": [], "time": []}}, "mouseout": {"state": {"target": ["4", "4", "3", "12", "0", "1", "8", "9", "9", "3", "15", "14", "19", "22", "32", "33", "31", "26", "27", "8", "5", "4"], "time": [1645, 2328, 2412, 2812, 4281, 4330, 4614, 4949, 5199, 5251, 5349, 5499, 6733, 9552, 11621, 12555, 15658, 15924, 18547, 20495, 21812, 21978]}, "edge": {"target": [], "time": []}}}, "displayed_time": "25.90", "trialTime": 27584, "trial_type": "mouselab-mdp", "trial_index": 29, "time_elapsed": 763946, "internal_node_id": "0.0-6.0-1.0-14.0"}}, {"uniqueid": "w41951197:a66831197", "current_trial": 30, "dateTime": 1693565630460, "trialdata": {"revealed_states": [], "clicked_states": ["5", "9", "17", "22", "29"], "num_clicks_accrued": [0, 0, 0, 0, 0, 0, 0, 0, 0, 0, 0, 0, 0], "stateRewards": ["", -1, 3, 8, 10, -86, 61, -36, 10, 17, -60, 24, -1, -3, 3, 11, 50, 60, 33, -3, -20, 58, -6, 1, -4, -4, 13, -70, -71, 43, 14, 52, 82, -11], "withholdReward": false, "trial_id": "mdp_trial_16", "block": "test", "trialIndex": 19, "score": 59.25, "costs": -10.75, "simulationMode": [null, null, null, null, null], "rewards": [-1, -3, 3, 11, 60], "path": ["0", "0", "12", "13", "14", "15", "17"], "rt": [18711, 299, 588, 28, 141], "actions": ["right", "right", "right", "up", "right"], "actionTimes": [21430, 22223, 23312, 23836, 24467], "queries": {"click": {"state": {"target": ["5", "9", "17", "22", "29"], "time": [3775, 6807, 9840, 14892, 18212]}, "edge": {"target": [], "time": []}}, "mouseover": {"state": {"target": ["1", "2", "3", "5", "9", "8", "2", "7", "15", "17", "20", "19", "22", "31", "25", "29", "26", "28", "1", "17"], "time": [3074, 3173, 3256, 3557, 5026, 7327, 7444, 7477, 7794, 7945, 11380, 14449, 14766, 15683, 15950, 17552, 18871, 19037, 19154, 19721]}, "edge": {"target": [], "time": []}}, "mouseout": {"state": {"target": ["4", "2", "1", "1", "2", "3", "5", "5", "9", "8", "2", "7", "15", "17", "20", "19", "22", "31", "25", "29", "26", "28", "1"], "time": [1988, 2172, 2372, 3123, 3240, 3357, 3872, 4107, 7244, 7344, 7461, 7511, 7878, 10297, 14415, 14599, 15283, 15701, 16134, 18671, 18970, 19071, 19174]}, "edge": {"target": [], "time": []}}}, "displayed_time": "24.96", "trialTime": 26128, "trial_type": "mouselab-mdp", "trial_index": 30, "time_elapsed": 790306, "internal_node_id": "0.0-6.0-1.0-15.0"}}, {"uniqueid": "w41951197:a66831197", "current_trial": 31, "dateTime": 1693565654157, "trialdata": {"revealed_states": [], "clicked_states": ["10", "7", "21", "20", "33"], "num_clicks_accrued": [0, 0, 0, 0, 0, 0, 0, 0, 0, 0, 0, 0, 0], "stateRewards": ["", 1, -1, 1, -14, -10, 67, -28, -11, 72, 40, -65, -1, 1, 1, -2, 8, -55, 34, -10, 61, 33, -15, 2, -4, 7, 4, -75, 63, -21, -16, 61, 19, 21], "withholdReward": false, "trial_id": "mdp_trial_17", "block": "test", "trialIndex": 20, "score": 41.25, "costs": -10.75, "simulationMode": [null, null, null, null, null], "rewards": [-1, 1, 1, -10, 61], "path": ["0", "0", "12", "13", "14", "19", "20"], "rt": [16729, 247, 498, 82, 97], "actions": ["right", "right", "right", "down", "right"], "actionTimes": [18939, 19685, 20687, 21271, 21869], "queries": {"click": {"state": {"target": ["10", "7", "21", "20", "33"], "time": [3512, 6684, 9481, 12746, 15771]}, "edge": {"target": [], "time": []}}, "mouseover": {"state": {"target": ["3", "8", "10", "10", "7", "22", "21", "20", "19", "22", "31", "30", "33", "30"], "time": [2671, 2872, 2955, 3322, 4408, 7859, 8176, 11229, 13364, 13714, 14248, 14398, 14665, 16216]}, "edge": {"target": [], "time": []}}, "mouseout": {"state": {"target": ["17", "18", "12", "0", "3", "8", "10", "10", "7", "22", "21", "20", "19", "22", "31", "30", "33", "30"], "time": [1704, 1738, 1788, 2322, 2688, 2922, 3055, 3823, 7460, 8010, 10745, 13264, 13514, 14015, 14282, 14548, 16183, 16233]}, "edge": {"target": [], "time": []}}}, "displayed_time": "22.37", "trialTime": 23419, "trial_type": "mouselab-mdp", "trial_index": 31, "time_elapsed": 814002, "internal_node_id": "0.0-6.0-1.0-16.0"}}, {"uniqueid": "w41951197:a66831197", "current_trial": 32, "dateTime": 1693565672207, "trialdata": {"revealed_states": [], "clicked_states": ["11"], "num_clicks_accrued": [0, 0, 0, 0, 0, 0, 0, 0, 0, 0, 0, 0, 0], "stateRewards": ["", 2, -2, 7, -11, -76, -65, -23, 16, -58, 30, 81, 1, 2, 7, 14, 9, 55, -2, 6, 11, -15, 31, -1, -1, -3, 2, 15, 2, 46, 15, 18, 45, -34], "withholdReward": false, "trial_id": "mdp_trial_18", "block": "test", "trialIndex": 21, "score": 101.85, "costs": -2.15, "simulationMode": [null, null, null, null, null], "rewards": [2, -2, 7, 16, 81], "path": ["0", "0", "1", "2", "3", "8", "11"], "rt": [5124, 520, 36, 311, 194], "actions": ["up", "up", "up", "left", "left"], "actionTimes": [7131, 8153, 8686, 9514, 10195], "queries": {"click": {"state": {"target": ["11"], "time": [3143]}, "edge": {"target": [], "time": []}}, "mouseover": {"state": {"target": ["1", "2", "8", "11", "10", "3", "5"], "time": [2327, 2394, 2644, 3028, 4513, 4630, 5280]}, "edge": {"target": [], "time": []}}, "mouseout": {"state": {"target": ["7", "3", "2", "1", "0", "0", "1", "2", "8", "11", "10", "3", "5"], "time": [1209, 1404, 1509, 1526, 1660, 2277, 2377, 2427, 2861, 3662, 4562, 4730, 17071]}, "edge": {"target": [], "time": []}}}, "displayed_time": "16.01", "trialTime": 17722, "trial_type": "mouselab-mdp", "trial_index": 32, "time_elapsed": 832053, "internal_node_id": "0.0-6.0-1.0-17.0"}}, {"uniqueid": "w41951197:a66831197", "current_trial": 33, "dateTime": 1693565691348, "trialdata": {"revealed_states": [], "clicked_states": ["7", "5", "6"], "num_clicks_accrued": [0, 0, 0, 0, 0, 0, 0, 0, 0, 0, 0, 0, 0], "stateRewards": ["", -1, -1, 4, -16, -75, 81, -51, -7, -84, 73, -30, -2, 1, -3, -16, -77, 33, 14, 1, 45, 87, -66, 2, 2, -5, -7, -19, -17, 79, -3, 8, 49, 47], "withholdReward": false, "trial_id": "mdp_trial_19", "block": "test", "trialIndex": 22, "score": 60.55, "costs": -6.449999999999999, "simulationMode": [null, null, null, null, null], "rewards": [-1, -1, 4, -16, 81], "path": ["0", "0", "1", "2", "3", "4", "6"], "rt": [11300, 395, 9, 420, 150], "actions": ["up", "up", "up", "right", "right"], "actionTimes": [13163, 14057, 14556, 15485, 16130], "queries": {"click": {"state": {"target": ["7", "5", "6"], "time": [2822, 5984, 9015]}, "edge": {"target": [], "time": []}}, "mouseover": {"state": {"target": ["1", "7", "2", "4", "5", "6", "4", "3", "8", "11"], "time": [2268, 2518, 3470, 4487, 4754, 7239, 9608, 9640, 9724, 9908]}, "edge": {"target": [], "time": []}}, "mouseout": {"state": {"target": ["6", "0", "0", "1", "7", "7", "2", "4", "5", "6", "4", "3", "8", "11", "10"], "time": [1316, 1467, 1733, 2401, 2852, 3386, 3986, 4653, 6839, 9590, 9624, 9691, 9824, 12359, 17898]}, "edge": {"target": [], "time": []}}}, "displayed_time": "16.63", "trialTime": 18857, "trial_type": "mouselab-mdp", "trial_index": 33, "time_elapsed": 851193, "internal_node_id": "0.0-6.0-1.0-18.0"}}, {"uniqueid": "w41951197:a66831197", "current_trial": 34, "dateTime": 1693565709322, "trialdata": {"revealed_states": [], "clicked_states": ["10", "17"], "num_clicks_accrued": [0, 0, 0, 0, 0, 0, 0, 0, 0, 0, 0, 0, 0], "stateRewards": ["", -2, -3, 4, 1, 33, -53, 15, 9, -12, 61, -6, -2, 4, 6, -11, 47, -43, -7, -11, 46, 23, -28, -1, -1, 3, -10, 11, 76, -76, 10, 18, -38, 87], "withholdReward": false, "trial_id": "mdp_trial_20", "block": "test", "trialIndex": 23, "score": 64.7, "costs": -4.3, "simulationMode": [null, null, null, null, null], "rewards": [-2, -3, 4, 9, 61], "path": ["0", "0", "1", "2", "3", "8", "10"], "rt": [7127, 535, 2, 393, 307], "actions": ["up", "up", "up", "left", "down"], "actionTimes": [9396, 10433, 10934, 11841, 12641], "queries": {"click": {"state": {"target": ["10", "17"], "time": [3303, 6317]}, "edge": {"target": [], "time": []}}, "mouseover": {"state": {"target": ["1", "2", "10", "1", "13", "14", "17"], "time": [2773, 2907, 3141, 3825, 3944, 4192, 4643]}, "edge": {"target": [], "time": []}}, "mouseout": {"state": {"target": ["1", "1", "2", "10", "1", "13", "14", "17", "17"], "time": [1689, 2857, 2924, 3742, 3858, 4008, 4292, 6745, 6777]}, "edge": {"target": [], "time": []}}}, "displayed_time": "16.28", "trialTime": 17654, "trial_type": "mouselab-mdp", "trial_index": 34, "time_elapsed": 869168, "internal_node_id": "0.0-6.0-1.0-19.0"}}, {"uniqueid": "w41951197:a66831197", "current_trial": 35, "dateTime": 1693565730808, "trialdata": {"revealed_states": [], "clicked_states": ["17", "20", "21", "27"], "num_clicks_accrued": [0, 0, 0, 0, 0, 0, 0, 0, 0, 0, 0, 0, 0], "stateRewards": ["", -1, 2, -2, 5, 80, -61, -27, 12, 44, -26, -75, -2, -4, 1, -16, 42, -49, -50, 4, -44, 2, 80, -2, -2, 5, -2, 59, 10, 24, 7, -48, -86, -44], "withholdReward": false, "trial_id": "mdp_trial_21", "block": "test", "trialIndex": 24, "score": 49.4, "costs": -8.6, "simulationMode": [null, null, null, null, null], "rewards": [-2, -2, 5, -2, 59], "path": ["0", "0", "23", "24", "25", "26", "27"], "rt": [13831, 360, 41, 460, 32], "actions": ["left", "left", "left", "up", "up"], "actionTimes": [16602, 17465, 18000, 18953, 19474], "queries": {"click": {"state": {"target": ["17", "20", "21", "27"], "time": [3850, 6899, 9706, 12818]}, "edge": {"target": [], "time": []}}, "mouseover": {"state": {"target": ["12", "13", "13", "14", "17", "20", "21", "21", "24", "26", "27", "11", "9"], "time": [3175, 3224, 3508, 3591, 3725, 4192, 7712, 8295, 10364, 10448, 10848, 13166, 13316]}, "edge": {"target": [], "time": []}}, "mouseout": {"state": {"target": ["17", "13", "12", "0", "12", "13", "13", "14", "17", "20", "21", "21", "24", "26", "27", "11", "9", "3"], "time": [1105, 1806, 1856, 2056, 3192, 3241, 3524, 3641, 4092, 7411, 7815, 10164, 10414, 10514, 13115, 13216, 21041, 21124]}, "edge": {"target": [], "time": []}}}, "displayed_time": "19.97", "trialTime": 21209, "trial_type": "mouselab-mdp", "trial_index": 35, "time_elapsed": 890654, "internal_node_id": "0.0-6.0-1.0-20.0"}}, {"uniqueid": "w41951197:a66831197", "current_trial": 36, "dateTime": 1693565749380, "trialdata": {"revealed_states": [], "clicked_states": ["27", "20"], "num_clicks_accrued": [0, 0, 0, 0, 0, 0, 0, 0, 0, 0, 0, 0, 0], "stateRewards": ["", 2, -3, -5, 5, 11, -9, -33, 6, 67, 6, -30, -1, -2, -6, 13, 55, 13, 72, -14, 75, 21, -66, -2, -4, 6, 15, -1, -35, 60, 2, 51, -73, 12], "withholdReward": false, "trial_id": "mdp_trial_22", "block": "test", "trialIndex": 25, "score": 47.7, "costs": -4.3, "simulationMode": [null, null, null, null, null], "rewards": [-1, -2, -6, -14, 75], "path": ["0", "0", "12", "13", "14", "19", "20"], "rt": [7906, 273, 536, 30, 542], "actions": ["right", "right", "right", "down", "right"], "actionTimes": [11402, 12176, 13206, 13734, 14796], "queries": {"click": {"state": {"target": ["27", "20"], "time": [4420, 7321]}, "edge": {"target": [], "time": []}}, "mouseover": {"state": {"target": ["0", "28", "26", "27", "11", "8", "5", "6", "15", "20", "19", "22", "30", "31"], "time": [3561, 4028, 4061, 4295, 4813, 4831, 5698, 6464, 6564, 7064, 7598, 8499, 9350, 9567]}, "edge": {"target": [], "time": []}}, "mouseout": {"state": {"target": ["7", "0", "28", "26", "27", "11", "8", "5", "6", "15", "20", "20", "19", "22", "30", "31"], "time": [2810, 3799, 4044, 4095, 4746, 4830, 4849, 6447, 6483, 6614, 7365, 7581, 7632, 8949, 9483, 10317]}, "edge": {"target": [], "time": []}}}, "displayed_time": "17.50", "trialTime": 18298, "trial_type": "mouselab-mdp", "trial_index": 36, "time_elapsed": 909226, "internal_node_id": "0.0-6.0-1.0-21.0"}}, {"uniqueid": "w41951197:a66831197", "current_trial": 37, "dateTime": 1693565772094, "trialdata": {"revealed_states": [], "clicked_states": ["9", "21", "32", "17"], "num_clicks_accrued": [0, 0, 0, 0, 0, 0, 0, 0, 0, 0, 0, 0, 0], "stateRewards": ["", 1, 4, 5, 8, -55, -11, 8, 16, -37, 77, -22, -2, 3, -8, -10, 45, 87, -67, 4, 17, -33, -22, -1, -3, 7, 6, -39, -85, 75, -1, 7, -48, 45], "withholdReward": false, "trial_id": "mdp_trial_23", "block": "test", "trialIndex": 26, "score": 61.4, "costs": -8.6, "simulationMode": [null, null, null, null, null], "rewards": [-2, 3, -8, -10, 87], "path": ["0", "0", "12", "13", "14", "15", "17"], "rt": [14657, 326, 28, 41, 57], "actions": ["right", "right", "right", "up", "right"], "actionTimes": [16417, 17238, 17758, 18303, 18870], "queries": {"click": {"state": {"target": ["9", "21", "32", "17"], "time": [2639, 5777, 8706, 12329]}, "edge": {"target": [], "time": []}}, "mouseover": {"state": {"target": ["1", "8", "9", "8", "10", "13", "19", "21", "32", "31", "31", "33", "23", "0", "14", "17", "15", "18", "2", "10"], "time": [2182, 2231, 2465, 3233, 3583, 3900, 4250, 5235, 7087, 9538, 9855, 10405, 11889, 11913, 11957, 12173, 13024, 13257, 13775, 14058]}, "edge": {"target": [], "time": []}}, "mouseout": {"state": {"target": ["0", "1", "8", "9", "9", "8", "10", "13", "19", "21", "32", "31", "31", "33", "23", "0", "14", "17", "15", "18", "2", "10"], "time": [1547, 2199, 2265, 2727, 3183, 3366, 3800, 4083, 4417, 6102, 9155, 9591, 9871, 11839, 11908, 11928, 12057, 12907, 13224, 13274, 13824, 14145]}, "edge": {"target": [], "time": []}}}, "displayed_time": "19.36", "trialTime": 22451, "trial_type": "mouselab-mdp", "trial_index": 37, "time_elapsed": 931939, "internal_node_id": "0.0-6.0-1.0-22.0"}}, {"uniqueid": "w41951197:a66831197", "current_trial": 38, "dateTime": 1693565797932, "trialdata": {"revealed_states": [], "clicked_states": ["9", "29", "18", "20"], "num_clicks_accrued": [0, 0, 0, 0, 0, 0, 0, 0, 0, 0, 0, 0, 0], "stateRewards": ["", -2, 3, 3, -14, 62, 36, 49, 16, 11, 17, -84, 2, -1, 6, 2, -82, -73, 49, -6, -87, 48, 50, -1, -2, -1, -16, -11, 37, -44, 4, 55, 73, -10], "withholdReward": false, "trial_id": "mdp_trial_24", "block": "test", "trialIndex": 27, "score": 49.4, "costs": -8.6, "simulationMode": [null, null, null, null, null], "rewards": [2, -1, 6, 2, 49], "path": ["0", "0", "12", "13", "14", "15", "18"], "rt": [15977, 458, 3, 435, 66], "actions": ["right", "right", "right", "up", "left"], "actionTimes": [18142, 19094, 19589, 20539, 21105], "queries": {"click": {"state": {"target": ["9", "29", "18", "20"], "time": [4185, 7768, 10778, 14041]}, "edge": {"target": [], "time": []}}, "mouseover": {"state": {"target": ["10", "8", "9", "8", "2", "7", "18", "15", "15", "18", "10", "11", "28", "26", "29", "25", "23", "18", "14", "20", "20", "19", "16"], "time": [3490, 3758, 4024, 4825, 4958, 4992, 5043, 5175, 5525, 5643, 5808, 6292, 7093, 7277, 7643, 8278, 8728, 8961, 11364, 11464, 11812, 15506, 16100]}, "edge": {"target": [], "time": []}}, "mouseout": {"state": {"target": ["32", "25", "24", "0", "10", "8", "9", "8", "2", "7", "18", "15", "15", "18", "10", "11", "28", "26", "29", "25", "23", "18", "14", "20", "20", "19", "16"], "time": [1405, 1688, 1705, 3407, 3540, 3940, 4610, 4875, 4975, 5008, 5091, 5242, 5559, 5692, 5842, 6910, 7160, 7311, 8144, 8294, 8778, 11231, 11380, 11531, 14965, 15565, 17367]}, "edge": {"target": [], "time": []}}}, "displayed_time": "21.60", "trialTime": 25562, "trial_type": "mouselab-mdp", "trial_index": 38, "time_elapsed": 957778, "internal_node_id": "0.0-6.0-1.0-23.0"}}, {"uniqueid": "w41951197:a66831197", "current_trial": 39, "dateTime": 1693565815678, "trialdata": {"revealed_states": [], "clicked_states": ["9", "31", "20"], "num_clicks_accrued": [0, 0, 0, 0, 0, 0, 0, 0, 0, 0, 0, 0, 0], "stateRewards": ["", 2, -1, 1, 10, -52, 86, -22, -2, -14, -63, 38, 1, 3, 7, -8, 11, -32, -27, 9, -71, 40, -87, -2, -1, 5, -7, 12, 31, -57, 13, 86, -58, 29], "withholdReward": false, "trial_id": "mdp_trial_25", "block": "test", "trialIndex": 28, "score": 94.55, "costs": -6.449999999999999, "simulationMode": [null, null, null, null, null, null], "rewards": [-2, -1, 5, 13, 86], "path": ["0", "0", "23", "24", "25", "30", "31"], "rt": [7918, 1403, 119, 23, 70, 397], "actions": ["left", "left", "left", "left", "down", "right"], "actionTimes": [10443, 11848, 12456, 12981, 13541, 14434], "queries": {"click": {"state": {"target": ["9", "31", "20"], "time": [3063, 6169, 9037]}, "edge": {"target": [], "time": []}}, "mouseover": {"state": {"target": ["10", "8", "9", "3", "18", "20", "19", "22", "0", "23", "31", "21", "20"], "time": [2743, 2809, 2909, 3410, 3477, 3593, 3877, 3910, 4261, 4895, 5662, 6897, 7964]}, "edge": {"target": [], "time": []}}, "mouseout": {"state": {"target": ["7", "7", "2", "2", "1", "10", "8", "9", "3", "18", "20", "19", "22", "0", "23", "31", "21", "20"], "time": [1608, 1692, 1758, 2158, 2225, 2776, 2860, 3360, 3427, 3494, 3611, 3893, 3960, 4394, 5228, 6579, 6946, 16821]}, "edge": {"target": [], "time": []}}}, "displayed_time": "16.53", "trialTime": 17475, "trial_type": "mouselab-mdp", "trial_index": 39, "time_elapsed": 975524, "internal_node_id": "0.0-6.0-1.0-24.0"}}, {"uniqueid": "w41951197:a66831197", "current_trial": 40, "dateTime": 1693565834773, "trialdata": {"revealed_states": [], "clicked_states": ["5", "20", "31", "27"], "num_clicks_accrued": [0, 0, 0, 0, 0, 0, 0, 0, 0, 0, 0, 0, 0], "stateRewards": ["", -1, -3, -3, 1, -38, 2, -53, -2, -1, -81, 70, -1, 1, -5, -9, 46, 15, 35, -1, -22, 38, 59, -2, 4, -8, 13, 1, -83, -43, 4, 76, 13, 48], "withholdReward": false, "trial_id": "mdp_trial_26", "block": "test", "trialIndex": 29, "score": 65.4, "costs": -8.6, "simulationMode": [null, null, null, null, null], "rewards": [-2, 4, -8, 4, 76], "path": ["0", "0", "23", "24", "25", "30", "31"], "rt": [13034, 142, 62, 2, 574], "actions": ["left", "left", "left", "down", "right"], "actionTimes": [14359, 15002, 15556, 16063, 17153], "queries": {"click": {"state": {"target": ["5", "20", "31", "27"], "time": [2223, 5257, 8271, 11351]}, "edge": {"target": [], "time": []}}, "mouseover": {"state": {"target": ["1", "2", "3", "5", "15", "20", "19", "30", "31", "26", "27", "26", "25"], "time": [1597, 1647, 1681, 2114, 2682, 4367, 5685, 6403, 6702, 8820, 8886, 11790, 11856]}, "edge": {"target": [], "time": []}}, "mouseout": {"state": {"target": ["22", "12", "1", "2", "3", "5", "5", "15", "20", "19", "30", "31", "26", "27", "26", "25", "31"], "time": [780, 946, 1630, 1664, 1715, 2278, 2550, 2716, 5667, 5718, 6469, 8670, 8853, 11739, 11823, 11873, 12974]}, "edge": {"target": [], "time": []}}}, "displayed_time": "17.66", "trialTime": 18811, "trial_type": "mouselab-mdp", "trial_index": 40, "time_elapsed": 994618, "internal_node_id": "0.0-6.0-1.0-25.0"}}, {"uniqueid": "w41951197:a66831197", "current_trial": 41, "dateTime": 1693565851978, "trialdata": {"revealed_states": [], "clicked_states": ["5", "31"], "num_clicks_accrued": [0, 0, 0, 0, 0, 0, 0, 0, 0, 0, 0, 0, 0], "stateRewards": ["", -1, 3, -7, 16, -32, -74, -48, 2, 10, 15, -30, 1, 1, -2, 10, 12, -83, 67, 13, -66, 47, 65, -2, 4, 2, -14, -8, -57, 24, 9, 65, 12, 46], "withholdReward": false, "trial_id": "mdp_trial_27", "block": "test", "trialIndex": 30, "score": 73.7, "costs": -4.3, "simulationMode": [null, null, null, null, null], "rewards": [-2, 4, 2, 9, 65], "path": ["0", "0", "23", "24", "25", "30", "31"], "rt": [9475, 131, 66, 45, 7], "actions": ["left", "left", "left", "down", "right"], "actionTimes": [11090, 11711, 12278, 12825, 13336], "queries": {"click": {"state": {"target": ["5", "31"], "time": [3125, 7187]}, "edge": {"target": [], "time": []}}, "mouseover": {"state": {"target": ["1", "2", "3", "5", "4", "1", "23", "31", "31", "20"], "time": [2083, 2333, 2433, 3050, 3500, 3601, 3734, 3901, 6887, 9576]}, "edge": {"target": [], "time": []}}, "mouseout": {"state": {"target": ["31", "24", "25", "23", "1", "2", "3", "5", "4", "1", "23", "31", "31", "20"], "time": [498, 515, 699, 915, 2266, 2416, 2466, 3484, 3518, 3634, 3767, 5819, 7604, 10865]}, "edge": {"target": [], "time": []}}}, "displayed_time": "15.62", "trialTime": 16902, "trial_type": "mouselab-mdp", "trial_index": 41, "time_elapsed": 1011824, "internal_node_id": "0.0-6.0-1.0-26.0"}}, {"uniqueid": "w41951197:a66831197", "current_trial": 42, "dateTime": 1693565874230, "trialdata": {"revealed_states": [], "clicked_states": ["29", "20", "32", "5"], "num_clicks_accrued": [0, 0, 0, 0, 0, 0, 0, 0, 0, 0, 0, 0, 0], "stateRewards": ["", -2, 2, -4, -4, -59, 88, 62, -3, 69, -15, -34, 1, -2, -5, 7, -54, -20, 78, -16, -74, -53, -21, 2, -4, 2, 13, -8, -44, 26, 9, 72, 4, 17], "withholdReward": false, "trial_id": "mdp_trial_28", "block": "test", "trialIndex": 31, "score": 30.4, "costs": -8.6, "simulationMode": [null, null, null, null, null], "rewards": [2, -4, 2, 13, 26], "path": ["0", "0", "23", "24", "25", "26", "29"], "rt": [14472, 539, 3, 510, 71], "actions": ["left", "left", "left", "up", "left"], "actionTimes": [17199, 18226, 18727, 19748, 20327], "queries": {"click": {"state": {"target": ["29", "20", "32", "5"], "time": [3629, 7662, 10774, 13974]}, "edge": {"target": [], "time": []}}, "mouseover": {"state": {"target": ["26", "29", "24", "22", "20", "19", "19", "32", "30", "29", "27", "3", "9", "5", "4"], "time": [3308, 3590, 4009, 4058, 7545, 8695, 8828, 9729, 11213, 11447, 11780, 11914, 12348, 12698, 15067]}, "edge": {"target": [], "time": []}}, "mouseout": {"state": {"target": ["0", "26", "29", "24", "22", "20", "19", "19", "32", "30", "29", "27", "3", "9", "5", "4"], "time": [2455, 3424, 3958, 4025, 4075, 8661, 8812, 8861, 11164, 11247, 11648, 11797, 12047, 12381, 14600, 15084]}, "edge": {"target": [], "time": []}}}, "displayed_time": "20.82", "trialTime": 21943, "trial_type": "mouselab-mdp", "trial_index": 42, "time_elapsed": 1034075, "internal_node_id": "0.0-6.0-1.0-27.0"}}, {"uniqueid": "w41951197:a66831197", "current_trial": 43, "dateTime": 1693565892082, "trialdata": {"revealed_states": [], "clicked_states": ["7", "33"], "num_clicks_accrued": [0, 0, 0, 0, 0, 0, 0, 0, 0, 0, 0, 0, 0], "stateRewards": ["", 1, 2, 3, 16, 63, -25, 16, -4, -14, 82, -66, -1, -3, -3, -11, -14, 19, 46, 3, -34, -82, 66, -2, -3, 4, -5, -63, 77, -37, -1, -45, -41, 84], "withholdReward": false, "trial_id": "mdp_trial_29", "block": "test", "trialIndex": 32, "score": 77.7, "costs": -4.3, "simulationMode": [null, null, null, null, null], "rewards": [-2, -3, 4, -1, 84], "path": ["0", "0", "23", "24", "25", "30", "33"], "rt": [8028, 463, 43, 2, 63], "actions": ["left", "left", "left", "down", "left"], "actionTimes": [10139, 11096, 11628, 12121, 12700], "queries": {"click": {"state": {"target": ["7", "33"], "time": [2909, 6184]}, "edge": {"target": [], "time": []}}, "mouseover": {"state": {"target": ["1", "7", "0", "31", "30", "33", "32", "31", "21"], "time": [2458, 2775, 3426, 3926, 4695, 5045, 6845, 7330, 8213]}, "edge": {"target": [], "time": []}}, "mouseout": {"state": {"target": ["12", "0", "1", "7", "0", "31", "30", "33", "32", "31", "21"], "time": [1006, 2391, 2492, 3243, 3459, 3943, 4878, 6712, 6929, 7479, 14101]}, "edge": {"target": [], "time": []}}}, "displayed_time": "16.11", "trialTime": 17579, "trial_type": "mouselab-mdp", "trial_index": 43, "time_elapsed": 1051927, "internal_node_id": "0.0-6.0-1.0-28.0"}}, {"uniqueid": "w41951197:a66831197", "current_trial": 44, "dateTime": 1693565909269, "trialdata": {"revealed_states": [], "clicked_states": ["9"], "num_clicks_accrued": [0, 0, 0, 0, 0, 0, 0, 0, 0, 0, 0, 0, 0], "stateRewards": ["", -2, 3, -1, 2, -72, 63, 20, -1, 62, -66, 39, -2, 3, -6, 14, 22, 47, 1, 8, -49, -1, -41, 2, 2, -6, -16, -64, -60, -34, 16, 54, 22, -7], "withholdReward": false, "trial_id": "mdp_trial_30", "block": "test", "trialIndex": 33, "score": 58.85, "costs": -2.15, "simulationMode": [null, null, null, null, null], "rewards": [-2, 3, -1, -1, 62], "path": ["0", "0", "1", "2", "3", "8", "9"], "rt": [4920, 429, 43, 3, 307], "actions": ["up", "up", "up", "left", "up"], "actionTimes": [6164, 7092, 7624, 8118, 8939], "queries": {"click": {"state": {"target": ["9"], "time": [2043]}, "edge": {"target": [], "time": []}}, "mouseover": {"state": {"target": ["1", "2", "3", "9", "8", "10", "1", "13", "19", "20", "20"], "time": [1592, 1626, 1659, 1938, 2709, 2876, 3009, 3059, 3109, 3143, 4744]}, "edge": {"target": [], "time": []}}, "mouseout": {"state": {"target": ["0", "1", "2", "3", "9", "8", "10", "1", "13", "19", "20", "20"], "time": [1558, 1611, 1644, 1709, 2629, 2826, 2926, 3026, 3076, 3126, 3176, 5945]}, "edge": {"target": [], "time": []}}}, "displayed_time": "15.25", "trialTime": 16868, "trial_type": "mouselab-mdp", "trial_index": 44, "time_elapsed": 1069114, "internal_node_id": "0.0-6.0-1.0-29.0"}}, {"uniqueid": "w41951197:a66831197", "current_trial": 45, "dateTime": 1693565926613, "trialdata": {"revealed_states": [], "clicked_states": [], "num_clicks_accrued": [0, 0, 0, 0, 0, 0, 0, 0, 0, 0, 0, 0, 0], "stateRewards": ["", 1, 1, 5, 6, -29, -7, 3, -16, 9, -46, 65, -1, 4, -1, -16, -63, -77, -87, 8, 80, -50, 43, -1, -1, -5, 5, -38, -71, -62, 9, 81, -50, -52], "withholdReward": false, "trial_id": "mdp_trial_31", "block": "test", "trialIndex": 34, "score": -91, "costs": 0, "simulationMode": [null, null, null, null, null], "rewards": [-1, 4, -1, -16, -77], "path": ["0", "0", "12", "13", "14", "15", "17"], "rt": [806, 1531, 903, 3, 115], "actions": ["right", "right", "right", "up", "right"], "actionTimes": [2758, 4785, 6191, 6692, 7321], "queries": {"click": {"state": {"target": [], "time": []}, "edge": {"target": [], "time": []}}, "mouseover": {"state": {"target": [], "time": []}, "edge": {"target": [], "time": []}}, "mouseout": {"state": {"target": ["20", "19", "22", "0"], "time": [1032, 1099, 1149, 1299]}, "edge": {"target": [], "time": []}}}, "displayed_time": "15.96", "trialTime": 17023, "trial_type": "mouselab-mdp", "trial_index": 45, "time_elapsed": 1086459, "internal_node_id": "0.0-6.0-1.0-30.0"}}, {"uniqueid": "w41951197:a66831197", "current_trial": 46, "dateTime": 1693565947075, "trialdata": {"revealed_states": [], "clicked_states": ["9", "29", "31", "20"], "num_clicks_accrued": [0, 0, 0, 0, 0, 0, 0, 0, 0, 0, 0, 0, 0], "stateRewards": ["", -1, 4, -6, -5, -22, -38, -38, -2, -56, 88, 14, -1, -1, -7, -6, 61, -60, 21, 11, 57, 31, -30, -2, -2, 6, -9, -44, -70, -44, -15, 34, 16, -78], "withholdReward": false, "trial_id": "mdp_trial_32", "block": "test", "trialIndex": 35, "score": 50.4, "costs": -8.6, "simulationMode": [null, null, null, null, null], "rewards": [-1, -1, -7, 11, 57], "path": ["0", "0", "12", "13", "14", "19", "20"], "rt": [14362, 306, 48, 48, 156], "actions": ["right", "right", "right", "down", "right"], "actionTimes": [15931, 16731, 17272, 17823, 18480], "queries": {"click": {"state": {"target": ["9", "29", "31", "20"], "time": [2373, 5473, 8534, 11830]}, "edge": {"target": [], "time": []}}, "mouseover": {"state": {"target": ["1", "8", "9", "8", "10", "28", "26", "29", "30", "31", "21", "20", "17"], "time": [1843, 2077, 2360, 2845, 2961, 3456, 3511, 3995, 5964, 6548, 9184, 9917, 13320]}, "edge": {"target": [], "time": []}}, "mouseout": {"state": {"target": ["0", "0", "1", "8", "9", "8", "10", "28", "26", "29", "30", "31", "21", "20", "17"], "time": [531, 1760, 1877, 2143, 2761, 2911, 3061, 3478, 3729, 5864, 6031, 8884, 9200, 12452, 15605]}, "edge": {"target": [], "time": []}}}, "displayed_time": "18.98", "trialTime": 20114, "trial_type": "mouselab-mdp", "trial_index": 46, "time_elapsed": 1106921, "internal_node_id": "0.0-6.0-1.0-31.0"}}, {"uniqueid": "w41951197:a66831197", "current_trial": 47, "dateTime": 1693565988947, "trialdata": {"revealed_states": [], "clicked_states": ["10", "5", "20", "31", "33", "27", "29", "17", "16", "22"], "num_clicks_accrued": [0, 0, 0, 0, 0, 0, 0, 0, 0, 0, 0, 0, 0], "stateRewards": ["", -2, -1, -3, -1, -78, -6, 2, -1, 22, -88, 32, 2, 2, -7, -8, -51, -17, 54, 2, -44, 54, 75, 2, -2, -8, -15, -29, 12, -67, 15, -1, -47, -47], "withholdReward": false, "trial_id": "mdp_trial_33", "block": "test", "trialIndex": 36, "score": 52.5, "costs": -21.499999999999996, "simulationMode": [null, null, null, null, null], "rewards": [2, 2, -7, 2, 75], "path": ["0", "0", "12", "13", "14", "19", "22"], "rt": [35616, 10, 85, 555, 25], "actions": ["right", "right", "right", "down", "left"], "actionTimes": [37338, 37839, 38431, 39484, 40004], "queries": {"click": {"state": {"target": ["10", "5", "20", "31", "33", "27", "29", "17", "16", "22"], "time": [2586, 5691, 9659, 12727, 15971, 19085, 22166, 25840, 28989, 32724]}, "edge": {"target": [], "time": []}}, "mouseover": {"state": {"target": ["1", "8", "8", "10", "10", "1", "12", "7", "4", "5", "4", "18", "19", "20", "19", "31", "32", "33", "29", "27", "26", "29", "26", "18", "15", "17", "16", "17", "14", "19", "22", "12", "2", "7"], "time": [1935, 2035, 2252, 2302, 2452, 2969, 3103, 4722, 4937, 5205, 6105, 6222, 6589, 6722, 10175, 11376, 13995, 15179, 16948, 17293, 20579, 21263, 22580, 22847, 23014, 25693, 27458, 31871, 31954, 32121, 32221, 33739, 34057, 34340]}, "edge": {"target": [], "time": []}}, "mouseout": {"state": {"target": ["1", "1", "8", "8", "10", "10", "1", "12", "7", "4", "5", "4", "18", "19", "20", "19", "31", "32", "33", "29", "27", "26", "29", "26", "18", "15", "17", "16", "17", "14", "19", "22", "22", "12", "2", "7"], "time": [1184, 1968, 2085, 2285, 2335, 2953, 2985, 3336, 4821, 5088, 6072, 6139, 6272, 6639, 10142, 10193, 13395, 14979, 16848, 17199, 20346, 20996, 22547, 22613, 22897, 23047, 27170, 31554, 31887, 32088, 32138, 33272, 33723, 33756, 34290, 36041]}, "edge": {"target": [], "time": []}}}, "displayed_time": "40.50", "trialTime": 41544, "trial_type": "mouselab-mdp", "trial_index": 47, "time_elapsed": 1148792, "internal_node_id": "0.0-6.0-1.0-32.0"}}, {"uniqueid": "w41951197:a66831197", "current_trial": 48, "dateTime": 1693566015703, "trialdata": {"revealed_states": [], "clicked_states": ["10", "20", "32", "33", "29"], "num_clicks_accrued": [0, 0, 0, 0, 0, 0, 0, 0, 0, 0, 0, 0, 0], "stateRewards": ["", 2, -1, 4, -9, -43, 7, 54, -13, 38, -40, -83, -1, 2, -8, -10, 34, -33, 11, -14, -79, 65, 26, 1, 2, 4, 10, 21, 1, 86, 4, -53, 28, -29], "withholdReward": false, "trial_id": "mdp_trial_34", "block": "test", "trialIndex": 37, "score": 92.25, "costs": -10.75, "simulationMode": [null, null, null, null, null], "rewards": [1, 2, 4, 10, 86], "path": ["0", "0", "23", "24", "25", "26", "29"], "rt": [17899, 336, 20, 28, 560], "actions": ["left", "left", "left", "up", "left"], "actionTimes": [19713, 20541, 21059, 21587, 22666], "queries": {"click": {"state": {"target": ["10", "20", "32", "33", "29"], "time": [2590, 6121, 9152, 12627, 15845]}, "edge": {"target": [], "time": []}}, "mouseover": {"state": {"target": ["10", "8", "10", "1", "20", "32", "33", "29", "26", "24", "31"], "time": [1922, 2221, 2305, 2872, 6041, 8160, 11096, 13398, 16284, 16434, 18686]}, "edge": {"target": [], "time": []}}, "mouseout": {"state": {"target": ["13", "12", "0", "10", "8", "10", "1", "20", "32", "33", "29", "26", "24", "31"], "time": [1320, 1454, 1888, 1955, 2255, 2856, 2889, 6219, 9778, 13065, 16250, 16334, 16450, 19202]}, "edge": {"target": [], "time": []}}}, "displayed_time": "23.16", "trialTime": 26424, "trial_type": "mouselab-mdp", "trial_index": 48, "time_elapsed": 1175548, "internal_node_id": "0.0-6.0-1.0-33.0"}}, {"uniqueid": "w41951197:a66831197", "current_trial": 49, "dateTime": 1693566034767, "trialdata": {"revealed_states": [], "clicked_states": ["7"], "num_clicks_accrued": [0, 0, 0, 0, 0, 0, 0, 0, 0, 0, 0, 0, 0], "stateRewards": ["", -1, 2, -6, 6, 43, 78, 78, -2, 55, -29, -17, -2, -4, 1, -15, 13, 7, -79, 8, -28, -68, 36, -1, -3, 3, -16, 84, -18, 87, 10, 32, 13, -81], "withholdReward": false, "trial_id": "mdp_trial_35", "block": "test", "trialIndex": 38, "score": 76.85, "costs": -2.15, "simulationMode": [null, null, null, null, null], "rewards": [-1, 2, -6, 6, 78], "path": ["0", "0", "1", "2", "3", "4", "7"], "rt": [4909, 370, 503, 25, 49], "actions": ["up", "up", "up", "right", "down"], "actionTimes": [7394, 8260, 9265, 9787, 10329], "queries": {"click": {"state": {"target": ["7"], "time": [3524]}, "edge": {"target": [], "time": []}}, "mouseover": {"state": {"target": ["1", "2", "7", "18", "15"], "time": [3018, 3085, 3302, 4904, 5438]}, "edge": {"target": [], "time": []}}, "mouseout": {"state": {"target": ["0", "1", "2", "7", "18", "15"], "time": [2985, 3051, 3268, 3969, 5121, 6138]}, "edge": {"target": [], "time": []}}}, "displayed_time": "16.49", "trialTime": 18762, "trial_type": "mouselab-mdp", "trial_index": 49, "time_elapsed": 1194612, "internal_node_id": "0.0-6.0-1.0-34.0"}}, {"uniqueid": "w41951197:a66831197", "current_trial": 50, "dateTime": 1693566055073, "trialdata": {"revealed_states": [], "clicked_states": ["12", "17", "5", "32"], "num_clicks_accrued": [0, 0, 0, 0, 0, 0, 0, 0, 0, 0, 0, 0, 0], "stateRewards": ["", 1, -4, -6, -1, -21, 17, -72, 10, 77, 67, -46, -1, 4, -2, 14, -66, -49, -45, -15, -52, 23, -67, 2, -2, -2, 15, -3, 45, -64, 5, -44, 83, 61], "withholdReward": false, "trial_id": "mdp_trial_36", "block": "test", "trialIndex": 39, "score": 79.8, "costs": -6.199999999999999, "simulationMode": [null, null, null, null, null], "rewards": [2, -2, -2, 5, 83], "path": ["0", "0", "23", "24", "25", "30", "32"], "rt": [13026, 348, 11, 214, 3], "actions": ["left", "left", "left", "down", "down"], "actionTimes": [15694, 16553, 17068, 17788, 18294], "queries": {"click": {"state": {"target": ["12", "17", "5", "32"], "time": [3539, 5273, 8350, 11874]}, "edge": {"target": [], "time": []}}, "mouseover": {"state": {"target": ["12", "18", "15", "17", "17", "4", "5", "15", "14", "19", "32", "31"], "time": [3344, 4278, 4345, 4395, 5028, 6097, 6580, 9015, 9048, 9332, 10015, 14770]}, "edge": {"target": [], "time": []}}, "mouseout": {"state": {"target": ["15", "2", "10", "12", "18", "15", "17", "17", "4", "5", "15", "14", "19", "32"], "time": [1925, 1958, 1992, 3578, 4328, 4362, 4411, 5712, 6230, 8848, 9032, 9165, 9532, 12386]}, "edge": {"target": [], "time": []}}}, "displayed_time": "18.81", "trialTime": 20006, "trial_type": "mouselab-mdp", "trial_index": 50, "time_elapsed": 1214918, "internal_node_id": "0.0-6.0-1.0-35.0"}}, {"uniqueid": "w41951197:a66831197", "current_trial": 51, "dateTime": 1693566079792, "trialdata": {"revealed_states": [], "clicked_states": ["22", "28", "7", "9", "29"], "num_clicks_accrued": [0, 0, 0, 0, 0, 0, 0, 0, 0, 0, 0, 0, 0], "stateRewards": ["", -2, 4, 3, 5, -61, 4, 30, 1, -47, 83, 10, 1, 4, 7, -14, 19, -74, -83, 6, -2, -2, -65, -1, -2, 4, -11, 12, -1, -68, 11, -38, -28, 66], "withholdReward": false, "trial_id": "mdp_trial_37", "block": "test", "trialIndex": 40, "score": 29.25, "costs": -10.75, "simulationMode": [null, null, null, null, null], "rewards": [-2, 4, 3, 5, 30], "path": ["0", "0", "1", "2", "3", "4", "7"], "rt": [17250, 71, 38, 24, 296], "actions": ["up", "up", "up", "right", "down"], "actionTimes": [19137, 19701, 20237, 20771, 21577], "queries": {"click": {"state": {"target": ["22", "28", "7", "9", "29"], "time": [3384, 6622, 9679, 12446, 15540]}, "edge": {"target": [], "time": []}}, "mouseover": {"state": {"target": ["12", "13", "19", "21", "22", "23", "24", "26", "26", "28", "10", "2", "7", "6", "9", "2", "1", "28", "26", "29", "26"], "time": [2314, 2380, 2597, 2997, 3349, 3716, 3735, 3766, 3949, 4366, 7569, 7753, 8086, 10471, 11206, 13207, 13491, 13774, 13840, 14207, 16143]}, "edge": {"target": [], "time": []}}, "mouseout": {"state": {"target": ["31", "0", "12", "13", "19", "21", "22", "23", "24", "26", "26", "28", "10", "2", "7", "6", "9", "2", "1", "28", "26", "29", "26"], "time": [1146, 2280, 2347, 2397, 2898, 3064, 3683, 3733, 3750, 3799, 4099, 7385, 7738, 7786, 9778, 10655, 13057, 13291, 13641, 13790, 14125, 16109, 16176]}, "edge": {"target": [], "time": []}}}, "displayed_time": "22.08", "trialTime": 24346, "trial_type": "mouselab-mdp", "trial_index": 51, "time_elapsed": 1239638, "internal_node_id": "0.0-6.0-1.0-36.0"}}, {"uniqueid": "w41951197:a66831197", "current_trial": 52, "dateTime": 1693566105697, "trialdata": {"revealed_states": [], "clicked_states": ["22", "9", "33", "20"], "num_clicks_accrued": [0, 0, 0, 0, 0, 0, 0, 0, 0, 0, 0, 0, 0], "stateRewards": ["", -2, 3, -5, -7, 66, 43, -60, -4, -70, -75, 4, -1, 2, 2, -13, 54, 11, -40, -1, 77, 32, 15, -2, 3, -8, -9, -35, 83, -27, 6, -74, -34, 44], "withholdReward": false, "trial_id": "mdp_trial_38", "block": "test", "trialIndex": 41, "score": 70.4, "costs": -8.6, "simulationMode": [null, null, null, null, null], "rewards": [-1, 2, 2, -1, 77], "path": ["0", "0", "12", "13", "14", "19", "20"], "rt": [14257, 37, 80, 212, 186], "actions": ["right", "right", "right", "down", "right"], "actionTimes": [16316, 16850, 17444, 18160, 18837], "queries": {"click": {"state": {"target": ["22", "9", "33", "20"], "time": [2792, 5807, 9273, 12879]}, "edge": {"target": [], "time": []}}, "mouseover": {"state": {"target": ["12", "22", "23", "10", "8", "9", "8", "10", "24", "30", "33", "30", "19", "20", "19"], "time": [2336, 2519, 3288, 3354, 3403, 4636, 6353, 6437, 6503, 6687, 6988, 9723, 10507, 10657, 13311]}, "edge": {"target": [], "time": []}}, "mouseout": {"state": {"target": ["13", "12", "23", "0", "12", "22", "23", "10", "8", "9", "8", "10", "24", "30", "33", "30", "19", "20", "19"], "time": [968, 1318, 1551, 2286, 2469, 3037, 3321, 3370, 3821, 6320, 6403, 6470, 6520, 6704, 9707, 9741, 10548, 13294, 13327]}, "edge": {"target": [], "time": []}}}, "displayed_time": "19.33", "trialTime": 25486, "trial_type": "mouselab-mdp", "trial_index": 52, "time_elapsed": 1265543, "internal_node_id": "0.0-6.0-1.0-37.0"}}, {"uniqueid": "w41951197:a66831197", "current_trial": 53, "dateTime": 1693566131084, "trialdata": {"revealed_states": [], "clicked_states": ["29", "9"], "num_clicks_accrued": [0, 0, 0, 0, 0, 0, 0, 0, 0, 0, 0, 0, 0], "stateRewards": ["", 2, -1, -1, -9, -81, -30, 55, -6, 78, 25, 62, 2, 4, -1, 9, -85, 1, -19, 1, -60, 12, -34, 1, 4, -1, -13, -24, -16, -83, -8, 16, 43, 9], "withholdReward": false, "trial_id": "mdp_trial_39", "block": "test", "trialIndex": 42, "score": 67.7, "costs": -4.3, "simulationMode": [null, null, null, null, null], "rewards": [2, -1, -1, -6, 78], "path": ["0", "0", "1", "2", "3", "8", "9"], "rt": [10013, 469, 47, 16, 3], "actions": ["up", "up", "up", "left", "up"], "actionTimes": [19935, 20902, 21447, 21966, 22488], "queries": {"click": {"state": {"target": ["29", "9"], "time": [11925, 15865]}, "edge": {"target": [], "time": []}}, "mouseover": {"state": {"target": ["23", "24", "25", "26", "29", "26", "28", "11", "9", "6"], "time": [10790, 10840, 11057, 11524, 11707, 13442, 13526, 15427, 15577, 18997]}, "edge": {"target": [], "time": []}}, "mouseout": {"state": {"target": ["13", "23", "24", "25", "26", "29", "26", "28", "11", "9", "6", "15", "13"], "time": [8971, 10824, 10906, 11440, 11574, 12017, 13492, 13559, 15511, 17151, 19313, 24401, 24485]}, "edge": {"target": [], "time": []}}}, "displayed_time": "23.93", "trialTime": 25068, "trial_type": "mouselab-mdp", "trial_index": 53, "time_elapsed": 1290930, "internal_node_id": "0.0-6.0-1.0-38.0"}}, {"uniqueid": "w41951197:a66831197", "current_trial": 54, "dateTime": 1693566159820, "trialdata": {"revealed_states": [], "clicked_states": ["9", "5", "16", "17", "20"], "num_clicks_accrued": [0, 0, 0, 0, 0, 0, 0, 0, 0, 0, 0, 0, 0], "stateRewards": ["", 2, -1, 5, 6, 10, 86, 55, 10, -45, 63, -71, 1, -2, 5, -8, -50, -72, 36, 15, 61, 12, 33, -1, -4, 6, 5, 79, -56, -21, -16, -87, 60, -81], "withholdReward": false, "trial_id": "mdp_trial_40", "block": "test", "trialIndex": 43, "score": 69.25, "costs": -10.75, "simulationMode": [null, null, null, null, null], "rewards": [1, -2, 5, 15, 61], "path": ["0", "0", "12", "13", "14", "19", "20"], "rt": [20897, 122, 21, 23, 85], "actions": ["right", "right", "right", "down", "right"], "actionTimes": [23212, 23848, 24364, 24883, 25462], "queries": {"click": {"state": {"target": ["9", "5", "16", "17", "20"], "time": [3686, 8217, 12355, 15715, 19003]}, "edge": {"target": [], "time": []}}, "mouseover": {"state": {"target": ["1", "2", "9", "3", "5", "6", "16", "17", "20", "21"], "time": [3055, 3138, 3522, 6958, 7108, 10895, 11712, 14851, 18553, 21806]}, "edge": {"target": [], "time": []}}, "mouseout": {"state": {"target": ["0", "1", "2", "9", "3", "5", "6", "16", "16", "17", "20", "21"], "time": [2888, 3105, 3155, 4123, 7008, 10328, 11278, 12454, 13164, 16135, 21356, 22473]}, "edge": {"target": [], "time": []}}}, "displayed_time": "25.96", "trialTime": 28371, "trial_type": "mouselab-mdp", "trial_index": 54, "time_elapsed": 1319666, "internal_node_id": "0.0-6.0-1.0-39.0"}}, {"uniqueid": "w41951197:a66831197", "current_trial": 55, "dateTime": 1693566218415, "trialdata": {"rt": 58591, "response": {"Q0": "$-2 to $2", "Q1": "$-16 to $16", "Q2": "$-88 to $88", "Q3": "The cost for clicking on nodes varied between nodes.", "Q4": "Very motivated"}, "question_order": [0, 1, 2, 3, 4], "trial_id": "final_quiz_control", "trial_type": "survey-multi-choice", "trial_index": 55, "time_elapsed": 1378261, "internal_node_id": "0.0-6.0-2.0"}}, {"uniqueid": "w41951197:a66831197", "current_trial": 56, "dateTime": 1693566303672, "trialdata": {"rt": 85248, "response": {"Q0": "I just randomly sampled end nodes until I decided the value of the node was worth the risk of not knowing what was in between", "Q1": "No", "Q2": "I was trying to minimize node checks but that was hard to do randomized"}, "trial_id": "self_report_control", "trial_type": "survey-text", "trial_index": 56, "time_elapsed": 1463518, "internal_node_id": "0.0-6.0-3.0"}}, {"uniqueid": "w41951197:a66831197", "current_trial": 57, "dateTime": 1693566345415, "trialdata": {"rt": 41740, "response": {"Q0": "Strongly disagree", "Q1": "Neither disagree nor agree", "Q2": "Neither disagree nor agree", "Q3": "Strongly disagree", "Q4": "Neither disagree nor agree", "Q5": "Strongly disagree", "Q6": "Strongly agree"}, "question_order": [0, 1, 2, 3, 4, 5, 6], "trial_id": "self_report_2", "trial_type": "survey-multi-choice", "trial_index": 57, "time_elapsed": 1505261, "internal_node_id": "0.0-6.0-4.0"}}, {"uniqueid": "w41951197:a66831197", "current_trial": 58, "dateTime": 1693566372343, "trialdata": {"rt": 26925, "response": {"gender": "male", "age": "24", "colorblind": "0", "effort": "0"}, "trial_type": "survey-html-form", "trial_index": 58, "time_elapsed": 1532189, "internal_node_id": "0.0-6.0-5.0"}}, {"uniqueid": "w41951197:a66831197", "current_trial": 59, "dateTime": 1693566395335, "trialdata": {"rt": 22986, "response": {"Q0": "no.", "Q1": "no, first time", "Q2": "no, thank you"}, "trial_type": "survey-text", "trial_index": 59, "time_elapsed": 1555181, "internal_node_id": "0.0-6.0-6.0"}}, {"uniqueid": "w41951197:a66831197", "current_trial": 60, "dateTime": 1693566400151, "trialdata": {"rt": 4812, "stimulus": "<h1>Completion Code Instructions (1/2)</h1>\n<br><br><br><br>\nYou have reached the end of the experiment! The completion code consists of two parts: (1) a code with 2 characters (2) a code with 6 characters. On this page, you will receive the second part of the code. The first part of the completion code will be on the next page.\n<br><br>\nThe second part of your completion code is: <b>EWEK22</b>\n<br><br>\nPlease note this down. Then, press 'Finish HIT' in order to find the first part of your completion code. Once the data has been saved, you will receive this code either in this window or in the original browser window where you started the experiment.\n", "response": 0, "trial_type": "html-button-response", "trial_index": 60, "time_elapsed": 1559997, "internal_node_id": "0.0-6.0-7.0"}}, {"uniqueid": "w41951197:a66831197", "current_trial": 61, "dateTime": 1693566401154, "trialdata": {"success": true, "trial_type": "fullscreen", "trial_index": 61, "time_elapsed": 1561000, "internal_node_id": "0.0-7.0"}}], "questiondata": {"params": {"CODE": "C6DMOQA6", "MIN_TIME": 14, "inspectCost": 1, "startTime": "Fri Sep 01 2023 11:40:39 GMT+0100 (British Summer Time)", "bonusRate": 0.002, "variance": "1_2_4_8_44", "branching": "31123"}, "final_score": 1883.6}, "eventdata": [{"eventtype": "initialized", "value": null, "timestamp": 1693564839008, "interval": 0}, {"eventtype": "window_resize", "value": [1536, 758], "timestamp": 1693564839009, "interval": 1}, {"eventtype": "window_resize", "value": [1536, 758], "timestamp": 1693564839326, "interval": 317}, {"eventtype": "window_resize", "value": [1536, 864], "timestamp": 1693564847107, "interval": 7781}, {"eventtype": "focus", "value": "off", "timestamp": 1693565186827, "interval": 339720}, {"eventtype": "focus", "value": "on", "timestamp": 1693565186827, "interval": 0}, {"eventtype": "window_resize", "value": [1536, 758], "timestamp": 1693565187034, "interval": 207}, {"eventtype": "window_resize", "value": [1536, 864], "timestamp": 1693565189429, "interval": 2395}, {"eventtype": "window_resize", "value": [1536, 758], "timestamp": 1693566400406, "interval": 1210977}], "useragent": "Mozilla/5.0 (Windows NT 10.0; Win64; x64) AppleWebKit/537.36 (KHTML, like Gecko) Chrome/116.0.0.0 Safari/537.36", "mode": "live", "id": "w41951197:a66831197", "status": "user data saved", "Beginhit": "2023-09-01 10:40:37.982976", "Beginexp": "2023-09-01 10:40:47.94024", "Endhit": "2023-09-01 11:06:41.666776", "psiturkStatus": 3, "browser": "<redacted>", "platform": "windows", "language": "en-GB", "excludeReason": "invalidClickStrats"}