{"condition": 0, "counterbalance": 0, "assignmentId": "a41091654", "workerId": "w83643539", "hitId": "h75585799", "currenttrial": 55, "bonus": 0, "data": [{"uniqueid": "w83643539:a41091654", "current_trial": 0, "dateTime": 1693564901100, "trialdata": {"success": true, "trial_type": "fullscreen", "trial_index": 0, "time_elapsed": 3247, "internal_node_id": "0.0-0.0"}}, {"uniqueid": "w83643539:a41091654", "current_trial": 1, "dateTime": 1693564913372, "trialdata": {"view_history": [{"page_index": 0, "viewing_time": 12265}], "rt": 12267, "trial_id": "exp_instructions_control", "trial_type": "instructions", "trial_index": 1, "time_elapsed": 15520, "internal_node_id": "0.0-1.0"}}, {"uniqueid": "w83643539:a41091654", "current_trial": 2, "dateTime": 1693565138642, "trialdata": {"view_history": [{"page_index": 0, "viewing_time": 137516}, {"page_index": 1, "viewing_time": 44714}, {"page_index": 2, "viewing_time": 13325}, {"page_index": 3, "viewing_time": 29711}], "rt": 225266, "trial_id": "mouselab_instructions_1_control", "trial_type": "instructions", "trial_index": 2, "time_elapsed": 240789, "internal_node_id": "0.0-2.0-1.0"}}, {"uniqueid": "w83643539:a41091654", "current_trial": 3, "dateTime": 1693565175417, "trialdata": {"revealed_states": [], "clicked_states": ["1", "2", "3", "4", "6", "12", "13", "14", "19", "21"], "num_clicks_accrued": [0, 0, 0, 0, 0, 0, 0, 0, 0, 0, 0, 0, 0], "stateRewards": ["", 10, 10, 10, -10, 10, -10, -10, -10, -10, 10, 10, -10, 10, 10, 10, -10, 10, -10, -10, -10, -10, 10, -10, 10, 10, -10, -10, 10, -10, 10, -10, 10, 10], "withholdReward": false, "trial_id": "practice_1", "block": "test", "trialIndex": 0, "score": -11.5, "costs": -5, "simulationMode": [null, null, null, null, null], "rewards": [-10, 10, 10, -10, -10], "path": ["0", "0", "12", "13", "14", "19", "21"], "rt": [27065, 384, 264, 433, 203], "actions": ["right", "right", "right", "down", "down"], "actionTimes": [30300, 31191, 31968, 32903, 33625], "queries": {"click": {"state": {"target": ["1", "2", "3", "4", "6", "12", "13", "14", "19", "21"], "time": [4307, 5407, 7419, 9580, 11237, 16860, 18019, 21694, 25660, 27949]}, "edge": {"target": [], "time": []}}, "mouseover": {"state": {"target": ["1", "2", "10", "3", "4", "4", "6", "6", "4", "6", "0", "0", "12", "13", "14", "19", "21", "20", "21", "15", "16", "18", "12"], "time": [3895, 5126, 6593, 7243, 7926, 8192, 8742, 9074, 9358, 9991, 15691, 15955, 16156, 17756, 18806, 22138, 26003, 27489, 27737, 28669, 28719, 28954, 29072]}, "edge": {"target": [], "time": []}}, "mouseout": {"state": {"target": ["0", "1", "2", "10", "3", "4", "4", "6", "6", "4", "6", "0", "0", "12", "13", "14", "19", "21", "20", "21", "15", "16", "18", "12"], "time": [961, 4365, 5442, 6893, 7892, 8025, 8642, 8775, 9125, 9891, 12658, 15847, 16124, 17539, 18575, 22005, 25937, 27271, 27688, 28470, 28686, 28903, 28987, 29104]}, "edge": {"target": [], "time": []}}}, "displayed_time": "34.14", "trialTime": 36331, "trial_type": "mouselab-mdp", "trial_index": 3, "time_elapsed": 277564, "internal_node_id": "0.0-2.0-2.0-0.0"}}, {"uniqueid": "w83643539:a41091654", "current_trial": 4, "dateTime": 1693565201408, "trialdata": {"revealed_states": [], "clicked_states": ["23", "24", "25", "30", "32", "1"], "num_clicks_accrued": [0, 0, 0, 0, 0, 0, 0, 0, 0, 0, 0, 0, 0], "stateRewards": ["", -10, -10, -10, -10, 10, -10, 10, -10, 10, -10, -10, 10, -10, 10, 10, 10, -10, 10, 10, 10, -10, -10, -10, -10, 10, 10, 10, 10, 10, 10, 10, -10, -10], "withholdReward": false, "trial_id": "practice_2", "block": "test", "trialIndex": 1, "score": -9.5, "costs": -3, "simulationMode": [null, null, null, null, null], "rewards": [-10, -10, 10, 10, -10], "path": ["0", "0", "23", "24", "25", "30", "32"], "rt": [17135, 153, 122, 162, 163], "actions": ["left", "left", "left", "down", "down"], "actionTimes": [19639, 20310, 20946, 21618, 22286], "queries": {"click": {"state": {"target": ["23", "24", "25", "30", "32", "1"], "time": [3673, 4953, 6389, 9342, 10576, 15654]}, "edge": {"target": [], "time": []}}, "mouseover": {"state": {"target": ["23", "24", "25", "30", "32", "30", "32", "12", "1", "2", "2", "0", "0"], "time": [3342, 4775, 6175, 7158, 7775, 9142, 9857, 13890, 15323, 16173, 17655, 18339, 18772]}, "edge": {"target": [], "time": []}}, "mouseout": {"state": {"target": ["0", "23", "23", "24", "25", "30", "32", "30", "32", "32", "12", "1", "2", "2", "1", "0"], "time": [3309, 3751, 4709, 5591, 7108, 7691, 8990, 9724, 11858, 12075, 15106, 15956, 17323, 18072, 18172, 18406]}, "edge": {"target": [], "time": []}}}, "displayed_time": "22.81", "trialTime": 25747, "trial_type": "mouselab-mdp", "trial_index": 4, "time_elapsed": 303556, "internal_node_id": "0.0-2.0-2.0-1.0"}}, {"uniqueid": "w83643539:a41091654", "current_trial": 5, "dateTime": 1693565226130, "trialdata": {"view_history": [{"page_index": 0, "viewing_time": 17653}, {"page_index": 1, "viewing_time": 7065}], "rt": 24719, "trial_id": "mouselab_instructions_2_control", "trial_type": "instructions", "trial_index": 5, "time_elapsed": 328278, "internal_node_id": "0.0-2.0-3.0"}}, {"uniqueid": "w83643539:a41091654", "current_trial": 6, "dateTime": 1693565250688, "trialdata": {"rt": 24554, "response": {"Q0": "The cost for clicking on nodes may vary between nodes.", "Q1": "The better I perform the higher my bonus will be.", "Q2": "No, the amount of cash at each node of the web may be different each time.", "Q3": "To get the highest total score.", "Q4": "Only before moving the spider.", "Q5": "3 seconds"}, "question_order": [0, 1, 2, 3, 4, 5], "correct": {"Q0": "The cost for clicking on nodes may vary between nodes.", "Q1": "The better I perform the higher my bonus will be.", "Q2": "No, the amount of cash at each node of the web may be different each time.", "Q3": "To get the highest total score.", "Q4": "Only before moving the spider.", "Q5": "3 seconds"}, "trial_id": "mouselab_quiz_control", "trial_type": "survey-multi-choice", "trial_index": 6, "time_elapsed": 352836, "internal_node_id": "0.0-2.0-4.0"}}, {"uniqueid": "w83643539:a41091654", "current_trial": 7, "dateTime": 1693565256040, "trialdata": {"rt": 5345, "response": {"Q0": "No"}, "question_order": [0], "trial_id": "repeat_check", "trial_type": "survey-multi-choice", "trial_index": 7, "time_elapsed": 358188, "internal_node_id": "0.0-4.0-0.0"}}, {"uniqueid": "w83643539:a41091654", "current_trial": 8, "dateTime": 1693565269375, "trialdata": {"rt": 13326, "stimulus": "\n<h1> Get ready to start the game! </h1>\n\nThank you for reading the instructions. Get ready start with the 40 rounds of this game.\n<br><br>\nIf you need to take a break, feel free to take one after the end of a round, before continuing to the next one.\n<br><br>\nRemember, the more money the spider gets, the bigger your bonus will be!\n<br><br>\n<div style='text-align: center;'>Press <code>space</code> to begin.</div>\n\n<br><br>\n(If, at any point, the <code>space</code> key does not take you to the next page, click once on the text and try again.)", "response": " ", "trial_id": "mdp_ready", "trial_type": "html-keyboard-response", "trial_index": 8, "time_elapsed": 371523, "internal_node_id": "0.0-6.0-0.0"}}, {"uniqueid": "w83643539:a41091654", "current_trial": 9, "dateTime": 1693565294425, "trialdata": {"revealed_states": [], "clicked_states": ["1", "2", "3", "12", "13"], "num_clicks_accrued": [0, 0, 0, 0, 0, 0, 0, 0, 0, 0, 0, 0, 0], "stateRewards": ["", -2, 2, -1, -6, 22, 6, 6, -5, 70, -42, 65, 1, 3, 5, -6, -67, -9, 3, 14, 7, -62, -13, -2, 4, 1, 16, 42, -21, -52, -8, 32, 53, 81], "withholdReward": false, "trial_id": "mdp_trial_1", "block": "test", "trialIndex": 2, "score": -46, "costs": -7, "simulationMode": [null, null, null, null, null], "rewards": [1, 3, 5, 14, -62], "path": ["0", "0", "12", "13", "14", "19", "21"], "rt": [16324, 256, 193, 222, 133], "actions": ["right", "right", "right", "down", "down"], "actionTimes": [18457, 19223, 19927, 20655, 21300], "queries": {"click": {"state": {"target": ["1", "2", "3", "12", "13"], "time": [3424, 5201, 7367, 10126, 14475]}, "edge": {"target": [], "time": []}}, "mouseover": {"state": {"target": ["1", "2", "3", "4", "8", "1", "0", "12", "12", "13", "14"], "time": [3202, 4301, 6351, 7951, 8634, 9050, 9117, 9483, 9834, 10600, 15232]}, "edge": {"target": [], "time": []}}, "mouseout": {"state": {"target": ["23", "0", "1", "2", "3", "4", "3", "8", "2", "1", "0", "12", "12", "13", "14"], "time": [553, 3102, 3477, 6118, 7884, 8434, 8501, 8968, 9033, 9067, 9468, 9533, 10550, 15116, 17783]}, "edge": {"target": [], "time": []}}}, "displayed_time": "21.82", "trialTime": 24777, "trial_type": "mouselab-mdp", "trial_index": 9, "time_elapsed": 396572, "internal_node_id": "0.0-6.0-1.0-0.0"}}, {"uniqueid": "w83643539:a41091654", "current_trial": 10, "dateTime": 1693565312898, "trialdata": {"revealed_states": [], "clicked_states": [], "num_clicks_accrued": [0, 0, 0, 0, 0, 0, 0, 0, 0, 0, 0, 0, 0], "stateRewards": ["", 1, -2, -8, -3, 31, -84, -55, -14, 15, -58, 17, -2, -3, 7, 7, -12, 48, 67, 4, -44, -68, 46, 2, 3, -5, -7, 76, 27, 5, 11, 57, 52, 59], "withholdReward": false, "trial_id": "mdp_trial_2", "block": "test", "trialIndex": 3, "score": 63, "costs": 0, "simulationMode": [null, null, null, null, null], "rewards": [2, 3, -5, 11, 52], "path": ["0", "0", "23", "24", "25", "30", "32"], "rt": [1224, 152, 198, 68, 228], "actions": ["left", "left", "left", "down", "down"], "actionTimes": [3495, 4158, 4870, 5455, 6199], "queries": {"click": {"state": {"target": [], "time": []}, "edge": {"target": [], "time": []}}, "mouseover": {"state": {"target": [], "time": []}, "edge": {"target": [], "time": []}}, "mouseout": {"state": {"target": ["13", "12"], "time": [1504, 1620]}, "edge": {"target": [], "time": []}}}, "displayed_time": "16.27", "trialTime": 18224, "trial_type": "mouselab-mdp", "trial_index": 10, "time_elapsed": 415046, "internal_node_id": "0.0-6.0-1.0-1.0"}}, {"uniqueid": "w83643539:a41091654", "current_trial": 11, "dateTime": 1693565330853, "trialdata": {"revealed_states": [], "clicked_states": [], "num_clicks_accrued": [0, 0, 0, 0, 0, 0, 0, 0, 0, 0, 0, 0, 0], "stateRewards": ["", -1, -3, 1, 13, -64, -29, 12, -4, -33, 50, 56, 2, -3, 4, 11, -64, -58, -55, 12, 47, 38, -25, -2, 2, 5, -15, 85, 7, 84, 10, 8, 57, 26], "withholdReward": false, "trial_id": "mdp_trial_3", "block": "test", "trialIndex": 4, "score": -44, "costs": 0, "simulationMode": [null, null, null, null, null], "rewards": [2, -3, 4, 11, -58], "path": ["0", "0", "12", "13", "14", "15", "17"], "rt": [3076, 181, 242, 87, 395], "actions": ["right", "right", "right", "up", "right"], "actionTimes": [5264, 5952, 6711, 7307, 8215], "queries": {"click": {"state": {"target": [], "time": []}, "edge": {"target": [], "time": []}}, "mouseover": {"state": {"target": [], "time": []}, "edge": {"target": [], "time": []}}, "mouseout": {"state": {"target": [], "time": []}, "edge": {"target": [], "time": []}}}, "displayed_time": "16.19", "trialTime": 17697, "trial_type": "mouselab-mdp", "trial_index": 11, "time_elapsed": 433000, "internal_node_id": "0.0-6.0-1.0-2.0"}}, {"uniqueid": "w83643539:a41091654", "current_trial": 12, "dateTime": 1693565350629, "trialdata": {"revealed_states": [], "clicked_states": ["1", "23", "24"], "num_clicks_accrued": [0, 0, 0, 0, 0, 0, 0, 0, 0, 0, 0, 0, 0], "stateRewards": ["", 1, 4, 7, -16, -84, -6, -46, -12, -7, -49, -26, -1, 2, -4, 2, 22, 37, -64, 1, 88, -13, -10, 1, -4, -2, 5, 2, -10, -34, 9, 66, 55, 38], "withholdReward": false, "trial_id": "mdp_trial_4", "block": "test", "trialIndex": 5, "score": -14.2, "costs": -4.199999999999999, "simulationMode": [null, null, null, null, null], "rewards": [1, -4, -2, 5, -10], "path": ["0", "0", "23", "24", "25", "26", "28"], "rt": [12482, 98, 190, 166, 280], "actions": ["left", "left", "left", "up", "right"], "actionTimes": [14273, 14908, 15617, 16294, 17090], "queries": {"click": {"state": {"target": ["1", "23", "24"], "time": [2870, 6884, 10585]}, "edge": {"target": [], "time": []}}, "mouseover": {"state": {"target": ["1", "23", "0", "12", "12", "0", "24"], "time": [2477, 3660, 9427, 9577, 9944, 10143, 10360]}, "edge": {"target": [], "time": []}}, "mouseout": {"state": {"target": ["0", "1", "23", "0", "12", "12", "0", "23"], "time": [2392, 3460, 9377, 9476, 9627, 10127, 10159, 10209]}, "edge": {"target": [], "time": []}}}, "displayed_time": "17.61", "trialTime": 19469, "trial_type": "mouselab-mdp", "trial_index": 12, "time_elapsed": 452776, "internal_node_id": "0.0-6.0-1.0-3.0"}}, {"uniqueid": "w83643539:a41091654", "current_trial": 13, "dateTime": 1693565368829, "trialdata": {"revealed_states": [], "clicked_states": [], "num_clicks_accrued": [0, 0, 0, 0, 0, 0, 0, 0, 0, 0, 0, 0, 0], "stateRewards": ["", 1, 1, -5, 10, -31, 73, 14, -8, -23, 63, -70, -1, 2, 8, 7, 25, -59, 27, -10, -40, -71, -15, -2, 3, -8, -5, -19, 77, -34, 7, 67, 63, 19], "withholdReward": false, "trial_id": "mdp_trial_5", "block": "test", "trialIndex": 6, "score": -24, "costs": 0, "simulationMode": [null, null, null, null, null], "rewards": [1, 1, -5, 10, -31], "path": ["0", "0", "1", "2", "3", "4", "5"], "rt": [2613, 236, 300, 83, 1102], "actions": ["up", "up", "up", "right", "up"], "actionTimes": [5599, 6350, 7165, 7764, 9367], "queries": {"click": {"state": {"target": [], "time": []}, "edge": {"target": [], "time": []}}, "mouseover": {"state": {"target": [], "time": []}, "edge": {"target": [], "time": []}}, "mouseout": {"state": {"target": ["24", "23", "12"], "time": [2180, 2213, 2481]}, "edge": {"target": [], "time": []}}}, "displayed_time": "16.99", "trialTime": 17944, "trial_type": "mouselab-mdp", "trial_index": 13, "time_elapsed": 470976, "internal_node_id": "0.0-6.0-1.0-4.0"}}, {"uniqueid": "w83643539:a41091654", "current_trial": 14, "dateTime": 1693565430639, "trialdata": {"revealed_states": [], "clicked_states": [], "num_clicks_accrued": [0, 0, 0, 0, 0, 0, 0, 0, 0, 0, 0, 0, 0], "stateRewards": ["", 2, -1, -3, 16, -3, -16, -62, -1, 13, -26, 43, -1, 4, 3, -9, -54, -37, -3, -12, -71, -68, -57, 1, -3, 2, -9, 2, -2, -9, -11, 84, -52, 55], "withholdReward": false, "trial_id": "mdp_trial_6", "block": "test", "trialIndex": 7, "score": 44, "costs": 0, "simulationMode": [null, null, null, null, null], "rewards": [1, -3, 2, -11, 55], "path": ["0", "0", "23", "24", "25", "30", "33"], "rt": [1150, 385, 197, 244, 196], "actions": ["left", "left", "left", "down", "left"], "actionTimes": [2625, 3523, 4233, 4997, 5700], "queries": {"click": {"state": {"target": [], "time": []}, "edge": {"target": [], "time": []}}, "mouseover": {"state": {"target": [], "time": []}, "edge": {"target": [], "time": []}}, "mouseout": {"state": {"target": [], "time": []}, "edge": {"target": [], "time": []}}}, "displayed_time": "15.48", "trialTime": 61544, "trial_type": "mouselab-mdp", "trial_index": 14, "time_elapsed": 532786, "internal_node_id": "0.0-6.0-1.0-5.0"}}, {"uniqueid": "w83643539:a41091654", "current_trial": 15, "dateTime": 1693565448276, "trialdata": {"revealed_states": [], "clicked_states": [], "num_clicks_accrued": [0, 0, 0, 0, 0, 0, 0, 0, 0, 0, 0, 0, 0], "stateRewards": ["", 2, 3, -2, -8, -8, -41, 74, 15, -23, -80, 1, 1, 3, 3, -15, -63, -78, 67, 13, 75, -41, 86, 2, -2, 6, -3, -8, -49, 50, -6, 83, 74, 80], "withholdReward": false, "trial_id": "mdp_trial_7", "block": "test", "trialIndex": 8, "score": 106, "costs": 0, "simulationMode": [null, null, null, null, null], "rewards": [1, 3, 3, 13, 86], "path": ["0", "0", "12", "13", "14", "19", "22"], "rt": [1622, 248, 259, 166, 183], "actions": ["right", "right", "right", "down", "left"], "actionTimes": [3119, 3873, 4650, 5325, 6024], "queries": {"click": {"state": {"target": [], "time": []}, "edge": {"target": [], "time": []}}, "mouseover": {"state": {"target": [], "time": []}, "edge": {"target": [], "time": []}}, "mouseout": {"state": {"target": [], "time": []}, "edge": {"target": [], "time": []}}}, "displayed_time": "15.50", "trialTime": 17366, "trial_type": "mouselab-mdp", "trial_index": 15, "time_elapsed": 550423, "internal_node_id": "0.0-6.0-1.0-6.0"}}, {"uniqueid": "w83643539:a41091654", "current_trial": 16, "dateTime": 1693565466149, "trialdata": {"revealed_states": [], "clicked_states": [], "num_clicks_accrued": [0, 0, 0, 0, 0, 0, 0, 0, 0, 0, 0, 0, 0], "stateRewards": ["", -1, 2, -6, 6, 43, 78, 78, -2, 55, -29, -17, -2, -4, 1, -15, 13, 7, -79, 8, -28, -68, 36, -1, -3, 3, -16, 84, -18, 87, 10, 32, 13, -81], "withholdReward": false, "trial_id": "mdp_trial_8", "block": "test", "trialIndex": 9, "score": -36, "costs": 0, "simulationMode": [null, null, null, null, null], "rewards": [-1, 2, -6, -2, -29], "path": ["0", "0", "1", "2", "3", "8", "10"], "rt": [1120, 127, 438, 344, 140], "actions": ["up", "up", "up", "left", "down"], "actionTimes": [2282, 2924, 3882, 4738, 5384], "queries": {"click": {"state": {"target": [], "time": []}, "edge": {"target": [], "time": []}}, "mouseover": {"state": {"target": [], "time": []}, "edge": {"target": [], "time": []}}, "mouseout": {"state": {"target": [], "time": []}, "edge": {"target": [], "time": []}}}, "displayed_time": "15.16", "trialTime": 17596, "trial_type": "mouselab-mdp", "trial_index": 16, "time_elapsed": 568297, "internal_node_id": "0.0-6.0-1.0-7.0"}}, {"uniqueid": "w83643539:a41091654", "current_trial": 17, "dateTime": 1693565502769, "trialdata": {"revealed_states": [], "clicked_states": [], "num_clicks_accrued": [0, 0, 0, 0, 0, 0, 0, 0, 0, 0, 0, 0, 0], "stateRewards": ["", 1, 2, 7, 13, 88, -71, 27, 3, 60, 5, -53, -2, 2, -6, -1, -30, 79, 47, -4, -14, 46, 68, 1, 1, 8, 10, -14, 86, 48, -11, -67, -44, 5], "withholdReward": false, "trial_id": "mdp_trial_9", "block": "test", "trialIndex": 10, "score": -68, "costs": 0, "simulationMode": [null, null, null, null, null], "rewards": [1, 1, 8, -11, -67], "path": ["0", "0", "23", "24", "25", "30", "31"], "rt": [948, 120, 80, 63, 276], "actions": ["left", "left", "left", "down", "right"], "actionTimes": [3707, 4339, 4932, 5515, 6311], "queries": {"click": {"state": {"target": [], "time": []}, "edge": {"target": [], "time": []}}, "mouseover": {"state": {"target": [], "time": []}, "edge": {"target": [], "time": []}}, "mouseout": {"state": {"target": [], "time": []}, "edge": {"target": [], "time": []}}}, "displayed_time": "16.76", "trialTime": 36345, "trial_type": "mouselab-mdp", "trial_index": 17, "time_elapsed": 604917, "internal_node_id": "0.0-6.0-1.0-8.0"}}, {"uniqueid": "w83643539:a41091654", "current_trial": 18, "dateTime": 1693565556084, "trialdata": {"revealed_states": [], "clicked_states": [], "num_clicks_accrued": [0, 0, 0, 0, 0, 0, 0, 0, 0, 0, 0, 0, 0], "stateRewards": ["", 2, -1, 5, 6, 10, 86, 55, 10, -45, 63, -71, 1, -2, 5, -8, -50, -72, 36, 15, 61, 12, 33, -1, -4, 6, 5, 79, -56, -21, -16, -87, 60, -81], "withholdReward": false, "trial_id": "mdp_trial_10", "block": "test", "trialIndex": 11, "score": 80, "costs": 0, "simulationMode": [null, null, null, null, null], "rewards": [1, -2, 5, 15, 61], "path": ["0", "0", "12", "13", "14", "19", "20"], "rt": [1327, 186, 235, 427, 165], "actions": ["right", "right", "right", "down", "right"], "actionTimes": [2648, 3350, 4099, 5040, 5713], "queries": {"click": {"state": {"target": [], "time": []}, "edge": {"target": [], "time": []}}, "mouseover": {"state": {"target": [], "time": []}, "edge": {"target": [], "time": []}}, "mouseout": {"state": {"target": ["0"], "time": [52703]}, "edge": {"target": [], "time": []}}}, "displayed_time": "15.32", "trialTime": 53029, "trial_type": "mouselab-mdp", "trial_index": 18, "time_elapsed": 658232, "internal_node_id": "0.0-6.0-1.0-9.0"}}, {"uniqueid": "w83643539:a41091654", "current_trial": 19, "dateTime": 1693565581735, "trialdata": {"revealed_states": [], "clicked_states": [], "num_clicks_accrued": [0, 0, 0, 0, 0, 0, 0, 0, 0, 0, 0, 0, 0], "stateRewards": ["", -1, 1, 6, -6, 70, 66, 67, -16, -75, -35, 37, -1, 4, 4, -6, 47, -9, 63, 15, 21, -63, 13, 1, 3, -6, 10, 79, -29, 18, -15, 9, -67, -19], "withholdReward": false, "trial_id": "mdp_trial_11", "block": "test", "trialIndex": 12, "score": -85, "costs": 0, "simulationMode": [null, null, null, null, null], "rewards": [-1, 1, 6, -16, -75], "path": ["0", "0", "1", "2", "3", "8", "9"], "rt": [1270, 134, 146, 971, 93], "actions": ["up", "up", "up", "left", "up"], "actionTimes": [2901, 3549, 4211, 5690, 6291], "queries": {"click": {"state": {"target": [], "time": []}, "edge": {"target": [], "time": []}}, "mouseover": {"state": {"target": [], "time": []}, "edge": {"target": [], "time": []}}, "mouseout": {"state": {"target": [], "time": []}, "edge": {"target": [], "time": []}}}, "displayed_time": "15.63", "trialTime": 25358, "trial_type": "mouselab-mdp", "trial_index": 19, "time_elapsed": 683882, "internal_node_id": "0.0-6.0-1.0-10.0"}}, {"uniqueid": "w83643539:a41091654", "current_trial": 20, "dateTime": 1693565617799, "trialdata": {"revealed_states": [], "clicked_states": [], "num_clicks_accrued": [0, 0, 0, 0, 0, 0, 0, 0, 0, 0, 0, 0, 0], "stateRewards": ["", 1, -1, 8, 4, 76, -33, -17, -3, -1, -54, -74, -2, 2, -5, 13, -51, 63, 83, 1, 84, 29, -36, 2, -1, 7, -12, -10, -44, -43, -14, 8, -69, 19], "withholdReward": false, "trial_id": "mdp_trial_12", "block": "test", "trialIndex": 13, "score": -47, "costs": 0, "simulationMode": [null, null, null, null, null], "rewards": [2, -1, 7, -12, -43], "path": ["0", "0", "23", "24", "25", "26", "29"], "rt": [2171, 193, 161, 542, 92], "actions": ["left", "left", "left", "up", "left"], "actionTimes": [3548, 4250, 4919, 5980, 6581], "queries": {"click": {"state": {"target": [], "time": []}, "edge": {"target": [], "time": []}}, "mouseover": {"state": {"target": [], "time": []}, "edge": {"target": [], "time": []}}, "mouseout": {"state": {"target": ["0"], "time": [1200]}, "edge": {"target": [], "time": []}}}, "displayed_time": "15.38", "trialTime": 35786, "trial_type": "mouselab-mdp", "trial_index": 20, "time_elapsed": 719947, "internal_node_id": "0.0-6.0-1.0-11.0"}}, {"uniqueid": "w83643539:a41091654", "current_trial": 21, "dateTime": 1693565647162, "trialdata": {"revealed_states": [], "clicked_states": [], "num_clicks_accrued": [0, 0, 0, 0, 0, 0, 0, 0, 0, 0, 0, 0, 0], "stateRewards": ["", -1, 1, -2, 5, 73, 15, 61, 8, 7, 38, 76, 2, 2, -4, -6, -6, -26, 43, -5, -45, -85, -35, -2, 1, -4, 15, -10, 69, 72, -11, 84, -49, -38], "withholdReward": false, "trial_id": "mdp_trial_13", "block": "test", "trialIndex": 14, "score": 76, "costs": 0, "simulationMode": [null, null, null, null, null], "rewards": [-1, 1, -2, 5, 73], "path": ["0", "0", "1", "2", "3", "4", "5"], "rt": [1155, 95, 104, 145, 672], "actions": ["up", "up", "up", "right", "up"], "actionTimes": [3076, 3682, 4293, 4952, 6144], "queries": {"click": {"state": {"target": [], "time": []}, "edge": {"target": [], "time": []}}, "mouseover": {"state": {"target": [], "time": []}, "edge": {"target": [], "time": []}}, "mouseout": {"state": {"target": ["0"], "time": [1744]}, "edge": {"target": [], "time": []}}}, "displayed_time": "15.92", "trialTime": 29089, "trial_type": "mouselab-mdp", "trial_index": 21, "time_elapsed": 749309, "internal_node_id": "0.0-6.0-1.0-12.0"}}, {"uniqueid": "w83643539:a41091654", "current_trial": 22, "dateTime": 1693565670587, "trialdata": {"revealed_states": [], "clicked_states": [], "num_clicks_accrued": [0, 0, 0, 0, 0, 0, 0, 0, 0, 0, 0, 0, 0], "stateRewards": ["", 1, -1, 1, 13, 31, -56, 72, 2, 41, 5, 63, -2, -3, -2, 3, -71, -26, 52, 13, -31, 24, -67, 2, -2, 5, 4, 66, 43, 72, 9, 86, -26, 44], "withholdReward": false, "trial_id": "mdp_trial_14", "block": "test", "trialIndex": 15, "score": -12, "costs": 0, "simulationMode": [null, null, null, null, null], "rewards": [2, -2, 5, 9, -26], "path": ["0", "0", "23", "24", "25", "30", "32"], "rt": [5589, 153, 104, 13, 108], "actions": ["left", "left", "left", "down", "down"], "actionTimes": [8536, 9194, 9811, 10336, 10948], "queries": {"click": {"state": {"target": [], "time": []}, "edge": {"target": [], "time": []}}, "mouseover": {"state": {"target": [], "time": []}, "edge": {"target": [], "time": []}}, "mouseout": {"state": {"target": ["0"], "time": [2793]}, "edge": {"target": [], "time": []}}}, "displayed_time": "16.95", "trialTime": 23139, "trial_type": "mouselab-mdp", "trial_index": 22, "time_elapsed": 772734, "internal_node_id": "0.0-6.0-1.0-13.0"}}, {"uniqueid": "w83643539:a41091654", "current_trial": 23, "dateTime": 1693565688197, "trialdata": {"revealed_states": [], "clicked_states": [], "num_clicks_accrued": [0, 0, 0, 0, 0, 0, 0, 0, 0, 0, 0, 0, 0], "stateRewards": ["", -2, -1, -1, 5, -54, -87, 35, 2, -8, 20, -22, 1, 3, 6, 13, -75, -32, -55, -3, 56, 62, -22, -1, -4, -1, -7, -51, 84, 70, 7, -15, 5, 55], "withholdReward": false, "trial_id": "mdp_trial_15", "block": "test", "trialIndex": 16, "score": 63, "costs": 0, "simulationMode": [null, null, null, null, null], "rewards": [1, 3, 6, -3, 56], "path": ["0", "0", "12", "13", "14", "19", "20"], "rt": [1558, 53, 158, 578, 187], "actions": ["right", "right", "right", "down", "right"], "actionTimes": [2684, 3244, 3914, 5002, 5695], "queries": {"click": {"state": {"target": [], "time": []}, "edge": {"target": [], "time": []}}, "mouseover": {"state": {"target": [], "time": []}, "edge": {"target": [], "time": []}}, "mouseout": {"state": {"target": ["0"], "time": [949]}, "edge": {"target": [], "time": []}}}, "displayed_time": "15.13", "trialTime": 17304, "trial_type": "mouselab-mdp", "trial_index": 23, "time_elapsed": 790345, "internal_node_id": "0.0-6.0-1.0-14.0"}}, {"uniqueid": "w83643539:a41091654", "current_trial": 24, "dateTime": 1693565705139, "trialdata": {"revealed_states": [], "clicked_states": [], "num_clicks_accrued": [0, 0, 0, 0, 0, 0, 0, 0, 0, 0, 0, 0, 0], "stateRewards": ["", -1, -3, 1, -4, -48, -63, -49, -2, -84, -19, 65, 2, -2, -2, -12, -4, 59, 9, 6, 75, 69, -13, -1, -3, -3, -2, -37, -68, -36, 13, 32, 18, -14], "withholdReward": false, "trial_id": "mdp_trial_16", "block": "test", "trialIndex": 17, "score": 60, "costs": 0, "simulationMode": [null, null, null, null, null], "rewards": [-1, -3, 1, -2, 65], "path": ["0", "0", "1", "2", "3", "8", "11"], "rt": [1581, 78, 210, 379, 116], "actions": ["up", "up", "up", "left", "left"], "actionTimes": [2939, 3528, 4243, 5129, 5765], "queries": {"click": {"state": {"target": [], "time": []}, "edge": {"target": [], "time": []}}, "mouseover": {"state": {"target": [], "time": []}, "edge": {"target": [], "time": []}}, "mouseout": {"state": {"target": ["0"], "time": [1212]}, "edge": {"target": [], "time": []}}}, "displayed_time": "15.36", "trialTime": 16643, "trial_type": "mouselab-mdp", "trial_index": 24, "time_elapsed": 807287, "internal_node_id": "0.0-6.0-1.0-15.0"}}, {"uniqueid": "w83643539:a41091654", "current_trial": 25, "dateTime": 1693565723683, "trialdata": {"revealed_states": [], "clicked_states": [], "num_clicks_accrued": [0, 0, 0, 0, 0, 0, 0, 0, 0, 0, 0, 0, 0], "stateRewards": ["", 2, 4, 4, 9, -88, -10, 44, 16, -54, 64, 78, 1, 2, 5, 16, 80, 36, 7, -4, 9, -47, -70, -1, -3, 6, -16, 11, 80, 28, 8, -1, 34, -17], "withholdReward": false, "trial_id": "mdp_trial_17", "block": "test", "trialIndex": 18, "score": 9, "costs": 0, "simulationMode": [null, null, null, null, null], "rewards": [2, 4, 4, 9, -10], "path": ["0", "0", "1", "2", "3", "4", "6"], "rt": [1083, 219, 258, 214, 164], "actions": ["up", "up", "up", "right", "right"], "actionTimes": [2812, 3549, 4320, 5044, 5726], "queries": {"click": {"state": {"target": [], "time": []}, "edge": {"target": [], "time": []}}, "mouseover": {"state": {"target": [], "time": []}, "edge": {"target": [], "time": []}}, "mouseout": {"state": {"target": ["0"], "time": [1590]}, "edge": {"target": [], "time": []}}}, "displayed_time": "15.73", "trialTime": 18236, "trial_type": "mouselab-mdp", "trial_index": 25, "time_elapsed": 825830, "internal_node_id": "0.0-6.0-1.0-16.0"}}, {"uniqueid": "w83643539:a41091654", "current_trial": 26, "dateTime": 1693565741678, "trialdata": {"revealed_states": [], "clicked_states": [], "num_clicks_accrued": [0, 0, 0, 0, 0, 0, 0, 0, 0, 0, 0, 0, 0], "stateRewards": ["", -1, 4, -6, -5, -22, -38, -38, -2, -56, 88, 14, -1, -1, -7, -6, 61, -60, 21, 11, 57, 31, -30, -2, -2, 6, -9, -44, -70, -44, -15, 34, 16, -78], "withholdReward": false, "trial_id": "mdp_trial_18", "block": "test", "trialIndex": 19, "score": -51, "costs": 0, "simulationMode": [null, null, null, null, null], "rewards": [-2, -2, 6, -9, -44], "path": ["0", "0", "23", "24", "25", "26", "29"], "rt": [1815, 137, 180, 476, 491], "actions": ["left", "left", "left", "up", "left"], "actionTimes": [2958, 3609, 4302, 5297, 6296], "queries": {"click": {"state": {"target": [], "time": []}, "edge": {"target": [], "time": []}}, "mouseover": {"state": {"target": [], "time": []}, "edge": {"target": [], "time": []}}, "mouseout": {"state": {"target": ["0"], "time": [959]}, "edge": {"target": [], "time": []}}}, "displayed_time": "15.14", "trialTime": 17694, "trial_type": "mouselab-mdp", "trial_index": 26, "time_elapsed": 843825, "internal_node_id": "0.0-6.0-1.0-17.0"}}, {"uniqueid": "w83643539:a41091654", "current_trial": 27, "dateTime": 1693565773575, "trialdata": {"revealed_states": [], "clicked_states": [], "num_clicks_accrued": [0, 0, 0, 0, 0, 0, 0, 0, 0, 0, 0, 0, 0], "stateRewards": ["", 2, 3, 3, 10, 19, -21, 6, 9, 54, 68, 16, 2, 2, -6, -8, 40, -2, -75, -2, -42, 55, 59, -1, 2, 4, -14, 11, -34, -30, -6, 61, -53, 13], "withholdReward": false, "trial_id": "mdp_trial_19", "block": "test", "trialIndex": 20, "score": 55, "costs": 0, "simulationMode": [null, null, null, null, null], "rewards": [2, 2, -6, -2, 59], "path": ["0", "0", "12", "13", "14", "19", "22"], "rt": [2251, 422, 241, 155, 228], "actions": ["right", "right", "right", "down", "left"], "actionTimes": [4656, 5593, 6345, 7009, 7750], "queries": {"click": {"state": {"target": [], "time": []}, "edge": {"target": [], "time": []}}, "mouseover": {"state": {"target": [], "time": []}, "edge": {"target": [], "time": []}}, "mouseout": {"state": {"target": ["0", "0"], "time": [2216, 31316]}, "edge": {"target": [], "time": []}}}, "displayed_time": "16.41", "trialTime": 31595, "trial_type": "mouselab-mdp", "trial_index": 27, "time_elapsed": 875722, "internal_node_id": "0.0-6.0-1.0-18.0"}}, {"uniqueid": "w83643539:a41091654", "current_trial": 28, "dateTime": 1693565810116, "trialdata": {"revealed_states": [], "clicked_states": [], "num_clicks_accrued": [0, 0, 0, 0, 0, 0, 0, 0, 0, 0, 0, 0, 0], "stateRewards": ["", -1, -3, -6, 14, 41, 18, 63, -14, 80, 21, 17, -2, -4, -2, -5, 13, 70, 8, -4, -64, -10, -20, 2, -1, 4, -1, -17, -55, 42, -7, 47, 54, 15], "withholdReward": false, "trial_id": "mdp_trial_20", "block": "test", "trialIndex": 21, "score": 56, "costs": 0, "simulationMode": [null, null, null, null, null], "rewards": [-1, -3, -6, -14, 80], "path": ["0", "0", "1", "2", "3", "8", "9"], "rt": [1403, 117, 142, 593, 295], "actions": ["up", "up", "up", "left", "up"], "actionTimes": [3375, 4004, 4661, 5762, 6563], "queries": {"click": {"state": {"target": [], "time": []}, "edge": {"target": [], "time": []}}, "mouseover": {"state": {"target": [], "time": []}, "edge": {"target": [], "time": []}}, "mouseout": {"state": {"target": [], "time": []}, "edge": {"target": [], "time": []}}}, "displayed_time": "15.97", "trialTime": 36242, "trial_type": "mouselab-mdp", "trial_index": 28, "time_elapsed": 912264, "internal_node_id": "0.0-6.0-1.0-19.0"}}, {"uniqueid": "w83643539:a41091654", "current_trial": 29, "dateTime": 1693565827610, "trialdata": {"revealed_states": [], "clicked_states": [], "num_clicks_accrued": [0, 0, 0, 0, 0, 0, 0, 0, 0, 0, 0, 0, 0], "stateRewards": ["", -1, 4, -8, 12, 14, 69, -8, 5, -72, -14, 56, -1, -1, -1, 9, 67, 19, 11, -9, -88, -58, 3, 2, -4, -8, 4, 62, 77, -74, 5, -31, 65, 88], "withholdReward": false, "trial_id": "mdp_trial_21", "block": "test", "trialIndex": 22, "score": 17, "costs": 0, "simulationMode": [null, null, null, null, null], "rewards": [-1, -1, -1, 9, 11], "path": ["0", "0", "12", "13", "14", "15", "18"], "rt": [1039, 96, 103, 470, 136], "actions": ["right", "right", "right", "up", "left"], "actionTimes": [2543, 3173, 3796, 4780, 5429], "queries": {"click": {"state": {"target": [], "time": []}, "edge": {"target": [], "time": []}}, "mouseover": {"state": {"target": [], "time": []}, "edge": {"target": [], "time": []}}, "mouseout": {"state": {"target": [], "time": []}, "edge": {"target": [], "time": []}}}, "displayed_time": "15.51", "trialTime": 17150, "trial_type": "mouselab-mdp", "trial_index": 29, "time_elapsed": 929757, "internal_node_id": "0.0-6.0-1.0-20.0"}}, {"uniqueid": "w83643539:a41091654", "current_trial": 30, "dateTime": 1693565988818, "trialdata": {"revealed_states": [], "clicked_states": [], "num_clicks_accrued": [0, 0, 0, 0, 0, 0, 0, 0, 0, 0, 0, 0, 0], "stateRewards": ["", -2, 3, 8, -9, 59, 41, -50, -1, 82, 66, 33, 2, -2, 7, 8, 1, -38, 12, -16, 24, -37, 67, 1, 4, -2, 5, 35, -83, 28, 8, -27, 69, -64], "withholdReward": false, "trial_id": "mdp_trial_22", "block": "test", "trialIndex": 23, "score": 80, "costs": 0, "simulationMode": [null, null, null, null, null], "rewards": [1, 4, -2, 8, 69], "path": ["0", "0", "23", "24", "25", "30", "32"], "rt": [1380, 90, 176, 59, 144], "actions": ["left", "left", "left", "down", "down"], "actionTimes": [2854, 3451, 4137, 4704, 5371], "queries": {"click": {"state": {"target": [], "time": []}, "edge": {"target": [], "time": []}}, "mouseover": {"state": {"target": [], "time": []}, "edge": {"target": [], "time": []}}, "mouseout": {"state": {"target": [], "time": []}, "edge": {"target": [], "time": []}}}, "displayed_time": "15.48", "trialTime": 160895, "trial_type": "mouselab-mdp", "trial_index": 30, "time_elapsed": 1090965, "internal_node_id": "0.0-6.0-1.0-21.0"}}, {"uniqueid": "w83643539:a41091654", "current_trial": 31, "dateTime": 1693566060681, "trialdata": {"revealed_states": [], "clicked_states": [], "num_clicks_accrued": [0, 0, 0, 0, 0, 0, 0, 0, 0, 0, 0, 0, 0], "stateRewards": ["", 2, -3, -8, 14, -7, -51, 73, 2, 36, 36, -43, -1, 3, -4, 1, 6, 87, -65, 15, 61, -42, -83, -1, 3, -2, -7, 30, -48, 35, 13, 26, 60, 78], "withholdReward": false, "trial_id": "mdp_trial_23", "block": "test", "trialIndex": 24, "score": 74, "costs": 0, "simulationMode": [null, null, null, null, null], "rewards": [-1, 3, -4, 15, 61], "path": ["0", "0", "12", "13", "14", "19", "20"], "rt": [1716, 182, 223, 158, 437], "actions": ["right", "right", "right", "down", "right"], "actionTimes": [3125, 3812, 4552, 5222, 6168], "queries": {"click": {"state": {"target": [], "time": []}, "edge": {"target": [], "time": []}}, "mouseover": {"state": {"target": [], "time": []}, "edge": {"target": [], "time": []}}, "mouseout": {"state": {"target": ["0"], "time": [1223]}, "edge": {"target": [], "time": []}}}, "displayed_time": "15.41", "trialTime": 71578, "trial_type": "mouselab-mdp", "trial_index": 31, "time_elapsed": 1162828, "internal_node_id": "0.0-6.0-1.0-22.0"}}, {"uniqueid": "w83643539:a41091654", "current_trial": 32, "dateTime": 1693566136235, "trialdata": {"revealed_states": [], "clicked_states": [], "num_clicks_accrued": [0, 0, 0, 0, 0, 0, 0, 0, 0, 0, 0, 0, 0], "stateRewards": ["", -2, -3, -7, 7, -54, -69, -4, -14, -77, 22, 40, -2, -1, 5, 6, -35, 50, -60, 10, -28, 75, 57, 1, -4, -2, 2, 68, 34, -18, 12, 3, -21, -43], "withholdReward": false, "trial_id": "mdp_trial_24", "block": "test", "trialIndex": 25, "score": -27, "costs": 0, "simulationMode": [null, null, null, null, null], "rewards": [-2, -1, 5, 6, -35], "path": ["0", "0", "12", "13", "14", "15", "16"], "rt": [1541, 67, 214, 352, 37], "actions": ["right", "right", "right", "up", "up"], "actionTimes": [2459, 3030, 3743, 4613, 5166], "queries": {"click": {"state": {"target": [], "time": []}, "edge": {"target": [], "time": []}}, "mouseover": {"state": {"target": [], "time": []}, "edge": {"target": [], "time": []}}, "mouseout": {"state": {"target": ["0"], "time": [725]}, "edge": {"target": [], "time": []}}}, "displayed_time": "14.92", "trialTime": 75229, "trial_type": "mouselab-mdp", "trial_index": 32, "time_elapsed": 1238382, "internal_node_id": "0.0-6.0-1.0-23.0"}}, {"uniqueid": "w83643539:a41091654", "current_trial": 33, "dateTime": 1693566162221, "trialdata": {"revealed_states": [], "clicked_states": [], "num_clicks_accrued": [0, 0, 0, 0, 0, 0, 0, 0, 0, 0, 0, 0, 0], "stateRewards": ["", -2, 3, -5, -7, 66, 43, -60, -4, -70, -75, 4, -1, 2, 2, -13, 54, 11, -40, -1, 77, 32, 15, -2, 3, -8, -9, -35, 83, -27, 6, -74, -34, 44], "withholdReward": false, "trial_id": "mdp_trial_25", "block": "test", "trialIndex": 26, "score": -43, "costs": 0, "simulationMode": [null, null, null, null, null], "rewards": [-2, 3, -8, -9, -27], "path": ["0", "0", "23", "24", "25", "26", "29"], "rt": [1444, 560, 408, 280, 152], "actions": ["left", "left", "left", "up", "left"], "actionTimes": [2264, 3337, 4252, 5040, 5710], "queries": {"click": {"state": {"target": [], "time": []}, "edge": {"target": [], "time": []}}, "mouseover": {"state": {"target": [], "time": []}, "edge": {"target": [], "time": []}}, "mouseout": {"state": {"target": ["0"], "time": [637]}, "edge": {"target": [], "time": []}}}, "displayed_time": "14.82", "trialTime": 25644, "trial_type": "mouselab-mdp", "trial_index": 33, "time_elapsed": 1264368, "internal_node_id": "0.0-6.0-1.0-24.0"}}, {"uniqueid": "w83643539:a41091654", "current_trial": 34, "dateTime": 1693566209830, "trialdata": {"revealed_states": [], "clicked_states": [], "num_clicks_accrued": [0, 0, 0, 0, 0, 0, 0, 0, 0, 0, 0, 0, 0], "stateRewards": ["", -2, 2, 2, -6, 9, 37, 50, -13, -7, -18, -75, -2, -4, 4, 7, 23, -57, -66, -7, -81, -48, -76, 1, 1, -8, 1, 51, -2, 70, 14, 59, 71, -37], "withholdReward": false, "trial_id": "mdp_trial_26", "block": "test", "trialIndex": 27, "score": 79, "costs": 0, "simulationMode": [null, null, null, null, null], "rewards": [1, 1, -8, 14, 71], "path": ["0", "0", "23", "24", "25", "30", "32"], "rt": [2078, 69, 198, 113, 236], "actions": ["left", "left", "left", "down", "down"], "actionTimes": [19455, 20038, 20750, 21381, 22122], "queries": {"click": {"state": {"target": [], "time": []}, "edge": {"target": [], "time": []}}, "mouseover": {"state": {"target": [], "time": []}, "edge": {"target": [], "time": []}}, "mouseout": {"state": {"target": ["0"], "time": [17167]}, "edge": {"target": [], "time": []}}}, "displayed_time": "31.38", "trialTime": 47272, "trial_type": "mouselab-mdp", "trial_index": 34, "time_elapsed": 1311977, "internal_node_id": "0.0-6.0-1.0-25.0"}}, {"uniqueid": "w83643539:a41091654", "current_trial": 35, "dateTime": 1693566236536, "trialdata": {"revealed_states": [], "clicked_states": [], "num_clicks_accrued": [0, 0, 0, 0, 0, 0, 0, 0, 0, 0, 0, 0, 0], "stateRewards": ["", 2, 4, 7, -6, -76, -81, 2, 5, -66, -3, 36, -2, -4, 6, -2, -69, 4, -49, -6, 67, 38, -67, 2, 1, 1, 6, -68, -21, 52, -16, -16, 6, -70], "withholdReward": false, "trial_id": "mdp_trial_27", "block": "test", "trialIndex": 28, "score": 32, "costs": 0, "simulationMode": [null, null, null, null, null], "rewards": [-2, -4, 6, -6, 38], "path": ["0", "0", "12", "13", "14", "19", "21"], "rt": [874, 3, 41, 264, 131], "actions": ["right", "right", "right", "down", "down"], "actionTimes": [2692, 3208, 3780, 4552, 5202], "queries": {"click": {"state": {"target": [], "time": []}, "edge": {"target": [], "time": []}}, "mouseover": {"state": {"target": [], "time": []}, "edge": {"target": [], "time": []}}, "mouseout": {"state": {"target": ["1"], "time": [1388]}, "edge": {"target": [], "time": []}}}, "displayed_time": "15.82", "trialTime": 26390, "trial_type": "mouselab-mdp", "trial_index": 35, "time_elapsed": 1338684, "internal_node_id": "0.0-6.0-1.0-26.0"}}, {"uniqueid": "w83643539:a41091654", "current_trial": 36, "dateTime": 1693566272602, "trialdata": {"revealed_states": [], "clicked_states": [], "num_clicks_accrued": [0, 0, 0, 0, 0, 0, 0, 0, 0, 0, 0, 0, 0], "stateRewards": ["", -1, 1, -6, -1, 80, 23, 2, -11, 73, -81, 59, 1, 3, 5, -1, -26, 28, -3, 16, -59, -13, -50, -2, -2, 2, 15, -50, 86, 17, -4, 37, 35, 44], "withholdReward": false, "trial_id": "mdp_trial_28", "block": "test", "trialIndex": 29, "score": 73, "costs": 0, "simulationMode": [null, null, null, null, null], "rewards": [-1, 1, -6, -1, 80], "path": ["0", "0", "1", "2", "3", "4", "5"], "rt": [1375, 81, 168, 148, 2], "actions": ["up", "up", "up", "right", "up"], "actionTimes": [2387, 2987, 3673, 4336, 4858], "queries": {"click": {"state": {"target": [], "time": []}, "edge": {"target": [], "time": []}}, "mouseover": {"state": {"target": [], "time": []}, "edge": {"target": [], "time": []}}, "mouseout": {"state": {"target": ["0", "0"], "time": [858, 35616]}, "edge": {"target": [], "time": []}}}, "displayed_time": "15.01", "trialTime": 35745, "trial_type": "mouselab-mdp", "trial_index": 36, "time_elapsed": 1374750, "internal_node_id": "0.0-6.0-1.0-27.0"}}, {"uniqueid": "w83643539:a41091654", "current_trial": 37, "dateTime": 1693566332000, "trialdata": {"revealed_states": [], "clicked_states": [], "num_clicks_accrued": [0, 0, 0, 0, 0, 0, 0, 0, 0, 0, 0, 0, 0], "stateRewards": ["", 1, 4, 5, 8, -55, -11, 8, 16, -37, 77, -22, -2, 3, -8, -10, 45, 87, -67, 4, 17, -33, -22, -1, -3, 7, 6, -39, -85, 75, -1, 7, -48, 45], "withholdReward": false, "trial_id": "mdp_trial_29", "block": "test", "trialIndex": 30, "score": -30, "costs": 0, "simulationMode": [null, null, null, null, null], "rewards": [-1, -3, 7, 6, -39], "path": ["0", "0", "23", "24", "25", "26", "27"], "rt": [920, 60, 199, 715, 227], "actions": ["left", "left", "left", "up", "up"], "actionTimes": [2744, 3319, 4025, 5257, 6003], "queries": {"click": {"state": {"target": [], "time": []}, "edge": {"target": [], "time": []}}, "mouseover": {"state": {"target": [], "time": []}, "edge": {"target": [], "time": []}}, "mouseout": {"state": {"target": [], "time": []}, "edge": {"target": [], "time": []}}}, "displayed_time": "15.82", "trialTime": 59070, "trial_type": "mouselab-mdp", "trial_index": 37, "time_elapsed": 1434147, "internal_node_id": "0.0-6.0-1.0-28.0"}}, {"uniqueid": "w83643539:a41091654", "current_trial": 38, "dateTime": 1693566378202, "trialdata": {"revealed_states": [], "clicked_states": [], "num_clicks_accrued": [0, 0, 0, 0, 0, 0, 0, 0, 0, 0, 0, 0, 0], "stateRewards": ["", -1, 4, 3, 12, -27, 34, -33, 3, -63, 1, 6, 2, 2, -6, -11, -77, -85, 68, -6, 51, 81, -60, -2, -2, 1, 15, 20, 15, 68, -10, -14, 6, -4], "withholdReward": false, "trial_id": "mdp_trial_30", "block": "test", "trialIndex": 31, "score": -54, "costs": 0, "simulationMode": [null, null, null, null, null], "rewards": [-1, 4, 3, 3, -63], "path": ["0", "0", "1", "2", "3", "8", "9"], "rt": [1467, 536, 358, 607, 258], "actions": ["up", "up", "up", "left", "up"], "actionTimes": [2277, 3324, 4194, 5311, 6078], "queries": {"click": {"state": {"target": [], "time": []}, "edge": {"target": [], "time": []}}, "mouseover": {"state": {"target": [], "time": []}, "edge": {"target": [], "time": []}}, "mouseout": {"state": {"target": [], "time": []}, "edge": {"target": [], "time": []}}}, "displayed_time": "14.81", "trialTime": 45878, "trial_type": "mouselab-mdp", "trial_index": 38, "time_elapsed": 1480349, "internal_node_id": "0.0-6.0-1.0-29.0"}}, {"uniqueid": "w83643539:a41091654", "current_trial": 39, "dateTime": 1693566421598, "trialdata": {"revealed_states": [], "clicked_states": [], "num_clicks_accrued": [0, 0, 0, 0, 0, 0, 0, 0, 0, 0, 0, 0, 0], "stateRewards": ["", -1, -1, 4, -16, -75, 81, -51, -7, -84, 73, -30, -2, 1, -3, -16, -77, 33, 14, 1, 45, 87, -66, 2, 2, -5, -7, -19, -17, 79, -3, 8, 49, 47], "withholdReward": false, "trial_id": "mdp_trial_31", "block": "test", "trialIndex": 32, "score": 13, "costs": 0, "simulationMode": [null, null, null, null, null], "rewards": [-2, 1, -3, -16, 33], "path": ["0", "0", "12", "13", "14", "15", "17"], "rt": [1265, 108, 179, 306, 159], "actions": ["right", "right", "right", "up", "right"], "actionTimes": [2003, 2623, 3310, 4135, 4806], "queries": {"click": {"state": {"target": [], "time": []}, "edge": {"target": [], "time": []}}, "mouseover": {"state": {"target": [], "time": []}, "edge": {"target": [], "time": []}}, "mouseout": {"state": {"target": [], "time": []}, "edge": {"target": [], "time": []}}}, "displayed_time": "14.74", "trialTime": 43077, "trial_type": "mouselab-mdp", "trial_index": 39, "time_elapsed": 1523745, "internal_node_id": "0.0-6.0-1.0-30.0"}}, {"uniqueid": "w83643539:a41091654", "current_trial": 40, "dateTime": 1693566472988, "trialdata": {"revealed_states": [], "clicked_states": [], "num_clicks_accrued": [0, 0, 0, 0, 0, 0, 0, 0, 0, 0, 0, 0, 0], "stateRewards": ["", -2, -1, -5, 10, -36, -70, 68, -9, 86, 71, -10, 2, -4, 7, -7, 66, 44, -66, -13, -69, 43, 15, -2, 2, 6, -13, 62, 57, 50, -10, -69, 42, -72], "withholdReward": false, "trial_id": "mdp_trial_32", "block": "test", "trialIndex": 33, "score": -68, "costs": 0, "simulationMode": [null, null, null, null, null], "rewards": [-2, -1, -5, 10, -70], "path": ["0", "0", "1", "2", "3", "4", "6"], "rt": [1230, 359, 216, 83, 324], "actions": ["up", "up", "up", "right", "right"], "actionTimes": [2635, 3508, 4232, 4830, 5654], "queries": {"click": {"state": {"target": [], "time": []}, "edge": {"target": [], "time": []}}, "mouseover": {"state": {"target": [], "time": []}, "edge": {"target": [], "time": []}}, "mouseout": {"state": {"target": [], "time": []}, "edge": {"target": [], "time": []}}}, "displayed_time": "15.41", "trialTime": 51061, "trial_type": "mouselab-mdp", "trial_index": 40, "time_elapsed": 1575135, "internal_node_id": "0.0-6.0-1.0-31.0"}}, {"uniqueid": "w83643539:a41091654", "current_trial": 41, "dateTime": 1693566493295, "trialdata": {"revealed_states": [], "clicked_states": [], "num_clicks_accrued": [0, 0, 0, 0, 0, 0, 0, 0, 0, 0, 0, 0, 0], "stateRewards": ["", 1, 3, 3, -10, 52, 68, 59, 12, 7, 49, 21, -2, -3, -4, -2, -2, 63, 63, -4, 44, 43, -76, -2, -3, -6, 13, 48, 36, 12, -5, -36, -33, -11], "withholdReward": false, "trial_id": "mdp_trial_33", "block": "test", "trialIndex": 34, "score": -27, "costs": 0, "simulationMode": [null, null, null, null, null], "rewards": [-2, -3, -6, -5, -11], "path": ["0", "0", "23", "24", "25", "30", "33"], "rt": [1275, 449, 261, 80, 156], "actions": ["left", "left", "left", "down", "left"], "actionTimes": [2333, 3294, 4072, 4658, 5332], "queries": {"click": {"state": {"target": [], "time": []}, "edge": {"target": [], "time": []}}, "mouseover": {"state": {"target": [], "time": []}, "edge": {"target": [], "time": []}}, "mouseout": {"state": {"target": [], "time": []}, "edge": {"target": [], "time": []}}}, "displayed_time": "15.06", "trialTime": 19992, "trial_type": "mouselab-mdp", "trial_index": 41, "time_elapsed": 1595442, "internal_node_id": "0.0-6.0-1.0-32.0"}}, {"uniqueid": "w83643539:a41091654", "current_trial": 42, "dateTime": 1693566526029, "trialdata": {"revealed_states": [], "clicked_states": [], "num_clicks_accrued": [0, 0, 0, 0, 0, 0, 0, 0, 0, 0, 0, 0, 0], "stateRewards": ["", -1, -3, -6, -2, -7, 80, -45, -3, -38, -72, 76, 2, 1, 7, 4, -62, 14, -74, 14, -87, -21, -88, -2, 1, -7, -10, 66, 56, -76, 10, -29, -72, -70], "withholdReward": false, "trial_id": "mdp_trial_34", "block": "test", "trialIndex": 35, "score": 3, "costs": 0, "simulationMode": [null, null, null, null, null], "rewards": [2, 1, 7, 14, -21], "path": ["0", "0", "12", "13", "14", "19", "21"], "rt": [1057, 452, 175, 134, 194], "actions": ["right", "right", "right", "down", "down"], "actionTimes": [2298, 3257, 3946, 4589, 5298], "queries": {"click": {"state": {"target": [], "time": []}, "edge": {"target": [], "time": []}}, "mouseover": {"state": {"target": [], "time": []}, "edge": {"target": [], "time": []}}, "mouseout": {"state": {"target": [], "time": []}, "edge": {"target": [], "time": []}}}, "displayed_time": "15.24", "trialTime": 32392, "trial_type": "mouselab-mdp", "trial_index": 42, "time_elapsed": 1628176, "internal_node_id": "0.0-6.0-1.0-33.0"}}, {"uniqueid": "w83643539:a41091654", "current_trial": 43, "dateTime": 1693566576403, "trialdata": {"revealed_states": [], "clicked_states": [], "num_clicks_accrued": [0, 0, 0, 0, 0, 0, 0, 0, 0, 0, 0, 0, 0], "stateRewards": ["", -2, 4, -3, -13, 63, -36, 62, 11, 78, 34, -51, 2, -2, 8, -6, -40, -18, 31, 9, 64, 39, 79, 1, 4, -4, 15, -12, 76, 73, -10, -77, 86, -4], "withholdReward": false, "trial_id": "mdp_trial_35", "block": "test", "trialIndex": 36, "score": -16, "costs": 0, "simulationMode": [null, null, null, null, null], "rewards": [2, -2, 8, -6, -18], "path": ["0", "0", "12", "13", "14", "15", "17"], "rt": [1756, 726, 243, 469, 354], "actions": ["right", "right", "right", "up", "right"], "actionTimes": [2937, 4167, 4917, 5895, 6762], "queries": {"click": {"state": {"target": [], "time": []}, "edge": {"target": [], "time": []}}, "mouseover": {"state": {"target": [], "time": []}, "edge": {"target": [], "time": []}}, "mouseout": {"state": {"target": [], "time": []}, "edge": {"target": [], "time": []}}}, "displayed_time": "15.18", "trialTime": 50041, "trial_type": "mouselab-mdp", "trial_index": 43, "time_elapsed": 1678550, "internal_node_id": "0.0-6.0-1.0-34.0"}}, {"uniqueid": "w83643539:a41091654", "current_trial": 44, "dateTime": 1693566633020, "trialdata": {"revealed_states": [], "clicked_states": [], "num_clicks_accrued": [0, 0, 0, 0, 0, 0, 0, 0, 0, 0, 0, 0, 0], "stateRewards": ["", -1, 4, -3, 3, 57, -61, 5, -11, 23, -1, 34, -2, -4, -1, -13, 27, 38, -36, 4, -45, 21, 88, 1, -2, -1, 1, -69, -5, -78, -12, -9, 38, -54], "withholdReward": false, "trial_id": "mdp_trial_36", "block": "test", "trialIndex": 37, "score": -12, "costs": 0, "simulationMode": [null, null, null, null, null], "rewards": [-1, 4, -3, -11, -1], "path": ["0", "0", "1", "2", "3", "8", "10"], "rt": [1116, 357, 202, 298, 194], "actions": ["up", "up", "up", "left", "down"], "actionTimes": [2925, 3791, 4502, 5315, 6027], "queries": {"click": {"state": {"target": [], "time": []}, "edge": {"target": [], "time": []}}, "mouseover": {"state": {"target": [], "time": []}, "edge": {"target": [], "time": []}}, "mouseout": {"state": {"target": [], "time": []}, "edge": {"target": [], "time": []}}}, "displayed_time": "15.81", "trialTime": 56261, "trial_type": "mouselab-mdp", "trial_index": 44, "time_elapsed": 1735167, "internal_node_id": "0.0-6.0-1.0-35.0"}}, {"uniqueid": "w83643539:a41091654", "current_trial": 45, "dateTime": 1693566650626, "trialdata": {"revealed_states": [], "clicked_states": [], "num_clicks_accrued": [0, 0, 0, 0, 0, 0, 0, 0, 0, 0, 0, 0, 0], "stateRewards": ["", 1, 1, 6, -14, -40, 37, 16, -13, 33, -68, 49, 2, 4, 3, 6, 55, 27, 32, 10, -65, 20, -87, 2, 1, -6, -5, -42, 12, 29, -8, 16, 76, -33], "withholdReward": false, "trial_id": "mdp_trial_37", "block": "test", "trialIndex": 38, "score": 10, "costs": 0, "simulationMode": [null, null, null, null, null], "rewards": [1, 1, 6, -14, 16], "path": ["0", "0", "1", "2", "3", "4", "7"], "rt": [1188, 517, 237, 164, 123], "actions": ["up", "up", "up", "right", "down"], "actionTimes": [2524, 3561, 4313, 4995, 5632], "queries": {"click": {"state": {"target": [], "time": []}, "edge": {"target": [], "time": []}}, "mouseover": {"state": {"target": [], "time": []}, "edge": {"target": [], "time": []}}, "mouseout": {"state": {"target": [], "time": []}, "edge": {"target": [], "time": []}}}, "displayed_time": "15.34", "trialTime": 17273, "trial_type": "mouselab-mdp", "trial_index": 45, "time_elapsed": 1752773, "internal_node_id": "0.0-6.0-1.0-36.0"}}, {"uniqueid": "w83643539:a41091654", "current_trial": 46, "dateTime": 1693566671400, "trialdata": {"revealed_states": [], "clicked_states": [], "num_clicks_accrued": [0, 0, 0, 0, 0, 0, 0, 0, 0, 0, 0, 0, 0], "stateRewards": ["", 2, 3, -3, 4, 72, -28, 34, -12, 57, -64, -15, 2, 1, -4, -15, 2, 49, 31, -1, -42, -58, 31, -2, 1, -2, -13, -75, -19, -22, -6, 61, 10, -56], "withholdReward": false, "trial_id": "mdp_trial_38", "block": "test", "trialIndex": 39, "score": -35, "costs": 0, "simulationMode": [null, null, null, null, null], "rewards": [-2, 1, -2, -13, -19], "path": ["0", "0", "23", "24", "25", "26", "28"], "rt": [1292, 232, 943, 157, 194], "actions": ["left", "left", "left", "up", "right"], "actionTimes": [2341, 3083, 4541, 5210, 5910], "queries": {"click": {"state": {"target": [], "time": []}, "edge": {"target": [], "time": []}}, "mouseover": {"state": {"target": [], "time": []}, "edge": {"target": [], "time": []}}, "mouseout": {"state": {"target": [], "time": []}, "edge": {"target": [], "time": []}}}, "displayed_time": "15.05", "trialTime": 20406, "trial_type": "mouselab-mdp", "trial_index": 46, "time_elapsed": 1773547, "internal_node_id": "0.0-6.0-1.0-37.0"}}, {"uniqueid": "w83643539:a41091654", "current_trial": 47, "dateTime": 1693566688403, "trialdata": {"revealed_states": [], "clicked_states": [], "num_clicks_accrued": [0, 0, 0, 0, 0, 0, 0, 0, 0, 0, 0, 0, 0], "stateRewards": ["", -2, 3, -1, -9, 44, 48, -37, -3, 71, -39, 87, -1, 3, -4, 4, -21, 59, -15, -8, -1, 28, -38, 2, 4, 4, 8, -85, -72, -63, 14, 58, 63, -46], "withholdReward": false, "trial_id": "mdp_trial_39", "block": "test", "trialIndex": 40, "score": 84, "costs": 0, "simulationMode": [null, null, null, null, null], "rewards": [-2, 3, -1, -3, 87], "path": ["0", "0", "1", "2", "3", "8", "11"], "rt": [1391, 295, 286, 194, 328], "actions": ["up", "up", "up", "left", "left"], "actionTimes": [2810, 3618, 4408, 5115, 5950], "queries": {"click": {"state": {"target": [], "time": []}, "edge": {"target": [], "time": []}}, "mouseover": {"state": {"target": [], "time": []}, "edge": {"target": [], "time": []}}, "mouseout": {"state": {"target": [], "time": []}, "edge": {"target": [], "time": []}}}, "displayed_time": "15.42", "trialTime": 16669, "trial_type": "mouselab-mdp", "trial_index": 47, "time_elapsed": 1790550, "internal_node_id": "0.0-6.0-1.0-38.0"}}, {"uniqueid": "w83643539:a41091654", "current_trial": 48, "dateTime": 1693566711417, "trialdata": {"revealed_states": [], "clicked_states": [], "num_clicks_accrued": [0, 0, 0, 0, 0, 0, 0, 0, 0, 0, 0, 0, 0], "stateRewards": ["", 1, -1, 1, -14, -10, 67, -28, -11, 72, 40, -65, -1, 1, 1, -2, 8, -55, 34, -10, 61, 33, -15, 2, -4, 7, 4, -75, 63, -21, -16, 61, 19, 21], "withholdReward": false, "trial_id": "mdp_trial_40", "block": "test", "trialIndex": 41, "score": -41, "costs": 0, "simulationMode": [null, null, null, null, null], "rewards": [1, -1, 1, -14, -28], "path": ["0", "0", "1", "2", "3", "4", "7"], "rt": [1063, 243, 284, 158, 163], "actions": ["up", "up", "up", "right", "down"], "actionTimes": [8510, 9252, 10045, 10717, 11373], "queries": {"click": {"state": {"target": [], "time": []}, "edge": {"target": [], "time": []}}, "mouseover": {"state": {"target": [], "time": []}, "edge": {"target": [], "time": []}}, "mouseout": {"state": {"target": [], "time": []}, "edge": {"target": [], "time": []}}}, "displayed_time": "21.45", "trialTime": 22676, "trial_type": "mouselab-mdp", "trial_index": 48, "time_elapsed": 1813564, "internal_node_id": "0.0-6.0-1.0-39.0"}}, {"uniqueid": "w83643539:a41091654", "current_trial": 49, "dateTime": 1693566746521, "trialdata": {"rt": 35098, "response": {"Q0": "$-2 to $2", "Q1": "$-16 to $16", "Q2": "$-88 to $88", "Q3": "The cost for clicking on nodes varied between nodes.", "Q4": "Neither motivated nor unmotivated"}, "question_order": [0, 1, 2, 3, 4], "trial_id": "final_quiz_control", "trial_type": "survey-multi-choice", "trial_index": 49, "time_elapsed": 1848668, "internal_node_id": "0.0-6.0-2.0"}}, {"uniqueid": "w83643539:a41091654", "current_trial": 50, "dateTime": 1693566794558, "trialdata": {"rt": 48024, "response": {"Q0": "I just clicked randomly, as I was losing money by checking nodes", "Q1": "No, I continued the same throughout", "Q2": "I wasn't trying to improve as I found using the node inspect feature was too costly"}, "trial_id": "self_report_control", "trial_type": "survey-text", "trial_index": 50, "time_elapsed": 1896706, "internal_node_id": "0.0-6.0-3.0"}}, {"uniqueid": "w83643539:a41091654", "current_trial": 51, "dateTime": 1693566818388, "trialdata": {"rt": 23825, "response": {"gender": "female", "age": "32", "colorblind": "0", "effort": "1"}, "trial_type": "survey-html-form", "trial_index": 51, "time_elapsed": 1920536, "internal_node_id": "0.0-6.0-4.0"}}, {"uniqueid": "w83643539:a41091654", "current_trial": 52, "dateTime": 1693566831120, "trialdata": {"rt": 12726, "response": {"Q0": "no", "Q1": "no", "Q2": ""}, "trial_type": "survey-text", "trial_index": 52, "time_elapsed": 1933268, "internal_node_id": "0.0-6.0-5.0"}}, {"uniqueid": "w83643539:a41091654", "current_trial": 53, "dateTime": 1693566854114, "trialdata": {"rt": 22989, "stimulus": "<h1>Completion Code Instructions (1/2)</h1>\n<br><br><br><br>\nYou have reached the end of the experiment! The completion code consists of two parts: (1) a code with 2 characters (2) a code with 6 characters. On this page, you will receive the second part of the code. The first part of the completion code will be on the next page.\n<br><br>\nThe second part of your completion code is: <b>EWEK22</b>\n<br><br>\nPlease note this down. Then, press 'Finish HIT' in order to find the first part of your completion code. Once the data has been saved, you will receive this code either in this window or in the original browser window where you started the experiment.\n", "response": 0, "trial_type": "html-button-response", "trial_index": 53, "time_elapsed": 1956262, "internal_node_id": "0.0-6.0-6.0"}}, {"uniqueid": "w83643539:a41091654", "current_trial": 54, "dateTime": 1693566855117, "trialdata": {"success": true, "trial_type": "fullscreen", "trial_index": 54, "time_elapsed": 1957265, "internal_node_id": "0.0-7.0"}}], "questiondata": {"params": {"CODE": "C6DMOQA6", "MIN_TIME": 14, "inspectCost": 1, "startTime": "Fri Sep 01 2023 11:41:37 GMT+0100 (British Summer Time)", "bonusRate": 0.002, "variance": "1_2_4_8_44", "branching": "31123"}, "final_score": 296.8}, "eventdata": [{"eventtype": "initialized", "value": null, "timestamp": 1693564896768, "interval": 0}, {"eventtype": "window_resize", "value": [1024, 767], "timestamp": 1693564896768, "interval": 0}, {"eventtype": "window_resize", "value": [1024, 767], "timestamp": 1693564897084, "interval": 316}, {"eventtype": "window_resize", "value": [1600, 900], "timestamp": 1693564900335, "interval": 3251}, {"eventtype": "window_resize", "value": [1024, 767], "timestamp": 1693566854372, "interval": 1954037}], "useragent": "Mozilla/5.0 (Windows NT 10.0; Win64; x64) AppleWebKit/537.36 (KHTML, like Gecko) Chrome/116.0.0.0 Safari/537.36", "mode": "live", "id": "w83643539:a41091654", "status": "user data saved", "Beginhit": "2023-09-01 10:41:34.684911", "Beginexp": "2023-09-01 10:41:40.30931", "Endhit": "2023-09-01 11:14:14.713018", "psiturkStatus": 3, "browser": "<redacted>", "platform": "windows", "language": "en-GB"}