{"condition": 1, "counterbalance": 0, "assignmentId": "a84190904", "workerId": "w32492313", "hitId": "h64020907", "currenttrial": 56, "bonus": 0, "data": [{"uniqueid": "w32492313:a84190904", "current_trial": 0, "dateTime": 1693480619360, "trialdata": {"success": true, "trial_type": "fullscreen", "trial_index": 0, "time_elapsed": 3428, "internal_node_id": "0.0-0.0"}}, {"uniqueid": "w32492313:a84190904", "current_trial": 1, "dateTime": 1693480629134, "trialdata": {"view_history": [{"page_index": 0, "viewing_time": 9769}], "rt": 9769, "trial_id": "exp_instructions_misaligned", "trial_type": "instructions", "trial_index": 1, "time_elapsed": 13202, "internal_node_id": "0.0-1.0"}}, {"uniqueid": "w32492313:a84190904", "current_trial": 2, "dateTime": 1693480762255, "trialdata": {"view_history": [{"page_index": 0, "viewing_time": 47927}, {"page_index": 1, "viewing_time": 42928}, {"page_index": 2, "viewing_time": 13480}, {"page_index": 3, "viewing_time": 28784}], "rt": 133119, "trial_id": "mouselab_instructions_1_misaligned", "trial_type": "instructions", "trial_index": 2, "time_elapsed": 146323, "internal_node_id": "0.0-2.0-1.0"}}, {"uniqueid": "w32492313:a84190904", "current_trial": 3, "dateTime": 1693480785218, "trialdata": {"revealed_states": [], "clicked_states": ["12"], "num_clicks_accrued": [0, 0, 0, 0, 0, 0, 0, 0, 0, 0, 0, 0, 0], "stateRewards": ["", 10, 10, -10, -10, 10, -10, -10, -10, -10, -10, 10, 10, 10, -10, 10, -10, -10, 10, -10, -10, 10, 10, -10, -10, 10, 10, -10, -10, -10, 10, -10, -10, 10], "withholdReward": false, "trial_id": "practice_1", "block": "test", "trialIndex": 0, "score": 13, "costs": -0.5, "simulationMode": [null, null, null, null, null], "rewards": [10, 10, -10, 10, -10], "path": ["0", "0", "12", "13", "14", "15", "16"], "rt": [9799, 962, 954, 265, 137], "actions": ["right", "right", "right", "up", "up"], "actionTimes": [14349, 15821, 17279, 18058, 18711], "queries": {"click": {"state": {"target": ["12"], "time": [9217]}, "edge": {"target": [], "time": []}}, "mouseover": {"state": {"target": ["12", "13", "14", "17", "15", "12", "13"], "time": [5152, 5252, 5301, 8149, 8182, 8433, 10231]}, "edge": {"target": [], "time": []}}, "mouseout": {"state": {"target": ["12", "18", "12", "12", "13", "14", "17", "15", "12", "13"], "time": [113, 3754, 4036, 5218, 5285, 5317, 8165, 8199, 10130, 10430]}, "edge": {"target": [], "time": []}}}, "displayed_time": "19.22", "trialTime": 22367, "trial_type": "mouselab-mdp", "trial_index": 3, "time_elapsed": 169285, "internal_node_id": "0.0-2.0-2.0-0.0"}}, {"uniqueid": "w32492313:a84190904", "current_trial": 4, "dateTime": 1693480814180, "trialdata": {"revealed_states": [], "clicked_states": ["24", "25", "26", "27"], "num_clicks_accrued": [0, 0, 0, 0, 0, 0, 0, 0, 0, 0, 0, 0, 0], "stateRewards": ["", 10, 10, 10, 10, -10, -10, 10, 10, 10, -10, 10, 10, -10, -10, 10, -10, 10, -10, -10, -10, 10, -10, 10, 10, -10, 10, -10, -10, -10, 10, 10, 10, -10], "withholdReward": false, "trial_id": "practice_2", "block": "test", "trialIndex": 1, "score": 31.5, "costs": -2, "simulationMode": [null, null, null, null, null], "rewards": [10, 10, 10, 10, -10], "path": ["0", "0", "1", "2", "3", "4", "5"], "rt": [19014, 196, 182, 1550, 95], "actions": ["up", "up", "up", "right", "up"], "actionTimes": [21647, 22365, 23050, 25117, 25728], "queries": {"click": {"state": {"target": ["24", "25", "26", "27"], "time": [8061, 10541, 12939, 15091]}, "edge": {"target": [], "time": []}}, "mouseover": {"state": {"target": ["0", "23", "23", "24", "25", "26", "27", "28", "23", "1", "1"], "time": [7250, 7331, 7482, 7615, 8914, 12528, 14641, 17107, 17222, 20038, 20286]}, "edge": {"target": [], "time": []}}, "mouseout": {"state": {"target": ["0", "0", "23", "23", "24", "25", "26", "27", "27", "28", "23", "1", "1"], "time": [2304, 7283, 7348, 7499, 8747, 12261, 14359, 15311, 17074, 17156, 19719, 20169, 20385]}, "edge": {"target": [], "time": []}}}, "displayed_time": "26.25", "trialTime": 28833, "trial_type": "mouselab-mdp", "trial_index": 4, "time_elapsed": 198247, "internal_node_id": "0.0-2.0-2.0-1.0"}}, {"uniqueid": "w32492313:a84190904", "current_trial": 5, "dateTime": 1693480828048, "trialdata": {"view_history": [{"page_index": 0, "viewing_time": 9503}, {"page_index": 1, "viewing_time": 4361}], "rt": 13864, "trial_id": "mouselab_instructions_2_misaligned", "trial_type": "instructions", "trial_index": 5, "time_elapsed": 212115, "internal_node_id": "0.0-2.0-3.0"}}, {"uniqueid": "w32492313:a84190904", "current_trial": 6, "dateTime": 1693480873496, "trialdata": {"rt": 45444, "response": {"Q0": "The cost for clicking on nodes may vary between nodes.", "Q1": "The better I perform the higher my bonus will be.", "Q2": "No, the amount of cash at each node of the web may be different each time.", "Q3": "To get the highest total score.", "Q4": "Only before moving the spider.", "Q5": "3 seconds"}, "question_order": [0, 1, 2, 3, 4, 5], "correct": {"Q0": "The cost for clicking on nodes may vary between nodes.", "Q1": "The better I perform the higher my bonus will be.", "Q2": "No, the amount of cash at each node of the web may be different each time.", "Q3": "To get the highest total score.", "Q4": "Only before moving the spider.", "Q5": "3 seconds"}, "trial_id": "mouselab_quiz_misaligned", "trial_type": "survey-multi-choice", "trial_index": 6, "time_elapsed": 257563, "internal_node_id": "0.0-2.0-4.0"}}, {"uniqueid": "w32492313:a84190904", "current_trial": 7, "dateTime": 1693480880111, "trialdata": {"rt": 6608, "response": {"Q0": "No"}, "question_order": [0], "trial_id": "repeat_check", "trial_type": "survey-multi-choice", "trial_index": 7, "time_elapsed": 264178, "internal_node_id": "0.0-4.0-0.0"}}, {"uniqueid": "w32492313:a84190904", "current_trial": 8, "dateTime": 1693480883273, "trialdata": {"rt": 3157, "stimulus": "\n<h1> Get ready to start the game! </h1>\n\nThank you for reading the instructions. Get ready start with the 40 rounds of this game.\n<br><br>\nIf you need to take a break, feel free to take one after the end of a round, before continuing to the next one.\n<br><br>\nRemember, the more money the spider gets, the bigger your bonus will be!\n<br><br>\n<div style='text-align: center;'>Press <code>space</code> to begin.</div>\n\n<br><br>\n(If, at any point, the <code>space</code> key does not take you to the next page, click once on the text and try again.)", "response": " ", "trial_id": "mdp_ready", "trial_type": "html-keyboard-response", "trial_index": 8, "time_elapsed": 267341, "internal_node_id": "0.0-6.0-0.0"}}, {"uniqueid": "w32492313:a84190904", "current_trial": 9, "dateTime": 1693480904192, "trialdata": {"revealed_states": [], "clicked_states": ["12", "13", "14", "15", "16"], "num_clicks_accrued": [0, 0, 0, 0, 0, 0, 0, 0, 0, 0, 0, 0, 0], "stateRewards": ["", -1, 4, -8, 12, 14, 69, -8, 5, -72, -14, 56, -1, -1, -1, 9, 67, 19, 11, -9, -88, -58, 3, 2, -4, -8, 4, 62, 77, -74, 5, -31, 65, 88], "withholdReward": false, "trial_id": "mdp_trial_1", "block": "test", "trialIndex": 2, "score": 68.25, "costs": -4.75, "simulationMode": [null, null, null, null, null], "rewards": [-1, -1, -1, 9, 67], "path": ["0", "0", "12", "13", "14", "15", "16"], "rt": [11628, 311, 156, 1284, 133], "actions": ["right", "right", "right", "up", "up"], "actionTimes": [13609, 14441, 15118, 16911, 17543], "queries": {"click": {"state": {"target": ["12", "13", "14", "15", "16"], "time": [3649, 5130, 6410, 7514, 8421]}, "edge": {"target": [], "time": []}}, "mouseover": {"state": {"target": ["0", "12", "13", "14", "15", "16", "18"], "time": [2839, 3407, 4654, 5886, 7168, 7983, 9648]}, "edge": {"target": [], "time": []}}, "mouseout": {"state": {"target": ["0", "0", "12", "13", "14", "15", "16", "18"], "time": [2240, 3373, 4354, 5852, 7084, 7900, 9399, 11532]}, "edge": {"target": [], "time": []}}}, "displayed_time": "18.06", "trialTime": 20778, "trial_type": "mouselab-mdp", "trial_index": 9, "time_elapsed": 288260, "internal_node_id": "0.0-6.0-1.0-0.0"}}, {"uniqueid": "w32492313:a84190904", "current_trial": 10, "dateTime": 1693480924748, "trialdata": {"revealed_states": [], "clicked_states": [], "num_clicks_accrued": [0, 0, 0, 0, 0, 0, 0, 0, 0, 0, 0, 0, 0], "stateRewards": ["", -2, 2, 3, -7, 76, 63, 21, 15, 35, -8, -44, 1, 1, -2, -12, 23, 24, 76, -9, 46, 66, -49, -2, -1, 7, 12, 40, -71, -45, -6, 38, -49, 46], "withholdReward": false, "trial_id": "mdp_trial_2", "block": "test", "trialIndex": 3, "score": -51, "costs": 0, "simulationMode": [null, null, null, null, null], "rewards": [-2, -1, 7, -6, -49], "path": ["0", "0", "23", "24", "25", "30", "32"], "rt": [2985, 418, 133, 106, 163], "actions": ["left", "left", "left", "down", "down"], "actionTimes": [6625, 7552, 8199, 8821, 9494], "queries": {"click": {"state": {"target": [], "time": []}, "edge": {"target": [], "time": []}}, "mouseover": {"state": {"target": [], "time": []}, "edge": {"target": [], "time": []}}, "mouseout": {"state": {"target": ["12"], "time": [3137]}, "edge": {"target": [], "time": []}}}, "displayed_time": "17.64", "trialTime": 20420, "trial_type": "mouselab-mdp", "trial_index": 10, "time_elapsed": 308815, "internal_node_id": "0.0-6.0-1.0-1.0"}}, {"uniqueid": "w32492313:a84190904", "current_trial": 11, "dateTime": 1693480946370, "trialdata": {"revealed_states": [], "clicked_states": [], "num_clicks_accrued": [0, 0, 0, 0, 0, 0, 0, 0, 0, 0, 0, 0, 0], "stateRewards": ["", -2, 4, -5, -12, 85, -24, -18, -15, -78, -22, 26, -1, -1, 2, 14, -45, 52, -23, 7, -33, 24, -6, -2, -4, 5, -7, -16, 36, -39, 5, 71, -87, -23], "withholdReward": false, "trial_id": "mdp_trial_3", "block": "test", "trialIndex": 4, "score": -39, "costs": 0, "simulationMode": [null, null, null, null, null], "rewards": [-2, 4, -5, -12, -24], "path": ["0", "0", "1", "2", "3", "4", "6"], "rt": [2028, 490, 98, 587, 43], "actions": ["up", "up", "up", "right", "right"], "actionTimes": [5515, 6510, 7118, 8222, 8760], "queries": {"click": {"state": {"target": [], "time": []}, "edge": {"target": [], "time": []}}, "mouseover": {"state": {"target": [], "time": []}, "edge": {"target": [], "time": []}}, "mouseout": {"state": {"target": [], "time": []}, "edge": {"target": [], "time": []}}}, "displayed_time": "17.49", "trialTime": 21478, "trial_type": "mouselab-mdp", "trial_index": 11, "time_elapsed": 330437, "internal_node_id": "0.0-6.0-1.0-2.0"}}, {"uniqueid": "w32492313:a84190904", "current_trial": 12, "dateTime": 1693480966812, "trialdata": {"revealed_states": [], "clicked_states": [], "num_clicks_accrued": [0, 0, 0, 0, 0, 0, 0, 0, 0, 0, 0, 0, 0], "stateRewards": ["", 1, 4, 7, -16, -84, -6, -46, -12, -7, -49, -26, -1, 2, -4, 2, 22, 37, -64, 1, 88, -13, -10, 1, -4, -2, 5, 2, -10, -34, 9, 66, 55, 38], "withholdReward": false, "trial_id": "mdp_trial_4", "block": "test", "trialIndex": 5, "score": -7, "costs": 0, "simulationMode": [null, null, null, null, null], "rewards": [1, 4, 7, -12, -7], "path": ["0", "0", "1", "2", "3", "8", "9"], "rt": [1686, 457, 84, 619, 271], "actions": ["up", "up", "up", "left", "up"], "actionTimes": [4885, 5841, 6435, 7568, 8336], "queries": {"click": {"state": {"target": [], "time": []}, "edge": {"target": [], "time": []}}, "mouseover": {"state": {"target": [], "time": []}, "edge": {"target": [], "time": []}}, "mouseout": {"state": {"target": ["0", "0", "1", "0"], "time": [2976, 9945, 12510, 19453]}, "edge": {"target": [], "time": []}}}, "displayed_time": "17.20", "trialTime": 20273, "trial_type": "mouselab-mdp", "trial_index": 12, "time_elapsed": 350879, "internal_node_id": "0.0-6.0-1.0-3.0"}}, {"uniqueid": "w32492313:a84190904", "current_trial": 13, "dateTime": 1693480991016, "trialdata": {"revealed_states": [], "clicked_states": [], "num_clicks_accrued": [0, 0, 0, 0, 0, 0, 0, 0, 0, 0, 0, 0, 0], "stateRewards": ["", 2, -1, -1, -9, -81, -30, 55, -6, 78, 25, 62, 2, 4, -1, 9, -85, 1, -19, 1, -60, 12, -34, 1, 4, -1, -13, -24, -16, -83, -8, 16, 43, 9], "withholdReward": false, "trial_id": "mdp_trial_5", "block": "test", "trialIndex": 6, "score": 39, "costs": 0, "simulationMode": [null, null, null, null, null], "rewards": [1, 4, -1, -8, 43], "path": ["0", "0", "23", "24", "25", "30", "32"], "rt": [1589, 5, 61, 369, 345], "actions": ["left", "left", "left", "down", "down"], "actionTimes": [2902, 3427, 4016, 4890, 5748], "queries": {"click": {"state": {"target": [], "time": []}, "edge": {"target": [], "time": []}}, "mouseover": {"state": {"target": [], "time": []}, "edge": {"target": [], "time": []}}, "mouseout": {"state": {"target": ["2", "8", "2", "1", "0"], "time": [21270, 21470, 21537, 21622, 23203]}, "edge": {"target": [], "time": []}}}, "displayed_time": "15.31", "trialTime": 24034, "trial_type": "mouselab-mdp", "trial_index": 13, "time_elapsed": 375083, "internal_node_id": "0.0-6.0-1.0-4.0"}}, {"uniqueid": "w32492313:a84190904", "current_trial": 14, "dateTime": 1693481010084, "trialdata": {"revealed_states": [], "clicked_states": [], "num_clicks_accrued": [0, 0, 0, 0, 0, 0, 0, 0, 0, 0, 0, 0, 0], "stateRewards": ["", -2, -4, -6, 12, -58, -70, -80, 2, 16, -88, -62, 1, 2, -5, 11, 77, -35, -44, -5, 18, -83, 87, 1, -3, -5, 13, -44, -21, -86, 10, -52, 8, 29], "withholdReward": false, "trial_id": "mdp_trial_6", "block": "test", "trialIndex": 7, "score": 11, "costs": 0, "simulationMode": [null, null, null, null, null], "rewards": [1, -3, -5, 10, 8], "path": ["0", "0", "23", "24", "25", "30", "32"], "rt": [1561, 113, 149, 55, 101], "actions": ["left", "left", "left", "down", "down"], "actionTimes": [2460, 3093, 3764, 4335, 4947], "queries": {"click": {"state": {"target": [], "time": []}, "edge": {"target": [], "time": []}}, "mouseover": {"state": {"target": ["0"], "time": [965]}, "edge": {"target": [], "time": []}}, "mouseout": {"state": {"target": ["0", "0", "1", "21"], "time": [216, 1156, 17466, 18101]}, "edge": {"target": [], "time": []}}}, "displayed_time": "14.90", "trialTime": 18901, "trial_type": "mouselab-mdp", "trial_index": 14, "time_elapsed": 394152, "internal_node_id": "0.0-6.0-1.0-5.0"}}, {"uniqueid": "w32492313:a84190904", "current_trial": 15, "dateTime": 1693481028936, "trialdata": {"revealed_states": [], "clicked_states": [], "num_clicks_accrued": [0, 0, 0, 0, 0, 0, 0, 0, 0, 0, 0, 0, 0], "stateRewards": ["", 1, -1, 4, -2, -75, -75, 84, -9, -60, -79, 59, 2, -4, 8, 9, -17, -82, 80, 14, -4, 49, 49, -1, 3, 6, -11, -33, 34, 55, 9, -57, 5, 59], "withholdReward": false, "trial_id": "mdp_trial_7", "block": "test", "trialIndex": 8, "score": 22, "costs": 0, "simulationMode": [null, null, null, null, null], "rewards": [-1, 3, 6, 9, 5], "path": ["0", "0", "23", "24", "25", "30", "32"], "rt": [2151, 341, 40, 399, 180], "actions": ["left", "left", "left", "down", "down"], "actionTimes": [2918, 3790, 4338, 5249, 5943], "queries": {"click": {"state": {"target": [], "time": []}, "edge": {"target": [], "time": []}}, "mouseover": {"state": {"target": [], "time": []}, "edge": {"target": [], "time": []}}, "mouseout": {"state": {"target": ["14", "13", "12", "0", "0", "0", "31", "22", "22", "0", "1", "0", "0"], "time": [70, 101, 185, 600, 3524, 6829, 11174, 11890, 15952, 16252, 17117, 17900, 18332]}, "edge": {"target": [], "time": []}}}, "displayed_time": "14.77", "trialTime": 18671, "trial_type": "mouselab-mdp", "trial_index": 15, "time_elapsed": 413003, "internal_node_id": "0.0-6.0-1.0-6.0"}}, {"uniqueid": "w32492313:a84190904", "current_trial": 16, "dateTime": 1693481052785, "trialdata": {"revealed_states": [], "clicked_states": [], "num_clicks_accrued": [0, 0, 0, 0, 0, 0, 0, 0, 0, 0, 0, 0, 0], "stateRewards": ["", 2, -3, -8, 14, -7, -51, 73, 2, 36, 36, -43, -1, 3, -4, 1, 6, 87, -65, 15, 61, -42, -83, -1, 3, -2, -7, 30, -48, 35, 13, 26, 60, 78], "withholdReward": false, "trial_id": "mdp_trial_8", "block": "test", "trialIndex": 9, "score": -29, "costs": 0, "simulationMode": [null, null, null, null, null], "rewards": [-1, 3, -4, 15, -42], "path": ["0", "0", "12", "13", "14", "19", "21"], "rt": [1664, 376, 26, 52, 360], "actions": ["right", "right", "right", "down", "down"], "actionTimes": [2549, 3429, 3962, 4536, 5411], "queries": {"click": {"state": {"target": [], "time": []}, "edge": {"target": [], "time": []}}, "mouseover": {"state": {"target": ["0"], "time": [1139]}, "edge": {"target": [], "time": []}}, "mouseout": {"state": {"target": ["0"], "time": [455]}, "edge": {"target": [], "time": []}}}, "displayed_time": "14.89", "trialTime": 23677, "trial_type": "mouselab-mdp", "trial_index": 16, "time_elapsed": 436852, "internal_node_id": "0.0-6.0-1.0-7.0"}}, {"uniqueid": "w32492313:a84190904", "current_trial": 17, "dateTime": 1693481071675, "trialdata": {"revealed_states": [], "clicked_states": [], "num_clicks_accrued": [0, 0, 0, 0, 0, 0, 0, 0, 0, 0, 0, 0, 0], "stateRewards": ["", 2, 3, -6, -5, -3, 55, 40, 11, 61, 11, 51, 2, -4, -6, 9, -25, 29, -15, -6, 7, -77, -2, -2, -4, 1, 14, -43, -1, 56, -12, -54, 41, -74], "withholdReward": false, "trial_id": "mdp_trial_9", "block": "test", "trialIndex": 10, "score": 34, "costs": 0, "simulationMode": [null, null, null, null, null], "rewards": [2, 3, -6, -5, 40], "path": ["0", "0", "1", "2", "3", "4", "7"], "rt": [1541, 161, 1619, 455, 53], "actions": ["up", "up", "up", "right", "down"], "actionTimes": [2556, 3237, 5394, 6362, 6926], "queries": {"click": {"state": {"target": [], "time": []}, "edge": {"target": [], "time": []}}, "mouseover": {"state": {"target": [], "time": []}, "edge": {"target": [], "time": []}}, "mouseout": {"state": {"target": ["0", "0", "0"], "time": [10952, 15126, 17677]}, "edge": {"target": [], "time": []}}}, "displayed_time": "15.02", "trialTime": 18713, "trial_type": "mouselab-mdp", "trial_index": 17, "time_elapsed": 455742, "internal_node_id": "0.0-6.0-1.0-8.0"}}, {"uniqueid": "w32492313:a84190904", "current_trial": 18, "dateTime": 1693481089634, "trialdata": {"revealed_states": [], "clicked_states": ["1"], "num_clicks_accrued": [0, 0, 0, 0, 0, 0, 0, 0, 0, 0, 0, 0, 0], "stateRewards": ["", 2, 4, 7, 7, -79, -2, -21, -5, -53, 47, -21, 1, -3, -1, 7, 83, 7, 84, -7, 80, -37, 69, 2, -4, 5, 2, 4, -20, -30, 7, 71, 44, -81], "withholdReward": false, "trial_id": "mdp_trial_10", "block": "test", "trialIndex": 11, "score": 55.25, "costs": 0.25, "simulationMode": [null, null, null, null, null], "rewards": [2, 4, 7, -5, 47], "path": ["0", "0", "1", "2", "3", "8", "10"], "rt": [3727, 167, 135, 295, 122], "actions": ["up", "up", "up", "left", "down"], "actionTimes": [4673, 5346, 5996, 6804, 7432], "queries": {"click": {"state": {"target": ["1"], "time": [2458]}, "edge": {"target": [], "time": []}}, "mouseover": {"state": {"target": ["1", "2", "1", "1", "2"], "time": [1514, 1663, 1846, 2296, 3045]}, "edge": {"target": [], "time": []}}, "mouseout": {"state": {"target": ["0", "1", "2", "1", "1", "2", "2", "1", "0"], "time": [798, 1615, 1815, 1865, 2532, 3696, 15792, 16251, 16467]}, "edge": {"target": [], "time": []}}}, "displayed_time": "14.95", "trialTime": 17793, "trial_type": "mouselab-mdp", "trial_index": 18, "time_elapsed": 473701, "internal_node_id": "0.0-6.0-1.0-9.0"}}, {"uniqueid": "w32492313:a84190904", "current_trial": 19, "dateTime": 1693481107607, "trialdata": {"revealed_states": [], "clicked_states": [], "num_clicks_accrued": [0, 0, 0, 0, 0, 0, 0, 0, 0, 0, 0, 0, 0], "stateRewards": ["", 2, 4, 4, 9, -88, -10, 44, 16, -54, 64, 78, 1, 2, 5, 16, 80, 36, 7, -4, 9, -47, -70, -1, -3, 6, -16, 11, 80, 28, 8, -1, 34, -17], "withholdReward": false, "trial_id": "mdp_trial_11", "block": "test", "trialIndex": 12, "score": -69, "costs": 0, "simulationMode": [null, null, null, null, null], "rewards": [2, 4, 4, 9, -88], "path": ["0", "0", "1", "2", "3", "4", "5"], "rt": [1405, 42, 728, 73, 187], "actions": ["up", "up", "up", "right", "up"], "actionTimes": [2195, 2749, 4000, 4594, 5290], "queries": {"click": {"state": {"target": [], "time": []}, "edge": {"target": [], "time": []}}, "mouseover": {"state": {"target": [], "time": []}, "edge": {"target": [], "time": []}}, "mouseout": {"state": {"target": ["0", "1", "0", "0", "0", "1", "0"], "time": [97, 357, 639, 5718, 7067, 16675, 16708]}, "edge": {"target": [], "time": []}}}, "displayed_time": "14.79", "trialTime": 17794, "trial_type": "mouselab-mdp", "trial_index": 19, "time_elapsed": 491675, "internal_node_id": "0.0-6.0-1.0-10.0"}}, {"uniqueid": "w32492313:a84190904", "current_trial": 20, "dateTime": 1693481124315, "trialdata": {"revealed_states": [], "clicked_states": ["2", "1", "3", "7"], "num_clicks_accrued": [0, 0, 0, 0, 0, 0, 0, 0, 0, 0, 0, 0, 0], "stateRewards": ["", 1, -2, -2, 10, -31, -77, 35, 9, -47, 8, 48, -2, 1, -4, -3, -26, -50, 43, -11, 76, -38, 17, 1, -1, 6, 10, 15, -9, 12, -8, 85, 11, -55], "withholdReward": false, "trial_id": "mdp_trial_12", "block": "test", "trialIndex": 13, "score": 38.8, "costs": -3.1999999999999997, "simulationMode": [null, null, null, null, null], "rewards": [1, -2, -2, 10, 35], "path": ["0", "0", "1", "2", "3", "4", "7"], "rt": [8370, 435, 187, 177, 192], "actions": ["up", "up", "up", "right", "down"], "actionTimes": [9083, 10054, 10755, 11444, 12145], "queries": {"click": {"state": {"target": ["2", "1", "3", "7"], "time": [1359, 2260, 3340, 4027]}, "edge": {"target": [], "time": []}}, "mouseover": {"state": {"target": ["1", "2", "1", "3", "7", "2", "10", "10", "2"], "time": [1044, 1109, 2109, 3041, 3756, 4492, 4656, 6021, 7554]}, "edge": {"target": [], "time": []}}, "mouseout": {"state": {"target": ["0", "0", "1", "2", "1", "2", "3", "7", "2", "10", "10", "2", "7", "7", "6", "18"], "time": [162, 493, 1075, 1808, 2418, 2992, 3690, 4474, 4524, 5373, 7471, 7603, 7837, 11233, 15613, 15680]}, "edge": {"target": [], "time": []}}}, "displayed_time": "14.71", "trialTime": 16524, "trial_type": "mouselab-mdp", "trial_index": 20, "time_elapsed": 508383, "internal_node_id": "0.0-6.0-1.0-11.0"}}, {"uniqueid": "w32492313:a84190904", "current_trial": 21, "dateTime": 1693481141197, "trialdata": {"revealed_states": [], "clicked_states": ["21"], "num_clicks_accrued": [0, 0, 0, 0, 0, 0, 0, 0, 0, 0, 0, 0, 0], "stateRewards": ["", -1, 3, 8, 10, -86, 61, -36, 10, 17, -60, 24, -1, -3, 3, 11, 50, 60, 33, -3, -20, 58, -6, 1, -4, -4, 13, -70, -71, 43, 14, 52, 82, -11], "withholdReward": false, "trial_id": "mdp_trial_13", "block": "test", "trialIndex": 14, "score": 51.85, "costs": -2.15, "simulationMode": [null, null, null, null, null], "rewards": [-1, -3, 3, -3, 58], "path": ["0", "0", "12", "13", "14", "19", "21"], "rt": [9246, 305, 321, 31, 155], "actions": ["right", "right", "right", "down", "down"], "actionTimes": [10418, 11235, 12065, 12609, 13297], "queries": {"click": {"state": {"target": ["21"], "time": [2110]}, "edge": {"target": [], "time": []}}, "mouseover": {"state": {"target": ["22", "21", "23", "24", "30", "33", "30", "31", "33", "33", "30", "31"], "time": [1620, 1838, 3368, 3668, 3850, 3966, 6398, 6465, 7131, 7515, 9013, 9513]}, "edge": {"target": [], "time": []}}, "mouseout": {"state": {"target": ["0", "22", "21", "23", "24", "30", "33", "30", "31", "33", "33", "30", "31"], "time": [1538, 1669, 2934, 3467, 3734, 3866, 6366, 6449, 6480, 7147, 8930, 9479, 9529]}, "edge": {"target": [], "time": []}}}, "displayed_time": "15.17", "trialTime": 16715, "trial_type": "mouselab-mdp", "trial_index": 21, "time_elapsed": 525264, "internal_node_id": "0.0-6.0-1.0-12.0"}}, {"uniqueid": "w32492313:a84190904", "current_trial": 22, "dateTime": 1693481160222, "trialdata": {"revealed_states": [], "clicked_states": ["31", "29"], "num_clicks_accrued": [0, 0, 0, 0, 0, 0, 0, 0, 0, 0, 0, 0, 0], "stateRewards": ["", 1, 4, 5, 8, -55, -11, 8, 16, -37, 77, -22, -2, 3, -8, -10, 45, 87, -67, 4, 17, -33, -22, -1, -3, 7, 6, -39, -85, 75, -1, 7, -48, 45], "withholdReward": false, "trial_id": "mdp_trial_14", "block": "test", "trialIndex": 15, "score": 79.7, "costs": -4.3, "simulationMode": [null, null, null, null, null], "rewards": [-1, -3, 7, 6, 75], "path": ["0", "0", "23", "24", "25", "26", "29"], "rt": [12739, 107, 78, 390, 40], "actions": ["left", "left", "left", "up", "left"], "actionTimes": [13711, 14335, 14922, 15833, 16382], "queries": {"click": {"state": {"target": ["31", "29"], "time": [2644, 6466]}, "edge": {"target": [], "time": []}}, "mouseover": {"state": {"target": ["23", "24", "25", "30", "31", "30", "33", "29", "26", "28", "23", "0", "13", "18", "7", "1", "10"], "time": [1406, 1471, 1538, 2188, 2455, 5935, 5966, 6216, 7184, 7249, 7366, 7432, 8015, 8098, 9997, 10047, 12610]}, "edge": {"target": [], "time": []}}, "mouseout": {"state": {"target": ["0", "23", "24", "25", "30", "31", "30", "33", "29", "26", "28", "23", "0", "13", "18", "7", "1", "10", "11"], "time": [772, 1455, 1505, 2120, 2239, 3502, 5950, 6118, 7150, 7216, 7266, 7398, 7449, 8031, 8165, 10030, 10097, 12712, 17790]}, "edge": {"target": [], "time": []}}}, "displayed_time": "16.89", "trialTime": 18843, "trial_type": "mouselab-mdp", "trial_index": 22, "time_elapsed": 544290, "internal_node_id": "0.0-6.0-1.0-13.0"}}, {"uniqueid": "w32492313:a84190904", "current_trial": 23, "dateTime": 1693481193359, "trialdata": {"revealed_states": [], "clicked_states": ["6", "11", "21", "22", "33", "31"], "num_clicks_accrued": [0, 0, 0, 0, 0, 0, 0, 0, 0, 0, 0, 0, 0], "stateRewards": ["", -1, 4, -6, -5, -22, -38, -38, -2, -56, 88, 14, -1, -1, -7, -6, 61, -60, 21, 11, 57, 31, -30, -2, -2, 6, -9, -44, -70, -44, -15, 34, 16, -78], "withholdReward": false, "trial_id": "mdp_trial_15", "block": "test", "trialIndex": 16, "score": 8.100000000000001, "costs": -12.9, "simulationMode": [null, null, null, null, null], "rewards": [-2, -2, 6, -15, 34], "path": ["0", "0", "23", "24", "25", "30", "31"], "rt": [26007, 311, 411, 43, 157], "actions": ["left", "left", "left", "down", "right"], "actionTimes": [26806, 27629, 28545, 29107, 29788], "queries": {"click": {"state": {"target": ["6", "11", "21", "22", "33", "31"], "time": [2661, 6572, 10281, 13835, 17622, 21303]}, "edge": {"target": [], "time": []}}, "mouseover": {"state": {"target": ["1", "4", "3", "2", "2", "7", "6", "3", "8", "11", "10", "2", "23", "33", "30", "21", "22", "33", "31", "21"], "time": [1142, 1459, 1708, 2008, 2226, 2292, 2407, 5939, 6004, 6221, 7370, 7519, 8003, 8485, 8503, 10085, 13631, 17462, 21023, 22522]}, "edge": {"target": [], "time": []}}, "mouseout": {"state": {"target": ["1", "0", "1", "4", "3", "2", "2", "7", "6", "3", "8", "11", "10", "2", "23", "33", "30", "21", "21", "22", "22", "33", "31", "21"], "time": [245, 593, 1175, 1676, 1975, 2127, 2275, 2324, 3190, 5987, 6121, 7169, 7436, 7603, 8020, 8502, 8518, 10983, 13531, 13923, 14378, 17959, 21589, 25419]}, "edge": {"target": [], "time": []}}}, "displayed_time": "30.30", "trialTime": 32968, "trial_type": "mouselab-mdp", "trial_index": 23, "time_elapsed": 577426, "internal_node_id": "0.0-6.0-1.0-14.0"}}, {"uniqueid": "w32492313:a84190904", "current_trial": 24, "dateTime": 1693481212026, "trialdata": {"revealed_states": [], "clicked_states": ["22"], "num_clicks_accrued": [0, 0, 0, 0, 0, 0, 0, 0, 0, 0, 0, 0, 0], "stateRewards": ["", 2, -2, 7, -11, -76, -65, -23, 16, -58, 30, 81, 1, 2, 7, 14, 9, 55, -2, 6, 11, -15, 31, -1, -1, -3, 2, 15, 2, 46, 15, 18, 45, -34], "withholdReward": false, "trial_id": "mdp_trial_16", "block": "test", "trialIndex": 17, "score": 44.85, "costs": -2.15, "simulationMode": [null, null, null, null, null], "rewards": [1, 2, 7, 6, 31], "path": ["0", "0", "12", "13", "14", "19", "22"], "rt": [6201, 259, 39, 81, 129], "actions": ["right", "right", "right", "down", "left"], "actionTimes": [8788, 9566, 10111, 10704, 11350], "queries": {"click": {"state": {"target": ["22"], "time": [4521]}, "edge": {"target": [], "time": []}}, "mouseover": {"state": {"target": ["0", "18", "14", "22", "24", "0"], "time": [2962, 3461, 3610, 4244, 6042, 6060]}, "edge": {"target": [], "time": []}}, "mouseout": {"state": {"target": ["0", "0", "18", "14", "22", "24", "0", "14"], "time": [2428, 3062, 3528, 3779, 5427, 6058, 6075, 17482]}, "edge": {"target": [], "time": []}}}, "displayed_time": "16.59", "trialTime": 18504, "trial_type": "mouselab-mdp", "trial_index": 24, "time_elapsed": 596093, "internal_node_id": "0.0-6.0-1.0-15.0"}}, {"uniqueid": "w32492313:a84190904", "current_trial": 25, "dateTime": 1693481231318, "trialdata": {"revealed_states": [], "clicked_states": ["6"], "num_clicks_accrued": [0, 0, 0, 0, 0, 0, 0, 0, 0, 0, 0, 0, 0], "stateRewards": ["", -2, 2, -4, -4, -59, 88, 62, -3, 69, -15, -34, 1, -2, -5, 7, -54, -20, 78, -16, -74, -53, -21, 2, -4, 2, 13, -8, -44, 26, 9, 72, 4, 17], "withholdReward": false, "trial_id": "mdp_trial_17", "block": "test", "trialIndex": 18, "score": 77.85, "costs": -2.15, "simulationMode": [null, null, null, null, null], "rewards": [-2, 2, -4, -4, 88], "path": ["0", "0", "1", "2", "3", "4", "6"], "rt": [5474, 156, 483, 2, 261], "actions": ["up", "up", "up", "right", "right"], "actionTimes": [8630, 9298, 10292, 10794, 11585], "queries": {"click": {"state": {"target": ["6"], "time": [4123]}, "edge": {"target": [], "time": []}}, "mouseover": {"state": {"target": ["7", "4", "6", "18"], "time": [3514, 3635, 3930, 5244]}, "edge": {"target": [], "time": []}}, "mouseout": {"state": {"target": ["18", "12", "12", "7", "4", "6", "18", "18"], "time": [832, 1265, 2714, 3547, 3863, 5028, 10822, 13037]}, "edge": {"target": [], "time": []}}}, "displayed_time": "17.16", "trialTime": 19116, "trial_type": "mouselab-mdp", "trial_index": 25, "time_elapsed": 615385, "internal_node_id": "0.0-6.0-1.0-16.0"}}, {"uniqueid": "w32492313:a84190904", "current_trial": 26, "dateTime": 1693481251876, "trialdata": {"revealed_states": [], "clicked_states": ["5", "9", "32"], "num_clicks_accrued": [0, 0, 0, 0, 0, 0, 0, 0, 0, 0, 0, 0, 0], "stateRewards": ["", 2, -3, 5, 11, -79, 54, 11, -9, -78, 33, 22, -2, -1, 2, 14, 43, 34, 1, 10, 49, -65, 39, -1, 1, -1, 3, -16, -2, 11, 2, 12, 48, -65], "withholdReward": false, "trial_id": "mdp_trial_18", "block": "test", "trialIndex": 19, "score": 42.55, "costs": -6.449999999999999, "simulationMode": [null, null, null, null, null], "rewards": [-1, 1, -1, 2, 48], "path": ["0", "0", "23", "24", "25", "30", "32"], "rt": [13554, 121, 53, 306, 96], "actions": ["left", "left", "left", "down", "down"], "actionTimes": [14874, 15497, 16062, 16897, 17504], "queries": {"click": {"state": {"target": ["5", "9", "32"], "time": [2452, 6152, 9843]}, "edge": {"target": [], "time": []}}, "mouseover": {"state": {"target": ["1", "2", "3", "5", "9", "8", "10", "2", "24", "32", "31"], "time": [1571, 1638, 1771, 2286, 5966, 7498, 7964, 8797, 9497, 9630, 10329]}, "edge": {"target": [], "time": []}}, "mouseout": {"state": {"target": ["2", "1", "1", "2", "3", "5", "5", "9", "8", "10", "2", "24", "32", "31", "2", "28", "24"], "time": [406, 455, 1621, 1671, 2020, 2556, 2985, 7398, 7683, 8131, 9381, 9529, 10212, 10345, 19736, 19804, 19887]}, "edge": {"target": [], "time": []}}}, "displayed_time": "18.02", "trialTime": 20382, "trial_type": "mouselab-mdp", "trial_index": 26, "time_elapsed": 635943, "internal_node_id": "0.0-6.0-1.0-17.0"}}, {"uniqueid": "w32492313:a84190904", "current_trial": 27, "dateTime": 1693481277524, "trialdata": {"revealed_states": [], "clicked_states": ["14", "22", "31", "29", "28"], "num_clicks_accrued": [0, 0, 0, 0, 0, 0, 0, 0, 0, 0, 0, 0, 0], "stateRewards": ["", 2, -4, 1, -12, -59, -53, -74, 16, -88, -66, 66, 1, -2, 8, -9, -14, 22, 25, -1, -39, 47, -14, -1, -1, -2, 1, -4, 52, -26, 15, -7, 46, 43], "withholdReward": false, "trial_id": "mdp_trial_19", "block": "test", "trialIndex": 20, "score": 39.45, "costs": -9.55, "simulationMode": [null, null, null, null, null], "rewards": [-1, -1, -2, 1, 52], "path": ["0", "0", "23", "24", "25", "26", "28"], "rt": [19561, 185, 551, 177, 3], "actions": ["left", "left", "left", "up", "right"], "actionTimes": [20313, 21006, 22072, 22746, 23255], "queries": {"click": {"state": {"target": ["14", "22", "31", "29", "28"], "time": [2241, 4523, 8442, 11985, 15730]}, "edge": {"target": [], "time": []}}, "mouseover": {"state": {"target": ["12", "13", "12", "14", "19", "21", "22", "31", "30", "31", "25", "29", "26", "28", "28"], "time": [1171, 1222, 1656, 2088, 3554, 3703, 4253, 7984, 8015, 8299, 11679, 11845, 12978, 15176, 15541]}, "edge": {"target": [], "time": []}}, "mouseout": {"state": {"target": ["12", "12", "13", "12", "14", "19", "21", "22", "22", "31", "30", "31", "31", "25", "29", "26", "28", "28"], "time": [423, 1188, 1572, 1756, 3487, 3637, 4054, 5068, 7849, 7999, 8233, 8539, 11613, 11728, 12067, 13043, 15277, 16223]}, "edge": {"target": [], "time": []}}}, "displayed_time": "23.79", "trialTime": 25469, "trial_type": "mouselab-mdp", "trial_index": 27, "time_elapsed": 661591, "internal_node_id": "0.0-6.0-1.0-18.0"}}, {"uniqueid": "w32492313:a84190904", "current_trial": 28, "dateTime": 1693481294208, "trialdata": {"revealed_states": [], "clicked_states": ["7"], "num_clicks_accrued": [0, 0, 0, 0, 0, 0, 0, 0, 0, 0, 0, 0, 0], "stateRewards": ["", 1, 3, 1, -13, 52, -28, 67, -14, 3, 63, -70, -1, -4, 7, -11, -10, 47, -18, 6, 69, -9, -61, 2, 3, -6, 10, 63, -34, 40, -6, -79, -35, -32], "withholdReward": false, "trial_id": "mdp_trial_20", "block": "test", "trialIndex": 21, "score": 56.85, "costs": -2.15, "simulationMode": [null, null, null, null, null], "rewards": [1, 3, 1, -13, 67], "path": ["0", "0", "1", "2", "3", "4", "7"], "rt": [5502, 185, 254, 573, 62], "actions": ["up", "up", "up", "right", "down"], "actionTimes": [6365, 7061, 7830, 8915, 9487], "queries": {"click": {"state": {"target": ["7"], "time": [1956]}, "edge": {"target": [], "time": []}}, "mouseover": {"state": {"target": ["1", "2", "7", "2"], "time": [1264, 1347, 1697, 5177]}, "edge": {"target": [], "time": []}}, "mouseout": {"state": {"target": ["1", "1", "2", "7", "2", "4", "5", "16", "15", "14", "19"], "time": [447, 1298, 1630, 5109, 11525, 11786, 11937, 12436, 13003, 13085, 13170]}, "edge": {"target": [], "time": []}}}, "displayed_time": "14.87", "trialTime": 16504, "trial_type": "mouselab-mdp", "trial_index": 28, "time_elapsed": 678276, "internal_node_id": "0.0-6.0-1.0-19.0"}}, {"uniqueid": "w32492313:a84190904", "current_trial": 29, "dateTime": 1693481313926, "trialdata": {"revealed_states": [], "clicked_states": ["10", "5", "11"], "num_clicks_accrued": [0, 0, 0, 0, 0, 0, 0, 0, 0, 0, 0, 0, 0], "stateRewards": ["", -1, -3, -7, -4, -85, -70, 79, 8, 84, -66, 42, 2, -2, -3, -16, -54, -66, 68, -3, 21, -14, 7, -2, -1, -3, -8, 75, 80, 86, -7, -84, 73, -16], "withholdReward": false, "trial_id": "mdp_trial_21", "block": "test", "trialIndex": 22, "score": 32.55, "costs": -6.449999999999999, "simulationMode": [null, null, null, null, null], "rewards": [-1, -3, -7, 8, 42], "path": ["0", "0", "1", "2", "3", "8", "11"], "rt": [13695, 42, 332, 316, 205], "actions": ["up", "up", "up", "left", "left"], "actionTimes": [14682, 15229, 16069, 16902, 17627], "queries": {"click": {"state": {"target": ["10", "5", "11"], "time": [1553, 5679, 10552]}, "edge": {"target": [], "time": []}}, "mouseover": {"state": {"target": ["0", "10", "2", "7", "4", "5", "4", "8", "11", "9"], "time": [992, 1267, 2599, 5164, 5280, 5562, 9958, 10274, 10374, 11322]}, "edge": {"target": [], "time": []}}, "mouseout": {"state": {"target": ["31", "24", "0", "10", "10", "2", "7", "4", "5", "4", "8", "11", "9", "5"], "time": [153, 218, 1083, 1656, 2565, 2616, 5179, 5363, 6045, 9974, 10341, 10658, 11340, 11390]}, "edge": {"target": [], "time": []}}}, "displayed_time": "18.14", "trialTime": 19540, "trial_type": "mouselab-mdp", "trial_index": 29, "time_elapsed": 697994, "internal_node_id": "0.0-6.0-1.0-20.0"}}, {"uniqueid": "w32492313:a84190904", "current_trial": 30, "dateTime": 1693481332812, "trialdata": {"revealed_states": [], "clicked_states": ["7", "16", "21"], "num_clicks_accrued": [0, 0, 0, 0, 0, 0, 0, 0, 0, 0, 0, 0, 0], "stateRewards": ["", 1, -1, -7, -7, -22, 15, -13, 13, 26, -32, 38, -1, 1, -7, -4, 16, -62, 86, 12, -54, 56, 64, -2, -1, 6, 14, -57, 37, 62, -6, -25, 50, -70], "withholdReward": false, "trial_id": "mdp_trial_22", "block": "test", "trialIndex": 23, "score": 54.55, "costs": -6.449999999999999, "simulationMode": [null, null, null, null, null], "rewards": [-1, 1, -7, 12, 56], "path": ["0", "0", "12", "13", "14", "19", "21"], "rt": [12066, 27, 357, 171, 288], "actions": ["right", "right", "right", "down", "down"], "actionTimes": [13003, 13550, 14414, 15094, 15893], "queries": {"click": {"state": {"target": ["7", "16", "21"], "time": [1753, 4910, 8542]}, "edge": {"target": [], "time": []}}, "mouseover": {"state": {"target": ["12", "7", "16", "17", "16", "20", "21", "23", "0", "20"], "time": [1202, 1556, 2500, 3382, 3801, 6330, 8361, 10576, 11426, 11809]}, "edge": {"target": [], "time": []}}, "mouseout": {"state": {"target": ["13", "23", "0", "12", "7", "16", "17", "16", "20", "21", "23", "0", "20"], "time": [420, 602, 1086, 1218, 1801, 2633, 3532, 5414, 6747, 8912, 11059, 11509, 12208]}, "edge": {"target": [], "time": []}}}, "displayed_time": "16.41", "trialTime": 18714, "trial_type": "mouselab-mdp", "trial_index": 30, "time_elapsed": 716880, "internal_node_id": "0.0-6.0-1.0-21.0"}}, {"uniqueid": "w32492313:a84190904", "current_trial": 31, "dateTime": 1693481362582, "trialdata": {"revealed_states": [], "clicked_states": ["25", "14", "16", "11", "33", "31", "22"], "num_clicks_accrued": [0, 0, 0, 0, 0, 0, 0, 0, 0, 0, 0, 0, 0], "stateRewards": ["", -2, 2, -2, -7, -50, -62, -45, 7, 36, -24, -72, -1, -1, 8, -1, -67, 20, -52, 2, 35, -50, 80, -1, 1, 6, -6, -70, 6, 88, 8, -47, 74, -19], "withholdReward": false, "trial_id": "mdp_trial_23", "block": "test", "trialIndex": 24, "score": 75.35, "costs": -12.65, "simulationMode": [null, null, null, null, null], "rewards": [-1, -1, 8, 2, 80], "path": ["0", "0", "12", "13", "14", "19", "22"], "rt": [22570, 227, 181, 11, 302], "actions": ["right", "right", "right", "down", "left"], "actionTimes": [24424, 25164, 25849, 26379, 27202], "queries": {"click": {"state": {"target": ["25", "14", "16", "11", "33", "31", "22"], "time": [3482, 4788, 5629, 9641, 13165, 16764, 19977]}, "edge": {"target": [], "time": []}}, "mouseover": {"state": {"target": ["12", "13", "25", "14", "14", "16", "7", "8", "11", "8", "3", "2", "23", "31", "32", "33", "30", "31", "22", "19", "20"], "time": [2324, 2356, 3206, 4271, 4624, 5439, 6203, 6335, 6569, 10117, 10283, 10466, 10748, 10849, 11181, 12982, 13546, 13711, 17260, 20322, 20405]}, "edge": {"target": [], "time": []}}, "mouseout": {"state": {"target": ["22", "12", "0", "12", "13", "25", "14", "14", "16", "7", "8", "11", "8", "3", "2", "23", "31", "32", "33", "30", "31", "22", "19"], "time": [1141, 1343, 1390, 2340, 2373, 3956, 4321, 5137, 5703, 6237, 6469, 10049, 10200, 10382, 10550, 10799, 10898, 12748, 13496, 13661, 17076, 20290, 20373]}, "edge": {"target": [], "time": []}}}, "displayed_time": "27.72", "trialTime": 29592, "trial_type": "mouselab-mdp", "trial_index": 31, "time_elapsed": 746649, "internal_node_id": "0.0-6.0-1.0-22.0"}}, {"uniqueid": "w32492313:a84190904", "current_trial": 32, "dateTime": 1693481407563, "trialdata": {"revealed_states": [], "clicked_states": ["7", "10", "25", "14", "20", "21", "22", "33", "31", "32", "9", "5"], "num_clicks_accrued": [0, 0, 0, 0, 0, 0, 0, 0, 0, 0, 0, 0, 0], "stateRewards": ["", -2, -1, 3, -3, 71, -58, -21, 7, -10, -75, -37, 2, 4, -1, -12, -79, -29, -48, 3, -41, -10, -30, -1, -2, 1, -15, 13, 66, 22, -1, -42, -86, -55], "withholdReward": false, "trial_id": "mdp_trial_24", "block": "test", "trialIndex": 25, "score": 44.60000000000001, "costs": -23.399999999999995, "simulationMode": [null, null, null, null, null], "rewards": [-2, -1, 3, -3, 71], "path": ["0", "0", "1", "2", "3", "4", "5"], "rt": [38563, 6, 296, 630, 32], "actions": ["up", "up", "up", "right", "up"], "actionTimes": [39429, 39947, 40770, 41918, 42453], "queries": {"click": {"state": {"target": ["7", "10", "25", "14", "20", "21", "22", "33", "31", "32", "9", "5"], "time": [1822, 5369, 9144, 10328, 11333, 14639, 17801, 20838, 24201, 27405, 30798, 34921]}, "edge": {"target": [], "time": []}}, "mouseover": {"state": {"target": ["7", "7", "2", "10", "10", "2", "1", "23", "24", "25", "24", "23", "13", "14", "19", "20", "21", "22", "31", "30", "30", "33", "32", "31", "32", "24", "28", "8", "9", "5", "5", "4", "10", "27", "18"], "time": [1343, 1643, 4957, 5005, 5240, 6238, 6921, 7220, 7521, 8870, 9751, 9843, 9934, 10003, 10917, 11067, 12115, 15279, 18360, 18410, 18693, 19226, 21657, 22489, 24787, 27899, 27950, 28133, 28416, 34278, 34694, 35376, 36209, 36459, 38342]}, "edge": {"target": [], "time": []}}, "mouseout": {"state": {"target": ["20", "19", "22", "13", "0", "7", "7", "2", "10", "10", "2", "1", "23", "24", "25", "24", "23", "13", "14", "14", "19", "20", "21", "22", "31", "30", "30", "33", "32", "31", "32", "31", "24", "28", "8", "9", "5", "5", "4", "10", "27"], "time": [96, 229, 277, 344, 1110, 1393, 2425, 4989, 5056, 5923, 6722, 7021, 7437, 7937, 9570, 9818, 9867, 9967, 10421, 10817, 10966, 11765, 14945, 18193, 18393, 18443, 18875, 21339, 22255, 24538, 27535, 27850, 27938, 28017, 28267, 31165, 34395, 35244, 36092, 36242, 38240]}, "edge": {"target": [], "time": []}}}, "displayed_time": "42.97", "trialTime": 44804, "trial_type": "mouselab-mdp", "trial_index": 32, "time_elapsed": 791631, "internal_node_id": "0.0-6.0-1.0-23.0"}}, {"uniqueid": "w32492313:a84190904", "current_trial": 33, "dateTime": 1693481429064, "trialdata": {"revealed_states": [], "clicked_states": ["5", "25", "20", "14"], "num_clicks_accrued": [0, 0, 0, 0, 0, 0, 0, 0, 0, 0, 0, 0, 0], "stateRewards": ["", 2, 3, -2, -8, -8, -41, 74, 15, -23, -80, 1, 1, 3, 3, -15, -63, -78, 67, 13, 75, -41, 86, 2, -2, 6, -3, -8, -49, 50, -6, 83, 74, 80], "withholdReward": false, "trial_id": "mdp_trial_25", "block": "test", "trialIndex": 26, "score": 88.8, "costs": -6.2, "simulationMode": [null, null, null, null, null], "rewards": [1, 3, 3, 13, 75], "path": ["0", "0", "12", "13", "14", "19", "20"], "rt": [13598, 58, 401, 206, 286], "actions": ["right", "right", "right", "down", "right"], "actionTimes": [14675, 15247, 16173, 16892, 17689], "queries": {"click": {"state": {"target": ["5", "25", "20", "14"], "time": [2066, 6363, 8827, 12423]}, "edge": {"target": [], "time": []}}, "mouseover": {"state": {"target": ["1", "2", "4", "5", "4", "23", "25", "32", "22", "19", "20", "22", "14"], "time": [1483, 1549, 1632, 1884, 2357, 5947, 6161, 8110, 8393, 8543, 8609, 10790, 11274]}, "edge": {"target": [], "time": []}}, "mouseout": {"state": {"target": ["18", "0", "1", "2", "4", "5", "4", "23", "25", "25", "32", "22", "19", "20", "22", "14", "14"], "time": [451, 1384, 1532, 1599, 1667, 2299, 2466, 5979, 7511, 7612, 8176, 8511, 8593, 9226, 10891, 19634, 19767]}, "edge": {"target": [], "time": []}}}, "displayed_time": "18.20", "trialTime": 21323, "trial_type": "mouselab-mdp", "trial_index": 33, "time_elapsed": 813131, "internal_node_id": "0.0-6.0-1.0-24.0"}}, {"uniqueid": "w32492313:a84190904", "current_trial": 34, "dateTime": 1693481459263, "trialdata": {"revealed_states": [], "clicked_states": ["22", "33", "9", "5", "7"], "num_clicks_accrued": [0, 0, 0, 0, 0, 0, 0, 0, 0, 0, 0, 0, 0], "stateRewards": ["", 2, 2, 3, -15, 23, -14, 73, -7, -32, -20, -6, 1, 1, -5, -12, 73, 6, -84, 11, -81, -57, 13, -2, -1, -4, -8, -52, -58, 49, 13, 5, -41, -41], "withholdReward": false, "trial_id": "mdp_trial_26", "block": "test", "trialIndex": 27, "score": 54.25, "costs": -10.75, "simulationMode": [null, null, null, null, null], "rewards": [2, 2, 3, -15, 73], "path": ["0", "0", "1", "2", "3", "4", "7"], "rt": [20500, 69, 42, 72, 530], "actions": ["up", "up", "up", "right", "down"], "actionTimes": [25170, 25749, 26304, 26900, 27944], "queries": {"click": {"state": {"target": ["22", "33", "9", "5", "7"], "time": [5988, 10236, 13971, 17461, 20847]}, "edge": {"target": [], "time": []}}, "mouseover": {"state": {"target": ["12", "13", "14", "20", "19", "22", "19", "20", "19", "33", "33", "30", "8", "9", "3", "4", "5", "4", "7", "2", "10"], "time": [4949, 5215, 5247, 5432, 5682, 5815, 6247, 6331, 9377, 9662, 10011, 10894, 13724, 13773, 15772, 17137, 17237, 17969, 18119, 21584, 21982]}, "edge": {"target": [], "time": []}}, "mouseout": {"state": {"target": ["12", "12", "13", "14", "20", "19", "22", "19", "20", "19", "33", "33", "30", "8", "9", "3", "4", "5", "4", "7", "7", "2"], "time": [4215, 5200, 5231, 5264, 5616, 5748, 6215, 6296, 9362, 9394, 9794, 10629, 11809, 13741, 14655, 16221, 17204, 17820, 18086, 20941, 21532, 21732]}, "edge": {"target": [], "time": []}}}, "displayed_time": "28.46", "trialTime": 29995, "trial_type": "mouselab-mdp", "trial_index": 34, "time_elapsed": 843331, "internal_node_id": "0.0-6.0-1.0-25.0"}}, {"uniqueid": "w32492313:a84190904", "current_trial": 35, "dateTime": 1693481481060, "trialdata": {"revealed_states": [], "clicked_states": ["7"], "num_clicks_accrued": [0, 0, 0, 0, 0, 0, 0, 0, 0, 0, 0, 0, 0], "stateRewards": ["", -1, -3, -6, 14, 41, 18, 63, -14, 80, 21, 17, -2, -4, -2, -5, 13, 70, 8, -4, -64, -10, -20, 2, -1, 4, -1, -17, -55, 42, -7, 47, 54, 15], "withholdReward": false, "trial_id": "mdp_trial_27", "block": "test", "trialIndex": 28, "score": 64.85, "costs": -2.15, "simulationMode": [null, null, null, null, null], "rewards": [-1, -3, -6, 14, 63], "path": ["0", "0", "1", "2", "3", "4", "7"], "rt": [4514, 157, 443, 570, 333], "actions": ["up", "up", "up", "right", "down"], "actionTimes": [7551, 8231, 9183, 10259, 11105], "queries": {"click": {"state": {"target": ["7"], "time": [3819]}, "edge": {"target": [], "time": []}}, "mouseover": {"state": {"target": ["1", "7", "14", "13", "1", "1", "0"], "time": [3393, 3528, 5592, 6143, 7074, 7207, 7324]}, "edge": {"target": [], "time": []}}, "mouseout": {"state": {"target": ["10", "20", "19", "12", "0", "1", "7", "14", "13", "1", "1", "0"], "time": [2245, 2494, 2526, 2594, 3362, 3409, 4426, 6059, 6259, 7141, 7257, 7502]}, "edge": {"target": [], "time": []}}}, "displayed_time": "17.04", "trialTime": 21613, "trial_type": "mouselab-mdp", "trial_index": 35, "time_elapsed": 865127, "internal_node_id": "0.0-6.0-1.0-26.0"}}, {"uniqueid": "w32492313:a84190904", "current_trial": 36, "dateTime": 1693481498654, "trialdata": {"revealed_states": [], "clicked_states": ["10"], "num_clicks_accrued": [0, 0, 0, 0, 0, 0, 0, 0, 0, 0, 0, 0, 0], "stateRewards": ["", 1, 1, 7, -11, 80, -20, -53, -14, 3, 31, 27, 2, -1, -8, -10, 33, 41, 86, 9, 78, -37, -13, -1, -2, -6, -8, -80, 75, 4, -16, -49, -74, 24], "withholdReward": false, "trial_id": "mdp_trial_28", "block": "test", "trialIndex": 29, "score": 23.85, "costs": -2.15, "simulationMode": [null, null, null, null, null], "rewards": [1, 1, 7, -14, 31], "path": ["0", "0", "1", "2", "3", "8", "10"], "rt": [5108, 74, 118, 77, 555], "actions": ["up", "up", "up", "left", "down"], "actionTimes": [6246, 6835, 7462, 8053, 9115], "queries": {"click": {"state": {"target": ["10"], "time": [1857]}, "edge": {"target": [], "time": []}}, "mouseover": {"state": {"target": ["1", "10"], "time": [1432, 1682]}, "edge": {"target": [], "time": []}}, "mouseout": {"state": {"target": ["0", "1", "10", "28", "29", "25"], "time": [949, 1481, 13620, 14686, 16200, 16268]}, "edge": {"target": [], "time": []}}}, "displayed_time": "15.14", "trialTime": 17400, "trial_type": "mouselab-mdp", "trial_index": 36, "time_elapsed": 882722, "internal_node_id": "0.0-6.0-1.0-27.0"}}, {"uniqueid": "w32492313:a84190904", "current_trial": 37, "dateTime": 1693481517856, "trialdata": {"revealed_states": [], "clicked_states": ["29", "17", "6"], "num_clicks_accrued": [0, 0, 0, 0, 0, 0, 0, 0, 0, 0, 0, 0, 0], "stateRewards": ["", 2, -1, 5, 6, 10, 86, 55, 10, -45, 63, -71, 1, -2, 5, -8, -50, -72, 36, 15, 61, 12, 33, -1, -4, 6, 5, 79, -56, -21, -16, -87, 60, -81], "withholdReward": false, "trial_id": "mdp_trial_29", "block": "test", "trialIndex": 30, "score": 91.55, "costs": -6.449999999999999, "simulationMode": [null, null, null, null, null], "rewards": [2, -1, 5, 6, 86], "path": ["0", "0", "1", "2", "3", "4", "6"], "rt": [12616, 89, 192, 308, 74], "actions": ["up", "up", "up", "right", "right"], "actionTimes": [13653, 14249, 14952, 15766, 16347], "queries": {"click": {"state": {"target": ["29", "17", "6"], "time": [1645, 5551, 9241]}, "edge": {"target": [], "time": []}}, "mouseover": {"state": {"target": ["23", "24", "29", "26", "28", "1", "18", "15", "17", "15", "18", "7", "4", "6", "4"], "time": [1137, 1186, 1492, 1985, 2202, 4933, 5034, 5065, 5199, 8731, 8762, 8863, 9030, 9112, 12625]}, "edge": {"target": [], "time": []}}, "mouseout": {"state": {"target": ["32", "33", "31", "23", "0", "23", "24", "29", "26", "28", "1", "18", "15", "17", "15", "18", "7", "4", "6", "4"], "time": [11, 123, 605, 737, 1104, 1170, 1220, 1953, 2102, 4833, 4983, 5051, 5152, 8098, 8746, 8796, 8962, 9045, 11028, 12641]}, "edge": {"target": [], "time": []}}}, "displayed_time": "16.86", "trialTime": 19007, "trial_type": "mouselab-mdp", "trial_index": 37, "time_elapsed": 901923, "internal_node_id": "0.0-6.0-1.0-28.0"}}, {"uniqueid": "w32492313:a84190904", "current_trial": 38, "dateTime": 1693481536922, "trialdata": {"revealed_states": [], "clicked_states": ["11", "5", "22"], "num_clicks_accrued": [0, 0, 0, 0, 0, 0, 0, 0, 0, 0, 0, 0, 0], "stateRewards": ["", -1, 3, -7, 16, -32, -74, -48, 2, 10, 15, -30, 1, 1, -2, 10, 12, -83, 67, 13, -66, 47, 65, -2, 4, 2, -14, -8, -57, 24, 9, 65, 12, 46], "withholdReward": false, "trial_id": "mdp_trial_30", "block": "test", "trialIndex": 31, "score": 71.55, "costs": -6.449999999999999, "simulationMode": [null, null, null, null, null], "rewards": [1, 1, -2, 13, 65], "path": ["0", "0", "12", "13", "14", "19", "22"], "rt": [11891, 114, 305, 78, 181], "actions": ["right", "right", "right", "down", "left"], "actionTimes": [14041, 14670, 15492, 16081, 16769], "queries": {"click": {"state": {"target": ["11", "5", "22"], "time": [2838, 6381, 9952]}, "edge": {"target": [], "time": []}}, "mouseover": {"state": {"target": ["10", "11", "8", "7", "5", "4", "7", "18", "14", "19", "22", "32"], "time": [2450, 2699, 3232, 3580, 6228, 6995, 7144, 7260, 7360, 7562, 9609, 11839]}, "edge": {"target": [], "time": []}}, "mouseout": {"state": {"target": ["7", "0", "10", "11", "8", "7", "5", "5", "4", "7", "18", "14", "19", "22", "32"], "time": [1632, 1933, 2616, 3198, 3265, 4513, 6466, 6895, 7094, 7194, 7311, 7394, 7694, 10974, 13124]}, "edge": {"target": [], "time": []}}}, "displayed_time": "17.29", "trialTime": 18871, "trial_type": "mouselab-mdp", "trial_index": 38, "time_elapsed": 920989, "internal_node_id": "0.0-6.0-1.0-29.0"}}, {"uniqueid": "w32492313:a84190904", "current_trial": 39, "dateTime": 1693481554109, "trialdata": {"revealed_states": [], "clicked_states": ["17", "29"], "num_clicks_accrued": [0, 0, 0, 0, 0, 0, 0, 0, 0, 0, 0, 0, 0], "stateRewards": ["", 1, 3, -2, 15, 51, 15, -19, 11, 67, -45, -73, 2, 4, -2, -13, 36, 9, -28, 10, -30, 31, 16, 1, 2, -1, -16, 14, -22, 36, -1, 88, -5, 45], "withholdReward": false, "trial_id": "mdp_trial_31", "block": "test", "trialIndex": 32, "score": 17.7, "costs": -4.3, "simulationMode": [null, null, null, null, null], "rewards": [1, 2, -1, -16, 36], "path": ["0", "0", "23", "24", "25", "26", "29"], "rt": [9058, 120, 488, 955, 485], "actions": ["left", "left", "left", "up", "left"], "actionTimes": [10313, 10926, 11927, 13392, 14388], "queries": {"click": {"state": {"target": ["17", "29"], "time": [2192, 5683]}, "edge": {"target": [], "time": []}}, "mouseover": {"state": {"target": ["12", "15", "17", "15", "18", "0", "23", "24", "25", "29", "26", "28"], "time": [1547, 1733, 2029, 3431, 3495, 3877, 3977, 4078, 4276, 5493, 6192, 6626]}, "edge": {"target": [], "time": []}}, "mouseout": {"state": {"target": ["0", "12", "15", "17", "15", "18", "0", "23", "24", "25", "29", "26", "28"], "time": [1515, 1563, 1998, 3412, 3460, 3544, 3894, 4045, 4149, 5444, 6158, 6341, 15599]}, "edge": {"target": [], "time": []}}}, "displayed_time": "15.26", "trialTime": 16991, "trial_type": "mouselab-mdp", "trial_index": 39, "time_elapsed": 938176, "internal_node_id": "0.0-6.0-1.0-30.0"}}, {"uniqueid": "w32492313:a84190904", "current_trial": 40, "dateTime": 1693481570832, "trialdata": {"revealed_states": [], "clicked_states": ["28"], "num_clicks_accrued": [0, 0, 0, 0, 0, 0, 0, 0, 0, 0, 0, 0, 0], "stateRewards": ["", -1, -2, 8, -6, -79, -6, 87, 9, -5, -66, -38, 2, 2, 5, -6, -82, 74, 85, -8, 67, -30, -15, 1, -2, -2, -2, 87, 64, 49, 7, 2, -38, -9], "withholdReward": false, "trial_id": "mdp_trial_32", "block": "test", "trialIndex": 33, "score": 56.85, "costs": -2.15, "simulationMode": [null, null, null, null, null], "rewards": [1, -2, -2, -2, 64], "path": ["0", "0", "23", "24", "25", "26", "28"], "rt": [4730, 225, 476, 38, 459], "actions": ["left", "left", "left", "up", "right"], "actionTimes": [5561, 6309, 7291, 7836, 8806], "queries": {"click": {"state": {"target": ["28"], "time": [1263]}, "edge": {"target": [], "time": []}}, "mouseover": {"state": {"target": ["28"], "time": [1119]}, "edge": {"target": [], "time": []}}, "mouseout": {"state": {"target": ["23", "0", "28"], "time": [420, 620, 1635]}, "edge": {"target": [], "time": []}}}, "displayed_time": "14.83", "trialTime": 16537, "trial_type": "mouselab-mdp", "trial_index": 40, "time_elapsed": 954900, "internal_node_id": "0.0-6.0-1.0-31.0"}}, {"uniqueid": "w32492313:a84190904", "current_trial": 41, "dateTime": 1693481587402, "trialdata": {"revealed_states": [], "clicked_states": ["10", "7"], "num_clicks_accrued": [0, 0, 0, 0, 0, 0, 0, 0, 0, 0, 0, 0, 0], "stateRewards": ["", -1, 1, 6, -6, 70, 66, 67, -16, -75, -35, 37, -1, 4, 4, -6, 47, -9, 63, 15, 21, -63, 13, 1, 3, -6, 10, 79, -29, 18, -15, 9, -67, -19], "withholdReward": false, "trial_id": "mdp_trial_33", "block": "test", "trialIndex": 34, "score": 62.7, "costs": -4.3, "simulationMode": [null, null, null, null, null], "rewards": [-1, 1, 6, -6, 67], "path": ["0", "0", "1", "2", "3", "4", "7"], "rt": [8642, 118, 291, 3, 18], "actions": ["up", "up", "up", "right", "down"], "actionTimes": [9505, 10152, 10956, 11469, 12015], "queries": {"click": {"state": {"target": ["10", "7"], "time": [1411, 4720]}, "edge": {"target": [], "time": []}}, "mouseover": {"state": {"target": ["1", "10", "2", "7", "10", "12"], "time": [1073, 1274, 1873, 2056, 8184, 8367]}, "edge": {"target": [], "time": []}}, "mouseout": {"state": {"target": ["1", "1", "10", "2", "7", "10", "12"], "time": [457, 1090, 1823, 1923, 5286, 8200, 8400]}, "edge": {"target": [], "time": []}}}, "displayed_time": "14.86", "trialTime": 16360, "trial_type": "mouselab-mdp", "trial_index": 41, "time_elapsed": 971469, "internal_node_id": "0.0-6.0-1.0-32.0"}}, {"uniqueid": "w32492313:a84190904", "current_trial": 42, "dateTime": 1693481610449, "trialdata": {"revealed_states": [], "clicked_states": ["10", "20", "33", "31"], "num_clicks_accrued": [0, 0, 0, 0, 0, 0, 0, 0, 0, 0, 0, 0, 0], "stateRewards": ["", 1, 4, 5, -5, 58, -80, 75, 6, 25, -39, 46, 2, -2, 4, 2, 59, 31, -22, -12, -61, 15, 72, 1, -2, -7, 8, 77, 76, -23, -7, 71, -15, -3], "withholdReward": false, "trial_id": "mdp_trial_34", "block": "test", "trialIndex": 35, "score": 47.4, "costs": -8.6, "simulationMode": [null, null, null, null, null], "rewards": [1, -2, -7, -7, 71], "path": ["0", "0", "23", "24", "25", "30", "31"], "rt": [15818, 51, 201, 467, 64], "actions": ["left", "left", "left", "down", "right"], "actionTimes": [18140, 18703, 19435, 20417, 20998], "queries": {"click": {"state": {"target": ["10", "20", "33", "31"], "time": [3789, 7470, 10694, 13858]}, "edge": {"target": [], "time": []}}, "mouseover": {"state": {"target": ["1", "2", "10", "2", "1", "13", "14", "20", "20", "19", "22", "33", "30", "31", "22"], "time": [3066, 3216, 3598, 4097, 6229, 6363, 6429, 6796, 7295, 7845, 7896, 8378, 11125, 11374, 14704]}, "edge": {"target": [], "time": []}}, "mouseout": {"state": {"target": ["0", "1", "2", "10", "2", "10", "1", "13", "14", "20", "20", "19", "22", "33", "30", "31", "22"], "time": [2423, 3150, 3399, 4064, 4513, 6179, 6263, 6396, 6495, 6928, 7811, 7879, 7914, 11024, 11308, 14270, 17168]}, "edge": {"target": [], "time": []}}}, "displayed_time": "21.51", "trialTime": 22851, "trial_type": "mouselab-mdp", "trial_index": 42, "time_elapsed": 994516, "internal_node_id": "0.0-6.0-1.0-33.0"}}, {"uniqueid": "w32492313:a84190904", "current_trial": 43, "dateTime": 1693481629379, "trialdata": {"revealed_states": [], "clicked_states": ["2", "3", "11", "6"], "num_clicks_accrued": [0, 0, 0, 0, 0, 0, 0, 0, 0, 0, 0, 0, 0], "stateRewards": ["", 1, -1, 1, -14, -10, 67, -28, -11, 72, 40, -65, -1, 1, 1, -2, 8, -55, 34, -10, 61, 33, -15, 2, -4, 7, 4, -75, 63, -21, -16, 61, 19, 21], "withholdReward": false, "trial_id": "mdp_trial_35", "block": "test", "trialIndex": 36, "score": 48.4, "costs": -5.6, "simulationMode": [null, null, null, null, null], "rewards": [1, -1, 1, -14, 67], "path": ["0", "0", "1", "2", "3", "4", "6"], "rt": [11651, 108, 270, 701, 376], "actions": ["up", "up", "up", "right", "right"], "actionTimes": [13092, 13716, 14494, 15709, 16597], "queries": {"click": {"state": {"target": ["2", "3", "11", "6"], "time": [2751, 3515, 4814, 8444]}, "edge": {"target": [], "time": []}}, "mouseover": {"state": {"target": ["1", "2", "4", "4", "3", "2", "3", "8", "11", "8", "4", "6", "2", "4", "5"], "time": [1735, 1802, 1952, 2185, 2452, 2500, 3300, 4149, 4416, 5765, 6064, 6148, 9128, 11628, 11675]}, "edge": {"target": [], "time": []}}, "mouseout": {"state": {"target": ["0", "1", "2", "4", "4", "3", "2", "3", "3", "8", "11", "8", "3", "4", "6", "2", "4"], "time": [1541, 1787, 1868, 2002, 2336, 2484, 3217, 3624, 4116, 4233, 5666, 5916, 6031, 6114, 9011, 10926, 11641]}, "edge": {"target": [], "time": []}}}, "displayed_time": "17.11", "trialTime": 18721, "trial_type": "mouselab-mdp", "trial_index": 43, "time_elapsed": 1013446, "internal_node_id": "0.0-6.0-1.0-34.0"}}, {"uniqueid": "w32492313:a84190904", "current_trial": 44, "dateTime": 1693481646482, "trialdata": {"revealed_states": [], "clicked_states": ["5"], "num_clicks_accrued": [0, 0, 0, 0, 0, 0, 0, 0, 0, 0, 0, 0, 0], "stateRewards": ["", 1, -1, 8, 4, 76, -33, -17, -3, -1, -54, -74, -2, 2, -5, 13, -51, 63, 83, 1, 84, 29, -36, 2, -1, 7, -12, -10, -44, -43, -14, 8, -69, 19], "withholdReward": false, "trial_id": "mdp_trial_36", "block": "test", "trialIndex": 37, "score": 85.85, "costs": -2.15, "simulationMode": [null, null, null, null, null], "rewards": [1, -1, 8, 4, 76], "path": ["0", "0", "1", "2", "3", "4", "5"], "rt": [4991, 50, 152, 59, 79], "actions": ["up", "up", "up", "right", "up"], "actionTimes": [6381, 6936, 7620, 8193, 8780], "queries": {"click": {"state": {"target": ["5"], "time": [2086]}, "edge": {"target": [], "time": []}}, "mouseover": {"state": {"target": ["1", "2", "3", "5", "4", "7", "7"], "time": [1658, 1674, 1722, 1923, 2455, 2539, 3505]}, "edge": {"target": [], "time": []}}, "mouseout": {"state": {"target": ["5", "2", "1", "1", "2", "3", "5", "4", "7", "7", "17"], "time": [590, 707, 740, 1673, 1707, 1807, 2406, 2506, 2589, 11220, 11281]}, "edge": {"target": [], "time": []}}}, "displayed_time": "15.40", "trialTime": 16898, "trial_type": "mouselab-mdp", "trial_index": 44, "time_elapsed": 1030549, "internal_node_id": "0.0-6.0-1.0-35.0"}}, {"uniqueid": "w32492313:a84190904", "current_trial": 45, "dateTime": 1693481678876, "trialdata": {"revealed_states": [], "clicked_states": ["7", "10", "33", "22", "20", "21", "18"], "num_clicks_accrued": [0, 0, 0, 0, 0, 0, 0, 0, 0, 0, 0, 0, 0], "stateRewards": ["", -2, 1, -7, -8, -37, -76, -87, 11, 30, -63, 80, -1, 4, 2, -1, 42, 17, 52, -3, -75, -80, -68, 2, -3, -5, -15, -48, 82, 24, -7, 5, -22, -71], "withholdReward": false, "trial_id": "mdp_trial_37", "block": "test", "trialIndex": 38, "score": 40.95, "costs": -15.05, "simulationMode": [null, null, null, null, null], "rewards": [-1, 4, 2, -1, 52], "path": ["0", "0", "12", "13", "14", "15", "18"], "rt": [25840, 159, 334, 163, 576], "actions": ["right", "right", "right", "up", "left"], "actionTimes": [26731, 27395, 28240, 28914, 30009], "queries": {"click": {"state": {"target": ["7", "10", "33", "22", "20", "21", "18"], "time": [1366, 4982, 8229, 11944, 15418, 18650, 21789]}, "edge": {"target": [], "time": []}}, "mouseover": {"state": {"target": ["7", "0", "10", "2", "1", "23", "33", "30", "31", "22", "19", "20", "19", "22", "19", "20", "21", "19", "15", "16", "18", "15", "17", "17"], "time": [1178, 2375, 4825, 5856, 6088, 6354, 6671, 8503, 8586, 8919, 9052, 9135, 11400, 11833, 12315, 12948, 18160, 18960, 19177, 19259, 20508, 22189, 22258, 23088]}, "edge": {"target": [], "time": []}}, "mouseout": {"state": {"target": ["0", "7", "7", "0", "10", "2", "1", "23", "33", "30", "31", "22", "19", "20", "19", "22", "19", "20", "20", "21", "19", "15", "16", "18", "15", "17"], "time": [921, 1455, 2193, 2425, 5774, 5956, 6255, 6422, 8470, 8536, 8719, 9019, 9086, 9419, 11733, 12232, 12532, 15446, 16329, 18893, 18992, 19209, 20308, 22157, 22240, 22522]}, "edge": {"target": [], "time": []}}}, "displayed_time": "30.52", "trialTime": 32161, "trial_type": "mouselab-mdp", "trial_index": 45, "time_elapsed": 1062943, "internal_node_id": "0.0-6.0-1.0-36.0"}}, {"uniqueid": "w32492313:a84190904", "current_trial": 46, "dateTime": 1693481710354, "trialdata": {"revealed_states": [], "clicked_states": ["11"], "num_clicks_accrued": [0, 0, 0, 0, 0, 0, 0, 0, 0, 0, 0, 0, 0], "stateRewards": ["", -2, 4, -3, -13, 63, -36, 62, 11, 78, 34, -51, 2, -2, 8, -6, -40, -18, 31, 9, 64, 39, 79, 1, 4, -4, 15, -12, 76, 73, -10, -77, 86, -4], "withholdReward": false, "trial_id": "mdp_trial_38", "block": "test", "trialIndex": 39, "score": -43.15, "costs": -2.15, "simulationMode": [null, null, null, null, null], "rewards": [-2, 4, -3, 11, -51], "path": ["0", "0", "1", "2", "3", "8", "11"], "rt": [23940, 88, 463, 700, 79], "actions": ["up", "up", "up", "left", "left"], "actionTimes": [25056, 25655, 26627, 27846, 28441], "queries": {"click": {"state": {"target": ["11"], "time": [3423]}, "edge": {"target": [], "time": []}}, "mouseover": {"state": {"target": ["1", "2", "10", "11", "8", "3", "6", "7"], "time": [1272, 2436, 2536, 3019, 22867, 22916, 23400, 23833]}, "edge": {"target": [], "time": []}}, "mouseout": {"state": {"target": ["17", "15", "12", "1", "2", "10", "11", "8", "3", "6", "7"], "time": [428, 487, 655, 1338, 2485, 2569, 22835, 22884, 23052, 23766, 23867]}, "edge": {"target": [], "time": []}}}, "displayed_time": "28.96", "trialTime": 31249, "trial_type": "mouselab-mdp", "trial_index": 46, "time_elapsed": 1094421, "internal_node_id": "0.0-6.0-1.0-37.0"}}, {"uniqueid": "w32492313:a84190904", "current_trial": 47, "dateTime": 1693481727307, "trialdata": {"revealed_states": [], "clicked_states": ["6", "14", "20"], "num_clicks_accrued": [0, 0, 0, 0, 0, 0, 0, 0, 0, 0, 0, 0, 0], "stateRewards": ["", -2, -3, -6, -7, 9, 16, 65, 5, -41, 20, -25, -1, -4, 1, -11, -49, -4, 71, 1, 39, -62, 52, -2, -3, 7, -9, -28, -70, 84, 8, 24, -58, 82], "withholdReward": false, "trial_id": "mdp_trial_39", "block": "test", "trialIndex": 40, "score": 30.75, "costs": -5.25, "simulationMode": [null, null, null, null, null], "rewards": [-1, -4, 1, 1, 39], "path": ["0", "0", "12", "13", "14", "19", "20"], "rt": [9459, 180, 397, 411, 157], "actions": ["right", "right", "right", "down", "right"], "actionTimes": [10772, 11480, 12397, 13326, 13989], "queries": {"click": {"state": {"target": ["6", "14", "20"], "time": [1845, 5667, 6395]}, "edge": {"target": [], "time": []}}, "mouseover": {"state": {"target": ["6", "16", "15", "15", "1", "13", "14", "20", "21", "19"], "time": [1709, 2790, 2857, 5023, 5223, 5422, 5455, 6237, 9786, 10517]}, "edge": {"target": [], "time": []}}, "mouseout": {"state": {"target": ["0", "0", "6", "6", "16", "15", "15", "1", "13", "14", "20", "20", "21", "19", "19"], "time": [578, 1327, 1893, 2740, 2808, 4172, 5055, 5322, 5439, 6004, 6986, 9155, 10217, 10800, 15262]}, "edge": {"target": [], "time": []}}}, "displayed_time": "15.31", "trialTime": 16721, "trial_type": "mouselab-mdp", "trial_index": 47, "time_elapsed": 1111374, "internal_node_id": "0.0-6.0-1.0-38.0"}}, {"uniqueid": "w32492313:a84190904", "current_trial": 48, "dateTime": 1693481749804, "trialdata": {"revealed_states": [], "clicked_states": ["7", "33", "29", "11"], "num_clicks_accrued": [0, 0, 0, 0, 0, 0, 0, 0, 0, 0, 0, 0, 0], "stateRewards": ["", -2, 3, -1, 2, -72, 63, 20, -1, 62, -66, 39, -2, 3, -6, 14, 22, 47, 1, 8, -49, -1, -41, 2, 2, -6, -16, -64, -60, -34, 16, 54, 22, -7], "withholdReward": false, "trial_id": "mdp_trial_40", "block": "test", "trialIndex": 41, "score": 29.4, "costs": -8.6, "simulationMode": [null, null, null, null, null], "rewards": [-2, 3, -1, -1, 39], "path": ["0", "0", "1", "2", "3", "8", "11"], "rt": [16335, 19, 138, 534, 126], "actions": ["up", "up", "up", "left", "left"], "actionTimes": [17162, 17698, 18365, 19413, 20053], "queries": {"click": {"state": {"target": ["7", "33", "29", "11"], "time": [1552, 5362, 8982, 12637]}, "edge": {"target": [], "time": []}}, "mouseover": {"state": {"target": ["1", "2", "7", "30", "33", "30", "29", "26", "28", "11", "11", "8", "3", "4", "6", "6"], "time": [1060, 1226, 1361, 4991, 5124, 5738, 8837, 9370, 9851, 12198, 12500, 13131, 14563, 14663, 14896, 16794]}, "edge": {"target": [], "time": []}}, "mouseout": {"state": {"target": ["1", "2", "7", "30", "33", "30", "29", "26", "28", "11", "11", "11", "8", "3", "4", "6", "6", "15", "14", "19"], "time": [1110, 1293, 2210, 5040, 5689, 8522, 9303, 9519, 12166, 12216, 12713, 13081, 14130, 14615, 14862, 16699, 20841, 20941, 21007, 21174]}, "edge": {"target": [], "time": []}}}, "displayed_time": "20.56", "trialTime": 22253, "trial_type": "mouselab-mdp", "trial_index": 48, "time_elapsed": 1133872, "internal_node_id": "0.0-6.0-1.0-39.0"}}, {"uniqueid": "w32492313:a84190904", "current_trial": 49, "dateTime": 1693481862481, "trialdata": {"rt": 112673, "response": {"Q0": "$-16 to 16", "Q1": "$-16 to $16", "Q2": "$-88 to $88", "Q3": "The cost for clicking on nodes varied between nodes.", "Q4": "Very motivated"}, "question_order": [0, 1, 2, 3, 4], "trial_id": "final_quiz_control", "trial_type": "survey-multi-choice", "trial_index": 49, "time_elapsed": 1246549, "internal_node_id": "0.0-6.0-2.0"}}, {"uniqueid": "w32492313:a84190904", "current_trial": 50, "dateTime": 1693482017895, "trialdata": {"rt": 155404, "response": {"Q0": "I used the opportumity to view the nodes before I decide on which one I wanted to end the spider at.", "Q1": "I am not too sure if I improved my strategy but I did make sure to improve my scores.", "Q2": "Value of viewing the nodes impacted on the amount of my score for each round. "}, "trial_id": "self_report_control", "trial_type": "survey-text", "trial_index": 50, "time_elapsed": 1401963, "internal_node_id": "0.0-6.0-3.0"}}, {"uniqueid": "w32492313:a84190904", "current_trial": 51, "dateTime": 1693482073417, "trialdata": {"rt": 55517, "response": {"Q0": "Disagree", "Q1": "Agree", "Q2": "Neither disagree nor agree", "Q3": "Disagree", "Q4": "Agree", "Q5": "Agree", "Q6": "Disagree"}, "question_order": [0, 1, 2, 3, 4, 5, 6], "trial_id": "self_report_2", "trial_type": "survey-multi-choice", "trial_index": 51, "time_elapsed": 1457485, "internal_node_id": "0.0-6.0-4.0"}}, {"uniqueid": "w32492313:a84190904", "current_trial": 52, "dateTime": 1693482107231, "trialdata": {"rt": 33808, "response": {"gender": "female", "age": "29", "colorblind": "0", "effort": "0"}, "trial_type": "survey-html-form", "trial_index": 52, "time_elapsed": 1491299, "internal_node_id": "0.0-6.0-5.0"}}, {"uniqueid": "w32492313:a84190904", "current_trial": 53, "dateTime": 1693482129528, "trialdata": {"rt": 22291, "response": {"Q0": "Not at all.", "Q1": "No.", "Q2": ""}, "trial_type": "survey-text", "trial_index": 53, "time_elapsed": 1513596, "internal_node_id": "0.0-6.0-6.0"}}, {"uniqueid": "w32492313:a84190904", "current_trial": 54, "dateTime": 1693482162896, "trialdata": {"rt": 33363, "stimulus": "<h1>Completion Code Instructions (1/2)</h1>\n<br><br><br><br>\nYou have reached the end of the experiment! The completion code consists of two parts: (1) a code with 2 characters (2) a code with 6 characters. On this page, you will receive the second part of the code. The first part of the completion code will be on the next page.\n<br><br>\nThe second part of your completion code is: <b>EWEK22</b>\n<br><br>\nPlease note this down. Then, press 'Finish HIT' in order to find the first part of your completion code. Once the data has been saved, you will receive this code either in this window or in the original browser window where you started the experiment.\n", "response": 0, "trial_type": "html-button-response", "trial_index": 54, "time_elapsed": 1546964, "internal_node_id": "0.0-6.0-7.0"}}, {"uniqueid": "w32492313:a84190904", "current_trial": 55, "dateTime": 1693482163901, "trialdata": {"success": true, "trial_type": "fullscreen", "trial_index": 55, "time_elapsed": 1547969, "internal_node_id": "0.0-7.0"}}], "questiondata": {"params": {"CODE": "C6DMOQA6", "MIN_TIME": 14, "inspectCost": 1, "startTime": "Thu Aug 31 2023 13:16:52 GMT+0200 (South Africa Standard Time)", "bonusRate": 0.002, "variance": "1_2_4_8_44", "branching": "31123"}, "final_score": 1453.25}, "eventdata": [{"eventtype": "initialized", "value": null, "timestamp": 1693480609863, "interval": 0}, {"eventtype": "window_resize", "value": [1024, 768], "timestamp": 1693480609863, "interval": 0}, {"eventtype": "window_resize", "value": [1024, 768], "timestamp": 1693480612832, "interval": 2969}, {"eventtype": "window_resize", "value": [1920, 1080], "timestamp": 1693480618581, "interval": 5749}, {"eventtype": "focus", "value": "off", "timestamp": 1693481904733, "interval": 1286152}, {"eventtype": "window_resize", "value": [1920, 1079], "timestamp": 1693481904954, "interval": 221}, {"eventtype": "window_resize", "value": [1920, 1080], "timestamp": 1693481905184, "interval": 230}, {"eventtype": "focus", "value": "on", "timestamp": 1693481905391, "interval": 207}, {"eventtype": "focus", "value": "off", "timestamp": 1693481924945, "interval": 19554}, {"eventtype": "window_resize", "value": [1920, 1079], "timestamp": 1693481925151, "interval": 206}, {"eventtype": "focus", "value": "on", "timestamp": 1693481925178, "interval": 27}, {"eventtype": "window_resize", "value": [1920, 1080], "timestamp": 1693481925392, "interval": 214}, {"eventtype": "focus", "value": "off", "timestamp": 1693481928329, "interval": 2937}, {"eventtype": "window_resize", "value": [1920, 1079], "timestamp": 1693481928547, "interval": 218}, {"eventtype": "focus", "value": "on", "timestamp": 1693481928576, "interval": 29}, {"eventtype": "window_resize", "value": [1920, 1080], "timestamp": 1693481928798, "interval": 222}, {"eventtype": "focus", "value": "off", "timestamp": 1693481979378, "interval": 50580}, {"eventtype": "window_resize", "value": [1920, 1079], "timestamp": 1693481979598, "interval": 220}, {"eventtype": "focus", "value": "on", "timestamp": 1693481979608, "interval": 10}, {"eventtype": "window_resize", "value": [1920, 1080], "timestamp": 1693481979815, "interval": 207}, {"eventtype": "window_resize", "value": [1024, 768], "timestamp": 1693482163152, "interval": 183337}], "useragent": "Mozilla/5.0 (Windows NT 10.0; Win64; x64) AppleWebKit/537.36 (KHTML, like Gecko) Chrome/116.0.0.0 Safari/537.36 Edg/116.0.1938.62", "mode": "live", "id": "w32492313:a84190904", "status": "user data saved", "Beginhit": "2023-08-31 11:16:47.597716", "Beginexp": "2023-08-31 11:17:00.252589", "Endhit": "2023-08-31 11:42:45.597376", "psiturkStatus": 3, "browser": "<redacted>", "platform": "windows", "language": "en-GB"}