{"condition": 0, "counterbalance": 0, "assignmentId": "a18587762", "workerId": "w64273145", "hitId": "h22832743", "currenttrial": 67, "bonus": 0, "data": [{"uniqueid": "w64273145:a18587762", "current_trial": 0, "dateTime": 1691159714031, "trialdata": {"success": true, "trial_type": "fullscreen", "trial_index": 0, "time_elapsed": 6323, "internal_node_id": "0.0-0.0"}}, {"uniqueid": "w64273145:a18587762", "current_trial": 1, "dateTime": 1691159743245, "trialdata": {"view_history": [{"page_index": 0, "viewing_time": 29209}], "rt": 29209, "trial_id": "exp_instructions_control", "trial_type": "instructions", "trial_index": 1, "time_elapsed": 35538, "internal_node_id": "0.0-1.0"}}, {"uniqueid": "w64273145:a18587762", "current_trial": 2, "dateTime": 1691159749638, "trialdata": {"success": true, "trial_type": "fullscreen", "trial_index": 2, "time_elapsed": 41931, "internal_node_id": "0.0-2.0-0.0"}}, {"uniqueid": "w64273145:a18587762", "current_trial": 3, "dateTime": 1691160060850, "trialdata": {"view_history": [{"page_index": 0, "viewing_time": 131726}, {"page_index": 1, "viewing_time": 104846}, {"page_index": 2, "viewing_time": 27862}, {"page_index": 3, "viewing_time": 46773}], "rt": 311208, "trial_id": "mouselab_instructions_1_control", "trial_type": "instructions", "trial_index": 3, "time_elapsed": 353142, "internal_node_id": "0.0-2.0-1.0"}}, {"uniqueid": "w64273145:a18587762", "current_trial": 4, "dateTime": 1691160201546, "trialdata": {"revealed_states": [], "clicked_states": ["12", "13", "14", "19", "20", "1", "2", "3", "8", "9", "11", "4", "5", "15", "17", "23", "24", "25", "30", "31", "26", "27", "33", "32", "28", "29", "10", "7", "6"], "num_clicks_accrued": [0, 0, 0, 0, 0, 0, 0, 0, 0, 0, 0, 0, 0], "stateRewards": ["", 10, -10, 10, -10, -10, 10, 10, 10, -10, 10, 10, -10, 10, 10, 10, 10, 10, -10, -10, 10, 10, -10, -10, -10, -10, 10, -10, 10, -10, 10, -10, -10, -10], "withholdReward": false, "trial_id": "practice_1", "block": "test", "trialIndex": 0, "score": 19, "costs": -14.5, "simulationMode": [null, null, null, null, null], "rewards": [-10, 10, 10, 10, 10], "path": ["0", "0", "12", "13", "14", "15", "17"], "rt": [122939, 1474, 1055, 2839, 154], "actions": ["right", "right", "right", "up", "right"], "actionTimes": [125058, 127052, 128631, 131980, 132641], "queries": {"click": {"state": {"target": ["12", "13", "14", "19", "20", "1", "2", "3", "8", "9", "11", "4", "5", "15", "17", "23", "24", "25", "30", "31", "26", "27", "33", "32", "28", "29", "10", "7", "6"], "time": [5155, 7819, 12209, 13938, 15205, 26109, 27704, 29537, 31040, 32877, 38003, 41812, 45141, 50169, 53010, 56935, 61651, 65837, 68084, 70628, 78173, 82928, 91200, 93749, 97091, 100061, 103482, 109641, 116937]}, "edge": {"target": [], "time": []}}, "mouseover": {"state": {"target": ["12", "13", "14", "19", "20", "21", "20", "19", "22", "0", "0", "1", "2", "3", "8", "9", "4", "6", "4", "8", "11", "2", "7", "4", "2", "4", "5", "4", "7", "1", "23", "0", "13", "15", "17", "17", "15", "23", "23", "24", "25", "30", "31", "30", "33", "25", "26", "23", "23", "26", "27", "26", "29", "24", "23", "20", "30", "33", "33", "30", "32", "32", "28", "26", "29", "26", "1", "10", "2", "4", "3", "8", "11", "8", "3", "7", "1", "1", "1", "2", "6", "16", "13"], "time": [4170, 5751, 8783, 12613, 14627, 18937, 19231, 23784, 23832, 24054, 24798, 25386, 26733, 28129, 30013, 31862, 33460, 35888, 35954, 36610, 37266, 39005, 39274, 39623, 40606, 40972, 42518, 46767, 46844, 47027, 47299, 49614, 49677, 49946, 51257, 51614, 54310, 54727, 55361, 58157, 63303, 66829, 69343, 72373, 72539, 76823, 77985, 80269, 81750, 82301, 82567, 83513, 84582, 87342, 87362, 87459, 89877, 89988, 90243, 91939, 92271, 92767, 95223, 98030, 98246, 101380, 102483, 102865, 106058, 107043, 107680, 107721, 107892, 108689, 108737, 109093, 113039, 113957, 115269, 116131, 116486, 118301, 123695]}, "edge": {"target": [], "time": []}}, "mouseout": {"state": {"target": ["12", "0", "0", "12", "13", "14", "19", "20", "21", "20", "19", "22", "0", "0", "1", "2", "3", "8", "9", "4", "6", "4", "8", "11", "2", "7", "4", "2", "4", "5", "4", "7", "1", "23", "0", "13", "15", "17", "17", "15", "23", "23", "24", "25", "30", "31", "30", "33", "25", "26", "23", "23", "26", "27", "26", "29", "24", "23", "20", "30", "33", "33", "30", "32", "32", "28", "26", "29", "26", "1", "10", "2", "4", "3", "8", "11", "8", "3", "7", "1", "1", "1", "2", "6", "16", "13", "12", "22"], "time": [null, null, 4071, 5586, 8366, 12496, 14577, 16946, 19007, 23782, 23817, 23851, 24287, 25088, 26433, 27946, 29897, 31728, 33176, 33525, 35921, 36027, 37059, 38487, 39052, 39341, 40307, 40639, 42285, 46696, 46817, 46878, 47064, 49587, 49629, 49725, 51240, 51328, 54293, 54323, 55072, 57906, 63136, 66729, 69330, 72344, 72425, 75990, 77788, 79354, 81168, 82202, 82364, 83347, 83864, 87313, 87359, 87374, 87475, 89927, 90064, 91837, 92188, 92390, 94769, 97880, 98099, 101367, 101413, 102649, 105979, 106378, 107662, 107707, 107854, 108671, 108723, 108844, 112935, 113105, 114666, 116013, 116147, 117855, 123597, 123709, 133368, 134049]}, "edge": {"target": [], "time": []}}}, "displayed_time": "133.15", "trialTime": 139299, "trial_type": "mouselab-mdp", "trial_index": 4, "time_elapsed": 493838, "internal_node_id": "0.0-2.0-2.0-0.0"}}, {"uniqueid": "w64273145:a18587762", "current_trial": 5, "dateTime": 1691160227879, "trialdata": {"revealed_states": [], "clicked_states": ["12", "13", "14", "19", "20", "22", "21"], "num_clicks_accrued": [0, 0, 0, 0, 0, 0, 0, 0, 0, 0, 0, 0, 0], "stateRewards": ["", -10, -10, 10, 10, -10, 10, -10, 10, -10, 10, 10, -10, 10, 10, -10, 10, 10, -10, -10, -10, -10, 10, -10, 10, 10, 10, -10, -10, -10, 10, -10, 10, -10], "withholdReward": false, "trial_id": "practice_2", "block": "test", "trialIndex": 1, "score": 10, "costs": -3.5, "simulationMode": [null, null, null, null, null], "rewards": [-10, 10, 10, -10, 10], "path": ["0", "0", "12", "13", "14", "19", "22"], "rt": [17556, 152, 259, 641, 174], "actions": ["right", "right", "right", "down", "left"], "actionTimes": [19899, 20574, 21347, 22511, 23210], "queries": {"click": {"state": {"target": ["12", "13", "14", "19", "20", "22", "21"], "time": [3941, 6409, 8685, 11144, 13286, 15282, 17174]}, "edge": {"target": [], "time": []}}, "mouseover": {"state": {"target": ["0", "12", "13", "14", "19", "20", "22", "21", "12"], "time": [2942, 3254, 4670, 7962, 9761, 12939, 15039, 16442, 19106]}, "edge": {"target": [], "time": []}}, "mouseout": {"state": {"target": ["0", "0", "12", "13", "14", "19", "20", "19", "22", "21", "22", "12", "13", "22"], "time": [1659, 2965, 4567, 7950, 9329, 12746, 14793, 14925, 16072, 18653, 18739, 19622, 19983, 24284]}, "edge": {"target": [], "time": []}}}, "displayed_time": "23.75", "trialTime": 26143, "trial_type": "mouselab-mdp", "trial_index": 5, "time_elapsed": 520170, "internal_node_id": "0.0-2.0-2.0-1.0"}}, {"uniqueid": "w64273145:a18587762", "current_trial": 6, "dateTime": 1691160287968, "trialdata": {"view_history": [{"page_index": 0, "viewing_time": 43211}, {"page_index": 1, "viewing_time": 16871}], "rt": 60082, "trial_id": "mouselab_instructions_2_control", "trial_type": "instructions", "trial_index": 6, "time_elapsed": 580261, "internal_node_id": "0.0-2.0-3.0"}}, {"uniqueid": "w64273145:a18587762", "current_trial": 7, "dateTime": 1691160337790, "trialdata": {"rt": 49817, "response": {"Q0": "The cost for clicking on nodes may vary between nodes.", "Q1": "The better I perform the higher my bonus will be.", "Q2": "No, the amount of cash at each node of the web may be different each time.", "Q3": "To get the highest total score.", "Q4": "Any time during the round.", "Q5": "3 seconds"}, "question_order": [0, 1, 2, 3, 4, 5], "correct": {"Q0": "The cost for clicking on nodes may vary between nodes.", "Q1": "The better I perform the higher my bonus will be.", "Q2": "No, the amount of cash at each node of the web may be different each time.", "Q3": "To get the highest total score.", "Q4": "Only before moving the spider.", "Q5": "3 seconds"}, "trial_id": "mouselab_quiz_control", "trial_type": "survey-multi-choice", "trial_index": 7, "time_elapsed": 630083, "internal_node_id": "0.0-2.0-4.0"}}, {"uniqueid": "w64273145:a18587762", "current_trial": 8, "dateTime": 1691160345391, "trialdata": {"success": true, "trial_type": "fullscreen", "trial_index": 8, "time_elapsed": 637684, "internal_node_id": "0.0-2.1-0.1"}}, {"uniqueid": "w64273145:a18587762", "current_trial": 9, "dateTime": 1691160402690, "trialdata": {"view_history": [{"page_index": 0, "viewing_time": 10427}, {"page_index": 1, "viewing_time": 9579}, {"page_index": 2, "viewing_time": 15821}, {"page_index": 3, "viewing_time": 21470}], "rt": 57296, "trial_id": "mouselab_instructions_1_control", "trial_type": "instructions", "trial_index": 9, "time_elapsed": 694983, "internal_node_id": "0.0-2.1-1.1"}}, {"uniqueid": "w64273145:a18587762", "current_trial": 10, "dateTime": 1691160421222, "trialdata": {"revealed_states": [], "clicked_states": ["1", "2", "3", "8", "9"], "num_clicks_accrued": [0, 0, 0, 0, 0, 0, 0, 0, 0, 0, 0, 0, 0], "stateRewards": ["", 10, -10, 10, -10, -10, 10, 10, 10, -10, 10, 10, -10, 10, 10, 10, 10, 10, -10, -10, 10, 10, -10, -10, -10, -10, 10, -10, 10, -10, 10, -10, -10, -10], "withholdReward": false, "trial_id": "practice_1", "block": "test", "trialIndex": 2, "score": 11, "costs": -2.5, "simulationMode": [null, null, null, null, null], "rewards": [10, -10, 10, 10, -10], "path": ["0", "0", "1", "2", "3", "8", "9"], "rt": [9695, 282, 1, 677, 481], "actions": ["up", "up", "up", "left", "up"], "actionTimes": [12367, 13167, 13683, 14895, 15897], "queries": {"click": {"state": {"target": ["1", "2", "3", "8", "9"], "time": [3783, 5159, 6756, 8368, 10271]}, "edge": {"target": [], "time": []}}, "mouseover": {"state": {"target": ["1", "2", "3", "8", "9", "3", "2"], "time": [3559, 4388, 5868, 8037, 9970, 10866, 11220]}, "edge": {"target": [], "time": []}}, "mouseout": {"state": {"target": ["12", "0", "1", "2", "3", "8", "9", "3", "2", "22"], "time": [932, 3339, 4239, 5654, 7251, 9832, 10683, 11164, 11232, 17030]}, "edge": {"target": [], "time": []}}}, "displayed_time": "16.41", "trialTime": 18379, "trial_type": "mouselab-mdp", "trial_index": 10, "time_elapsed": 713514, "internal_node_id": "0.0-2.1-2.1-0.1"}}, {"uniqueid": "w64273145:a18587762", "current_trial": 11, "dateTime": 1691160440877, "trialdata": {"revealed_states": [], "clicked_states": ["23", "24", "25", "26", "29", "27", "28"], "num_clicks_accrued": [0, 0, 0, 0, 0, 0, 0, 0, 0, 0, 0, 0, 0], "stateRewards": ["", -10, -10, 10, 10, -10, 10, -10, 10, -10, 10, 10, -10, 10, 10, -10, 10, 10, -10, -10, -10, -10, 10, -10, 10, 10, 10, -10, -10, -10, 10, -10, 10, -10], "withholdReward": false, "trial_id": "practice_2", "block": "test", "trialIndex": 3, "score": 10, "costs": -3.5, "simulationMode": [null, null, null, null, null], "rewards": [-10, 10, 10, 10, -10], "path": ["0", "0", "23", "24", "25", "26", "27"], "rt": [12705, 6, 85, 295, 139], "actions": ["left", "left", "left", "up", "up"], "actionTimes": [14917, 15445, 16058, 16867, 17526], "queries": {"click": {"state": {"target": ["23", "24", "25", "26", "29", "27", "28"], "time": [3022, 4469, 5998, 7536, 9061, 10897, 12545]}, "edge": {"target": [], "time": []}}, "mouseover": {"state": {"target": ["23", "24", "25", "26", "29", "27", "28"], "time": [2885, 3365, 4979, 6511, 8141, 10508, 12289]}, "edge": {"target": [], "time": []}}, "mouseout": {"state": {"target": ["0", "23", "24", "25", "26", "29", "27", "28", "24"], "time": [2636, 3315, 4849, 6311, 8060, 10445, 11840, 13010, 18254]}, "edge": {"target": [], "time": []}}}, "displayed_time": "18.04", "trialTime": 19309, "trial_type": "mouselab-mdp", "trial_index": 11, "time_elapsed": 733168, "internal_node_id": "0.0-2.1-2.1-1.1"}}, {"uniqueid": "w64273145:a18587762", "current_trial": 12, "dateTime": 1691160451029, "trialdata": {"view_history": [{"page_index": 0, "viewing_time": 7897}, {"page_index": 1, "viewing_time": 2247}], "rt": 10145, "trial_id": "mouselab_instructions_2_control", "trial_type": "instructions", "trial_index": 12, "time_elapsed": 743322, "internal_node_id": "0.0-2.1-3.1"}}, {"uniqueid": "w64273145:a18587762", "current_trial": 13, "dateTime": 1691160526988, "trialdata": {"rt": 75957, "response": {"Q0": "The cost is always $2.", "Q1": "The better I perform the higher my bonus will be.", "Q2": "No, the amount of cash at each node of the web may be different each time.", "Q3": "To get the highest total score.", "Q4": "Any time during the round.", "Q5": "3 seconds"}, "question_order": [0, 1, 2, 3, 4, 5], "correct": {"Q0": "The cost for clicking on nodes may vary between nodes.", "Q1": "The better I perform the higher my bonus will be.", "Q2": "No, the amount of cash at each node of the web may be different each time.", "Q3": "To get the highest total score.", "Q4": "Only before moving the spider.", "Q5": "3 seconds"}, "trial_id": "mouselab_quiz_control", "trial_type": "survey-multi-choice", "trial_index": 13, "time_elapsed": 819281, "internal_node_id": "0.0-2.1-4.1"}}, {"uniqueid": "w64273145:a18587762", "current_trial": 14, "dateTime": 1691160541120, "trialdata": {"success": true, "trial_type": "fullscreen", "trial_index": 14, "time_elapsed": 833413, "internal_node_id": "0.0-2.2-0.2"}}, {"uniqueid": "w64273145:a18587762", "current_trial": 15, "dateTime": 1691160668498, "trialdata": {"view_history": [{"page_index": 0, "viewing_time": 45263}, {"page_index": 1, "viewing_time": 77229}, {"page_index": 2, "viewing_time": 3456}, {"page_index": 3, "viewing_time": 1424}], "rt": 127373, "trial_id": "mouselab_instructions_1_control", "trial_type": "instructions", "trial_index": 15, "time_elapsed": 960791, "internal_node_id": "0.0-2.2-1.2"}}, {"uniqueid": "w64273145:a18587762", "current_trial": 16, "dateTime": 1691160684705, "trialdata": {"revealed_states": [], "clicked_states": ["12", "13", "14", "15", "17"], "num_clicks_accrued": [0, 0, 0, 0, 0, 0, 0, 0, 0, 0, 0, 0, 0], "stateRewards": ["", 10, -10, 10, -10, -10, 10, 10, 10, -10, 10, 10, -10, 10, 10, 10, 10, 10, -10, -10, 10, 10, -10, -10, -10, -10, 10, -10, 10, -10, 10, -10, -10, -10], "withholdReward": false, "trial_id": "practice_1", "block": "test", "trialIndex": 4, "score": 31, "costs": -2.5, "simulationMode": [null, null, null, null, null, null], "rewards": [-10, 10, 10, 10, 10], "path": ["0", "0", "12", "13", "14", "15", "17"], "rt": [9850, 165, 36, 1034, 51, 76], "actions": ["right", "right", "right", "right", "up", "right"], "actionTimes": [11273, 11442, 11993, 13541, 14106, 14711], "queries": {"click": {"state": {"target": ["12", "13", "14", "15", "17"], "time": [2713, 4280, 6773, 8867, 10324]}, "edge": {"target": [], "time": []}}, "mouseover": {"state": {"target": ["12", "13", "13", "14", "15", "15", "14", "15", "17"], "time": [2512, 2877, 4058, 4441, 5375, 5805, 6089, 7407, 9588]}, "edge": {"target": [], "time": []}}, "mouseout": {"state": {"target": ["0", "12", "13", "13", "14", "15", "15", "14", "15"], "time": [2342, 2861, 3808, 4392, 5209, 5589, 6055, 7189, 9555]}, "edge": {"target": [], "time": []}}}, "displayed_time": "15.23", "trialTime": 16048, "trial_type": "mouselab-mdp", "trial_index": 16, "time_elapsed": 976997, "internal_node_id": "0.0-2.2-2.2-0.2"}}, {"uniqueid": "w64273145:a18587762", "current_trial": 17, "dateTime": 1691160699671, "trialdata": {"revealed_states": [], "clicked_states": ["23", "24", "25", "26", "27"], "num_clicks_accrued": [0, 0, 0, 0, 0, 0, 0, 0, 0, 0, 0, 0, 0], "stateRewards": ["", -10, -10, 10, 10, -10, 10, -10, 10, -10, 10, 10, -10, 10, 10, -10, 10, 10, -10, -10, -10, -10, 10, -10, 10, 10, 10, -10, -10, -10, 10, -10, 10, -10], "withholdReward": false, "trial_id": "practice_2", "block": "test", "trialIndex": 5, "score": 11, "costs": -2.5, "simulationMode": [null, null, null, null, null], "rewards": [-10, 10, 10, 10, -10], "path": ["0", "0", "23", "24", "25", "26", "27"], "rt": [7818, 121, 121, 107, 412], "actions": ["left", "left", "left", "up", "up"], "actionTimes": [10062, 10707, 11339, 11958, 12879], "queries": {"click": {"state": {"target": ["23", "24", "25", "26", "27"], "time": [2981, 4173, 5560, 6939, 8326]}, "edge": {"target": [], "time": []}}, "mouseover": {"state": {"target": ["0", "23", "24", "25", "26", "27"], "time": [2370, 2688, 3239, 4601, 5851, 7516]}, "edge": {"target": [], "time": []}}, "mouseout": {"state": {"target": ["17", "13", "12", "0", "0", "23", "24", "25", "26"], "time": [955, 1022, 1105, 2021, 2655, 3186, 4485, 5735, 7370]}, "edge": {"target": [], "time": []}}}, "displayed_time": "13.40", "trialTime": 14772, "trial_type": "mouselab-mdp", "trial_index": 17, "time_elapsed": 991962, "internal_node_id": "0.0-2.2-2.2-1.2"}}, {"uniqueid": "w64273145:a18587762", "current_trial": 18, "dateTime": 1691160729713, "trialdata": {"view_history": [{"page_index": 0, "viewing_time": 28595}, {"page_index": 1, "viewing_time": 1437}], "rt": 30033, "trial_id": "mouselab_instructions_2_control", "trial_type": "instructions", "trial_index": 18, "time_elapsed": 1022006, "internal_node_id": "0.0-2.2-3.2"}}, {"uniqueid": "w64273145:a18587762", "current_trial": 19, "dateTime": 1691160770124, "trialdata": {"rt": 40407, "response": {"Q0": "The cost for clicking on nodes may vary between nodes.", "Q1": "The better I perform the higher my bonus will be.", "Q2": "No, the amount of cash at each node of the web may be different each time.", "Q3": "To get the highest total score.", "Q4": "Only before moving the spider.", "Q5": "3 seconds"}, "question_order": [0, 1, 2, 3, 4, 5], "correct": {"Q0": "The cost for clicking on nodes may vary between nodes.", "Q1": "The better I perform the higher my bonus will be.", "Q2": "No, the amount of cash at each node of the web may be different each time.", "Q3": "To get the highest total score.", "Q4": "Only before moving the spider.", "Q5": "3 seconds"}, "trial_id": "mouselab_quiz_control", "trial_type": "survey-multi-choice", "trial_index": 19, "time_elapsed": 1062417, "internal_node_id": "0.0-2.2-4.2"}}, {"uniqueid": "w64273145:a18587762", "current_trial": 20, "dateTime": 1691160777844, "trialdata": {"rt": 7708, "stimulus": "\n<h1> Get ready to start the game! </h1>\n\nThank you for reading the instructions. Get ready start with the 40 rounds of this game.\n<br><br>\nIf you need to take a break, feel free to take one after the end of a round, before continuing to the next one.\n<br><br>\nRemember, the more money the spider gets, the bigger your bonus will be!\n<br><br>\n<div style='text-align: center;'>Press <code>space</code> to begin.</div>\n\n<br><br>\n(If, at any point, the <code>space</code> key does not take you to the next page, click once on the text and try again.)", "response": " ", "trial_id": "mdp_ready", "trial_type": "html-keyboard-response", "trial_index": 20, "time_elapsed": 1070137, "internal_node_id": "0.0-4.0-0.0"}}, {"uniqueid": "w64273145:a18587762", "current_trial": 21, "dateTime": 1691160805673, "trialdata": {"revealed_states": [], "clicked_states": ["12", "13", "14", "19", "20", "15", "18", "16", "17"], "num_clicks_accrued": [0, 0, 0, 0, 0, 0, 0, 0, 0, 0, 0, 0, 0], "stateRewards": ["", 1, 3, 3, -10, 52, 68, 59, 12, 7, 49, 21, -2, -3, -4, -2, -2, 63, 63, -4, 44, 43, -76, -2, -3, -6, 13, 48, 36, 12, -5, -36, -33, -11], "withholdReward": false, "trial_id": "mdp_trial_1", "block": "test", "trialIndex": 6, "score": 39.4, "costs": -12.600000000000001, "simulationMode": [null, null, null, null, null], "rewards": [-2, -3, -4, -2, 63], "path": ["0", "0", "12", "13", "14", "15", "17"], "rt": [19938, 101, 41, 497, 77], "actions": ["right", "right", "right", "up", "right"], "actionTimes": [22855, 23475, 24032, 25040, 25635], "queries": {"click": {"state": {"target": ["12", "13", "14", "19", "20", "15", "18", "16", "17"], "time": [3718, 5713, 7722, 9650, 11735, 13777, 15852, 18243, 20678]}, "edge": {"target": [], "time": []}}, "mouseover": {"state": {"target": ["12", "13", "14", "19", "20", "15", "18", "16", "15", "15", "17"], "time": [3457, 4424, 6156, 8437, 11291, 12714, 15513, 17094, 18991, 20244, 20408]}, "edge": {"target": [], "time": []}}, "mouseout": {"state": {"target": ["0", "12", "13", "14", "19", "20", "15", "18", "16", "15", "15", "17", "14", "22"], "time": [3395, 4234, 6056, 8403, 11018, 12517, 15334, 16546, 18925, 19131, 20258, 22357, 26574, 26616]}, "edge": {"target": [], "time": []}}}, "displayed_time": "26.16", "trialTime": 27601, "trial_type": "mouselab-mdp", "trial_index": 21, "time_elapsed": 1097965, "internal_node_id": "0.0-4.0-1.0-0.0"}}, {"uniqueid": "w64273145:a18587762", "current_trial": 22, "dateTime": 1691160826686, "trialdata": {"revealed_states": [], "clicked_states": ["23", "24", "25", "30", "33"], "num_clicks_accrued": [0, 0, 0, 0, 0, 0, 0, 0, 0, 0, 0, 0, 0], "stateRewards": ["", 1, 4, 7, -16, -84, -6, -46, -12, -7, -49, -26, -1, 2, -4, 2, 22, 37, -64, 1, 88, -13, -10, 1, -4, -2, 5, 2, -10, -34, 9, 66, 55, 38], "withholdReward": false, "trial_id": "mdp_trial_2", "block": "test", "trialIndex": 7, "score": 35, "costs": -7, "simulationMode": [null, null, null, null, null], "rewards": [1, -4, -2, 9, 38], "path": ["0", "0", "23", "24", "25", "30", "33"], "rt": [14137, 335, 18, 351, 614], "actions": ["left", "left", "left", "down", "left"], "actionTimes": [15680, 16528, 17058, 17937, 19071], "queries": {"click": {"state": {"target": ["23", "24", "25", "30", "33"], "time": [2301, 4840, 7649, 9850, 12061]}, "edge": {"target": [], "time": []}}, "mouseover": {"state": {"target": ["23", "24", "25", "25", "30", "33", "24", "25", "30"], "time": [2100, 2732, 5315, 5732, 8861, 11000, 13106, 14074, 14473]}, "edge": {"target": [], "time": []}}, "mouseout": {"state": {"target": ["0", "23", "24", "25", "25", "30", "33", "30", "24", "25", "30", "31"], "time": [1900, 2701, 5281, 5495, 8163, 10978, 12757, 12892, 13190, 14189, 15106, 19932]}, "edge": {"target": [], "time": []}}}, "displayed_time": "19.59", "trialTime": 20816, "trial_type": "mouselab-mdp", "trial_index": 22, "time_elapsed": 1118978, "internal_node_id": "0.0-4.0-1.0-1.0"}}, {"uniqueid": "w64273145:a18587762", "current_trial": 23, "dateTime": 1691160847919, "trialdata": {"revealed_states": [], "clicked_states": ["1", "2", "3", "8", "9", "11"], "num_clicks_accrued": [0, 0, 0, 0, 0, 0, 0, 0, 0, 0, 0, 0, 0], "stateRewards": ["", -1, 3, 1, -7, 56, 76, 57, 3, 11, -9, 14, 1, -2, 2, 8, -77, -3, 79, -5, 88, 24, -66, -2, -1, 7, -7, -30, 14, -76, 11, -36, 28, -6], "withholdReward": false, "trial_id": "mdp_trial_3", "block": "test", "trialIndex": 8, "score": 11.6, "costs": -8.4, "simulationMode": [null, null, null, null, null], "rewards": [-1, 3, 1, 3, 14], "path": ["0", "0", "1", "2", "3", "8", "11"], "rt": [13562, 138, 284, 321, 324], "actions": ["up", "up", "up", "left", "left"], "actionTimes": [16291, 16948, 17742, 18576, 19414], "queries": {"click": {"state": {"target": ["1", "2", "3", "8", "9", "11"], "time": [3726, 5649, 7736, 9637, 11567, 13695]}, "edge": {"target": [], "time": []}}, "mouseover": {"state": {"target": ["0", "0", "1", "2", "3", "8", "9", "11", "3"], "time": [2831, 3102, 3482, 3947, 6564, 8362, 10009, 12775, 14274]}, "edge": {"target": [], "time": []}}, "mouseout": {"state": {"target": ["0", "0", "0", "1", "2", "3", "8", "9", "8", "11", "8", "3"], "time": [2498, 2916, 3148, 3866, 6330, 8295, 9943, 12056, 12709, 13768, 14175, 14373]}, "edge": {"target": [], "time": []}}}, "displayed_time": "19.94", "trialTime": 21033, "trial_type": "mouselab-mdp", "trial_index": 23, "time_elapsed": 1140211, "internal_node_id": "0.0-4.0-1.0-2.0"}}, {"uniqueid": "w64273145:a18587762", "current_trial": 24, "dateTime": 1691160868992, "trialdata": {"revealed_states": [], "clicked_states": ["1", "2", "3", "4", "7", "6", "5"], "num_clicks_accrued": [0, 0, 0, 0, 0, 0, 0, 0, 0, 0, 0, 0, 0], "stateRewards": ["", -1, -2, -1, -10, -57, 73, -72, -16, 75, -14, -46, -2, -3, -7, -1, -61, -60, 76, -4, 50, 4, 14, 2, 2, -7, 12, -65, -32, 15, -8, -76, -25, -61], "withholdReward": false, "trial_id": "mdp_trial_4", "block": "test", "trialIndex": 9, "score": 49.2, "costs": -9.8, "simulationMode": [null, null, null, null, null], "rewards": [-1, -2, -1, -10, 73], "path": ["0", "0", "1", "2", "3", "4", "6"], "rt": [15228, 186, 443, 136, 15], "actions": ["up", "up", "up", "right", "right"], "actionTimes": [16365, 17069, 18024, 18683, 19211], "queries": {"click": {"state": {"target": ["1", "2", "3", "4", "7", "6", "5"], "time": [2519, 4615, 6925, 8804, 10742, 12469, 14448]}, "edge": {"target": [], "time": []}}, "mouseover": {"state": {"target": ["12", "12", "1", "2", "3", "4", "7", "6", "5", "4", "7"], "time": [1606, 1995, 2172, 3017, 5670, 7687, 9234, 11498, 13095, 15047, 15896]}, "edge": {"target": [], "time": []}}, "mouseout": {"state": {"target": ["0", "12", "12", "1", "2", "3", "4", "7", "6", "5", "4", "7", "12"], "time": [1559, 1744, 2107, 2578, 5404, 7551, 9103, 11231, 12931, 14868, 15096, 15929, 20205]}, "edge": {"target": [], "time": []}}}, "displayed_time": "19.75", "trialTime": 20868, "trial_type": "mouselab-mdp", "trial_index": 24, "time_elapsed": 1161284, "internal_node_id": "0.0-4.0-1.0-3.0"}}, {"uniqueid": "w64273145:a18587762", "current_trial": 25, "dateTime": 1691160892012, "trialdata": {"revealed_states": [], "clicked_states": ["23", "24", "25", "26", "29", "27", "28"], "num_clicks_accrued": [0, 0, 0, 0, 0, 0, 0, 0, 0, 0, 0, 0, 0], "stateRewards": ["", 2, 4, -5, 7, 81, 35, 6, 11, 14, -72, 42, -1, 2, 3, -7, -77, -44, -40, -15, -85, 51, -32, -2, -1, -5, 7, -74, 47, 52, 16, -49, 48, -46], "withholdReward": false, "trial_id": "mdp_trial_5", "block": "test", "trialIndex": 10, "score": 41.2, "costs": -9.8, "simulationMode": [null, null, null, null, null], "rewards": [-2, -1, -5, 7, 52], "path": ["0", "0", "23", "24", "25", "26", "29"], "rt": [15954, 2, 143, 281, 154], "actions": ["left", "left", "left", "up", "left"], "actionTimes": [18859, 19384, 20054, 20848, 21519], "queries": {"click": {"state": {"target": ["23", "24", "25", "26", "29", "27", "28"], "time": [3834, 5791, 7762, 9723, 11419, 14111, 16165]}, "edge": {"target": [], "time": []}}, "mouseover": {"state": {"target": ["23", "24", "24", "25", "26", "29", "27", "28"], "time": [3659, 4246, 4657, 6209, 8522, 10271, 12084, 14685]}, "edge": {"target": [], "time": []}}, "mouseout": {"state": {"target": ["0", "23", "24", "24", "25", "26", "29", "27"], "time": [3445, 4209, 4274, 6140, 8321, 10138, 12001, 14499]}, "edge": {"target": [], "time": []}}}, "displayed_time": "22.03", "trialTime": 22810, "trial_type": "mouselab-mdp", "trial_index": 25, "time_elapsed": 1184304, "internal_node_id": "0.0-4.0-1.0-4.0"}}, {"uniqueid": "w64273145:a18587762", "current_trial": 26, "dateTime": 1691160914389, "trialdata": {"revealed_states": [], "clicked_states": ["1", "2", "3", "4", "7", "5", "6"], "num_clicks_accrued": [0, 0, 0, 0, 0, 0, 0, 0, 0, 0, 0, 0, 0], "stateRewards": ["", 1, 1, 4, 11, 83, -66, 18, -16, -23, 5, 25, 1, -3, 1, -12, 18, 24, -86, -11, -64, 36, 40, 2, 1, -6, 13, 55, 29, 72, -2, 81, -72, -41], "withholdReward": false, "trial_id": "mdp_trial_6", "block": "test", "trialIndex": 11, "score": 90.2, "costs": -9.8, "simulationMode": [null, null, null, null, null], "rewards": [1, 1, 4, 11, 83], "path": ["0", "0", "1", "2", "3", "4", "5"], "rt": [16075, 2, 369, 392, 86], "actions": ["up", "up", "up", "right", "up"], "actionTimes": [17801, 18337, 19235, 20141, 20751], "queries": {"click": {"state": {"target": ["1", "2", "3", "4", "7", "5", "6"], "time": [3100, 4825, 6986, 8953, 10829, 13700, 15813]}, "edge": {"target": [], "time": []}}, "mouseover": {"state": {"target": ["12", "1", "2", "3", "4", "7", "6", "5", "6", "18"], "time": [2512, 2880, 3458, 5240, 7524, 9419, 13165, 13417, 14550, 17395]}, "edge": {"target": [], "time": []}}, "mouseout": {"state": {"target": ["28", "23", "0", "12", "1", "2", "3", "4", "7", "6", "5", "6", "18", "12"], "time": [82, 382, 2342, 2725, 3375, 5159, 7404, 9304, 11767, 13217, 14269, 16365, 17745, 21678]}, "edge": {"target": [], "time": []}}}, "displayed_time": "21.27", "trialTime": 22094, "trial_type": "mouselab-mdp", "trial_index": 26, "time_elapsed": 1206682, "internal_node_id": "0.0-4.0-1.0-5.0"}}, {"uniqueid": "w64273145:a18587762", "current_trial": 27, "dateTime": 1691160935554, "trialdata": {"revealed_states": [], "clicked_states": ["23", "24", "25", "26", "28", "27", "29"], "num_clicks_accrued": [0, 0, 0, 0, 0, 0, 0, 0, 0, 0, 0, 0, 0], "stateRewards": ["", 1, -3, -6, -5, 47, 80, -29, 11, -71, 10, -29, -2, 3, -6, 12, 2, -78, -6, 8, 34, -16, -5, -1, 3, 3, -13, 84, -36, -62, -3, -27, 66, 15], "withholdReward": false, "trial_id": "mdp_trial_7", "block": "test", "trialIndex": 12, "score": 66.2, "costs": -9.8, "simulationMode": [null, null, null, null, null], "rewards": [-1, 3, 3, -13, 84], "path": ["0", "0", "23", "24", "25", "26", "27"], "rt": [14276, 169, 108, 126, 162], "actions": ["left", "left", "left", "up", "up"], "actionTimes": [15424, 16115, 16738, 17388, 18073], "queries": {"click": {"state": {"target": ["23", "24", "25", "26", "28", "27", "29"], "time": [2237, 3958, 5893, 7751, 9644, 11534, 13550]}, "edge": {"target": [], "time": []}}, "mouseover": {"state": {"target": ["23", "24", "25", "26", "28", "27", "29", "24"], "time": [1691, 2537, 4621, 6335, 8232, 10513, 12047, 15177]}, "edge": {"target": [], "time": []}}, "mouseout": {"state": {"target": ["0", "23", "24", "25", "26", "28", "26", "27", "29", "24", "23", "0"], "time": [523, 2503, 4420, 6183, 8082, 10016, 10146, 11829, 14064, 18741, 18823, 19456]}, "edge": {"target": [], "time": []}}}, "displayed_time": "18.60", "trialTime": 20958, "trial_type": "mouselab-mdp", "trial_index": 27, "time_elapsed": 1227847, "internal_node_id": "0.0-4.0-1.0-6.0"}}, {"uniqueid": "w64273145:a18587762", "current_trial": 28, "dateTime": 1691160957536, "trialdata": {"revealed_states": [], "clicked_states": ["12", "13", "14", "15", "16", "17", "18"], "num_clicks_accrued": [0, 0, 0, 0, 0, 0, 0, 0, 0, 0, 0, 0, 0], "stateRewards": ["", -1, -4, -6, -15, 21, -67, -63, 9, 51, 69, -14, -1, 3, 8, -8, 39, 72, 63, 15, 19, 47, 15, 1, 4, 5, 16, -18, 34, 35, -14, -80, 40, 1], "withholdReward": false, "trial_id": "mdp_trial_8", "block": "test", "trialIndex": 13, "score": 64.2, "costs": -9.8, "simulationMode": [null, null, null, null, null], "rewards": [-1, 3, 8, -8, 72], "path": ["0", "0", "12", "13", "14", "15", "17"], "rt": [16401, 179, 69, 674, 366], "actions": ["right", "right", "right", "up", "right"], "actionTimes": [17128, 17825, 18414, 19599, 20489], "queries": {"click": {"state": {"target": ["12", "13", "14", "15", "16", "17", "18"], "time": [2009, 4949, 6875, 8805, 10635, 13065, 15044]}, "edge": {"target": [], "time": []}}, "mouseover": {"state": {"target": ["12", "13", "14", "13", "14", "15", "16", "17", "15", "18", "15"], "time": [1422, 2573, 4041, 4803, 5319, 7302, 9337, 12779, 13644, 13894, 15608]}, "edge": {"target": [], "time": []}}, "mouseout": {"state": {"target": ["0", "12", "13", "14", "13", "14", "15", "16", "17", "15", "18", "15", "14"], "time": [1357, 2322, 3874, 4759, 5239, 7150, 9267, 12467, 13611, 13713, 15576, 16790, 21347]}, "edge": {"target": [], "time": []}}}, "displayed_time": "21.01", "trialTime": 21775, "trial_type": "mouselab-mdp", "trial_index": 28, "time_elapsed": 1249828, "internal_node_id": "0.0-4.0-1.0-7.0"}}, {"uniqueid": "w64273145:a18587762", "current_trial": 29, "dateTime": 1691160986767, "trialdata": {"revealed_states": [], "clicked_states": ["23", "24", "25", "26", "28", "27", "29", "30", "33", "31"], "num_clicks_accrued": [0, 0, 0, 0, 0, 0, 0, 0, 0, 0, 0, 0, 0], "stateRewards": ["", 2, -3, -5, 5, 11, -9, -33, 6, 67, 6, -30, -1, -2, -6, 13, 55, 13, 72, -14, 75, 21, -66, -2, -4, 6, 15, -1, -35, 60, 2, 51, -73, 12], "withholdReward": false, "trial_id": "mdp_trial_9", "block": "test", "trialIndex": 14, "score": 61, "costs": -14.000000000000002, "simulationMode": [null, null, null, null, null], "rewards": [-2, -4, 6, 15, 60], "path": ["0", "0", "23", "24", "25", "26", "29"], "rt": [23886, 286, 280, 155, 3], "actions": ["left", "left", "left", "up", "left"], "actionTimes": [25170, 25974, 26765, 27455, 27969], "queries": {"click": {"state": {"target": ["23", "24", "25", "26", "28", "27", "29", "30", "33", "31"], "time": [2588, 4574, 6471, 8342, 10018, 11976, 13883, 17753, 20297, 22243]}, "edge": {"target": [], "time": []}}, "mouseover": {"state": {"target": ["23", "24", "25", "26", "28", "27", "29", "25", "30", "30", "33", "33", "31"], "time": [1953, 4441, 5199, 6997, 8798, 11276, 12861, 14390, 14691, 17588, 18323, 20103, 20785]}, "edge": {"target": [], "time": []}}, "mouseout": {"state": {"target": ["0", "23", "24", "25", "26", "28", "26", "27", "29", "25", "30", "30", "33", "30", "30", "33", "30", "31"], "time": [1755, 3900, 5133, 6898, 8666, 10793, 10928, 12461, 14242, 14423, 16022, 18153, 19674, 19754, 20068, 20637, 20719, 28550]}, "edge": {"target": [], "time": []}}}, "displayed_time": "28.50", "trialTime": 29007, "trial_type": "mouselab-mdp", "trial_index": 29, "time_elapsed": 1279059, "internal_node_id": "0.0-4.0-1.0-8.0"}}, {"uniqueid": "w64273145:a18587762", "current_trial": 30, "dateTime": 1691161014608, "trialdata": {"revealed_states": [], "clicked_states": ["1", "2", "3", "4", "7", "5", "6", "8", "9", "11"], "num_clicks_accrued": [0, 0, 0, 0, 0, 0, 0, 0, 0, 0, 0, 0, 0], "stateRewards": ["", 2, -3, 5, -14, -63, -9, -24, -11, -54, -43, 68, 2, -2, -4, 7, -64, 30, 47, 12, -74, 11, 86, 1, -3, 3, 10, -71, -42, -52, -1, -29, -16, 69], "withholdReward": false, "trial_id": "mdp_trial_10", "block": "test", "trialIndex": 15, "score": 47, "costs": -14.000000000000002, "simulationMode": [null, null, null, null, null], "rewards": [2, -3, 5, -11, 68], "path": ["0", "0", "1", "2", "3", "8", "11"], "rt": [22752, 79, 120, 50, 172], "actions": ["up", "up", "up", "left", "left"], "actionTimes": [23865, 24462, 25099, 25663, 26365], "queries": {"click": {"state": {"target": ["1", "2", "3", "4", "7", "5", "6", "8", "9", "11"], "time": [2232, 3917, 6266, 8287, 10983, 12936, 14949, 16874, 18738, 20800]}, "edge": {"target": [], "time": []}}, "mouseover": {"state": {"target": ["23", "1", "2", "2", "3", "4", "7", "5", "6", "4", "3", "8", "8", "9", "11", "10"], "time": [1631, 2014, 2495, 2829, 4576, 6840, 8791, 11920, 13702, 15433, 15483, 15620, 15969, 17351, 19498, 21430]}, "edge": {"target": [], "time": []}}, "mouseout": {"state": {"target": ["0", "23", "1", "2", "2", "3", "4", "7", "4", "5", "6", "4", "3", "8", "8", "9", "8", "11", "10", "1"], "time": [1599, 1814, 2413, 2579, 4461, 6708, 8675, 11521, 11621, 13468, 15416, 15467, 15504, 15700, 17166, 19133, 19365, 21279, 27341, 27460]}, "edge": {"target": [], "time": []}}}, "displayed_time": "26.87", "trialTime": 27603, "trial_type": "mouselab-mdp", "trial_index": 30, "time_elapsed": 1306900, "internal_node_id": "0.0-4.0-1.0-9.0"}}, {"uniqueid": "w64273145:a18587762", "current_trial": 31, "dateTime": 1691161039026, "trialdata": {"revealed_states": [], "clicked_states": ["23", "24", "25", "30", "31", "33", "32"], "num_clicks_accrued": [0, 0, 0, 0, 0, 0, 0, 0, 0, 0, 0, 0, 0], "stateRewards": ["", -1, -1, 4, -16, -75, 81, -51, -7, -84, 73, -30, -2, 1, -3, -16, -77, 33, 14, 1, 45, 87, -66, 2, 2, -5, -7, -19, -17, 79, -3, 8, 49, 47], "withholdReward": false, "trial_id": "mdp_trial_11", "block": "test", "trialIndex": 16, "score": 35.2, "costs": -9.8, "simulationMode": [null, null, null, null, null], "rewards": [2, 2, -5, -3, 49], "path": ["0", "0", "23", "24", "25", "30", "32"], "rt": [18569, 51, 32, 198, 92], "actions": ["left", "left", "left", "down", "down"], "actionTimes": [20338, 20905, 21467, 22202, 22808], "queries": {"click": {"state": {"target": ["23", "24", "25", "30", "31", "33", "32"], "time": [2424, 4586, 7511, 9957, 12449, 14733, 17168]}, "edge": {"target": [], "time": []}}, "mouseover": {"state": {"target": ["0", "23", "24", "25", "25", "30", "31", "31", "33", "32"], "time": [1861, 2115, 3087, 5013, 5431, 8594, 10408, 10875, 13471, 15586]}, "edge": {"target": [], "time": []}}, "mouseout": {"state": {"target": ["0", "0", "23", "24", "25", "25", "30", "31", "31", "33", "32"], "time": [1499, 1916, 2781, 4996, 5164, 8392, 10376, 10560, 13271, 15237, 19348]}, "edge": {"target": [], "time": []}}}, "displayed_time": "23.32", "trialTime": 24182, "trial_type": "mouselab-mdp", "trial_index": 31, "time_elapsed": 1331318, "internal_node_id": "0.0-4.0-1.0-10.0"}}, {"uniqueid": "w64273145:a18587762", "current_trial": 32, "dateTime": 1691161060497, "trialdata": {"revealed_states": [], "clicked_states": ["12"], "num_clicks_accrued": [0, 0, 0, 0, 0, 0, 0, 0, 0, 0, 0, 0, 0], "stateRewards": ["", 2, -2, 7, -11, -76, -65, -23, 16, -58, 30, 81, 1, 2, 7, 14, 9, 55, -2, 6, 11, -15, 31, -1, -1, -3, 2, 15, 2, 46, 15, 18, 45, -34], "withholdReward": false, "trial_id": "mdp_trial_12", "block": "test", "trialIndex": 17, "score": -0.40000000000000036, "costs": -1.4, "simulationMode": [null, null, null, null, null], "rewards": [1, 2, 7, 6, -15], "path": ["0", "0", "12", "13", "14", "19", "21"], "rt": [13057, 173, 169, 70, 150], "actions": ["right", "right", "right", "down", "down"], "actionTimes": [17152, 17845, 18522, 19107, 19769], "queries": {"click": {"state": {"target": ["12"], "time": [5993]}, "edge": {"target": [], "time": []}}, "mouseover": {"state": {"target": ["12", "13", "13", "12", "13", "18", "18", "13", "13", "12"], "time": [4544, 4679, 5178, 5712, 6360, 13938, 14191, 14320, 14493, 15119]}, "edge": {"target": [], "time": []}}, "mouseout": {"state": {"target": ["0", "12", "13", "13", "12", "13", "18", "18", "13", "13"], "time": [4499, 4613, 5045, 5695, 6327, 13585, 13956, 14202, 14352, 15087]}, "edge": {"target": [], "time": []}}}, "displayed_time": "20.28", "trialTime": 21239, "trial_type": "mouselab-mdp", "trial_index": 32, "time_elapsed": 1352789, "internal_node_id": "0.0-4.0-1.0-11.0"}}, {"uniqueid": "w64273145:a18587762", "current_trial": 33, "dateTime": 1691161131599, "trialdata": {"revealed_states": [], "clicked_states": ["1", "2", "3", "4", "7", "5"], "num_clicks_accrued": [0, 0, 0, 0, 0, 0, 0, 0, 0, 0, 0, 0, 0], "stateRewards": ["", -1, -3, -7, -4, -85, -70, 79, 8, 84, -66, 42, 2, -2, -3, -16, -54, -66, 68, -3, 21, -14, 7, -2, -1, -3, -8, 75, 80, 86, -7, -84, 73, -16], "withholdReward": false, "trial_id": "mdp_trial_13", "block": "test", "trialIndex": 18, "score": 55.6, "costs": -8.4, "simulationMode": [null, null, null, null, null], "rewards": [-1, -3, -7, -4, 79], "path": ["0", "0", "1", "2", "3", "4", "7"], "rt": [15054, 195, 105, 117, 33], "actions": ["up", "up", "up", "right", "down"], "actionTimes": [66975, 67689, 68315, 68943, 69491], "queries": {"click": {"state": {"target": ["1", "2", "3", "4", "7", "5"], "time": [54397, 56124, 58419, 60268, 62333, 64250]}, "edge": {"target": [], "time": []}}, "mouseover": {"state": {"target": ["0", "1", "2", "3", "4", "7", "5", "4"], "time": [51953, 52720, 55152, 57165, 59181, 60946, 63259, 65175]}, "edge": {"target": [], "time": []}}, "mouseout": {"state": {"target": ["12", "4", "6", "4", "2", "1", "0", "1", "2", "3", "4", "7", "4", "5", "4", "7"], "time": [14916, 15221, 45494, 45593, 50871, 51104, 52589, 54903, 57083, 59081, 60812, 62895, 63068, 65126, 65209, 70604]}, "edge": {"target": [], "time": []}}}, "displayed_time": "70.01", "trialTime": 70849, "trial_type": "mouselab-mdp", "trial_index": 33, "time_elapsed": 1423891, "internal_node_id": "0.0-4.0-1.0-12.0"}}, {"uniqueid": "w64273145:a18587762", "current_trial": 34, "dateTime": 1691161153408, "trialdata": {"revealed_states": [], "clicked_states": ["12", "13", "14", "19", "20", "22", "21"], "num_clicks_accrued": [0, 0, 0, 0, 0, 0, 0, 0, 0, 0, 0, 0, 0], "stateRewards": ["", -1, 2, -7, -12, -62, 12, -13, 5, 77, -71, 83, 1, -4, 7, 15, -42, -87, -4, 5, -25, 44, 88, -1, 4, -5, -8, 14, 51, 8, -5, 83, -24, -19], "withholdReward": false, "trial_id": "mdp_trial_14", "block": "test", "trialIndex": 19, "score": 87.2, "costs": -9.8, "simulationMode": [null, null, null, null, null], "rewards": [1, -4, 7, 5, 88], "path": ["0", "0", "12", "13", "14", "19", "22"], "rt": [14623, 7, 967, 478, 396], "actions": ["right", "right", "right", "down", "left"], "actionTimes": [16281, 16801, 18292, 19287, 20203], "queries": {"click": {"state": {"target": ["12", "13", "14", "19", "20", "22", "21"], "time": [2516, 4222, 5990, 8069, 10231, 12165, 14381]}, "edge": {"target": [], "time": []}}, "mouseover": {"state": {"target": ["12", "13", "12", "13", "14", "19", "20", "22", "21", "21"], "time": [2022, 2070, 2387, 2952, 5665, 6820, 8686, 11130, 12693, 13107]}, "edge": {"target": [], "time": []}}, "mouseout": {"state": {"target": ["12", "12", "13", "12", "13", "14", "19", "20", "22", "21", "21"], "time": [1203, 2053, 2288, 2869, 5451, 6615, 8614, 10778, 12644, 12793, 15872]}, "edge": {"target": [], "time": []}}}, "displayed_time": "20.73", "trialTime": 21558, "trial_type": "mouselab-mdp", "trial_index": 34, "time_elapsed": 1445699, "internal_node_id": "0.0-4.0-1.0-13.0"}}, {"uniqueid": "w64273145:a18587762", "current_trial": 35, "dateTime": 1691161173943, "trialdata": {"revealed_states": [], "clicked_states": ["12", "13", "14", "15", "17", "16", "18"], "num_clicks_accrued": [0, 0, 0, 0, 0, 0, 0, 0, 0, 0, 0, 0, 0], "stateRewards": ["", -2, -4, -6, 12, -58, -70, -80, 2, 16, -88, -62, 1, 2, -5, 11, 77, -35, -44, -5, 18, -83, 87, 1, -3, -5, 13, -44, -21, -86, 10, -52, 8, 29], "withholdReward": false, "trial_id": "mdp_trial_15", "block": "test", "trialIndex": 20, "score": 76.2, "costs": -9.8, "simulationMode": [null, null, null, null, null], "rewards": [1, 2, -5, 11, 77], "path": ["0", "0", "12", "13", "14", "15", "16"], "rt": [15361, 54, 165, 346, 140], "actions": ["right", "right", "right", "up", "up"], "actionTimes": [16584, 17161, 17855, 18718, 19379], "queries": {"click": {"state": {"target": ["12", "13", "14", "15", "17", "16", "18"], "time": [2259, 4542, 6927, 8888, 10832, 12769, 14729]}, "edge": {"target": [], "time": []}}, "mouseover": {"state": {"target": ["13", "12", "13", "14", "15", "17", "16", "18", "15"], "time": [1886, 1967, 2900, 6630, 8095, 9676, 11858, 13290, 15238]}, "edge": {"target": [], "time": []}}, "mouseout": {"state": {"target": ["0", "13", "12", "13", "14", "15", "17", "16", "16", "18", "15"], "time": [1451, 1939, 2715, 6561, 7827, 9611, 11542, 12837, 13191, 15189, 16088]}, "edge": {"target": [], "time": []}}}, "displayed_time": "19.89", "trialTime": 20261, "trial_type": "mouselab-mdp", "trial_index": 35, "time_elapsed": 1466234, "internal_node_id": "0.0-4.0-1.0-14.0"}}, {"uniqueid": "w64273145:a18587762", "current_trial": 36, "dateTime": 1691161194771, "trialdata": {"revealed_states": [], "clicked_states": ["1", "2", "3", "4", "5", "6"], "num_clicks_accrued": [0, 0, 0, 0, 0, 0, 0, 0, 0, 0, 0, 0, 0], "stateRewards": ["", 1, -1, 8, 4, 76, -33, -17, -3, -1, -54, -74, -2, 2, -5, 13, -51, 63, 83, 1, 84, 29, -36, 2, -1, 7, -12, -10, -44, -43, -14, 8, -69, 19], "withholdReward": false, "trial_id": "mdp_trial_16", "block": "test", "trialIndex": 21, "score": 79.6, "costs": -8.4, "simulationMode": [null, null, null, null, null], "rewards": [1, -1, 8, 4, 76], "path": ["0", "0", "1", "2", "3", "4", "5"], "rt": [13355, 156, 174, 319, 889], "actions": ["up", "up", "up", "right", "up"], "actionTimes": [14642, 15321, 16021, 16851, 18249], "queries": {"click": {"state": {"target": ["1", "2", "3", "4", "5", "6"], "time": [2816, 4500, 6605, 8283, 10177, 12229]}, "edge": {"target": [], "time": []}}, "mouseover": {"state": {"target": ["0", "1", "2", "2", "3", "4", "5", "6"], "time": [1460, 2355, 3189, 4139, 5172, 7585, 9515, 11804]}, "edge": {"target": [], "time": []}}, "mouseout": {"state": {"target": ["20", "21", "0", "0", "1", "2", "2", "3", "4", "5", "6"], "time": [193, 241, 1024, 1952, 2912, 3888, 4887, 7384, 9383, 11180, 13530]}, "edge": {"target": [], "time": []}}}, "displayed_time": "18.76", "trialTime": 20600, "trial_type": "mouselab-mdp", "trial_index": 36, "time_elapsed": 1487064, "internal_node_id": "0.0-4.0-1.0-15.0"}}, {"uniqueid": "w64273145:a18587762", "current_trial": 37, "dateTime": 1691161222002, "trialdata": {"revealed_states": [], "clicked_states": ["23", "24", "25", "30", "33", "32", "31", "26", "28"], "num_clicks_accrued": [0, 0, 0, 0, 0, 0, 0, 0, 0, 0, 0, 0, 0], "stateRewards": ["", -2, 1, -7, 9, 8, 25, 61, -7, -17, 69, -81, 1, 4, -4, -11, 16, 67, 44, 3, 6, -45, -54, -2, 3, 6, -11, -15, 32, -47, 3, -39, -6, -88], "withholdReward": false, "trial_id": "mdp_trial_17", "block": "test", "trialIndex": 22, "score": 15.399999999999999, "costs": -12.600000000000001, "simulationMode": [null, null, null, null, null], "rewards": [-2, 3, 6, -11, 32], "path": ["0", "0", "23", "24", "25", "26", "28"], "rt": [21234, 72, 335, 265, 577], "actions": ["left", "left", "left", "up", "right"], "actionTimes": [22309, 22900, 23746, 24526, 25620], "queries": {"click": {"state": {"target": ["23", "24", "25", "30", "33", "32", "31", "26", "28"], "time": [2153, 4181, 6206, 8142, 10087, 12088, 13986, 17077, 19250]}, "edge": {"target": [], "time": []}}, "mouseover": {"state": {"target": ["23", "23", "24", "25", "30", "33", "32", "31", "24", "26", "28", "29"], "time": [1585, 1910, 2694, 5075, 6807, 8652, 11801, 12601, 16662, 16849, 19063, 20277]}, "edge": {"target": [], "time": []}}, "mouseout": {"state": {"target": ["0", "23", "23", "24", "25", "30", "33", "32", "31", "24", "26", "28", "26", "29", "32"], "time": [1580, 1628, 2426, 4658, 6607, 8620, 11286, 12503, 16549, 16678, 18831, 19926, 20144, 21524, 26690]}, "edge": {"target": [], "time": []}}}, "displayed_time": "26.14", "trialTime": 27003, "trial_type": "mouselab-mdp", "trial_index": 37, "time_elapsed": 1514294, "internal_node_id": "0.0-4.0-1.0-16.0"}}, {"uniqueid": "w64273145:a18587762", "current_trial": 38, "dateTime": 1691161238912, "trialdata": {"revealed_states": [], "clicked_states": [], "num_clicks_accrued": [0, 0, 0, 0, 0, 0, 0, 0, 0, 0, 0, 0, 0], "stateRewards": ["", -1, 1, -2, 5, 73, 15, 61, 8, 7, 38, 76, 2, 2, -4, -6, -6, -26, 43, -5, -45, -85, -35, -2, 1, -4, 15, -10, 69, 72, -11, 84, -49, -38], "withholdReward": false, "trial_id": "mdp_trial_18", "block": "test", "trialIndex": 23, "score": -54, "costs": 0, "simulationMode": [null, null, null, null, null], "rewards": [-2, 1, -4, -11, -38], "path": ["0", "0", "23", "24", "25", "30", "33"], "rt": [6601, 96, 79, 163, 144], "actions": ["left", "left", "left", "down", "left"], "actionTimes": [7741, 8357, 8955, 9639, 10303], "queries": {"click": {"state": {"target": [], "time": []}, "edge": {"target": [], "time": []}}, "mouseover": {"state": {"target": ["0", "23"], "time": [3844, 4761]}, "edge": {"target": [], "time": []}}, "mouseout": {"state": {"target": ["0", "0", "0", "23", "31", "30", "33", "30"], "time": [696, 3512, 4478, 7274, 12054, 12121, 13135, 13306]}, "edge": {"target": [], "time": []}}}, "displayed_time": "15.14", "trialTime": 16641, "trial_type": "mouselab-mdp", "trial_index": 38, "time_elapsed": 1531204, "internal_node_id": "0.0-4.0-1.0-17.0"}}, {"uniqueid": "w64273145:a18587762", "current_trial": 39, "dateTime": 1691161268414, "trialdata": {"revealed_states": [], "clicked_states": ["1", "2", "3", "4", "7", "5", "6", "8", "9", "11", "10"], "num_clicks_accrued": [0, 0, 0, 0, 0, 0, 0, 0, 0, 0, 0, 0, 0], "stateRewards": ["", -2, -3, 4, 1, 33, -53, 15, 9, -12, 61, -6, -2, 4, 6, -11, 47, -43, -7, -11, 46, 23, -28, -1, -1, 3, -10, 11, 76, -76, 10, 18, -38, 87], "withholdReward": false, "trial_id": "mdp_trial_19", "block": "test", "trialIndex": 24, "score": 53.599999999999994, "costs": -15.400000000000002, "simulationMode": [null, null, null, null, null], "rewards": [-2, -3, 4, 9, 61], "path": ["0", "0", "1", "2", "3", "8", "10"], "rt": [23618, 200, 243, 408, 4], "actions": ["up", "up", "up", "left", "down"], "actionTimes": [24653, 25372, 26131, 27059, 27573], "queries": {"click": {"state": {"target": ["1", "2", "3", "4", "7", "5", "6", "8", "9", "11", "10"], "time": [2119, 3834, 5776, 7632, 9515, 11377, 13311, 15617, 17512, 19791, 21701]}, "edge": {"target": [], "time": []}}, "mouseover": {"state": {"target": ["1", "2", "3", "4", "7", "6", "5", "6", "3", "8", "9", "11", "10"], "time": [1742, 2607, 4505, 6251, 8206, 9998, 10632, 12032, 14395, 15428, 16177, 19559, 20474]}, "edge": {"target": [], "time": []}}, "mouseout": {"state": {"target": ["0", "1", "2", "3", "4", "7", "6", "5", "6", "3", "8", "9", "11", "10"], "time": [1508, 2373, 4354, 6136, 8067, 9883, 10331, 11715, 13763, 14712, 15977, 19407, 20374, 28884]}, "edge": {"target": [], "time": []}}}, "displayed_time": "28.10", "trialTime": 29270, "trial_type": "mouselab-mdp", "trial_index": 39, "time_elapsed": 1560706, "internal_node_id": "0.0-4.0-1.0-18.0"}}, {"uniqueid": "w64273145:a18587762", "current_trial": 40, "dateTime": 1691161290183, "trialdata": {"revealed_states": [], "clicked_states": ["1", "2", "3", "8", "9", "11", "10"], "num_clicks_accrued": [0, 0, 0, 0, 0, 0, 0, 0, 0, 0, 0, 0, 0], "stateRewards": ["", 1, 1, 6, -14, -40, 37, 16, -13, 33, -68, 49, 2, 4, 3, 6, 55, 27, 32, 10, -65, 20, -87, 2, 1, -6, -5, -42, 12, 29, -8, 16, 76, -33], "withholdReward": false, "trial_id": "mdp_trial_20", "block": "test", "trialIndex": 25, "score": 34.2, "costs": -9.8, "simulationMode": [null, null, null, null, null], "rewards": [1, 1, 6, -13, 49], "path": ["0", "0", "1", "2", "3", "8", "11"], "rt": [16535, 128, 107, 178, 230], "actions": ["up", "up", "up", "left", "left"], "actionTimes": [17695, 18339, 18964, 19654, 20388], "queries": {"click": {"state": {"target": ["1", "2", "3", "8", "9", "11", "10"], "time": [2703, 5046, 7060, 9222, 11274, 13309, 15761]}, "edge": {"target": [], "time": []}}, "mouseover": {"state": {"target": ["1", "2", "3", "8", "9", "10", "11", "10"], "time": [2488, 3518, 6551, 8398, 10929, 11960, 12743, 13975]}, "edge": {"target": [], "time": []}}, "mouseout": {"state": {"target": ["0", "1", "2", "3", "8", "9", "8", "10", "11"], "time": [2272, 3337, 6184, 8147, 10745, 11695, 11795, 12495, 13809]}, "edge": {"target": [], "time": []}}}, "displayed_time": "20.90", "trialTime": 21499, "trial_type": "mouselab-mdp", "trial_index": 40, "time_elapsed": 1582475, "internal_node_id": "0.0-4.0-1.0-19.0"}}, {"uniqueid": "w64273145:a18587762", "current_trial": 41, "dateTime": 1691161311489, "trialdata": {"revealed_states": [], "clicked_states": ["23", "24", "25", "30", "31", "32", "33"], "num_clicks_accrued": [0, 0, 0, 0, 0, 0, 0, 0, 0, 0, 0, 0, 0], "stateRewards": ["", 1, -1, 4, 5, -32, 18, 20, 6, -88, -74, 9, -2, 1, -2, -14, 34, -77, -38, -1, 80, -36, 73, 2, 3, -8, 10, -48, -73, -71, -11, -22, 20, 54], "withholdReward": false, "trial_id": "mdp_trial_21", "block": "test", "trialIndex": 26, "score": 30.2, "costs": -9.8, "simulationMode": [null, null, null, null, null], "rewards": [2, 3, -8, -11, 54], "path": ["0", "0", "23", "24", "25", "30", "33"], "rt": [15855, 210, 43, 87, 98], "actions": ["left", "left", "left", "down", "left"], "actionTimes": [17075, 17795, 18339, 18966, 19576], "queries": {"click": {"state": {"target": ["23", "24", "25", "30", "31", "32", "33"], "time": [2023, 3910, 6109, 8045, 10026, 12337, 14301]}, "edge": {"target": [], "time": []}}, "mouseover": {"state": {"target": ["0", "23", "24", "25", "30", "31", "32", "33", "30", "31"], "time": [1563, 1808, 2591, 4255, 6935, 8782, 11733, 13380, 15481, 15661]}, "edge": {"target": [], "time": []}}, "mouseout": {"state": {"target": ["10", "0", "23", "24", "25", "30", "31", "32", "33", "30", "31"], "time": [543, 1760, 2390, 4220, 6636, 8616, 11249, 13147, 15461, 15528, 15795]}, "edge": {"target": [], "time": []}}}, "displayed_time": "20.09", "trialTime": 21078, "trial_type": "mouselab-mdp", "trial_index": 41, "time_elapsed": 1603781, "internal_node_id": "0.0-4.0-1.0-20.0"}}, {"uniqueid": "w64273145:a18587762", "current_trial": 42, "dateTime": 1691161342012, "trialdata": {"revealed_states": [], "clicked_states": ["12", "13", "14", "15", "17", "16", "18", "19", "20", "21", "22"], "num_clicks_accrued": [0, 0, 0, 0, 0, 0, 0, 0, 0, 0, 0, 0, 0], "stateRewards": ["", 1, 1, -6, -2, 7, 77, 3, 16, -16, 66, 31, -1, 3, -8, -6, 33, -50, -48, 7, -60, -66, 36, 2, -3, 3, -7, -12, -61, -79, -4, 8, 74, -70], "withholdReward": false, "trial_id": "mdp_trial_22", "block": "test", "trialIndex": 27, "score": 21.599999999999998, "costs": -15.400000000000002, "simulationMode": [null, null, null, null, null], "rewards": [-1, 3, -8, 7, 36], "path": ["0", "0", "12", "13", "14", "19", "22"], "rt": [24241, 369, 676, 227, 400], "actions": ["right", "right", "right", "down", "left"], "actionTimes": [25157, 26032, 27222, 27955, 28877], "queries": {"click": {"state": {"target": ["12", "13", "14", "15", "17", "16", "18", "19", "20", "21", "22"], "time": [1516, 3723, 5608, 7489, 9362, 11492, 13377, 15425, 17928, 19867, 21874]}, "edge": {"target": [], "time": []}}, "mouseover": {"state": {"target": ["12", "13", "13", "14", "15", "17", "16", "18", "14", "19", "20", "21", "22", "0", "23", "0"], "time": [1036, 1850, 3551, 4163, 6061, 8076, 11259, 12106, 13954, 14204, 16966, 19200, 20531, 23294, 23712, 24201]}, "edge": {"target": [], "time": []}}, "mouseout": {"state": {"target": ["0", "12", "13", "13", "14", "15", "17", "16", "18", "14", "19", "20", "19", "21", "22", "0", "23"], "time": [985, 1832, 3283, 4112, 5928, 7992, 11159, 11906, 13821, 14058, 16617, 18598, 18781, 20333, 22947, 23496, 23933]}, "edge": {"target": [], "time": []}}}, "displayed_time": "29.39", "trialTime": 30293, "trial_type": "mouselab-mdp", "trial_index": 42, "time_elapsed": 1634304, "internal_node_id": "0.0-4.0-1.0-21.0"}}, {"uniqueid": "w64273145:a18587762", "current_trial": 43, "dateTime": 1691161364263, "trialdata": {"revealed_states": [], "clicked_states": ["1", "2", "3", "4", "5", "6", "7"], "num_clicks_accrued": [0, 0, 0, 0, 0, 0, 0, 0, 0, 0, 0, 0, 0], "stateRewards": ["", 1, -1, 1, 13, 31, -56, 72, 2, 41, 5, 63, -2, -3, -2, 3, -71, -26, 52, 13, -31, 24, -67, 2, -2, 5, 4, 66, 43, 72, 9, 86, -26, 44], "withholdReward": false, "trial_id": "mdp_trial_23", "block": "test", "trialIndex": 28, "score": 76.2, "costs": -9.8, "simulationMode": [null, null, null, null, null], "rewards": [1, -1, 1, 13, 72], "path": ["0", "0", "1", "2", "3", "4", "7"], "rt": [17010, 32, 209, 8, 4], "actions": ["up", "up", "up", "right", "down"], "actionTimes": [18086, 18638, 19364, 19896, 20425], "queries": {"click": {"state": {"target": ["1", "2", "3", "4", "5", "6", "7"], "time": [2410, 5304, 7386, 9284, 11365, 13802, 16125]}, "edge": {"target": [], "time": []}}, "mouseover": {"state": {"target": ["23", "1", "2", "3", "4", "5", "6", "7", "4"], "time": [1734, 2217, 2884, 5896, 7960, 11079, 13407, 15872, 16837]}, "edge": {"target": [], "time": []}}, "mouseout": {"state": {"target": ["0", "0", "23", "1", "2", "3", "4", "5", "6", "7", "4", "7"], "time": [185, 1651, 2065, 2749, 5679, 7895, 10943, 13300, 15624, 16737, 20866, 20981]}, "edge": {"target": [], "time": []}}}, "displayed_time": "20.96", "trialTime": 22008, "trial_type": "mouselab-mdp", "trial_index": 43, "time_elapsed": 1656555, "internal_node_id": "0.0-4.0-1.0-22.0"}}, {"uniqueid": "w64273145:a18587762", "current_trial": 44, "dateTime": 1691161387653, "trialdata": {"revealed_states": [], "clicked_states": ["1", "2", "3", "8", "9", "11", "10"], "num_clicks_accrued": [0, 0, 0, 0, 0, 0, 0, 0, 0, 0, 0, 0, 0], "stateRewards": ["", 1, 1, 7, -11, 80, -20, -53, -14, 3, 31, 27, 2, -1, -8, -10, 33, 41, 86, 9, 78, -37, -13, -1, -2, -6, -8, -80, 75, 4, -16, -49, -74, 24], "withholdReward": false, "trial_id": "mdp_trial_24", "block": "test", "trialIndex": 29, "score": 16.2, "costs": -9.8, "simulationMode": [null, null, null, null, null], "rewards": [1, 1, 7, -14, 31], "path": ["0", "0", "1", "2", "3", "8", "10"], "rt": [16183, 603, 1079, 756, 139], "actions": ["up", "up", "up", "left", "down"], "actionTimes": [17182, 18309, 19901, 21177, 21829], "queries": {"click": {"state": {"target": ["1", "2", "3", "8", "9", "11", "10"], "time": [2092, 4111, 6400, 8323, 10372, 12251, 14119]}, "edge": {"target": [], "time": []}}, "mouseover": {"state": {"target": ["23", "1", "2", "2", "3", "8", "9", "11", "10", "23"], "time": [1535, 1883, 2650, 2917, 4881, 7128, 9059, 10792, 12709, 15689]}, "edge": {"target": [], "time": []}}, "mouseout": {"state": {"target": ["0", "23", "1", "2", "2", "3", "8", "9", "11", "10", "23"], "time": [834, 1702, 2567, 2682, 4748, 6796, 8977, 10707, 12590, 14587, 22550]}, "edge": {"target": [], "time": []}}}, "displayed_time": "22.35", "trialTime": 23135, "trial_type": "mouselab-mdp", "trial_index": 44, "time_elapsed": 1679945, "internal_node_id": "0.0-4.0-1.0-23.0"}}, {"uniqueid": "w64273145:a18587762", "current_trial": 45, "dateTime": 1691161416406, "trialdata": {"revealed_states": [], "clicked_states": ["23", "24", "25", "26", "28", "27", "29", "30", "31", "32", "33"], "num_clicks_accrued": [0, 0, 0, 0, 0, 0, 0, 0, 0, 0, 0, 0, 0], "stateRewards": ["", -2, -3, -5, 8, 27, 11, 43, -6, -24, -87, 69, -2, 1, 1, 9, 19, 48, -37, 9, -14, 45, 62, 1, 2, 1, 16, -81, -41, 22, 4, -6, -63, 47], "withholdReward": false, "trial_id": "mdp_trial_25", "block": "test", "trialIndex": 30, "score": 39.599999999999994, "costs": -15.400000000000002, "simulationMode": [null, null, null, null, null], "rewards": [1, 2, 1, 4, 47], "path": ["0", "0", "23", "24", "25", "30", "33"], "rt": [23136, 317, 100, 211, 64], "actions": ["left", "left", "left", "down", "left"], "actionTimes": [24048, 24879, 25491, 26221, 26813], "queries": {"click": {"state": {"target": ["23", "24", "25", "26", "28", "27", "29", "30", "31", "32", "33"], "time": [1483, 3595, 5332, 7232, 9098, 11092, 13033, 14967, 17132, 18979, 20995]}, "edge": {"target": [], "time": []}}, "mouseover": {"state": {"target": ["23", "23", "24", "25", "26", "28", "27", "29", "25", "30", "31", "32", "33", "30", "31"], "time": [1047, 1279, 1929, 4659, 6064, 7723, 10571, 11635, 13517, 13887, 15483, 17830, 19496, 21592, 21675]}, "edge": {"target": [], "time": []}}, "mouseout": {"state": {"target": ["0", "23", "23", "24", "25", "26", "28", "26", "27", "29", "25", "30", "31", "32", "33", "30", "31"], "time": [497, 1096, 1828, 4493, 5742, 7557, 10103, 10253, 11539, 13368, 13620, 15416, 17498, 19361, 21526, 21650, 21742]}, "edge": {"target": [], "time": []}}}, "displayed_time": "27.32", "trialTime": 28306, "trial_type": "mouselab-mdp", "trial_index": 45, "time_elapsed": 1708698, "internal_node_id": "0.0-4.0-1.0-24.0"}}, {"uniqueid": "w64273145:a18587762", "current_trial": 46, "dateTime": 1691161444978, "trialdata": {"revealed_states": [], "clicked_states": ["1", "2", "3", "8", "9", "11", "10", "4", "5", "6", "7"], "num_clicks_accrued": [0, 0, 0, 0, 0, 0, 0, 0, 0, 0, 0, 0, 0], "stateRewards": ["", 2, -3, 5, 11, -79, 54, 11, -9, -78, 33, 22, -2, -1, 2, 14, 43, 34, 1, 10, 49, -65, 39, -1, 1, -1, 3, -16, -2, 11, 2, 12, 48, -65], "withholdReward": false, "trial_id": "mdp_trial_26", "block": "test", "trialIndex": 31, "score": 53.599999999999994, "costs": -15.400000000000002, "simulationMode": [null, null, null, null, null], "rewards": [2, -3, 5, 11, 54], "path": ["0", "0", "1", "2", "3", "4", "6"], "rt": [22428, 224, 421, 227, 226], "actions": ["up", "up", "up", "right", "right"], "actionTimes": [23450, 24194, 25140, 25884, 26626], "queries": {"click": {"state": {"target": ["1", "2", "3", "8", "9", "11", "10", "4", "5", "6", "7"], "time": [1753, 3600, 5430, 7103, 9180, 11302, 13212, 15355, 17574, 19518, 21538]}, "edge": {"target": [], "time": []}}, "mouseover": {"state": {"target": ["1", "2", "3", "8", "9", "11", "10", "3", "4", "5", "4", "5", "6", "7"], "time": [1537, 2253, 4815, 6499, 8380, 10944, 12376, 13675, 13715, 13958, 14340, 17072, 18787, 20285]}, "edge": {"target": [], "time": []}}, "mouseout": {"state": {"target": ["0", "1", "2", "3", "8", "9", "11", "10", "3", "4", "5", "4", "5", "6", "7"], "time": [1402, 2169, 4516, 6032, 8211, 10095, 11992, 13625, 13694, 13828, 14258, 16881, 18437, 20118, 23101]}, "edge": {"target": [], "time": []}}}, "displayed_time": "27.15", "trialTime": 28129, "trial_type": "mouselab-mdp", "trial_index": 46, "time_elapsed": 1737270, "internal_node_id": "0.0-4.0-1.0-25.0"}}, {"uniqueid": "w64273145:a18587762", "current_trial": 47, "dateTime": 1691161489722, "trialdata": {"revealed_states": [], "clicked_states": ["12", "13", "14", "15", "17", "16", "18", "19", "20", "21", "22", "23", "24", "25", "26", "28", "27", "29"], "num_clicks_accrued": [0, 0, 0, 0, 0, 0, 0, 0, 0, 0, 0, 0, 0], "stateRewards": ["", -2, -4, 6, 14, -34, 49, 36, -8, -3, 32, -4, 1, -2, 1, -8, -20, -71, -57, -7, -86, -62, -16, -2, -3, -5, 11, 23, -21, 53, 5, -5, 85, 73], "withholdReward": false, "trial_id": "mdp_trial_27", "block": "test", "trialIndex": 32, "score": 28.80000000000001, "costs": -25.199999999999992, "simulationMode": [null, null, null, null, null], "rewards": [-2, -3, -5, 11, 53], "path": ["0", "0", "23", "24", "25", "26", "29"], "rt": [39091, 248, 170, 215, 501], "actions": ["left", "left", "left", "up", "left"], "actionTimes": [40228, 41000, 41688, 42417, 43434], "queries": {"click": {"state": {"target": ["12", "13", "14", "15", "17", "16", "18", "19", "20", "21", "22", "23", "24", "25", "26", "28", "27", "29"], "time": [1884, 3793, 6062, 7588, 9986, 11953, 13951, 15849, 17900, 19805, 21782, 24887, 27168, 29113, 31033, 33110, 35353, 37282]}, "edge": {"target": [], "time": []}}, "mouseover": {"state": {"target": ["0", "12", "13", "14", "15", "17", "16", "18", "14", "19", "20", "21", "22", "0", "23", "24", "25", "26", "28", "27", "29", "29"], "time": [1519, 1702, 2285, 4382, 6514, 8178, 10609, 12441, 14490, 14621, 16305, 18520, 20517, 22798, 24681, 25720, 27825, 30207, 31622, 35137, 35970, 36270]}, "edge": {"target": [], "time": []}}, "mouseout": {"state": {"target": ["12", "0", "12", "13", "14", "15", "17", "16", "18", "14", "19", "20", "21", "22", "0", "23", "24", "25", "26", "28", "27", "29", "29", "24"], "time": [468, 1537, 2205, 4266, 6364, 8078, 10443, 12358, 14390, 14508, 16271, 18286, 20201, 22436, 24631, 25346, 27644, 30074, 31588, 35037, 35819, 36169, 39100, 44478]}, "edge": {"target": [], "time": []}}}, "displayed_time": "43.95", "trialTime": 44498, "trial_type": "mouselab-mdp", "trial_index": 47, "time_elapsed": 1782014, "internal_node_id": "0.0-4.0-1.0-26.0"}}, {"uniqueid": "w64273145:a18587762", "current_trial": 48, "dateTime": 1691161514616, "trialdata": {"revealed_states": [], "clicked_states": ["1", "2", "3", "8", "10", "9", "11"], "num_clicks_accrued": [0, 0, 0, 0, 0, 0, 0, 0, 0, 0, 0, 0, 0], "stateRewards": ["", 1, -2, -2, 10, -31, -77, 35, 9, -47, 8, 48, -2, 1, -4, -3, -26, -50, 43, -11, 76, -38, 17, 1, -1, 6, 10, 15, -9, 12, -8, 85, 11, -55], "withholdReward": false, "trial_id": "mdp_trial_28", "block": "test", "trialIndex": 33, "score": 44.2, "costs": -9.8, "simulationMode": [null, null, null, null, null], "rewards": [1, -2, -2, 9, 48], "path": ["0", "0", "1", "2", "3", "8", "11"], "rt": [18519, 54, 440, 687, 183], "actions": ["up", "up", "up", "left", "left"], "actionTimes": [19727, 20302, 21269, 22468, 23163], "queries": {"click": {"state": {"target": ["1", "2", "3", "8", "10", "9", "11"], "time": [1959, 4646, 7365, 9508, 11633, 13829, 16795]}, "edge": {"target": [], "time": []}}, "mouseover": {"state": {"target": ["1", "2", "3", "8", "10", "9", "11", "8", "3"], "time": [1648, 2919, 5275, 8556, 10789, 12938, 15849, 18181, 18447]}, "edge": {"target": [], "time": []}}, "mouseout": {"state": {"target": ["0", "1", "2", "3", "3", "8", "10", "9", "11", "8", "3", "1"], "time": [1031, 2846, 5025, 7482, 8323, 10603, 12270, 15766, 18130, 18350, 23994, 24360]}, "edge": {"target": [], "time": []}}}, "displayed_time": "23.68", "trialTime": 24645, "trial_type": "mouselab-mdp", "trial_index": 48, "time_elapsed": 1806908, "internal_node_id": "0.0-4.0-1.0-27.0"}}, {"uniqueid": "w64273145:a18587762", "current_trial": 49, "dateTime": 1691161542922, "trialdata": {"revealed_states": [], "clicked_states": ["1", "2", "3", "4", "5", "6", "7", "8", "9", "10"], "num_clicks_accrued": [0, 0, 0, 0, 0, 0, 0, 0, 0, 0, 0, 0, 0], "stateRewards": ["", -1, -3, -7, -7, -76, 30, -49, 11, -70, 56, 2, 1, 4, -3, -14, -59, -83, -25, -9, -21, -67, -73, -2, 4, 4, -9, -11, -32, 60, 9, -87, 22, -64], "withholdReward": false, "trial_id": "mdp_trial_29", "block": "test", "trialIndex": 34, "score": 42, "costs": -14.000000000000002, "simulationMode": [null, null, null, null, null], "rewards": [-1, -3, -7, 11, 56], "path": ["0", "0", "1", "2", "3", "8", "10"], "rt": [23972, 58, 26, 194, 108], "actions": ["up", "up", "up", "left", "down"], "actionTimes": [24712, 25290, 25841, 26574, 27205], "queries": {"click": {"state": {"target": ["1", "2", "3", "4", "5", "6", "7", "8", "9", "10"], "time": [1828, 3911, 6200, 9291, 11322, 13278, 15189, 18012, 19987, 21902]}, "edge": {"target": [], "time": []}}, "mouseover": {"state": {"target": ["1", "2", "3", "4", "5", "6", "7", "8", "9", "10", "11"], "time": [1533, 3131, 5892, 6978, 10542, 11957, 14087, 17602, 19234, 21232, 22612]}, "edge": {"target": [], "time": []}}, "mouseout": {"state": {"target": ["0", "0", "1", "2", "3", "4", "5", "6", "7", "8", "9", "8", "10"], "time": [134, 1050, 3066, 5528, 6710, 10275, 11640, 13822, 17436, 19117, 20782, 21097, 22365]}, "edge": {"target": [], "time": []}}}, "displayed_time": "27.71", "trialTime": 28046, "trial_type": "mouselab-mdp", "trial_index": 49, "time_elapsed": 1835214, "internal_node_id": "0.0-4.0-1.0-28.0"}}, {"uniqueid": "w64273145:a18587762", "current_trial": 50, "dateTime": 1691161563213, "trialdata": {"revealed_states": [], "clicked_states": ["1", "2", "3", "4", "7", "6", "5"], "num_clicks_accrued": [0, 0, 0, 0, 0, 0, 0, 0, 0, 0, 0, 0, 0], "stateRewards": ["", 1, 2, -3, -6, 50, -7, 7, -7, -80, 21, -1, 2, 2, 4, -1, 33, 84, 1, 14, -53, 81, 6, -2, -2, -3, -9, -87, -38, -59, -5, -74, -3, -71], "withholdReward": false, "trial_id": "mdp_trial_30", "block": "test", "trialIndex": 35, "score": 34.2, "costs": -9.8, "simulationMode": [null, null, null, null, null], "rewards": [1, 2, -3, -6, 50], "path": ["0", "0", "1", "2", "3", "4", "5"], "rt": [15401, 146, 85, 44, 119], "actions": ["up", "up", "up", "right", "up"], "actionTimes": [16414, 17080, 17687, 18246, 18903], "queries": {"click": {"state": {"target": ["1", "2", "3", "4", "7", "6", "5"], "time": [1729, 3449, 5414, 7296, 9286, 11367, 13299]}, "edge": {"target": [], "time": []}}, "mouseover": {"state": {"target": ["1", "2", "3", "4", "7", "6", "5", "5", "3", "8"], "time": [1497, 2579, 4943, 6247, 7757, 10971, 12385, 12904, 13868, 14253]}, "edge": {"target": [], "time": []}}, "mouseout": {"state": {"target": ["11", "10", "0", "1", "2", "3", "4", "7", "6", "5", "5", "5", "3"], "time": [247, 382, 1392, 2513, 4580, 6208, 7706, 10754, 11450, 12587, 13393, 13753, 14034]}, "edge": {"target": [], "time": []}}}, "displayed_time": "19.42", "trialTime": 20026, "trial_type": "mouselab-mdp", "trial_index": 50, "time_elapsed": 1855505, "internal_node_id": "0.0-4.0-1.0-29.0"}}, {"uniqueid": "w64273145:a18587762", "current_trial": 51, "dateTime": 1691161581629, "trialdata": {"revealed_states": [], "clicked_states": ["23", "24", "25", "26", "28", "27"], "num_clicks_accrued": [0, 0, 0, 0, 0, 0, 0, 0, 0, 0, 0, 0, 0], "stateRewards": ["", -1, 2, -6, 6, 43, 78, 78, -2, 55, -29, -17, -2, -4, 1, -15, 13, 7, -79, 8, -28, -68, 36, -1, -3, 3, -16, 84, -18, 87, 10, 32, 13, -81], "withholdReward": false, "trial_id": "mdp_trial_31", "block": "test", "trialIndex": 36, "score": 58.6, "costs": -8.4, "simulationMode": [null, null, null, null, null], "rewards": [-1, -3, 3, -16, 84], "path": ["0", "0", "23", "24", "25", "26", "27"], "rt": [13423, 148, 11, 226, 48], "actions": ["left", "left", "left", "up", "up"], "actionTimes": [14650, 15309, 15841, 16605, 17178], "queries": {"click": {"state": {"target": ["23", "24", "25", "26", "28", "27"], "time": [2415, 4225, 6179, 7749, 9704, 11603]}, "edge": {"target": [], "time": []}}, "mouseover": {"state": {"target": ["1", "23", "24", "25", "26", "28", "27", "29"], "time": [1541, 1972, 2954, 5070, 6684, 9015, 11147, 12247]}, "edge": {"target": [], "time": []}}, "mouseout": {"state": {"target": ["8", "10", "23", "0", "1", "23", "24", "25", "26", "28", "26", "27"], "time": [141, 190, 391, 1386, 1925, 2739, 4885, 6584, 8798, 10299, 10929, 12032]}, "edge": {"target": [], "time": []}}}, "displayed_time": "17.71", "trialTime": 18188, "trial_type": "mouselab-mdp", "trial_index": 51, "time_elapsed": 1873921, "internal_node_id": "0.0-4.0-1.0-30.0"}}, {"uniqueid": "w64273145:a18587762", "current_trial": 52, "dateTime": 1691161602220, "trialdata": {"revealed_states": [], "clicked_states": ["23", "24", "25", "30", "31", "33", "32"], "num_clicks_accrued": [0, 0, 0, 0, 0, 0, 0, 0, 0, 0, 0, 0, 0], "stateRewards": ["", -2, -3, -3, 9, 79, 67, 22, -15, -56, 27, -85, -2, 4, -4, -15, -20, -32, 60, 15, 71, 57, 17, 1, 2, -8, 15, -37, -81, 82, 15, 21, -3, 2], "withholdReward": false, "trial_id": "mdp_trial_32", "block": "test", "trialIndex": 37, "score": 21.2, "costs": -9.8, "simulationMode": [null, null, null, null, null], "rewards": [1, 2, -8, 15, 21], "path": ["0", "0", "23", "24", "25", "30", "31"], "rt": [15165, 32, 312, 166, 83], "actions": ["left", "left", "left", "down", "right"], "actionTimes": [16555, 17099, 17929, 18615, 19215], "queries": {"click": {"state": {"target": ["23", "24", "25", "30", "31", "33", "32"], "time": [2392, 4424, 6311, 8278, 10149, 12059, 13980]}, "edge": {"target": [], "time": []}}, "mouseover": {"state": {"target": ["0", "23", "24", "25", "30", "31", "33", "33", "32"], "time": [1977, 2127, 3175, 6074, 7654, 8755, 10643, 10885, 12900]}, "edge": {"target": [], "time": []}}, "mouseout": {"state": {"target": ["29", "25", "30", "0", "0", "23", "24", "25", "30", "31", "30", "33", "33"], "time": [162, 261, 310, 1894, 2010, 3092, 5792, 7421, 8705, 10535, 10622, 10674, 12751]}, "edge": {"target": [], "time": []}}}, "displayed_time": "19.73", "trialTime": 20317, "trial_type": "mouselab-mdp", "trial_index": 52, "time_elapsed": 1894512, "internal_node_id": "0.0-4.0-1.0-31.0"}}, {"uniqueid": "w64273145:a18587762", "current_trial": 53, "dateTime": 1691161644110, "trialdata": {"revealed_states": [], "clicked_states": ["1", "2", "3", "8", "9", "11", "10", "4", "5", "6", "7", "12", "13", "14", "15", "18", "16"], "num_clicks_accrued": [0, 0, 0, 0, 0, 0, 0, 0, 0, 0, 0, 0, 0], "stateRewards": ["", -2, 2, -5, -6, 10, -66, -58, -10, -11, -63, -70, -1, -4, -5, 7, 66, -64, -43, -3, 45, -37, 4, -2, -2, -6, -4, -30, 33, 43, 15, -32, -65, -59], "withholdReward": false, "trial_id": "mdp_trial_33", "block": "test", "trialIndex": 38, "score": 39.2, "costs": -23.799999999999994, "simulationMode": [null, null, null, null, null], "rewards": [-1, -4, -5, 7, 66], "path": ["0", "0", "12", "13", "14", "15", "16"], "rt": [35136, 51, 1654, 280, 220], "actions": ["right", "right", "right", "up", "up"], "actionTimes": [36418, 36992, 39177, 39965, 40713], "queries": {"click": {"state": {"target": ["1", "2", "3", "8", "9", "11", "10", "4", "5", "6", "7", "12", "13", "14", "15", "18", "16"], "time": [2421, 3941, 5749, 7561, 9455, 11368, 13313, 15198, 17162, 19289, 21269, 23226, 25455, 27325, 29224, 31338, 33733]}, "edge": {"target": [], "time": []}}, "mouseover": {"state": {"target": ["1", "2", "3", "8", "9", "11", "11", "10", "4", "5", "6", "7", "12", "13", "14", "15", "18", "16", "17"], "time": [2085, 2952, 5116, 6730, 9046, 9960, 10794, 11875, 13825, 15895, 18853, 20053, 22516, 23916, 26112, 28259, 31025, 33505, 34320]}, "edge": {"target": [], "time": []}}, "mouseout": {"state": {"target": ["32", "0", "1", "2", "3", "8", "9", "11", "11", "10", "4", "5", "6", "7", "12", "13", "14", "15", "18", "16", "17"], "time": [170, 1954, 2784, 4965, 6464, 8913, 9861, 10194, 11748, 13658, 15740, 18469, 19884, 21799, 23647, 25878, 28145, 30944, 33335, 34238, 40367]}, "edge": {"target": [], "time": []}}}, "displayed_time": "41.24", "trialTime": 41617, "trial_type": "mouselab-mdp", "trial_index": 53, "time_elapsed": 1936402, "internal_node_id": "0.0-4.0-1.0-32.0"}}, {"uniqueid": "w64273145:a18587762", "current_trial": 54, "dateTime": 1691161663749, "trialdata": {"revealed_states": [], "clicked_states": ["12", "13", "14", "19", "22", "20", "21"], "num_clicks_accrued": [0, 0, 0, 0, 0, 0, 0, 0, 0, 0, 0, 0, 0], "stateRewards": ["", 2, -1, -1, 7, 11, -40, -22, -2, 69, 37, 8, -2, 4, -8, -12, -2, -72, -3, -12, 17, 63, 12, 1, 3, -7, 6, 25, 61, 61, -9, 28, -17, 27], "withholdReward": false, "trial_id": "mdp_trial_34", "block": "test", "trialIndex": 39, "score": 35.2, "costs": -9.8, "simulationMode": [null, null, null, null, null], "rewards": [-2, 4, -8, -12, 63], "path": ["0", "0", "12", "13", "14", "19", "21"], "rt": [15023, 20, 132, 161, 51], "actions": ["right", "right", "right", "down", "down"], "actionTimes": [15955, 16487, 17147, 17827, 18400], "queries": {"click": {"state": {"target": ["12", "13", "14", "19", "22", "20", "21"], "time": [1843, 3833, 5709, 7604, 9502, 11611, 13459]}, "edge": {"target": [], "time": []}}, "mouseover": {"state": {"target": ["12", "13", "12", "13", "14", "19", "22", "20", "21", "21", "19", "15"], "time": [1308, 1360, 1694, 2290, 4439, 6189, 8935, 11363, 12136, 12400, 13949, 14148]}, "edge": {"target": [], "time": []}}, "mouseout": {"state": {"target": ["14", "22", "0", "12", "13", "12", "13", "14", "19", "22", "19", "20", "21", "21", "19", "15"], "time": [261, 344, 1285, 1325, 1607, 2259, 4257, 6070, 8834, 9920, 10067, 12020, 12165, 13883, 13980, 14463]}, "edge": {"target": [], "time": []}}}, "displayed_time": "18.93", "trialTime": 19371, "trial_type": "mouselab-mdp", "trial_index": 54, "time_elapsed": 1956041, "internal_node_id": "0.0-4.0-1.0-33.0"}}, {"uniqueid": "w64273145:a18587762", "current_trial": 55, "dateTime": 1691161684173, "trialdata": {"revealed_states": [], "clicked_states": ["23", "24", "25", "30", "33", "32"], "num_clicks_accrued": [0, 0, 0, 0, 0, 0, 0, 0, 0, 0, 0, 0, 0], "stateRewards": ["", -1, 3, 8, 10, -86, 61, -36, 10, 17, -60, 24, -1, -3, 3, 11, 50, 60, 33, -3, -20, 58, -6, 1, -4, -4, 13, -70, -71, 43, 14, 52, 82, -11], "withholdReward": false, "trial_id": "mdp_trial_35", "block": "test", "trialIndex": 40, "score": 80.6, "costs": -8.4, "simulationMode": [null, null, null, null, null], "rewards": [1, -4, -4, 14, 82], "path": ["0", "0", "23", "24", "25", "30", "32"], "rt": [13939, 169, 735, 4, 109], "actions": ["left", "left", "left", "down", "down"], "actionTimes": [15523, 16214, 17461, 17979, 18625], "queries": {"click": {"state": {"target": ["23", "24", "25", "30", "33", "32"], "time": [2891, 4815, 6588, 8468, 10359, 12441]}, "edge": {"target": [], "time": []}}, "mouseover": {"state": {"target": ["1", "23", "24", "25", "30", "33", "32", "31"], "time": [2203, 2633, 3418, 5415, 7515, 9130, 10976, 14141]}, "edge": {"target": [], "time": []}}, "mouseout": {"state": {"target": ["14", "13", "12", "0", "1", "23", "24", "25", "30", "33", "32"], "time": [854, 937, 1036, 2121, 2337, 3301, 5332, 7449, 8879, 10812, 13741]}, "edge": {"target": [], "time": []}}}, "displayed_time": "19.14", "trialTime": 20155, "trial_type": "mouselab-mdp", "trial_index": 55, "time_elapsed": 1976465, "internal_node_id": "0.0-4.0-1.0-34.0"}}, {"uniqueid": "w64273145:a18587762", "current_trial": 56, "dateTime": 1691161704677, "trialdata": {"revealed_states": [], "clicked_states": ["23", "24", "25", "26", "28", "29"], "num_clicks_accrued": [0, 0, 0, 0, 0, 0, 0, 0, 0, 0, 0, 0, 0], "stateRewards": ["", -1, -4, -1, -11, 43, 69, 39, 4, 17, -20, -82, -2, -1, 4, 8, -79, 24, -79, 11, 36, 64, 41, 2, 4, -1, 11, -79, -47, 75, -3, 63, -36, -19], "withholdReward": false, "trial_id": "mdp_trial_36", "block": "test", "trialIndex": 41, "score": 82.6, "costs": -8.4, "simulationMode": [null, null, null, null, null], "rewards": [2, 4, -1, 11, 75], "path": ["0", "0", "23", "24", "25", "26", "29"], "rt": [14598, 35, 104, 318, 374], "actions": ["left", "left", "left", "up", "left"], "actionTimes": [15980, 16534, 17153, 17980, 18871], "queries": {"click": {"state": {"target": ["23", "24", "25", "26", "28", "29"], "time": [3066, 4770, 7012, 8944, 10887, 12824]}, "edge": {"target": [], "time": []}}, "mouseover": {"state": {"target": ["1", "23", "24", "25", "26", "28", "29", "27"], "time": [2175, 2824, 3341, 6820, 7951, 10266, 11515, 13562]}, "edge": {"target": [], "time": []}}, "mouseout": {"state": {"target": ["31", "23", "1", "23", "24", "25", "26", "26", "28", "26", "29"], "time": [692, 908, 2727, 3308, 6452, 7487, 9433, 9651, 11350, 11449, 13334]}, "edge": {"target": [], "time": []}}}, "displayed_time": "19.38", "trialTime": 20219, "trial_type": "mouselab-mdp", "trial_index": 56, "time_elapsed": 1996969, "internal_node_id": "0.0-4.0-1.0-35.0"}}, {"uniqueid": "w64273145:a18587762", "current_trial": 57, "dateTime": 1691161733880, "trialdata": {"revealed_states": [], "clicked_states": ["1", "2", "3", "8", "10", "11", "9", "4", "5", "6", "7"], "num_clicks_accrued": [0, 0, 0, 0, 0, 0, 0, 0, 0, 0, 0, 0, 0], "stateRewards": ["", 1, 2, -6, -13, -51, 22, -4, -12, -44, -12, 6, -2, -2, -2, -14, -46, -4, -77, -2, 36, -79, 41, 2, -4, 2, -6, -55, 59, 70, -5, 39, -19, 24], "withholdReward": false, "trial_id": "mdp_trial_37", "block": "test", "trialIndex": 42, "score": -9.400000000000002, "costs": -15.400000000000002, "simulationMode": [null, null, null, null, null], "rewards": [1, 2, -6, -13, 22], "path": ["0", "0", "1", "2", "3", "4", "6"], "rt": [23443, 41, 83, 125, 69], "actions": ["up", "up", "up", "right", "right"], "actionTimes": [25166, 25725, 26318, 26958, 27536], "queries": {"click": {"state": {"target": ["1", "2", "3", "8", "10", "11", "9", "4", "5", "6", "7"], "time": [3281, 5128, 7319, 9223, 11083, 13104, 15071, 16957, 18898, 20915, 22893]}, "edge": {"target": [], "time": []}}, "mouseover": {"state": {"target": ["23", "1", "2", "2", "3", "8", "11", "8", "10", "11", "9", "3", "4", "5", "6", "7", "16"], "time": [2336, 3035, 3733, 3984, 5784, 8135, 8381, 8463, 9713, 12161, 14262, 15607, 15939, 17489, 19488, 21517, 23532]}, "edge": {"target": [], "time": []}}, "mouseout": {"state": {"target": ["28", "23", "0", "23", "1", "2", "2", "3", "8", "11", "8", "10", "10", "11", "8", "9", "3", "4", "5", "6", "7", "16"], "time": [36, 137, 2252, 2785, 3705, 3750, 5633, 8131, 8150, 8429, 9613, 11527, 11851, 13593, 13657, 15473, 15890, 17373, 19257, 21334, 23332, 23650]}, "edge": {"target": [], "time": []}}}, "displayed_time": "28.05", "trialTime": 28919, "trial_type": "mouselab-mdp", "trial_index": 57, "time_elapsed": 2026172, "internal_node_id": "0.0-4.0-1.0-36.0"}}, {"uniqueid": "w64273145:a18587762", "current_trial": 58, "dateTime": 1691161752175, "trialdata": {"revealed_states": [], "clicked_states": ["23", "24", "25", "26", "28"], "num_clicks_accrued": [0, 0, 0, 0, 0, 0, 0, 0, 0, 0, 0, 0, 0], "stateRewards": ["", -2, -4, -2, -13, -15, 87, -19, -6, -80, 30, 12, 1, 1, -8, 2, 55, 56, 15, 11, -68, -7, 55, -2, 3, -3, -3, 48, 62, 4, 1, -3, 69, -33], "withholdReward": false, "trial_id": "mdp_trial_38", "block": "test", "trialIndex": 43, "score": 50, "costs": -7, "simulationMode": [null, null, null, null, null], "rewards": [-2, 3, -3, -3, 62], "path": ["0", "0", "23", "24", "25", "26", "28"], "rt": [11789, 279, 81, 320, 24], "actions": ["left", "left", "left", "up", "right"], "actionTimes": [13869, 14668, 15268, 16110, 16645], "queries": {"click": {"state": {"target": ["23", "24", "25", "26", "28"], "time": [3472, 5414, 7254, 9191, 11144]}, "edge": {"target": [], "time": []}}, "mouseover": {"state": {"target": ["12", "13", "12", "23", "24", "25", "26", "28", "29", "29"], "time": [2247, 2395, 2863, 3314, 3762, 6561, 8374, 9822, 12240, 13137]}, "edge": {"target": [], "time": []}}, "mouseout": {"state": {"target": ["15", "14", "22", "0", "12", "13", "12", "23", "24", "25", "26", "28", "26", "29", "29", "26"], "time": [199, 264, 728, 2216, 2380, 2728, 2997, 3678, 6493, 8206, 9653, 12003, 12154, 12386, 13188, 13303]}, "edge": {"target": [], "time": []}}}, "displayed_time": "17.17", "trialTime": 18000, "trial_type": "mouselab-mdp", "trial_index": 58, "time_elapsed": 2044466, "internal_node_id": "0.0-4.0-1.0-37.0"}}, {"uniqueid": "w64273145:a18587762", "current_trial": 59, "dateTime": 1691161776700, "trialdata": {"revealed_states": [], "clicked_states": ["23", "24", "25", "30", "33", "31", "32", "26", "29"], "num_clicks_accrued": [0, 0, 0, 0, 0, 0, 0, 0, 0, 0, 0, 0, 0], "stateRewards": ["", -2, -1, -5, 10, -36, -70, 68, -9, 86, 71, -10, 2, -4, 7, -7, 66, 44, -66, -13, -69, 43, 15, -2, 2, 6, -13, 62, 57, 50, -10, -69, 42, -72], "withholdReward": false, "trial_id": "mdp_trial_39", "block": "test", "trialIndex": 44, "score": 30.4, "costs": -12.600000000000001, "simulationMode": [null, null, null, null, null], "rewards": [-2, 2, 6, -13, 50], "path": ["0", "0", "23", "24", "25", "26", "29"], "rt": [18880, 389, 445, 113, 39], "actions": ["left", "left", "left", "up", "left"], "actionTimes": [19918, 20821, 21775, 22408, 22968], "queries": {"click": {"state": {"target": ["23", "24", "25", "30", "33", "31", "32", "26", "29"], "time": [1767, 3732, 5412, 7159, 9365, 11287, 13180, 15077, 17043]}, "edge": {"target": [], "time": []}}, "mouseover": {"state": {"target": ["0", "23", "23", "24", "25", "30", "30", "33", "31", "32", "30", "25", "26", "29", "27"], "time": [1044, 1228, 1578, 2144, 4325, 5974, 6875, 7838, 10020, 11971, 13568, 13650, 14149, 15830, 17629]}, "edge": {"target": [], "time": []}}, "mouseout": {"state": {"target": ["25", "24", "23", "0", "23", "23", "24", "25", "30", "30", "33", "30", "31", "32", "30", "25", "26", "29"], "time": [345, 462, 512, 1164, 1345, 2045, 4132, 5857, 6096, 7790, 9854, 9956, 11785, 13518, 13587, 13833, 15753, 17446]}, "edge": {"target": [], "time": []}}}, "displayed_time": "23.48", "trialTime": 24274, "trial_type": "mouselab-mdp", "trial_index": 59, "time_elapsed": 2068992, "internal_node_id": "0.0-4.0-1.0-38.0"}}, {"uniqueid": "w64273145:a18587762", "current_trial": 60, "dateTime": 1691161801709, "trialdata": {"revealed_states": [], "clicked_states": ["1", "2", "3", "8", "9", "11", "10", "4", "5"], "num_clicks_accrued": [0, 0, 0, 0, 0, 0, 0, 0, 0, 0, 0, 0, 0], "stateRewards": ["", 2, -1, 5, 8, 75, -35, -77, 1, -9, -81, -58, 1, 2, -7, 5, 77, -16, 19, 16, -10, -18, 40, -2, 3, 7, -5, 64, 1, -62, 10, 27, 10, 65], "withholdReward": false, "trial_id": "mdp_trial_40", "block": "test", "trialIndex": 45, "score": 76.4, "costs": -12.600000000000001, "simulationMode": [null, null, null, null, null], "rewards": [2, -1, 5, 8, 75], "path": ["0", "0", "1", "2", "3", "4", "5"], "rt": [18631, 86, 209, 124, 63], "actions": ["up", "up", "up", "right", "up"], "actionTimes": [21178, 21778, 22499, 23147, 23719], "queries": {"click": {"state": {"target": ["1", "2", "3", "8", "9", "11", "10", "4", "5"], "time": [3179, 5132, 7089, 8839, 10678, 12581, 14538, 16417, 18259]}, "edge": {"target": [], "time": []}}, "mouseover": {"state": {"target": ["1", "2", "3", "8", "9", "11", "10", "4", "5", "6"], "time": [2988, 3787, 5802, 7715, 9481, 11196, 13178, 15443, 17460, 19062]}, "edge": {"target": [], "time": []}}, "mouseout": {"state": {"target": ["27", "28", "23", "0", "1", "2", "3", "8", "9", "11", "10", "4", "5"], "time": [1701, 1728, 1771, 2855, 3554, 5601, 7617, 9348, 11062, 13044, 15045, 17340, 18772]}, "edge": {"target": [], "time": []}}}, "displayed_time": "24.24", "trialTime": 24732, "trial_type": "mouselab-mdp", "trial_index": 60, "time_elapsed": 2094001, "internal_node_id": "0.0-4.0-1.0-39.0"}}, {"uniqueid": "w64273145:a18587762", "current_trial": 61, "dateTime": 1691161848791, "trialdata": {"rt": 47078, "response": {"Q0": "$-2 to $2", "Q1": "$-16 to $16", "Q2": "$-88 to $88", "Q3": "The cost was always $1.4.", "Q4": "Very motivated"}, "question_order": [0, 1, 2, 3, 4], "trial_id": "final_quiz_control", "trial_type": "survey-multi-choice", "trial_index": 61, "time_elapsed": 2141084, "internal_node_id": "0.0-4.0-2.0"}}, {"uniqueid": "w64273145:a18587762", "current_trial": 62, "dateTime": 1691161924362, "trialdata": {"rt": 75564, "response": {"Q0": "I based my strategy on getting the highest on the last node. I didn't bother with how much I lost or gained along the way", "Q1": "It was always the same", "Q2": "Not very difficult"}, "trial_id": "self_report_control", "trial_type": "survey-text", "trial_index": 62, "time_elapsed": 2216655, "internal_node_id": "0.0-4.0-3.0"}}, {"uniqueid": "w64273145:a18587762", "current_trial": 63, "dateTime": 1691161946387, "trialdata": {"rt": 22021, "response": {"gender": "female", "age": "30", "colorblind": "0", "effort": "0"}, "trial_type": "survey-html-form", "trial_index": 63, "time_elapsed": 2238680, "internal_node_id": "0.0-4.0-4.0"}}, {"uniqueid": "w64273145:a18587762", "current_trial": 64, "dateTime": 1691161979295, "trialdata": {"rt": 32898, "response": {"Q0": "No", "Q1": "No", "Q2": "None"}, "trial_type": "survey-text", "trial_index": 64, "time_elapsed": 2271588, "internal_node_id": "0.0-4.0-5.0"}}, {"uniqueid": "w64273145:a18587762", "current_trial": 65, "dateTime": 1691161980945, "trialdata": {"rt": 1643, "stimulus": "Press 'Finish HIT' in order to reach the completion code. Once the data has been saved, you will receive the code either in this window or in the original browser window where you started the experiment.\n", "response": 0, "trial_type": "html-button-response", "trial_index": 65, "time_elapsed": 2273238, "internal_node_id": "0.0-5.0"}}, {"uniqueid": "w64273145:a18587762", "current_trial": 66, "dateTime": 1691161981950, "trialdata": {"success": true, "trial_type": "fullscreen", "trial_index": 66, "time_elapsed": 2274243, "internal_node_id": "0.0-6.0"}}], "questiondata": {"params": {"CODE": "C6DMOQA6", "MIN_TIME": 14, "inspectCost": 1, "startTime": "Fri Aug 04 2023 16:35:05 GMT+0200 (South Africa Standard Time)", "bonusRate": 0.002, "variance": "1_2_4_8_44", "branching": "31123"}, "final_score": 1739}, "eventdata": [{"eventtype": "initialized", "value": null, "timestamp": 1691159704933, "interval": 0}, {"eventtype": "window_resize", "value": [1920, 974], "timestamp": 1691159704933, "interval": 0}, {"eventtype": "window_resize", "value": [1920, 974], "timestamp": 1691159705404, "interval": 471}, {"eventtype": "window_resize", "value": [1920, 1080], "timestamp": 1691159713252, "interval": 7848}, {"eventtype": "focus", "value": "off", "timestamp": 1691159721202, "interval": 7950}, {"eventtype": "window_resize", "value": [1920, 1079], "timestamp": 1691159721419, "interval": 217}, {"eventtype": "focus", "value": "on", "timestamp": 1691159743168, "interval": 21749}, {"eventtype": "window_resize", "value": [1920, 1080], "timestamp": 1691159743378, "interval": 210}, {"eventtype": "focus", "value": "off", "timestamp": 1691159931891, "interval": 188513}, {"eventtype": "window_resize", "value": [1920, 1079], "timestamp": 1691159932101, "interval": 210}, {"eventtype": "focus", "value": "on", "timestamp": 1691159982236, "interval": 50135}, {"eventtype": "window_resize", "value": [1920, 1080], "timestamp": 1691159982454, "interval": 218}, {"eventtype": "focus", "value": "off", "timestamp": 1691160150746, "interval": 168292}, {"eventtype": "focus", "value": "on", "timestamp": 1691160150839, "interval": 93}, {"eventtype": "window_resize", "value": [1920, 1080], "timestamp": 1691160151047, "interval": 208}, {"eventtype": "focus", "value": "off", "timestamp": 1691160343190, "interval": 192143}, {"eventtype": "focus", "value": "on", "timestamp": 1691160343191, "interval": 1}, {"eventtype": "window_resize", "value": [1920, 974], "timestamp": 1691160343401, "interval": 210}, {"eventtype": "window_resize", "value": [1920, 1080], "timestamp": 1691160344608, "interval": 1207}, {"eventtype": "focus", "value": "off", "timestamp": 1691160538794, "interval": 194186}, {"eventtype": "focus", "value": "on", "timestamp": 1691160538795, "interval": 1}, {"eventtype": "window_resize", "value": [1920, 974], "timestamp": 1691160539020, "interval": 225}, {"eventtype": "window_resize", "value": [1920, 1080], "timestamp": 1691160540344, "interval": 1324}, {"eventtype": "window_resize", "value": [1920, 974], "timestamp": 1691161082818, "interval": 542474}, {"eventtype": "focus", "value": "off", "timestamp": 1691161084160, "interval": 1342}, {"eventtype": "focus", "value": "on", "timestamp": 1691161097155, "interval": 12995}], "useragent": "Mozilla/5.0 (Windows NT 10.0; Win64; x64) AppleWebKit/537.36 (KHTML, like Gecko) Chrome/115.0.0.0 Safari/537.36", "mode": "live", "id": "w64273145:a18587762", "status": "user data saved", "Beginhit": "2023-08-04 14:35:02.714544", "Beginexp": "2023-08-04 14:35:15.278239", "Endhit": "2023-08-04 15:13:04.28243", "psiturkStatus": 3, "browser": "<redacted>", "platform": "windows", "language": "en-US"}