{"condition": 1, "counterbalance": 0, "assignmentId": "a23687346", "workerId": "w60759694", "hitId": "h36388088", "currenttrial": 62, "bonus": 0, "data": [{"uniqueid": "w60759694:a23687346", "current_trial": 0, "dateTime": 1693564748004, "trialdata": {"success": true, "trial_type": "fullscreen", "trial_index": 0, "time_elapsed": 3669, "internal_node_id": "0.0-0.0"}}, {"uniqueid": "w60759694:a23687346", "current_trial": 1, "dateTime": 1693565708291, "trialdata": {"view_history": [{"page_index": 0, "viewing_time": 960283}], "rt": 960283, "trial_id": "exp_instructions_misaligned", "trial_type": "instructions", "trial_index": 1, "time_elapsed": 963955, "internal_node_id": "0.0-1.0"}}, {"uniqueid": "w60759694:a23687346", "current_trial": 2, "dateTime": 1693566421773, "trialdata": {"view_history": [{"page_index": 0, "viewing_time": 558976}, {"page_index": 1, "viewing_time": 109958}, {"page_index": 2, "viewing_time": 25175}, {"page_index": 3, "viewing_time": 19372}], "rt": 713481, "trial_id": "mouselab_instructions_1_misaligned", "trial_type": "instructions", "trial_index": 2, "time_elapsed": 1677438, "internal_node_id": "0.0-2.0-1.0"}}, {"uniqueid": "w60759694:a23687346", "current_trial": 3, "dateTime": 1693566511835, "trialdata": {"revealed_states": [], "clicked_states": ["23", "24", "25", "32", "30", "31", "33", "26", "28", "1", "12"], "num_clicks_accrued": [0, 0, 0, 0, 0, 0, 0, 0, 0, 0, 0, 0, 0], "stateRewards": ["", 10, 10, -10, -10, 10, 10, -10, -10, 10, 10, -10, -10, 10, -10, 10, 10, -10, 10, 10, 10, 10, -10, -10, -10, -10, 10, -10, 10, 10, -10, -10, 10, -10], "withholdReward": false, "trial_id": "practice_1", "block": "test", "trialIndex": 0, "score": 8, "costs": -5.5, "simulationMode": [null, null, null, null, null], "rewards": [-10, 10, -10, 10, 10], "path": ["0", "0", "12", "13", "14", "19", "21"], "rt": [63814, 5550, 1706, 487, 34], "actions": ["right", "right", "right", "down", "down"], "actionTimes": [74875, 80940, 83142, 84139, 84685], "queries": {"click": {"state": {"target": ["23", "24", "25", "32", "30", "31", "33", "26", "28", "1", "12"], "time": [14753, 18286, 20647, 25873, 30339, 37963, 40521, 43704, 49713, 55747, 60835]}, "edge": {"target": [], "time": []}}, "mouseover": {"state": {"target": ["23", "24", "25", "30", "32", "30", "25", "30", "32", "32", "31", "33", "25", "26", "25", "30", "28", "1", "12", "1", "12", "13"], "time": [14349, 17364, 19929, 25260, 25460, 26778, 29041, 30041, 33106, 33905, 37687, 40119, 42251, 43434, 46582, 47580, 49414, 55461, 58110, 60109, 60642, 64956]}, "edge": {"target": [], "time": []}}, "mouseout": {"state": {"target": ["0", "23", "24", "24", "0", "23", "24", "25", "30", "32", "30", "25", "30", "32", "32", "31", "33", "25", "26", "26", "26", "25", "30", "28", "1", "12", "1", "12", "12", "12"], "time": [6386, 7503, 7586, 10318, 14282, 16648, 19629, 25227, 25343, 26628, 28958, 29991, 31989, 33205, 37520, 38972, 42018, 43068, 43711, 45399, 46416, 46799, 47854, 54179, 57778, 59960, 60509, 60894, 61610, 64857]}, "edge": {"target": [], "time": []}}}, "displayed_time": "85.20", "trialTime": 89349, "trial_type": "mouselab-mdp", "trial_index": 3, "time_elapsed": 1767499, "internal_node_id": "0.0-2.0-2.0-0.0"}}, {"uniqueid": "w60759694:a23687346", "current_trial": 4, "dateTime": 1693566539042, "trialdata": {"revealed_states": [], "clicked_states": [], "num_clicks_accrued": [0, 0, 0, 0, 0, 0, 0, 0, 0, 0, 0, 0, 0], "stateRewards": ["", 10, 10, 10, -10, -10, -10, -10, 10, -10, 10, 10, 10, 10, 10, -10, 10, 10, 10, -10, -10, -10, -10, 10, 10, 10, -10, -10, 10, 10, 10, 10, 10, -10], "withholdReward": false, "trial_id": "practice_2", "block": "test", "trialIndex": 1, "score": 33.5, "costs": 0, "simulationMode": [null, null, null, null, null], "rewards": [10, 10, 10, -10, 10], "path": ["0", "0", "12", "13", "14", "15", "17"], "rt": [5765, 6593, 616, 228, 295], "actions": ["right", "right", "right", "up", "right"], "actionTimes": [13044, 20151, 21288, 22030, 22833], "queries": {"click": {"state": {"target": [], "time": []}, "edge": {"target": [], "time": []}}, "mouseover": {"state": {"target": [], "time": []}, "edge": {"target": [], "time": []}}, "mouseout": {"state": {"target": ["13", "12", "0", "0", "13", "12"], "time": [6625, 6692, 6984, 15355, 18087, 19003]}, "edge": {"target": [], "time": []}}}, "displayed_time": "23.35", "trialTime": 26893, "trial_type": "mouselab-mdp", "trial_index": 4, "time_elapsed": 1794707, "internal_node_id": "0.0-2.0-2.0-1.0"}}, {"uniqueid": "w60759694:a23687346", "current_trial": 5, "dateTime": 1693566597756, "trialdata": {"view_history": [{"page_index": 0, "viewing_time": 45824}, {"page_index": 1, "viewing_time": 12887}], "rt": 58711, "trial_id": "mouselab_instructions_2_misaligned", "trial_type": "instructions", "trial_index": 5, "time_elapsed": 1853420, "internal_node_id": "0.0-2.0-3.0"}}, {"uniqueid": "w60759694:a23687346", "current_trial": 6, "dateTime": 1693566671098, "trialdata": {"rt": 73339, "response": {"Q0": "There is no cost for clicking on nodes.", "Q1": "The better I perform the higher my bonus will be.", "Q2": "No, the amount of cash at each node of the web may be different each time.", "Q3": "To get the highest total score.", "Q4": "Only before moving the spider.", "Q5": "3 seconds"}, "question_order": [0, 1, 2, 3, 4, 5], "correct": {"Q0": "The cost for clicking on nodes may vary between nodes.", "Q1": "The better I perform the higher my bonus will be.", "Q2": "No, the amount of cash at each node of the web may be different each time.", "Q3": "To get the highest total score.", "Q4": "Only before moving the spider.", "Q5": "3 seconds"}, "trial_id": "mouselab_quiz_misaligned", "trial_type": "survey-multi-choice", "trial_index": 6, "time_elapsed": 1926763, "internal_node_id": "0.0-2.0-4.0"}}, {"uniqueid": "w60759694:a23687346", "current_trial": 7, "dateTime": 1693566678811, "trialdata": {"success": true, "trial_type": "fullscreen", "trial_index": 7, "time_elapsed": 1934476, "internal_node_id": "0.0-2.1-0.1-0.1"}}, {"uniqueid": "w60759694:a23687346", "current_trial": 8, "dateTime": 1693566712360, "trialdata": {"view_history": [{"page_index": 0, "viewing_time": 2989}, {"page_index": 1, "viewing_time": 7882}, {"page_index": 2, "viewing_time": 2312}, {"page_index": 1, "viewing_time": 17293}, {"page_index": 2, "viewing_time": 1464}, {"page_index": 3, "viewing_time": 1608}], "rt": 33548, "trial_id": "mouselab_instructions_1_misaligned", "trial_type": "instructions", "trial_index": 8, "time_elapsed": 1968025, "internal_node_id": "0.0-2.1-1.1"}}, {"uniqueid": "w60759694:a23687346", "current_trial": 9, "dateTime": 1693566730909, "trialdata": {"revealed_states": [], "clicked_states": ["23", "12", "1"], "num_clicks_accrued": [0, 0, 0, 0, 0, 0, 0, 0, 0, 0, 0, 0, 0], "stateRewards": ["", 10, 10, -10, -10, 10, 10, -10, -10, 10, 10, -10, -10, 10, -10, 10, 10, -10, 10, 10, 10, 10, -10, -10, -10, -10, 10, -10, 10, 10, -10, -10, 10, -10], "withholdReward": false, "trial_id": "practice_1", "block": "test", "trialIndex": 2, "score": 12, "costs": -1.5, "simulationMode": [null, null, null, null, null], "rewards": [10, 10, -10, -10, 10], "path": ["0", "0", "1", "2", "3", "4", "5"], "rt": [9048, 741, 901, 164, 90], "actions": ["up", "up", "up", "right", "up"], "actionTimes": [12136, 13389, 14801, 15461, 16068], "queries": {"click": {"state": {"target": ["23", "12", "1"], "time": [4144, 7139, 9766]}, "edge": {"target": [], "time": []}}, "mouseover": {"state": {"target": ["0", "0", "23", "12", "0", "1", "0"], "time": [3367, 3600, 3684, 6882, 8782, 8931, 11130]}, "edge": {"target": [], "time": []}}, "mouseout": {"state": {"target": ["12", "0", "0", "0", "23", "12", "0", "1", "0"], "time": [418, 2750, 3435, 3617, 4603, 7667, 8815, 11047, 11164]}, "edge": {"target": [], "time": []}}}, "displayed_time": "16.58", "trialTime": 18187, "trial_type": "mouselab-mdp", "trial_index": 9, "time_elapsed": 1986573, "internal_node_id": "0.0-2.1-2.1-0.1"}}, {"uniqueid": "w60759694:a23687346", "current_trial": 10, "dateTime": 1693566741845, "trialdata": {"revealed_states": [], "clicked_states": ["12"], "num_clicks_accrued": [0, 0, 0, 0, 0, 0, 0, 0, 0, 0, 0, 0, 0], "stateRewards": ["", 10, 10, 10, -10, -10, -10, -10, 10, -10, 10, 10, 10, 10, 10, -10, 10, 10, 10, -10, -10, -10, -10, 10, 10, 10, -10, -10, 10, 10, 10, 10, 10, -10], "withholdReward": false, "trial_id": "practice_2", "block": "test", "trialIndex": 3, "score": 13, "costs": -0.5, "simulationMode": [null, null, null, null, null], "rewards": [10, 10, 10, -10, -10], "path": ["0", "0", "12", "13", "14", "19", "21"], "rt": [2883, 2064, 188, 60, 58], "actions": ["right", "right", "right", "down", "down"], "actionTimes": [4643, 7226, 7933, 8506, 9071], "queries": {"click": {"state": {"target": ["12"], "time": [2529]}, "edge": {"target": [], "time": []}}, "mouseover": {"state": {"target": ["0", "12"], "time": [2096, 2362]}, "edge": {"target": [], "time": []}}, "mouseout": {"state": {"target": ["0", "0", "12"], "time": [1529, 2262, 5561]}, "edge": {"target": [], "time": []}}}, "displayed_time": "9.59", "trialTime": 10610, "trial_type": "mouselab-mdp", "trial_index": 10, "time_elapsed": 1997509, "internal_node_id": "0.0-2.1-2.1-1.1"}}, {"uniqueid": "w60759694:a23687346", "current_trial": 11, "dateTime": 1693566746540, "trialdata": {"view_history": [{"page_index": 0, "viewing_time": 3005}, {"page_index": 1, "viewing_time": 1688}], "rt": 4693, "trial_id": "mouselab_instructions_2_misaligned", "trial_type": "instructions", "trial_index": 11, "time_elapsed": 2002205, "internal_node_id": "0.0-2.1-3.1"}}, {"uniqueid": "w60759694:a23687346", "current_trial": 12, "dateTime": 1693566776965, "trialdata": {"rt": 30423, "response": {"Q0": "The cost for clicking on nodes may vary between nodes.", "Q1": "The better I perform the higher my bonus will be.", "Q2": "No, the amount of cash at each node of the web may be different each time.", "Q3": "To get the highest total score.", "Q4": "Only before moving the spider.", "Q5": "3 seconds"}, "question_order": [0, 1, 2, 3, 4, 5], "correct": {"Q0": "The cost for clicking on nodes may vary between nodes.", "Q1": "The better I perform the higher my bonus will be.", "Q2": "No, the amount of cash at each node of the web may be different each time.", "Q3": "To get the highest total score.", "Q4": "Only before moving the spider.", "Q5": "3 seconds"}, "trial_id": "mouselab_quiz_misaligned", "trial_type": "survey-multi-choice", "trial_index": 12, "time_elapsed": 2032630, "internal_node_id": "0.0-2.1-4.1"}}, {"uniqueid": "w60759694:a23687346", "current_trial": 13, "dateTime": 1693566784287, "trialdata": {"rt": 7314, "response": {"Q0": "No"}, "question_order": [0], "trial_id": "repeat_check", "trial_type": "survey-multi-choice", "trial_index": 13, "time_elapsed": 2039951, "internal_node_id": "0.0-4.0-0.0"}}, {"uniqueid": "w60759694:a23687346", "current_trial": 14, "dateTime": 1693566787806, "trialdata": {"rt": 3515, "stimulus": "\n<h1> Get ready to start the game! </h1>\n\nThank you for reading the instructions. Get ready start with the 40 rounds of this game.\n<br><br>\nIf you need to take a break, feel free to take one after the end of a round, before continuing to the next one.\n<br><br>\nRemember, the more money the spider gets, the bigger your bonus will be!\n<br><br>\n<div style='text-align: center;'>Press <code>space</code> to begin.</div>\n\n<br><br>\n(If, at any point, the <code>space</code> key does not take you to the next page, click once on the text and try again.)", "response": " ", "trial_id": "mdp_ready", "trial_type": "html-keyboard-response", "trial_index": 14, "time_elapsed": 2043471, "internal_node_id": "0.0-6.0-0.0"}}, {"uniqueid": "w60759694:a23687346", "current_trial": 15, "dateTime": 1693566806556, "trialdata": {"revealed_states": [], "clicked_states": ["23"], "num_clicks_accrued": [0, 0, 0, 0, 0, 0, 0, 0, 0, 0, 0, 0, 0], "stateRewards": ["", -1, -2, 4, 9, 10, -75, 39, 16, -43, 88, -19, -1, 1, 2, 4, -31, 10, 73, 12, 41, -64, -81, -2, 2, -6, 1, -81, -1, -26, 3, -59, -3, -20], "withholdReward": false, "trial_id": "mdp_trial_1", "block": "test", "trialIndex": 4, "score": -61.75, "costs": 0.25, "simulationMode": [null, null, null, null, null], "rewards": [-2, 2, -6, 3, -59], "path": ["0", "0", "23", "24", "25", "30", "31"], "rt": [6340, 687, 317, 452, 137], "actions": ["left", "left", "left", "down", "right"], "actionTimes": [8326, 9528, 10358, 11326, 11976], "queries": {"click": {"state": {"target": ["23"], "time": [4045]}, "edge": {"target": [], "time": []}}, "mouseover": {"state": {"target": ["23", "24"], "time": [2542, 5241]}, "edge": {"target": [], "time": []}}, "mouseout": {"state": {"target": ["0", "23", "23"], "time": [1592, 4959, 5191]}, "edge": {"target": [], "time": []}}}, "displayed_time": "15.99", "trialTime": 18398, "trial_type": "mouselab-mdp", "trial_index": 15, "time_elapsed": 2062220, "internal_node_id": "0.0-6.0-1.0-0.0"}}, {"uniqueid": "w60759694:a23687346", "current_trial": 16, "dateTime": 1693566843063, "trialdata": {"revealed_states": [], "clicked_states": ["1", "2", "3", "4", "8", "10", "12", "13", "14", "23", "24", "25", "30", "32"], "num_clicks_accrued": [0, 0, 0, 0, 0, 0, 0, 0, 0, 0, 0, 0, 0], "stateRewards": ["", 2, -4, -8, -15, 71, -43, -41, 7, -17, 20, 67, -1, -1, -4, 6, 37, -24, -47, 9, 34, 57, 45, 1, 2, -4, -5, -23, 88, -5, 13, -40, 43, 44], "withholdReward": false, "trial_id": "mdp_trial_2", "block": "test", "trialIndex": 5, "score": 42.9, "costs": -12.1, "simulationMode": [null, null, null, null, null], "rewards": [1, 2, -4, 13, 43], "path": ["0", "0", "23", "24", "25", "30", "32"], "rt": [23124, 295, 267, 134, 55], "actions": ["left", "left", "left", "down", "down"], "actionTimes": [26324, 27141, 27931, 28581, 29150], "queries": {"click": {"state": {"target": ["1", "2", "3", "4", "8", "10", "12", "13", "14", "23", "24", "25", "30", "32"], "time": [4194, 5705, 7374, 8836, 9678, 10750, 14838, 15817, 16643, 17557, 18260, 18836, 19337, 20099]}, "edge": {"target": [], "time": []}}, "mouseover": {"state": {"target": ["1", "2", "7", "3", "4", "8", "10", "11", "9", "3", "1", "0", "12", "13", "14", "23", "24", "25", "30", "32", "31", "33", "25", "26", "28", "23", "1", "0", "0"], "time": [3889, 5123, 6489, 7070, 8586, 9438, 10105, 11369, 12203, 13255, 13738, 14219, 14569, 15553, 16404, 17405, 18073, 18670, 19140, 19948, 20513, 21416, 22141, 22318, 23136, 23202, 23517, 23800, 23999]}, "edge": {"target": [], "time": []}}, "mouseout": {"state": {"target": ["24", "23", "0", "0", "1", "2", "7", "3", "4", "3", "8", "10", "11", "9", "3", "1", "0", "12", "13", "14", "13", "23", "24", "25", "30", "32", "31", "30", "33", "25", "26", "28", "23", "1", "0", "0"], "time": [2156, 2189, 2289, 2823, 4806, 6372, 6904, 8295, 9288, 9389, 10023, 11102, 11836, 13071, 13538, 13771, 14452, 15403, 16220, 16993, 17037, 17988, 18508, 19052, 19701, 20236, 20964, 21142, 22092, 22188, 23104, 23153, 23220, 23650, 23850, 24032]}, "edge": {"target": [], "time": []}}}, "displayed_time": "29.66", "trialTime": 36163, "trial_type": "mouselab-mdp", "trial_index": 16, "time_elapsed": 2098727, "internal_node_id": "0.0-6.0-1.0-1.0"}}, {"uniqueid": "w60759694:a23687346", "current_trial": 17, "dateTime": 1693566862153, "trialdata": {"revealed_states": [], "clicked_states": ["12", "13", "14", "19", "21"], "num_clicks_accrued": [0, 0, 0, 0, 0, 0, 0, 0, 0, 0, 0, 0, 0], "stateRewards": ["", -2, 1, -5, 2, -68, 80, 33, 10, 67, -59, 20, -1, -3, 3, 14, 74, -2, 24, -16, 63, 80, 46, -1, 4, 6, 12, 83, -38, -43, -4, 43, 14, -79], "withholdReward": false, "trial_id": "mdp_trial_3", "block": "test", "trialIndex": 6, "score": 58.25, "costs": -4.75, "simulationMode": [null, null, null, null, null], "rewards": [-1, -3, 3, -16, 80], "path": ["0", "0", "12", "13", "14", "19", "21"], "rt": [8057, 37, 375, 39, 288], "actions": ["right", "right", "right", "down", "down"], "actionTimes": [9390, 9954, 10860, 11421, 12238], "queries": {"click": {"state": {"target": ["12", "13", "14", "19", "21"], "time": [2165, 2662, 3213, 4233, 4661]}, "edge": {"target": [], "time": []}}, "mouseover": {"state": {"target": ["0", "12", "13", "14", "19", "21"], "time": [1487, 1767, 2435, 3019, 4019, 4468]}, "edge": {"target": [], "time": []}}, "mouseout": {"state": {"target": ["0", "0", "12", "13", "14", "14", "19", "21", "19", "14"], "time": [1000, 1701, 2351, 2904, 3226, 3552, 4386, 4984, 5117, 5267]}, "edge": {"target": [], "time": []}}}, "displayed_time": "15.33", "trialTime": 18715, "trial_type": "mouselab-mdp", "trial_index": 17, "time_elapsed": 2117818, "internal_node_id": "0.0-6.0-1.0-2.0"}}, {"uniqueid": "w60759694:a23687346", "current_trial": 18, "dateTime": 1693566891759, "trialdata": {"revealed_states": [], "clicked_states": ["1", "2", "3", "4", "5", "12", "13", "14", "19", "21", "23", "24", "25", "30", "32"], "num_clicks_accrued": [0, 0, 0, 0, 0, 0, 0, 0, 0, 0, 0, 0, 0], "stateRewards": ["", -2, -4, -6, 12, -58, -70, -80, 2, 16, -88, -62, 1, 2, -5, 11, 77, -35, -44, -5, 18, -83, 87, 1, -3, -5, 13, -44, -21, -86, 10, -52, 8, 29], "withholdReward": false, "trial_id": "mdp_trial_4", "block": "test", "trialIndex": 7, "score": -52.25, "costs": -14.25, "simulationMode": [null, null, null, null, null], "rewards": [1, -3, -5, 13, -44], "path": ["0", "0", "23", "24", "25", "26", "27"], "rt": [20456, 161, 100, 241, 27], "actions": ["left", "left", "left", "up", "up"], "actionTimes": [23614, 24299, 24922, 25680, 26216], "queries": {"click": {"state": {"target": ["1", "2", "3", "4", "5", "12", "13", "14", "19", "21", "23", "24", "25", "30", "32"], "time": [3725, 4208, 4977, 5530, 6473, 10257, 11342, 11857, 12447, 12949, 17120, 17946, 18581, 19144, 19597]}, "edge": {"target": [], "time": []}}, "mouseover": {"state": {"target": ["1", "2", "3", "4", "5", "7", "12", "13", "14", "19", "21", "23", "24", "25", "30", "32"], "time": [3544, 4081, 4830, 5381, 6329, 7394, 8562, 11164, 11712, 12219, 12775, 16392, 17731, 18426, 18992, 19515]}, "edge": {"target": [], "time": []}}, "mouseout": {"state": {"target": ["12", "0", "1", "2", "3", "4", "5", "4", "7", "12", "13", "14", "19", "21", "23", "24", "24", "25", "25", "30", "32", "32"], "time": [2663, 3463, 3914, 4646, 5280, 5740, 6862, 7245, 8228, 10860, 11610, 12144, 12664, 13267, 17574, 17962, 18341, 18598, 18892, 19387, 19617, 20032]}, "edge": {"target": [], "time": []}}}, "displayed_time": "26.74", "trialTime": 29225, "trial_type": "mouselab-mdp", "trial_index": 18, "time_elapsed": 2147423, "internal_node_id": "0.0-6.0-1.0-3.0"}}, {"uniqueid": "w60759694:a23687346", "current_trial": 19, "dateTime": 1693566914582, "trialdata": {"revealed_states": [], "clicked_states": [], "num_clicks_accrued": [0, 0, 0, 0, 0, 0, 0, 0, 0, 0, 0, 0, 0], "stateRewards": ["", 2, 3, 3, 10, 19, -21, 6, 9, 54, 68, 16, 2, 2, -6, -8, 40, -2, -75, -2, -42, 55, 59, -1, 2, 4, -14, 11, -34, -30, -6, 61, -53, 13], "withholdReward": false, "trial_id": "mdp_trial_5", "block": "test", "trialIndex": 8, "score": -85, "costs": 0, "simulationMode": [null, null, null, null, null], "rewards": [2, 2, -6, -8, -75], "path": ["0", "0", "12", "13", "14", "15", "18"], "rt": [3573, 223, 141, 48, 378], "actions": ["right", "right", "right", "up", "left"], "actionTimes": [6383, 7116, 7766, 8324, 9235], "queries": {"click": {"state": {"target": [], "time": []}, "edge": {"target": [], "time": []}}, "mouseover": {"state": {"target": ["0", "12"], "time": [3813, 4024]}, "edge": {"target": [], "time": []}}, "mouseout": {"state": {"target": ["0", "0"], "time": [2507, 3874]}, "edge": {"target": [], "time": []}}}, "displayed_time": "16.81", "trialTime": 22477, "trial_type": "mouselab-mdp", "trial_index": 19, "time_elapsed": 2170247, "internal_node_id": "0.0-6.0-1.0-4.0"}}, {"uniqueid": "w60759694:a23687346", "current_trial": 20, "dateTime": 1693566932491, "trialdata": {"revealed_states": [], "clicked_states": ["1", "2", "3", "8", "10"], "num_clicks_accrued": [0, 0, 0, 0, 0, 0, 0, 0, 0, 0, 0, 0, 0], "stateRewards": ["", 2, 4, 4, -8, -36, -33, 38, 16, -51, 57, 57, 1, 3, 4, -6, 45, 68, 87, 1, 63, 24, -55, -2, 2, -6, -13, -63, -50, 8, 2, 80, 6, 60], "withholdReward": false, "trial_id": "mdp_trial_6", "block": "test", "trialIndex": 9, "score": 78.25, "costs": -4.75, "simulationMode": [null, null, null, null, null], "rewards": [2, 4, 4, 16, 57], "path": ["0", "0", "1", "2", "3", "8", "10"], "rt": [6132, 98, 379, 249, 2], "actions": ["up", "up", "up", "left", "down"], "actionTimes": [8345, 8964, 9862, 10632, 11153], "queries": {"click": {"state": {"target": ["1", "2", "3", "8", "10"], "time": [2908, 3392, 4014, 4701, 5161]}, "edge": {"target": [], "time": []}}, "mouseover": {"state": {"target": ["1", "2", "3", "8", "10"], "time": [2701, 3195, 3857, 4587, 5036]}, "edge": {"target": [], "time": []}}, "mouseout": {"state": {"target": ["12", "1", "2", "3", "8", "10", "10"], "time": [1734, 3025, 3636, 4469, 4904, 5213, 5543]}, "edge": {"target": [], "time": []}}}, "displayed_time": "16.21", "trialTime": 17508, "trial_type": "mouselab-mdp", "trial_index": 20, "time_elapsed": 2188156, "internal_node_id": "0.0-6.0-1.0-5.0"}}, {"uniqueid": "w60759694:a23687346", "current_trial": 21, "dateTime": 1693566973411, "trialdata": {"revealed_states": [], "clicked_states": ["1", "2", "3", "4", "7", "12", "13", "14", "15", "16", "17", "18", "19", "21", "20", "22"], "num_clicks_accrued": [0, 0, 0, 0, 0, 0, 0, 0, 0, 0, 0, 0, 0], "stateRewards": ["", 1, 1, 1, -3, -7, -1, -41, -10, 20, -72, -63, 1, -4, -2, 2, -66, 30, -84, -2, 49, 23, 71, -1, -4, 4, -12, 67, 5, 18, -16, 88, 56, -5], "withholdReward": false, "trial_id": "mdp_trial_7", "block": "test", "trialIndex": 10, "score": 42.2, "costs": -21.799999999999997, "simulationMode": [null, null, null, null, null], "rewards": [1, -4, -2, -2, 71], "path": ["0", "0", "12", "13", "14", "19", "22"], "rt": [28684, 2, 481, 320, 962], "actions": ["right", "right", "right", "down", "left"], "actionTimes": [32460, 32985, 34001, 34833, 36306], "queries": {"click": {"state": {"target": ["1", "2", "3", "4", "7", "12", "13", "14", "15", "16", "17", "18", "19", "21", "20", "22"], "time": [4334, 4884, 5535, 6137, 6931, 10365, 11063, 11672, 12177, 12718, 16252, 19388, 22567, 23187, 26251, 29340]}, "edge": {"target": [], "time": []}}, "mouseover": {"state": {"target": ["0", "1", "2", "3", "4", "7", "12", "13", "14", "15", "16", "17", "13", "18", "13", "19", "21", "20", "19", "22"], "time": [3872, 4188, 4721, 5440, 5890, 6839, 9372, 10888, 11455, 11960, 12480, 15063, 17194, 17799, 19928, 21419, 22968, 24249, 26599, 26806]}, "edge": {"target": [], "time": []}}, "mouseout": {"state": {"target": ["1", "0", "1", "2", "3", "4", "7", "12", "13", "14", "15", "16", "17", "13", "18", "13", "19", "19", "21", "20", "19", "22"], "time": [1905, 4088, 4557, 5240, 5826, 6423, 7405, 10704, 11421, 11917, 12390, 13089, 16870, 17320, 19867, 20042, 22727, 22867, 23460, 26582, 26682, 29748]}, "edge": {"target": [], "time": []}}}, "displayed_time": "36.82", "trialTime": 40491, "trial_type": "mouselab-mdp", "trial_index": 21, "time_elapsed": 2229075, "internal_node_id": "0.0-6.0-1.0-6.0"}}, {"uniqueid": "w60759694:a23687346", "current_trial": 22, "dateTime": 1693567005928, "trialdata": {"revealed_states": [], "clicked_states": ["23", "24", "25", "30", "32", "31", "33", "26", "28", "29", "27"], "num_clicks_accrued": [0, 0, 0, 0, 0, 0, 0, 0, 0, 0, 0, 0, 0], "stateRewards": ["", 1, 1, -2, 7, -31, -6, 76, 1, -36, -16, -53, 2, 1, 7, 13, -47, -10, 47, -7, 72, 46, -56, -2, -2, -2, 11, -80, 44, 38, 16, 67, 85, -78], "withholdReward": false, "trial_id": "mdp_trial_8", "block": "test", "trialIndex": 11, "score": 77.95, "costs": -17.05, "simulationMode": [null, null, null, null, null], "rewards": [-2, -2, -2, 16, 85], "path": ["0", "0", "23", "24", "25", "30", "32"], "rt": [23622, 276, 50, 16, 619], "actions": ["left", "left", "left", "down", "down"], "actionTimes": [27387, 28180, 28752, 29301, 30439], "queries": {"click": {"state": {"target": ["23", "24", "25", "30", "32", "31", "33", "26", "28", "29", "27"], "time": [4653, 5191, 5740, 6498, 7146, 10533, 13701, 17196, 18044, 21183, 24305]}, "edge": {"target": [], "time": []}}, "mouseover": {"state": {"target": ["23", "24", "25", "30", "32", "31", "30", "33", "30", "25", "26", "28", "29", "27"], "time": [4525, 5028, 5611, 6376, 6826, 8574, 11224, 11291, 15674, 15796, 17056, 17857, 18674, 23853]}, "edge": {"target": [], "time": []}}, "mouseout": {"state": {"target": ["0", "23", "24", "25", "25", "30", "30", "32", "31", "30", "33", "30", "25", "26", "28", "29"], "time": [4376, 4946, 5477, 5753, 6228, 6507, 6744, 7477, 11191, 11258, 14207, 15702, 16315, 17490, 18392, 23553]}, "edge": {"target": [], "time": []}}}, "displayed_time": "30.95", "trialTime": 32151, "trial_type": "mouselab-mdp", "trial_index": 22, "time_elapsed": 2261593, "internal_node_id": "0.0-6.0-1.0-7.0"}}, {"uniqueid": "w60759694:a23687346", "current_trial": 23, "dateTime": 1693567050096, "trialdata": {"revealed_states": [], "clicked_states": ["1", "2", "7", "5", "9", "27", "29", "28", "11", "33", "32", "31"], "num_clicks_accrued": [0, 0, 0, 0, 0, 0, 0, 0, 0, 0, 0, 0, 0], "stateRewards": ["", 2, -1, -2, -5, -47, -57, -33, -11, 31, -18, -72, -2, 1, -4, -8, -46, -53, -50, 15, -85, -9, 39, -2, -2, 1, 14, -1, -8, 53, -12, -41, -74, 62], "withholdReward": false, "trial_id": "mdp_trial_9", "block": "test", "trialIndex": 12, "score": 25.400000000000006, "costs": -21.599999999999998, "simulationMode": [null, null, null, null, null, null], "rewards": [-2, -2, 1, -12, 62], "path": ["0", "0", "23", "24", "25", "30", "33"], "rt": [32511, 1286, 189, 59, 59, 384], "actions": ["left", "left", "left", "left", "down", "left"], "actionTimes": [37255, 38548, 39252, 39821, 40403, 41311], "queries": {"click": {"state": {"target": ["1", "2", "7", "5", "9", "27", "29", "28", "11", "33", "32", "31"], "time": [5616, 6108, 6824, 10394, 13522, 16778, 19922, 23170, 26257, 29295, 32420, 35480]}, "edge": {"target": [], "time": []}}, "mouseover": {"state": {"target": ["1", "2", "7", "3", "4", "5", "3", "8", "11", "9", "8", "10", "28", "27", "25", "30", "29", "26", "28", "11", "30", "33", "32", "31"], "time": [5457, 5859, 6510, 7259, 8091, 10205, 10889, 10939, 11039, 11640, 13845, 13885, 15114, 15870, 17122, 17213, 18995, 20230, 20291, 23575, 26684, 27117, 29848, 32929]}, "edge": {"target": [], "time": []}}, "mouseout": {"state": {"target": ["27", "1", "2", "2", "7", "3", "4", "5", "3", "8", "11", "9", "8", "10", "28", "27", "25", "30", "29", "26", "28", "11", "28", "30", "33", "32", "31", "31"], "time": [4007, 5809, 6233, 6390, 7042, 7941, 8724, 10856, 10906, 10989, 11356, 13825, 13865, 13921, 15198, 17044, 17149, 17292, 20206, 20268, 23505, 26517, 26587, 26718, 29782, 32713, 35619, 36045]}, "edge": {"target": [], "time": []}}}, "displayed_time": "41.83", "trialTime": 43785, "trial_type": "mouselab-mdp", "trial_index": 23, "time_elapsed": 2305761, "internal_node_id": "0.0-6.0-1.0-8.0"}}, {"uniqueid": "w60759694:a23687346", "current_trial": 24, "dateTime": 1693567070233, "trialdata": {"revealed_states": [], "clicked_states": ["21", "20", "33"], "num_clicks_accrued": [0, 0, 0, 0, 0, 0, 0, 0, 0, 0, 0, 0, 0], "stateRewards": ["", 2, -3, 5, -14, -63, -9, -24, -11, -54, -43, 68, 2, -2, -4, 7, -64, 30, 47, 12, -74, 11, 86, 1, -3, 3, 10, -71, -42, -52, -1, -29, -16, 69], "withholdReward": false, "trial_id": "mdp_trial_10", "block": "test", "trialIndex": 13, "score": -22.45, "costs": -6.449999999999999, "simulationMode": [null, null, null, null, null], "rewards": [1, -3, 3, -1, -16], "path": ["0", "0", "23", "24", "25", "30", "32"], "rt": [11221, 172, 301, 14, 84], "actions": ["left", "left", "left", "down", "down"], "actionTimes": [14740, 15434, 16248, 16777, 17396], "queries": {"click": {"state": {"target": ["21", "20", "33"], "time": [4275, 7502, 10604]}, "edge": {"target": [], "time": []}}, "mouseover": {"state": {"target": ["12", "19", "21", "20", "19", "22", "31", "30", "33", "32", "31", "0"], "time": [3815, 3896, 4079, 4879, 7895, 7979, 8479, 8513, 8613, 11113, 13480, 14278]}, "edge": {"target": [], "time": []}}, "mouseout": {"state": {"target": ["0", "12", "19", "21", "20", "19", "22", "31", "30", "33", "32", "31", "0"], "time": [3813, 3846, 3962, 4283, 7879, 7946, 8029, 8497, 8546, 11080, 11130, 14011, 19272]}, "edge": {"target": [], "time": []}}}, "displayed_time": "17.91", "trialTime": 19749, "trial_type": "mouselab-mdp", "trial_index": 24, "time_elapsed": 2325897, "internal_node_id": "0.0-6.0-1.0-9.0"}}, {"uniqueid": "w60759694:a23687346", "current_trial": 25, "dateTime": 1693567098925, "trialdata": {"revealed_states": [], "clicked_states": ["13", "21", "29", "27", "32", "31", "17"], "num_clicks_accrued": [0, 0, 0, 0, 0, 0, 0, 0, 0, 0, 0, 0, 0], "stateRewards": ["", -2, -1, -6, -14, -55, 78, -13, 11, 14, -71, 59, 2, 2, 6, -6, 9, 38, 14, 7, 85, 11, 68, 1, -4, -1, -3, -63, -85, 9, -2, 63, -86, -10], "withholdReward": false, "trial_id": "mdp_trial_11", "block": "test", "trialIndex": 14, "score": 43.75, "costs": -13.250000000000002, "simulationMode": [null, null, null, null, null], "rewards": [1, -4, -1, -2, 63], "path": ["0", "0", "23", "24", "25", "30", "31"], "rt": [22287, 126, 464, 303, 289], "actions": ["left", "left", "left", "down", "right"], "actionTimes": [23508, 24149, 25136, 25958, 26760], "queries": {"click": {"state": {"target": ["13", "21", "29", "27", "32", "31", "17"], "time": [2831, 3996, 7098, 10227, 13170, 16320, 19471]}, "edge": {"target": [], "time": []}}, "mouseover": {"state": {"target": ["12", "13", "14", "19", "21", "20", "19", "7", "2", "27", "29", "27", "24", "31", "32", "32", "31", "31", "0", "12", "15", "17", "17", "15", "16"], "time": [1980, 2496, 3180, 3363, 3764, 4831, 5031, 5499, 5548, 5766, 6216, 7599, 10630, 10686, 10753, 11033, 13831, 14263, 16710, 16747, 17177, 17293, 17444, 19925, 20295]}, "edge": {"target": [], "time": []}}, "mouseout": {"state": {"target": ["0", "12", "13", "14", "19", "21", "20", "19", "13", "7", "2", "27", "29", "27", "24", "31", "32", "32", "31", "31", "0", "12", "15", "17", "17", "17", "15"], "time": [1947, 2080, 3114, 3247, 3614, 4448, 5014, 5048, 5081, 5532, 5582, 5784, 7465, 10547, 10666, 10706, 10775, 13512, 13972, 16452, 16727, 16770, 17243, 17327, 19583, 19892, 19992]}, "edge": {"target": [], "time": []}}}, "displayed_time": "27.27", "trialTime": 28302, "trial_type": "mouselab-mdp", "trial_index": 25, "time_elapsed": 2354590, "internal_node_id": "0.0-6.0-1.0-10.0"}}, {"uniqueid": "w60759694:a23687346", "current_trial": 26, "dateTime": 1693567121810, "trialdata": {"revealed_states": [], "clicked_states": ["23", "26", "27"], "num_clicks_accrued": [0, 0, 0, 0, 0, 0, 0, 0, 0, 0, 0, 0, 0], "stateRewards": ["", 2, -2, -3, 10, -4, -1, -11, -8, -9, -36, -78, 2, 1, 7, -7, 44, -1, -31, -1, 26, 47, 83, 2, -4, -4, -6, -52, -76, -81, -1, -59, 45, 67], "withholdReward": false, "trial_id": "mdp_trial_12", "block": "test", "trialIndex": 15, "score": 56.55, "costs": -3.45, "simulationMode": [null, null, null, null, null, null], "rewards": [2, -4, -4, -1, 67], "path": ["0", "0", "23", "24", "25", "30", "33"], "rt": [5633, 212, 117, 341, 414, 86], "actions": ["left", "left", "left", "left", "down", "left"], "actionTimes": [11491, 11707, 12359, 13217, 14155, 14759], "queries": {"click": {"state": {"target": ["23", "26", "27"], "time": [6896, 7994, 8956]}, "edge": {"target": [], "time": []}}, "mouseover": {"state": {"target": ["23", "24", "26", "27", "28"], "time": [6704, 7456, 7851, 8738, 9521]}, "edge": {"target": [], "time": []}}, "mouseout": {"state": {"target": ["16", "18", "12", "0", "23", "24", "26", "27"], "time": [773, 1922, 5421, 6587, 7422, 7473, 8116, 9188]}, "edge": {"target": [], "time": []}}}, "displayed_time": "19.86", "trialTime": 22512, "trial_type": "mouselab-mdp", "trial_index": 26, "time_elapsed": 2377475, "internal_node_id": "0.0-6.0-1.0-11.0"}}, {"uniqueid": "w60759694:a23687346", "current_trial": 27, "dateTime": 1693567148887, "trialdata": {"revealed_states": [], "clicked_states": ["16", "6", "7", "5", "11"], "num_clicks_accrued": [0, 0, 0, 0, 0, 0, 0, 0, 0, 0, 0, 0, 0], "stateRewards": ["", 2, -4, 4, 9, 69, 9, -75, 12, -86, 66, 25, -1, 3, 2, -13, -88, -3, 1, 4, -69, 49, -84, 2, -1, 4, 2, -18, -81, -52, -15, -69, -54, 25], "withholdReward": false, "trial_id": "mdp_trial_13", "block": "test", "trialIndex": 16, "score": 69.25, "costs": -10.75, "simulationMode": [null, null, null, null, null], "rewards": [2, -4, 4, 9, 69], "path": ["0", "0", "1", "2", "3", "4", "5"], "rt": [16645, 226, 201, 704, 160], "actions": ["up", "up", "up", "right", "up"], "actionTimes": [19330, 20074, 20798, 22016, 22687], "queries": {"click": {"state": {"target": ["16", "6", "7", "5", "11"], "time": [3532, 6642, 9902, 12966, 16180]}, "edge": {"target": [], "time": []}}, "mouseover": {"state": {"target": ["18", "16", "6", "4", "7", "4", "5", "9", "11", "10"], "time": [3113, 3164, 4148, 7148, 7403, 10262, 10429, 13499, 13780, 16630]}, "edge": {"target": [], "time": []}}, "mouseout": {"state": {"target": ["28", "1", "12", "0", "18", "16", "6", "6", "4", "7", "4", "5", "9", "11"], "time": [1880, 1963, 2147, 3063, 3130, 3620, 6738, 7014, 7181, 9994, 10312, 13297, 13580, 16546]}, "edge": {"target": [], "time": []}}}, "displayed_time": "23.21", "trialTime": 26642, "trial_type": "mouselab-mdp", "trial_index": 27, "time_elapsed": 2404552, "internal_node_id": "0.0-6.0-1.0-12.0"}}, {"uniqueid": "w60759694:a23687346", "current_trial": 28, "dateTime": 1693567172005, "trialdata": {"revealed_states": [], "clicked_states": ["27", "29", "28", "33"], "num_clicks_accrued": [0, 0, 0, 0, 0, 0, 0, 0, 0, 0, 0, 0, 0], "stateRewards": ["", 2, -2, 7, -11, -76, -65, -23, 16, -58, 30, 81, 1, 2, 7, 14, 9, 55, -2, 6, 11, -15, 31, -1, -1, -3, 2, 15, 2, 46, 15, 18, 45, -34], "withholdReward": false, "trial_id": "mdp_trial_14", "block": "test", "trialIndex": 17, "score": 34.4, "costs": -8.6, "simulationMode": [null, null, null, null, null], "rewards": [-1, -1, -3, 2, 46], "path": ["0", "0", "23", "24", "25", "26", "29"], "rt": [14173, 128, 128, 1985, 191], "actions": ["left", "left", "left", "up", "left"], "actionTimes": [15515, 16167, 16817, 19323, 20025], "queries": {"click": {"state": {"target": ["27", "29", "28", "33"], "time": [2160, 5528, 9038, 12363]}, "edge": {"target": [], "time": []}}, "mouseover": {"state": {"target": ["1", "27", "26", "29", "26", "28", "25", "30", "33", "25", "28", "24", "30", "33"], "time": [1505, 2021, 2474, 2644, 5888, 5988, 7422, 7488, 8022, 8405, 8755, 9273, 9355, 9488]}, "edge": {"target": [], "time": []}}, "mouseout": {"state": {"target": ["10", "1", "0", "1", "27", "26", "29", "26", "28", "25", "30", "33", "25", "28", "24", "30", "33"], "time": [455, 838, 1455, 1588, 2423, 2540, 5855, 5938, 7338, 7438, 7589, 8123, 8471, 9255, 9305, 9438, 21761]}, "edge": {"target": [], "time": []}}}, "displayed_time": "20.53", "trialTime": 22664, "trial_type": "mouselab-mdp", "trial_index": 28, "time_elapsed": 2427670, "internal_node_id": "0.0-6.0-1.0-13.0"}}, {"uniqueid": "w60759694:a23687346", "current_trial": 29, "dateTime": 1693567205580, "trialdata": {"revealed_states": [], "clicked_states": ["21", "20"], "num_clicks_accrued": [0, 0, 0, 0, 0, 0, 0, 0, 0, 0, 0, 0, 0], "stateRewards": ["", 2, -4, -4, 13, -80, 62, 13, -11, 57, -13, -44, 1, 4, 3, -4, -29, -88, 15, 16, -58, 68, -45, -1, -3, -1, -9, -44, -86, -19, -7, -36, 59, 66], "withholdReward": false, "trial_id": "mdp_trial_15", "block": "test", "trialIndex": 18, "score": 87.7, "costs": -4.3, "simulationMode": [null, null, null, null, null], "rewards": [1, 4, 3, 16, 68], "path": ["0", "0", "12", "13", "14", "19", "21"], "rt": [8281, 124, 50, 910, 56], "actions": ["right", "right", "right", "down", "down"], "actionTimes": [13774, 14416, 14993, 16435, 17011], "queries": {"click": {"state": {"target": ["21", "20"], "time": [7485, 10687]}, "edge": {"target": [], "time": []}}, "mouseover": {"state": {"target": ["12", "13", "12", "13", "14", "19", "21", "20"], "time": [6122, 6189, 6439, 6789, 6872, 6972, 7338, 8024]}, "edge": {"target": [], "time": []}}, "mouseout": {"state": {"target": ["0", "12", "13", "12", "13", "14", "19", "21", "20", "21"], "time": [5589, 6156, 6372, 6772, 6822, 6938, 7138, 7857, 11321, 11421]}, "edge": {"target": [], "time": []}}}, "displayed_time": "19.49", "trialTime": 33120, "trial_type": "mouselab-mdp", "trial_index": 29, "time_elapsed": 2461244, "internal_node_id": "0.0-6.0-1.0-14.0"}}, {"uniqueid": "w60759694:a23687346", "current_trial": 30, "dateTime": 1693567236476, "trialdata": {"revealed_states": [], "clicked_states": ["29", "28", "33", "32", "6"], "num_clicks_accrued": [0, 0, 0, 0, 0, 0, 0, 0, 0, 0, 0, 0, 0], "stateRewards": ["", 1, 1, 6, -14, -40, 37, 16, -13, 33, -68, 49, 2, 4, 3, 6, 55, 27, 32, 10, -65, 20, -87, 2, 1, -6, -5, -42, 12, 29, -8, 16, 76, -33], "withholdReward": false, "trial_id": "mdp_trial_16", "block": "test", "trialIndex": 19, "score": 54.25, "costs": -10.75, "simulationMode": [null, null, null, null, null, null], "rewards": [2, 1, -6, -8, 76], "path": ["0", "0", "23", "24", "25", "30", "32"], "rt": [15322, 254, 156, 261, 149, 53], "actions": ["left", "left", "left", "left", "down", "down"], "actionTimes": [16706, 16970, 17686, 18488, 19183, 19752], "queries": {"click": {"state": {"target": ["29", "28", "33", "32", "6"], "time": [2363, 5642, 8924, 12101, 15381]}, "edge": {"target": [], "time": []}}, "mouseover": {"state": {"target": ["23", "24", "26", "29", "26", "28", "24", "30", "32", "33", "32", "31", "0", "6", "12"], "time": [1666, 1750, 1933, 2249, 2588, 2885, 6034, 6100, 6151, 8405, 9214, 12615, 13199, 14041, 15854]}, "edge": {"target": [], "time": []}}, "mouseout": {"state": {"target": ["0", "23", "24", "26", "29", "26", "28", "24", "30", "32", "33", "32", "31", "0", "6", "12"], "time": [1516, 1716, 1767, 2166, 2573, 2652, 6000, 6050, 6117, 6267, 9170, 12223, 13132, 13235, 15765, 15895]}, "edge": {"target": [], "time": []}}}, "displayed_time": "20.28", "trialTime": 30410, "trial_type": "mouselab-mdp", "trial_index": 30, "time_elapsed": 2492141, "internal_node_id": "0.0-6.0-1.0-15.0"}}, {"uniqueid": "w60759694:a23687346", "current_trial": 31, "dateTime": 1693567253670, "trialdata": {"revealed_states": [], "clicked_states": ["1", "4", "6"], "num_clicks_accrued": [0, 0, 0, 0, 0, 0, 0, 0, 0, 0, 0, 0, 0], "stateRewards": ["", 1, 3, 3, -10, 52, 68, 59, 12, 7, 49, 21, -2, -3, -4, -2, -2, 63, 63, -4, 44, 43, -76, -2, -3, -6, 13, 48, 36, 12, -5, -36, -33, -11], "withholdReward": false, "trial_id": "mdp_trial_17", "block": "test", "trialIndex": 20, "score": 61.55, "costs": -3.45, "simulationMode": [null, null, null, null, null], "rewards": [1, 3, 3, -10, 68], "path": ["0", "0", "1", "2", "3", "4", "6"], "rt": [6253, 6, 123, 496, 108], "actions": ["up", "up", "up", "right", "right"], "actionTimes": [7485, 8011, 8661, 9668, 10296], "queries": {"click": {"state": {"target": ["1", "4", "6"], "time": [1959, 2737, 3438]}, "edge": {"target": [], "time": []}}, "mouseover": {"state": {"target": ["1", "4", "6", "7"], "time": [1755, 2290, 3257, 3857]}, "edge": {"target": [], "time": []}}, "mouseout": {"state": {"target": ["0", "1", "4", "6", "7"], "time": [1272, 2068, 3074, 3692, 7002]}, "edge": {"target": [], "time": []}}}, "displayed_time": "15.23", "trialTime": 16692, "trial_type": "mouselab-mdp", "trial_index": 31, "time_elapsed": 2509334, "internal_node_id": "0.0-6.0-1.0-16.0"}}, {"uniqueid": "w60759694:a23687346", "current_trial": 32, "dateTime": 1693567284439, "trialdata": {"revealed_states": [], "clicked_states": ["16", "20", "18", "10", "28", "29"], "num_clicks_accrued": [0, 0, 0, 0, 0, 0, 0, 0, 0, 0, 0, 0, 0], "stateRewards": ["", 1, -4, -4, 8, 1, -79, 68, -10, -79, 8, -74, -1, -3, -6, 14, 43, 23, 9, 5, -51, 63, 61, -2, 4, 6, -10, 69, -32, 57, 15, -80, -80, -77], "withholdReward": false, "trial_id": "mdp_trial_18", "block": "test", "trialIndex": 21, "score": 42.1, "costs": -12.9, "simulationMode": [null, null, null, null, null], "rewards": [-2, 4, 6, -10, 57], "path": ["0", "0", "23", "24", "25", "26", "29"], "rt": [22686, 115, 62, 317, 298], "actions": ["left", "left", "left", "up", "left"], "actionTimes": [24050, 24687, 25268, 26106, 26918], "queries": {"click": {"state": {"target": ["16", "20", "18", "10", "28", "29"], "time": [3110, 6423, 9732, 12966, 16123, 19877]}, "edge": {"target": [], "time": []}}, "mouseover": {"state": {"target": ["12", "13", "16", "17", "20", "19", "13", "18", "1", "10", "24", "28", "23", "29", "26", "27"], "time": [2092, 2359, 2959, 3660, 4477, 6841, 6992, 7142, 10377, 11427, 13524, 14943, 16454, 19753, 20375, 20475]}, "edge": {"target": [], "time": []}}, "mouseout": {"state": {"target": ["1", "0", "12", "13", "16", "17", "20", "19", "13", "18", "1", "10", "10", "24", "28", "23", "29", "29", "26"], "time": [793, 2060, 2259, 2609, 3344, 4060, 6808, 6892, 7042, 10310, 10485, 13075, 13316, 14871, 16422, 19339, 19906, 20288, 20396]}, "edge": {"target": [], "time": []}}}, "displayed_time": "27.44", "trialTime": 30257, "trial_type": "mouselab-mdp", "trial_index": 32, "time_elapsed": 2540103, "internal_node_id": "0.0-6.0-1.0-17.0"}}, {"uniqueid": "w60759694:a23687346", "current_trial": 33, "dateTime": 1693567319342, "trialdata": {"revealed_states": [], "clicked_states": ["32", "33", "31", "29", "1", "7", "18"], "num_clicks_accrued": [0, 0, 0, 0, 0, 0, 0, 0, 0, 0, 0, 0, 0], "stateRewards": ["", -2, -4, -2, 10, -8, -15, -47, 7, -84, 53, 5, -1, 2, -7, 3, 83, 31, 47, -1, 30, -8, 69, 2, -4, -1, 8, -7, 12, -8, -8, -13, 30, -84], "withholdReward": false, "trial_id": "mdp_trial_19", "block": "test", "trialIndex": 22, "score": 31.35, "costs": -12.65, "simulationMode": [null, null, null, null, null], "rewards": [-1, 2, -7, 3, 47], "path": ["0", "0", "12", "13", "14", "15", "18"], "rt": [23524, 51, 326, 122, 352], "actions": ["right", "right", "right", "up", "left"], "actionTimes": [27863, 28432, 29288, 29935, 30797], "queries": {"click": {"state": {"target": ["32", "33", "31", "29", "1", "7", "18"], "time": [6141, 9347, 12764, 16226, 19514, 20596, 23781]}, "edge": {"target": [], "time": []}}, "mouseover": {"state": {"target": ["23", "24", "32", "33", "30", "31", "25", "29", "24", "23", "1", "7", "7", "18", "17"], "time": [5437, 5519, 6035, 7771, 9752, 12501, 15951, 16101, 16534, 16608, 19370, 19900, 20367, 22545, 24438]}, "edge": {"target": [], "time": []}}, "mouseout": {"state": {"target": ["27", "28", "0", "23", "24", "32", "33", "30", "31", "31", "25", "29", "24", "23", "1", "7", "7", "18", "17"], "time": [3153, 3436, 5419, 5454, 5569, 6287, 9735, 9785, 13552, 15867, 16001, 16455, 16554, 17035, 19839, 19924, 20892, 23915, 27245]}, "edge": {"target": [], "time": []}}}, "displayed_time": "31.31", "trialTime": 34437, "trial_type": "mouselab-mdp", "trial_index": 33, "time_elapsed": 2575006, "internal_node_id": "0.0-6.0-1.0-18.0"}}, {"uniqueid": "w60759694:a23687346", "current_trial": 34, "dateTime": 1693567345870, "trialdata": {"revealed_states": [], "clicked_states": ["22", "20", "32", "21"], "num_clicks_accrued": [0, 0, 0, 0, 0, 0, 0, 0, 0, 0, 0, 0, 0], "stateRewards": ["", -1, 4, -8, 12, 14, 69, -8, 5, -72, -14, 56, -1, -1, -1, 9, 67, 19, 11, -9, -88, -58, 3, 2, -4, -8, 4, 62, 77, -74, 5, -31, 65, 88], "withholdReward": false, "trial_id": "mdp_trial_20", "block": "test", "trialIndex": 23, "score": 51.4, "costs": -8.6, "simulationMode": [null, null, null, null, null], "rewards": [2, -4, -8, 5, 65], "path": ["0", "0", "23", "24", "25", "30", "32"], "rt": [14129, 982, 4, 826, 387], "actions": ["left", "left", "left", "down", "down"], "actionTimes": [19775, 21282, 21801, 23156, 24079], "queries": {"click": {"state": {"target": ["22", "20", "32", "21"], "time": [6903, 10122, 13211, 16660]}, "edge": {"target": [], "time": []}}, "mouseover": {"state": {"target": ["12", "22", "21", "21", "20", "32", "21", "1"], "time": [6382, 6665, 7501, 7867, 8250, 11482, 14399, 16998]}, "edge": {"target": [], "time": []}}, "mouseout": {"state": {"target": ["14", "0", "12", "22", "21", "21", "20", "32", "21"], "time": [935, 6332, 6482, 7452, 7535, 8084, 10398, 13650, 16898]}, "edge": {"target": [], "time": []}}}, "displayed_time": "24.59", "trialTime": 25998, "trial_type": "mouselab-mdp", "trial_index": 34, "time_elapsed": 2601534, "internal_node_id": "0.0-6.0-1.0-19.0"}}, {"uniqueid": "w60759694:a23687346", "current_trial": 35, "dateTime": 1693567365598, "trialdata": {"revealed_states": [], "clicked_states": ["32"], "num_clicks_accrued": [0, 0, 0, 0, 0, 0, 0, 0, 0, 0, 0, 0, 0], "stateRewards": ["", -1, -4, -6, -15, 21, -67, -63, 9, 51, 69, -14, -1, 3, 8, -8, 39, 72, 63, 15, 19, 47, 15, 1, 4, 5, 16, -18, 34, 35, -14, -80, 40, 1], "withholdReward": false, "trial_id": "mdp_trial_21", "block": "test", "trialIndex": 24, "score": 33.85, "costs": -2.15, "simulationMode": [null, null, null, null, null], "rewards": [1, 4, 5, -14, 40], "path": ["0", "0", "23", "24", "25", "30", "32"], "rt": [6610, 83, 210, 62, 45], "actions": ["left", "left", "left", "down", "down"], "actionTimes": [8903, 9496, 10224, 10809, 11375], "queries": {"click": {"state": {"target": ["32"], "time": [4467]}, "edge": {"target": [], "time": []}}, "mouseover": {"state": {"target": ["23", "31", "32", "30", "25", "29"], "time": [3246, 4130, 4429, 4980, 6980, 7363]}, "edge": {"target": [], "time": []}}, "mouseout": {"state": {"target": ["1", "0", "23", "31", "32", "30", "25", "29", "26", "24"], "time": [1480, 3097, 3480, 4196, 4480, 5013, 7113, 17272, 17323, 17456]}, "edge": {"target": [], "time": []}}}, "displayed_time": "16.30", "trialTime": 19236, "trial_type": "mouselab-mdp", "trial_index": 35, "time_elapsed": 2621263, "internal_node_id": "0.0-6.0-1.0-20.0"}}, {"uniqueid": "w60759694:a23687346", "current_trial": 36, "dateTime": 1693567389582, "trialdata": {"revealed_states": [], "clicked_states": ["6", "10", "11", "5"], "num_clicks_accrued": [0, 0, 0, 0, 0, 0, 0, 0, 0, 0, 0, 0, 0], "stateRewards": ["", -2, 1, -7, -8, -37, -76, -87, 11, 30, -63, 80, -1, 4, 2, -1, 42, 17, 52, -3, -75, -80, -68, 2, -3, -5, -15, -48, 82, 24, -7, 5, -22, -71], "withholdReward": false, "trial_id": "mdp_trial_22", "block": "test", "trialIndex": 25, "score": 74.4, "costs": -8.6, "simulationMode": [null, null, null, null, null, null], "rewards": [-2, 1, -7, 11, 80], "path": ["0", "0", "1", "2", "3", "8", "11"], "rt": [12001, 261, 184, 249, 114, 153], "actions": ["up", "up", "up", "up", "left", "left"], "actionTimes": [18414, 18686, 19415, 20229, 20873, 21567], "queries": {"click": {"state": {"target": ["6", "10", "11", "5"], "time": [7753, 10860, 14199, 17316]}, "edge": {"target": [], "time": []}}, "mouseover": {"state": {"target": ["12", "18", "6", "3", "8", "11", "8", "10", "11", "9", "5", "5", "4"], "time": [6626, 6759, 7575, 8145, 8494, 8610, 9060, 9309, 13990, 14858, 15492, 15842, 17684]}, "edge": {"target": [], "time": []}}, "mouseout": {"state": {"target": ["0", "12", "18", "6", "3", "8", "11", "8", "10", "11", "11", "9", "5", "5", "4"], "time": [6467, 6725, 6792, 8028, 8194, 8545, 8994, 9160, 11005, 14336, 14741, 15459, 15626, 17659, 17709]}, "edge": {"target": [], "time": []}}}, "displayed_time": "22.11", "trialTime": 23476, "trial_type": "mouselab-mdp", "trial_index": 36, "time_elapsed": 2645246, "internal_node_id": "0.0-6.0-1.0-21.0"}}, {"uniqueid": "w60759694:a23687346", "current_trial": 37, "dateTime": 1693567406771, "trialdata": {"revealed_states": [], "clicked_states": ["27"], "num_clicks_accrued": [0, 0, 0, 0, 0, 0, 0, 0, 0, 0, 0, 0, 0], "stateRewards": ["", -1, -4, -3, 1, -45, -67, -24, 14, 32, 22, 22, -1, 1, -5, -7, 72, 84, -79, -5, 19, -40, -2, -1, -2, 8, -3, 84, -25, -28, 11, 64, -66, 77], "withholdReward": false, "trial_id": "mdp_trial_23", "block": "test", "trialIndex": 26, "score": 83.85, "costs": -2.15, "simulationMode": [null, null, null, null, null], "rewards": [-1, -2, 8, -3, 84], "path": ["0", "0", "23", "24", "25", "26", "27"], "rt": [5007, 133, 164, 125, 95], "actions": ["left", "left", "left", "up", "up"], "actionTimes": [6514, 7166, 7846, 8491, 9111], "queries": {"click": {"state": {"target": ["27"], "time": [2465]}, "edge": {"target": [], "time": []}}, "mouseover": {"state": {"target": ["28", "26", "27", "26", "33", "30", "32"], "time": [1948, 1981, 2347, 2848, 4570, 5980, 6046]}, "edge": {"target": [], "time": []}}, "mouseout": {"state": {"target": ["28", "26", "27", "26", "33", "30", "32"], "time": [1964, 2014, 2798, 2881, 5946, 5997, 6063]}, "edge": {"target": [], "time": []}}}, "displayed_time": "15.51", "trialTime": 16398, "trial_type": "mouselab-mdp", "trial_index": 37, "time_elapsed": 2662436, "internal_node_id": "0.0-6.0-1.0-22.0"}}, {"uniqueid": "w60759694:a23687346", "current_trial": 38, "dateTime": 1693567436527, "trialdata": {"revealed_states": [], "clicked_states": ["33", "31", "32", "7", "11", "10", "18"], "num_clicks_accrued": [0, 0, 0, 0, 0, 0, 0, 0, 0, 0, 0, 0, 0], "stateRewards": ["", 1, 2, -3, 6, -88, 74, -45, 7, -46, 40, -77, 1, -4, 4, 3, 22, -25, -59, 8, -83, 19, -60, -1, -1, -1, -8, 26, -29, 64, -7, -88, -51, -55], "withholdReward": false, "trial_id": "mdp_trial_24", "block": "test", "trialIndex": 27, "score": 31.95, "costs": -15.05, "simulationMode": [null, null, null, null, null], "rewards": [1, 2, -3, 7, 40], "path": ["0", "0", "1", "2", "3", "8", "10"], "rt": [23348, 75, 73, 155, 22], "actions": ["up", "up", "up", "left", "down"], "actionTimes": [25136, 25733, 26330, 27012, 27562], "queries": {"click": {"state": {"target": ["33", "31", "32", "7", "11", "10", "18"], "time": [2373, 5582, 8811, 12022, 15453, 18949, 22082]}, "edge": {"target": [], "time": []}}, "mouseover": {"state": {"target": ["31", "30", "33", "30", "31", "32", "7", "6", "11", "8", "4", "6", "4", "2", "10", "18", "14"], "time": [1911, 2011, 2344, 2664, 2746, 6012, 11135, 12779, 15408, 15752, 16158, 16518, 18556, 18656, 18889, 20722, 22652]}, "edge": {"target": [], "time": []}}, "mouseout": {"state": {"target": ["0", "31", "30", "33", "30", "31", "32", "7", "6", "11", "8", "4", "6", "4", "2", "10", "18", "14", "19"], "time": [1829, 1961, 2144, 2629, 2730, 5861, 9327, 12426, 12804, 15475, 15779, 16201, 16692, 18606, 18739, 18969, 22574, 28909, 28932]}, "edge": {"target": [], "time": []}}}, "displayed_time": "28.09", "trialTime": 29259, "trial_type": "mouselab-mdp", "trial_index": 38, "time_elapsed": 2692191, "internal_node_id": "0.0-6.0-1.0-23.0"}}, {"uniqueid": "w60759694:a23687346", "current_trial": 39, "dateTime": 1693567468060, "trialdata": {"revealed_states": [], "clicked_states": ["21", "20", "22", "33"], "num_clicks_accrued": [0, 0, 0, 0, 0, 0, 0, 0, 0, 0, 0, 0, 0], "stateRewards": ["", -1, 3, 8, 9, -53, 20, -84, 2, -28, -62, -31, -1, -2, -7, 2, 51, 58, 45, -4, -17, -41, 36, 2, -2, -7, -15, 29, -54, -37, -16, -43, 65, -17], "withholdReward": false, "trial_id": "mdp_trial_25", "block": "test", "trialIndex": 28, "score": 13.399999999999999, "costs": -8.6, "simulationMode": [null, null, null, null, null], "rewards": [-1, -2, -7, -4, 36], "path": ["0", "0", "12", "13", "14", "19", "22"], "rt": [14009, 65, 296, 103, 449], "actions": ["right", "right", "right", "down", "left"], "actionTimes": [16084, 16683, 17499, 18120, 19083], "queries": {"click": {"state": {"target": ["21", "20", "22", "33"], "time": [3385, 6556, 9680, 12749]}, "edge": {"target": [], "time": []}}, "mouseover": {"state": {"target": ["12", "13", "14", "21", "20", "19", "22", "31", "30", "33", "30", "31"], "time": [2734, 2818, 2884, 3251, 5969, 6885, 6921, 10120, 10227, 10817, 13278, 13414]}, "edge": {"target": [], "time": []}}, "mouseout": {"state": {"target": ["0", "12", "13", "14", "21", "20", "20", "19", "22", "31", "30", "33", "30", "31"], "time": [2701, 2801, 2851, 2951, 3751, 6649, 6852, 6902, 9984, 10158, 10608, 13235, 13337, 30470]}, "edge": {"target": [], "time": []}}}, "displayed_time": "19.60", "trialTime": 30999, "trial_type": "mouselab-mdp", "trial_index": 39, "time_elapsed": 2723725, "internal_node_id": "0.0-6.0-1.0-24.0"}}, {"uniqueid": "w60759694:a23687346", "current_trial": 40, "dateTime": 1693567486980, "trialdata": {"revealed_states": [], "clicked_states": ["31", "29", "28"], "num_clicks_accrued": [0, 0, 0, 0, 0, 0, 0, 0, 0, 0, 0, 0, 0], "stateRewards": ["", 2, 2, 3, -15, 23, -14, 73, -7, -32, -20, -6, 1, 1, -5, -12, 73, 6, -84, 11, -81, -57, 13, -2, -1, -4, -8, -52, -58, 49, 13, 5, -41, -41], "withholdReward": false, "trial_id": "mdp_trial_26", "block": "test", "trialIndex": 29, "score": 27.55, "costs": -6.449999999999999, "simulationMode": [null, null, null, null, null, null], "rewards": [-2, -1, -4, -8, 49], "path": ["0", "0", "23", "24", "25", "26", "29"], "rt": [9439, 313, 118, 255, 1011, 137], "actions": ["left", "left", "left", "left", "up", "left"], "actionTimes": [11904, 12221, 12876, 13690, 15234, 15888], "queries": {"click": {"state": {"target": ["31", "29", "28"], "time": [3289, 7077, 10951]}, "edge": {"target": [], "time": []}}, "mouseover": {"state": {"target": ["0", "31", "31", "30", "29", "26", "28"], "time": [2789, 2851, 3167, 3637, 4003, 7518, 7818]}, "edge": {"target": [], "time": []}}, "mouseout": {"state": {"target": ["31", "23", "0", "31", "31", "30", "29", "26"], "time": [1768, 1801, 2804, 2884, 3554, 3688, 7485, 7635]}, "edge": {"target": [], "time": []}}}, "displayed_time": "16.47", "trialTime": 18320, "trial_type": "mouselab-mdp", "trial_index": 40, "time_elapsed": 2742645, "internal_node_id": "0.0-6.0-1.0-25.0"}}, {"uniqueid": "w60759694:a23687346", "current_trial": 41, "dateTime": 1693567505407, "trialdata": {"revealed_states": [], "clicked_states": ["6", "9"], "num_clicks_accrued": [0, 0, 0, 0, 0, 0, 0, 0, 0, 0, 0, 0, 0], "stateRewards": ["", 1, -4, 6, -3, 40, 76, -51, 5, -24, -63, 44, -2, -2, 8, 1, 76, -85, -58, 10, 59, 20, 11, -2, 3, -3, 3, -82, -10, 54, -7, -57, -6, -32], "withholdReward": false, "trial_id": "mdp_trial_27", "block": "test", "trialIndex": 30, "score": 71.7, "costs": -4.3, "simulationMode": [null, null, null, null, null, null], "rewards": [1, -4, 6, -3, 76], "path": ["0", "0", "1", "2", "3", "4", "6"], "rt": [5722, 380, 46, 403, 207, 118], "actions": ["up", "up", "up", "up", "right", "right"], "actionTimes": [7251, 7635, 8235, 9216, 9940, 10584], "queries": {"click": {"state": {"target": ["6", "9"], "time": [2908, 6130]}, "edge": {"target": [], "time": []}}, "mouseover": {"state": {"target": ["0", "7", "6", "4", "9"], "time": [1595, 2178, 2761, 3179, 3847]}, "edge": {"target": [], "time": []}}, "mouseout": {"state": {"target": ["28", "0", "7", "6", "4"], "time": [895, 2025, 2312, 3146, 3229]}, "edge": {"target": [], "time": []}}}, "displayed_time": "15.53", "trialTime": 17950, "trial_type": "mouselab-mdp", "trial_index": 41, "time_elapsed": 2761072, "internal_node_id": "0.0-6.0-1.0-26.0"}}, {"uniqueid": "w60759694:a23687346", "current_trial": 42, "dateTime": 1693567527416, "trialdata": {"revealed_states": [], "clicked_states": ["29", "31", "33", "6"], "num_clicks_accrued": [0, 0, 0, 0, 0, 0, 0, 0, 0, 0, 0, 0, 0], "stateRewards": ["", 1, 2, 3, 16, 63, -25, 16, -4, -14, 82, -66, -1, -3, -3, -11, -14, 19, 46, 3, -34, -82, 66, -2, -3, 4, -5, -63, 77, -37, -1, -45, -41, 84], "withholdReward": false, "trial_id": "mdp_trial_28", "block": "test", "trialIndex": 31, "score": 73.4, "costs": -8.6, "simulationMode": [null, null, null, null, null, null], "rewards": [-2, -3, 4, -1, 84], "path": ["0", "0", "23", "24", "25", "30", "33"], "rt": [11453, 237, 8, 372, 133, 335], "actions": ["left", "left", "left", "left", "down", "left"], "actionTimes": [13688, 13933, 14482, 15384, 16050, 16902], "queries": {"click": {"state": {"target": ["29", "31", "33", "6"], "time": [3466, 6620, 9705, 12688]}, "edge": {"target": [], "time": []}}, "mouseover": {"state": {"target": ["23", "24", "26", "29", "25", "24", "24", "31", "30", "33", "25", "24", "7", "4", "6", "7", "0"], "time": [2845, 2913, 2980, 3328, 3931, 4081, 4395, 4796, 7062, 7111, 10095, 10121, 10245, 10618, 10728, 13205, 13322]}, "edge": {"target": [], "time": []}}, "mouseout": {"state": {"target": ["9", "8", "10", "1", "0", "0", "23", "24", "26", "29", "29", "25", "24", "24", "31", "30", "33", "25", "24", "7", "4", "6", "7", "0"], "time": [1078, 1312, 1345, 1412, 1495, 2778, 2895, 2930, 3211, 3610, 3847, 4014, 4214, 4530, 7046, 7079, 10061, 10116, 10144, 10595, 10640, 12806, 13264, 13362]}, "edge": {"target": [], "time": []}}}, "displayed_time": "17.43", "trialTime": 21485, "trial_type": "mouselab-mdp", "trial_index": 42, "time_elapsed": 2783081, "internal_node_id": "0.0-6.0-1.0-27.0"}}, {"uniqueid": "w60759694:a23687346", "current_trial": 43, "dateTime": 1693567545623, "trialdata": {"revealed_states": [], "clicked_states": ["31", "22"], "num_clicks_accrued": [0, 0, 0, 0, 0, 0, 0, 0, 0, 0, 0, 0, 0], "stateRewards": ["", -2, -1, -3, -1, -78, -6, 2, -1, 22, -88, 32, 2, 2, -7, -8, -51, -17, 54, 2, -44, 54, 75, 2, -2, -8, -15, -29, 12, -67, 15, -1, -47, -47], "withholdReward": false, "trial_id": "mdp_trial_29", "block": "test", "trialIndex": 32, "score": 69.7, "costs": -4.3, "simulationMode": [null, null, null, null, null], "rewards": [2, 2, -7, 2, 75], "path": ["0", "0", "12", "13", "14", "19", "22"], "rt": [9194, 94, 331, 229, 352], "actions": ["right", "right", "right", "down", "left"], "actionTimes": [11602, 12212, 13064, 13812, 14687], "queries": {"click": {"state": {"target": ["31", "22"], "time": [3651, 7363]}, "edge": {"target": [], "time": []}}, "mouseover": {"state": {"target": ["23", "31", "22", "12", "7", "12"], "time": [2883, 3465, 7097, 8848, 9065, 11080]}, "edge": {"target": [], "time": []}}, "mouseout": {"state": {"target": ["0", "23", "31", "22", "12", "7", "12"], "time": [2866, 2932, 3902, 7698, 8865, 10980, 17159]}, "edge": {"target": [], "time": []}}}, "displayed_time": "16.41", "trialTime": 17691, "trial_type": "mouselab-mdp", "trial_index": 43, "time_elapsed": 2801288, "internal_node_id": "0.0-6.0-1.0-28.0"}}, {"uniqueid": "w60759694:a23687346", "current_trial": 44, "dateTime": 1693567579400, "trialdata": {"revealed_states": [], "clicked_states": ["27", "32", "21", "16", "5", "9", "10", "18"], "num_clicks_accrued": [0, 0, 0, 0, 0, 0, 0, 0, 0, 0, 0, 0, 0], "stateRewards": ["", 2, 4, -3, 16, -58, 30, -35, 11, -60, 47, 27, -2, -1, -7, -16, 23, -70, 68, -10, -65, -43, -34, -2, 1, 7, 9, -63, 34, -31, -8, -12, -86, 59], "withholdReward": false, "trial_id": "mdp_trial_30", "block": "test", "trialIndex": 33, "score": 43.8, "costs": -17.2, "simulationMode": [null, null, null, null, null, null], "rewards": [2, 4, -3, 11, 47], "path": ["0", "0", "1", "2", "3", "8", "10"], "rt": [24553, 234, 162, 193, 37, 1796], "actions": ["up", "up", "up", "up", "left", "down"], "actionTimes": [27000, 27239, 27935, 28669, 29239, 31579], "queries": {"click": {"state": {"target": ["27", "32", "21", "16", "5", "9", "10", "18"], "time": [3415, 6607, 9818, 12952, 16289, 19412, 22484, 26247]}, "edge": {"target": [], "time": []}}, "mouseover": {"state": {"target": ["23", "26", "27", "29", "32", "21", "20", "16", "6", "16", "6", "5", "5", "9", "9", "8", "10", "2", "3", "8", "11", "8", "2", "18"], "time": [2923, 3055, 3238, 3973, 5122, 7409, 10439, 11203, 11576, 11903, 13339, 13504, 13940, 16880, 17386, 19826, 20239, 22947, 23180, 23435, 23579, 24480, 24533, 25086]}, "edge": {"target": [], "time": []}}, "mouseout": {"state": {"target": ["0", "23", "26", "27", "29", "32", "21", "20", "16", "6", "16", "6", "5", "5", "9", "9", "9", "8", "10", "2", "3", "8", "11", "8", "2"], "time": [2905, 2940, 3138, 3906, 4555, 6923, 10255, 11174, 11232, 11620, 13084, 13383, 13628, 16313, 16955, 19531, 19769, 19884, 22866, 22973, 23392, 23460, 24453, 24507, 24561]}, "edge": {"target": [], "time": []}}}, "displayed_time": "32.09", "trialTime": 33250, "trial_type": "mouselab-mdp", "trial_index": 44, "time_elapsed": 2835065, "internal_node_id": "0.0-6.0-1.0-29.0"}}, {"uniqueid": "w60759694:a23687346", "current_trial": 45, "dateTime": 1693567599252, "trialdata": {"revealed_states": [], "clicked_states": ["20"], "num_clicks_accrued": [0, 0, 0, 0, 0, 0, 0, 0, 0, 0, 0, 0, 0], "stateRewards": ["", 1, -4, -6, 11, -20, 8, -30, 1, -38, 88, 42, 2, 3, 5, -12, -8, -74, 30, -8, 67, -19, 42, 2, -1, 4, 13, 50, -68, 2, -8, -15, 87, -46], "withholdReward": false, "trial_id": "mdp_trial_31", "block": "test", "trialIndex": 34, "score": 66.85, "costs": -2.15, "simulationMode": [null, null, null, null, null], "rewards": [2, 3, 5, -8, 67], "path": ["0", "0", "12", "13", "14", "19", "20"], "rt": [5752, 192, 473, 99, 328], "actions": ["right", "right", "right", "down", "right"], "actionTimes": [9273, 9980, 10961, 11570, 12434], "queries": {"click": {"state": {"target": ["20"], "time": [5532]}, "edge": {"target": [], "time": []}}, "mouseover": {"state": {"target": ["0", "12", "13", "14", "19", "20"], "time": [3534, 4203, 4270, 4953, 5102, 5352]}, "edge": {"target": [], "time": []}}, "mouseout": {"state": {"target": ["18", "12", "0", "0", "12", "13", "14", "19", "20", "21"], "time": [2820, 2986, 3203, 4170, 4236, 4486, 5036, 5269, 6221, 19012]}, "edge": {"target": [], "time": []}}}, "displayed_time": "17.52", "trialTime": 19335, "trial_type": "mouselab-mdp", "trial_index": 45, "time_elapsed": 2854917, "internal_node_id": "0.0-6.0-1.0-30.0"}}, {"uniqueid": "w60759694:a23687346", "current_trial": 46, "dateTime": 1693567616462, "trialdata": {"revealed_states": [], "clicked_states": ["17", "6", "9"], "num_clicks_accrued": [0, 0, 0, 0, 0, 0, 0, 0, 0, 0, 0, 0, 0], "stateRewards": ["", 1, 1, 1, 15, -76, 52, -32, 14, -57, 37, 49, 1, -4, -3, 6, 83, -76, 25, 9, 36, -1, -17, -1, 4, 4, -2, -22, -21, 58, -15, -57, 49, -24], "withholdReward": false, "trial_id": "mdp_trial_32", "block": "test", "trialIndex": 35, "score": 63.55, "costs": -6.449999999999999, "simulationMode": [null, null, null, null, null, null], "rewards": [1, 1, 1, 15, 52], "path": ["0", "0", "1", "2", "3", "4", "6"], "rt": [9681, 259, 220, 187, 34, 297], "actions": ["up", "up", "up", "up", "right", "right"], "actionTimes": [11198, 11464, 12250, 12982, 13548, 14385], "queries": {"click": {"state": {"target": ["17", "6", "9"], "time": [2694, 6892, 10241]}, "edge": {"target": [], "time": []}}, "mouseover": {"state": {"target": ["12", "13", "14", "17", "15", "6", "6", "7", "3", "9", "3", "18"], "time": [2109, 2145, 2196, 2541, 6091, 6173, 6524, 7825, 8257, 8468, 10567, 10668]}, "edge": {"target": [], "time": []}}, "mouseout": {"state": {"target": ["0", "12", "13", "14", "17", "15", "6", "6", "6", "7", "3", "9", "3", "18", "12"], "time": [2091, 2127, 2162, 2244, 4443, 6108, 6289, 6907, 7407, 8208, 8307, 10543, 10591, 16118, 16152]}, "edge": {"target": [], "time": []}}}, "displayed_time": "15.52", "trialTime": 16658, "trial_type": "mouselab-mdp", "trial_index": 46, "time_elapsed": 2872126, "internal_node_id": "0.0-6.0-1.0-31.0"}}, {"uniqueid": "w60759694:a23687346", "current_trial": 47, "dateTime": 1693567640862, "trialdata": {"revealed_states": [], "clicked_states": ["24", "33", "31", "32", "16"], "num_clicks_accrued": [0, 0, 0, 0, 0, 0, 0, 0, 0, 0, 0, 0, 0], "stateRewards": ["", 1, -1, -7, -7, -22, 15, -13, 13, 26, -32, 38, -1, 1, -7, -4, 16, -62, 86, 12, -54, 56, 64, -2, -1, 6, 14, -57, 37, 62, -6, -25, 50, -70], "withholdReward": false, "trial_id": "mdp_trial_33", "block": "test", "trialIndex": 36, "score": 38.05, "costs": -8.950000000000001, "simulationMode": [null, null, null, null, null, null], "rewards": [-2, -1, 6, -6, 50], "path": ["0", "0", "23", "24", "25", "30", "32"], "rt": [12325, 241, 275, 8, 10, 24], "actions": ["left", "left", "left", "left", "down", "down"], "actionTimes": [19860, 20110, 20926, 21458, 21984, 22563], "queries": {"click": {"state": {"target": ["24", "33", "31", "32", "16"], "time": [8492, 9388, 12509, 15655, 18737]}, "edge": {"target": [], "time": []}}, "mouseover": {"state": {"target": ["0", "24", "24", "30", "33", "30", "31", "32", "0", "18", "16"], "time": [7552, 7971, 8370, 8923, 9206, 9706, 9807, 13054, 16034, 16109, 16204]}, "edge": {"target": [], "time": []}}, "mouseout": {"state": {"target": ["0", "0", "24", "24", "30", "33", "30", "31", "32", "0", "18", "16"], "time": [6937, 7588, 7989, 8746, 9057, 9672, 9772, 12887, 15971, 16061, 16156, 19205]}, "edge": {"target": [], "time": []}}}, "displayed_time": "23.09", "trialTime": 23866, "trial_type": "mouselab-mdp", "trial_index": 47, "time_elapsed": 2896526, "internal_node_id": "0.0-6.0-1.0-32.0"}}, {"uniqueid": "w60759694:a23687346", "current_trial": 48, "dateTime": 1693567660020, "trialdata": {"revealed_states": [], "clicked_states": ["17", "11"], "num_clicks_accrued": [0, 0, 0, 0, 0, 0, 0, 0, 0, 0, 0, 0, 0], "stateRewards": ["", -1, -3, 3, 5, 56, 39, 50, -1, -80, 33, -46, 1, -2, -6, -8, 87, 48, 54, -11, -20, -64, -54, -2, 3, -7, -3, 12, 88, 35, -16, -46, -70, -3], "withholdReward": false, "trial_id": "mdp_trial_34", "block": "test", "trialIndex": 37, "score": 28.7, "costs": -4.3, "simulationMode": [null, null, null, null, null], "rewards": [1, -2, -6, -8, 48], "path": ["0", "0", "12", "13", "14", "15", "17"], "rt": [7328, 57, 44, 472, 210], "actions": ["right", "right", "right", "up", "right"], "actionTimes": [10711, 11281, 11850, 12863, 13599], "queries": {"click": {"state": {"target": ["17", "11"], "time": [4369, 7464]}, "edge": {"target": [], "time": []}}, "mouseover": {"state": {"target": ["12", "12", "12", "13", "14", "17", "7", "2", "10", "11", "2"], "time": [3400, 3653, 3802, 3870, 3952, 4119, 4969, 4990, 5037, 5269, 7887]}, "edge": {"target": [], "time": []}}, "mouseout": {"state": {"target": ["22", "0", "12", "12", "12", "13", "14", "17", "7", "2", "10", "11", "2"], "time": [2752, 3398, 3436, 3702, 3852, 3919, 3970, 4483, 4987, 5003, 5070, 7803, 7970]}, "edge": {"target": [], "time": []}}}, "displayed_time": "17.38", "trialTime": 18417, "trial_type": "mouselab-mdp", "trial_index": 48, "time_elapsed": 2915684, "internal_node_id": "0.0-6.0-1.0-33.0"}}, {"uniqueid": "w60759694:a23687346", "current_trial": 49, "dateTime": 1693567682126, "trialdata": {"revealed_states": [], "clicked_states": ["5", "7", "10"], "num_clicks_accrued": [0, 0, 0, 0, 0, 0, 0, 0, 0, 0, 0, 0, 0], "stateRewards": ["", 1, -1, 1, 13, 31, -56, 72, 2, 41, 5, 63, -2, -3, -2, 3, -71, -26, 52, 13, -31, 24, -67, 2, -2, 5, 4, 66, 43, 72, 9, 86, -26, 44], "withholdReward": false, "trial_id": "mdp_trial_35", "block": "test", "trialIndex": 38, "score": 79.55, "costs": -6.449999999999999, "simulationMode": [null, null, null, null, null, null], "rewards": [1, -1, 1, 13, 72], "path": ["0", "0", "1", "2", "3", "4", "7"], "rt": [8751, 261, 162, 39, 167, 234], "actions": ["up", "up", "up", "up", "right", "down"], "actionTimes": [14018, 14285, 15002, 15598, 16284, 17049], "queries": {"click": {"state": {"target": ["5", "7", "10"], "time": [6599, 9829, 13096]}, "edge": {"target": [], "time": []}}, "mouseover": {"state": {"target": ["6", "5", "4", "7", "2", "10"], "time": [6161, 6394, 6906, 7265, 10227, 10610]}, "edge": {"target": [], "time": []}}, "mouseout": {"state": {"target": ["1", "0", "6", "5", "5", "4", "7", "7", "2", "10"], "time": [4644, 5744, 6361, 6696, 6865, 6979, 9950, 10177, 10343, 20587]}, "edge": {"target": [], "time": []}}}, "displayed_time": "19.27", "trialTime": 21394, "trial_type": "mouselab-mdp", "trial_index": 49, "time_elapsed": 2937791, "internal_node_id": "0.0-6.0-1.0-34.0"}}, {"uniqueid": "w60759694:a23687346", "current_trial": 50, "dateTime": 1693567699998, "trialdata": {"revealed_states": [], "clicked_states": ["10", "28", "20"], "num_clicks_accrued": [0, 0, 0, 0, 0, 0, 0, 0, 0, 0, 0, 0, 0], "stateRewards": ["", 2, -4, 1, -12, -59, -53, -74, 16, -88, -66, 66, 1, -2, 8, -9, -14, 22, 25, -1, -39, 47, -14, -1, -1, -2, 1, -4, 52, -26, 15, -7, 46, 43], "withholdReward": false, "trial_id": "mdp_trial_36", "block": "test", "trialIndex": 39, "score": 42.55, "costs": -6.449999999999999, "simulationMode": [null, null, null, null, null], "rewards": [-1, -1, -2, 1, 52], "path": ["0", "0", "23", "24", "25", "26", "28"], "rt": [10922, 52, 54, 101, 424], "actions": ["left", "left", "left", "up", "right"], "actionTimes": [12606, 13174, 13777, 14435, 15388], "queries": {"click": {"state": {"target": ["10", "28", "20"], "time": [3188, 6369, 9504]}, "edge": {"target": [], "time": []}}, "mouseover": {"state": {"target": ["12", "13", "18", "10", "1", "12", "31", "28", "24", "31", "19", "20", "21"], "time": [2432, 2532, 2682, 2981, 3417, 3450, 4283, 4717, 6721, 6763, 8055, 8170, 10045]}, "edge": {"target": [], "time": []}}, "mouseout": {"state": {"target": ["0", "1", "0", "12", "13", "18", "10", "1", "12", "31", "28", "24", "31", "19", "20", "21"], "time": [865, 1165, 2348, 2481, 2665, 2732, 3401, 3433, 3467, 4349, 6700, 6742, 6785, 8101, 9999, 10070]}, "edge": {"target": [], "time": []}}}, "displayed_time": "15.90", "trialTime": 17345, "trial_type": "mouselab-mdp", "trial_index": 50, "time_elapsed": 2955662, "internal_node_id": "0.0-6.0-1.0-35.0"}}, {"uniqueid": "w60759694:a23687346", "current_trial": 51, "dateTime": 1693567735720, "trialdata": {"revealed_states": [], "clicked_states": ["22", "29", "31", "33", "18", "10", "7", "5"], "num_clicks_accrued": [0, 0, 0, 0, 0, 0, 0, 0, 0, 0, 0, 0, 0], "stateRewards": ["", 1, 2, -3, -6, 50, -7, 7, -7, -80, 21, -1, 2, 2, 4, -1, 33, 84, 1, 14, -53, 81, 6, -2, -2, -3, -9, -87, -38, -59, -5, -74, -3, -71], "withholdReward": false, "trial_id": "mdp_trial_37", "block": "test", "trialIndex": 40, "score": 26.8, "costs": -17.2, "simulationMode": [null, null, null, null, null], "rewards": [1, 2, -3, -6, 50], "path": ["0", "0", "1", "2", "3", "4", "5"], "rt": [29255, 6, 6, 7, 282], "actions": ["up", "up", "up", "right", "up"], "actionTimes": [30861, 31381, 31914, 32449, 33260], "queries": {"click": {"state": {"target": ["22", "29", "31", "33", "18", "10", "7", "5"], "time": [3607, 6878, 10021, 13157, 16217, 19422, 22798, 26242]}, "edge": {"target": [], "time": []}}, "mouseover": {"state": {"target": ["12", "13", "14", "20", "19", "22", "19", "20", "19", "0", "23", "28", "26", "29", "26", "31", "33", "0", "12", "13", "15", "18", "13", "1", "10", "2", "7", "4", "5", "9"], "time": [2388, 2421, 2472, 3037, 3304, 3487, 3938, 4171, 5204, 5321, 5359, 5787, 5992, 6380, 7161, 8061, 10916, 13517, 13553, 13917, 13997, 14497, 16650, 17926, 18193, 19741, 19861, 25861, 26028, 27209]}, "edge": {"target": [], "time": []}}, "mouseout": {"state": {"target": ["0", "12", "13", "14", "20", "19", "22", "19", "20", "19", "22", "0", "23", "28", "26", "29", "26", "31", "33", "0", "12", "13", "15", "18", "13", "1", "10", "2", "7", "7", "4", "5"], "time": [1624, 2405, 2454, 2505, 3270, 3370, 3888, 4038, 5154, 5237, 5256, 5340, 5379, 5914, 6163, 7139, 7220, 10408, 13443, 13546, 13602, 13947, 14205, 16589, 16828, 17975, 19717, 19784, 23196, 25528, 25978, 26484]}, "edge": {"target": [], "time": []}}}, "displayed_time": "33.78", "trialTime": 35198, "trial_type": "mouselab-mdp", "trial_index": 51, "time_elapsed": 2991385, "internal_node_id": "0.0-6.0-1.0-36.0"}}, {"uniqueid": "w60759694:a23687346", "current_trial": 52, "dateTime": 1693567759335, "trialdata": {"revealed_states": [], "clicked_states": ["9", "10", "29", "31"], "num_clicks_accrued": [0, 0, 0, 0, 0, 0, 0, 0, 0, 0, 0, 0, 0], "stateRewards": ["", 1, 2, -8, 9, 18, -83, -11, 6, -64, -48, 17, -2, -2, -5, -3, -24, -3, -86, -2, 48, -41, -22, -2, 4, 7, 8, 81, 13, -48, 10, 61, 19, 57], "withholdReward": false, "trial_id": "mdp_trial_38", "block": "test", "trialIndex": 41, "score": 71.4, "costs": -8.6, "simulationMode": [null, null, null, null, null], "rewards": [-2, 4, 7, 10, 61], "path": ["0", "0", "23", "24", "25", "30", "31"], "rt": [14222, 123, 261, 21, 200], "actions": ["left", "left", "left", "down", "right"], "actionTimes": [16703, 17344, 18130, 18691, 19419], "queries": {"click": {"state": {"target": ["9", "10", "29", "31"], "time": [3592, 7094, 10356, 13617]}, "edge": {"target": [], "time": []}}, "mouseover": {"state": {"target": ["1", "2", "3", "5", "9", "8", "10", "10", "26", "29", "25", "30", "33", "30", "31"], "time": [2901, 2936, 3034, 3134, 3417, 3856, 3920, 6917, 8339, 8562, 10997, 11505, 12264, 12999, 13500]}, "edge": {"target": [], "time": []}}, "mouseout": {"state": {"target": ["9", "8", "1", "1", "2", "3", "5", "9", "9", "8", "10", "10", "26", "29", "25", "30", "33", "30"], "time": [1484, 1767, 1917, 2918, 3001, 3051, 3267, 3693, 3852, 3902, 4035, 7503, 8406, 10841, 11039, 12003, 12735, 13073]}, "edge": {"target": [], "time": []}}}, "displayed_time": "19.93", "trialTime": 23080, "trial_type": "mouselab-mdp", "trial_index": 52, "time_elapsed": 3015000, "internal_node_id": "0.0-6.0-1.0-37.0"}}, {"uniqueid": "w60759694:a23687346", "current_trial": 53, "dateTime": 1693567786052, "trialdata": {"revealed_states": [], "clicked_states": ["14", "33", "31", "32"], "num_clicks_accrued": [0, 0, 0, 0, 0, 0, 0, 0, 0, 0, 0, 0, 0], "stateRewards": ["", 2, 1, -3, 7, 46, 11, -36, 16, 71, 5, 1, 2, -2, -8, -3, -4, 6, 55, 7, 68, -54, 2, 1, 1, 6, -6, 42, -4, -84, -11, -65, 63, 25], "withholdReward": false, "trial_id": "mdp_trial_39", "block": "test", "trialIndex": 42, "score": 52.6, "costs": -7.4, "simulationMode": [null, null, null, null, null], "rewards": [1, 1, 6, -11, 63], "path": ["0", "0", "23", "24", "25", "30", "32"], "rt": [16210, 85, 540, 177, 93], "actions": ["left", "left", "left", "down", "down"], "actionTimes": [18435, 19039, 20095, 20781, 21397], "queries": {"click": {"state": {"target": ["14", "33", "31", "32"], "time": [3141, 5745, 9291, 13518]}, "edge": {"target": [], "time": []}}, "mouseover": {"state": {"target": ["12", "13", "14", "12", "23", "25", "30", "33", "30", "31", "0", "0", "32"], "time": [2659, 2711, 3009, 3628, 3679, 4167, 5211, 5657, 7409, 8114, 9713, 12723, 13322]}, "edge": {"target": [], "time": []}}, "mouseout": {"state": {"target": ["31", "0", "12", "13", "14", "12", "23", "25", "30", "33", "30", "31", "0", "0", "32"], "time": [1359, 2625, 2692, 2776, 3495, 3644, 3694, 4227, 5540, 6525, 7966, 9642, 9732, 12740, 17752]}, "edge": {"target": [], "time": []}}}, "displayed_time": "21.92", "trialTime": 26217, "trial_type": "mouselab-mdp", "trial_index": 53, "time_elapsed": 3041716, "internal_node_id": "0.0-6.0-1.0-38.0"}}, {"uniqueid": "w60759694:a23687346", "current_trial": 54, "dateTime": 1693567808751, "trialdata": {"revealed_states": [], "clicked_states": ["17"], "num_clicks_accrued": [0, 0, 0, 0, 0, 0, 0, 0, 0, 0, 0, 0, 0], "stateRewards": ["", 1, 1, -7, -9, -44, 24, -83, -15, 44, -24, 72, -2, -3, 4, -5, 57, 55, 29, -11, 22, 12, -25, -1, 2, 7, 12, 33, -8, 47, -4, 8, 50, -4], "withholdReward": false, "trial_id": "mdp_trial_40", "block": "test", "trialIndex": 43, "score": 46.85, "costs": -2.15, "simulationMode": [null, null, null, null, null], "rewards": [-2, -3, 4, -5, 55], "path": ["0", "0", "12", "13", "14", "15", "17"], "rt": [5188, 108, 137, 63, 314], "actions": ["right", "right", "right", "up", "right"], "actionTimes": [10833, 11456, 12101, 12676, 13526], "queries": {"click": {"state": {"target": ["17"], "time": [6929]}, "edge": {"target": [], "time": []}}, "mouseover": {"state": {"target": ["12", "17", "3", "8", "10", "1"], "time": [6296, 6828, 8847, 9064, 9494, 10362]}, "edge": {"target": [], "time": []}}, "mouseout": {"state": {"target": ["31", "23", "0", "0", "12", "17", "3", "8", "10", "1"], "time": [5011, 5078, 5144, 6275, 6314, 8698, 8947, 9164, 10359, 10393]}, "edge": {"target": [], "time": []}}}, "displayed_time": "19.64", "trialTime": 22151, "trial_type": "mouselab-mdp", "trial_index": 54, "time_elapsed": 3064416, "internal_node_id": "0.0-6.0-1.0-39.0"}}, {"uniqueid": "w60759694:a23687346", "current_trial": 55, "dateTime": 1693567884089, "trialdata": {"rt": 75333, "response": {"Q0": "$-2 to $2", "Q1": "$-4 to $4", "Q2": "$-88 to $88", "Q3": "The cost for clicking on nodes varied between nodes.", "Q4": "Very motivated"}, "question_order": [0, 1, 2, 3, 4], "trial_id": "final_quiz_control", "trial_type": "survey-multi-choice", "trial_index": 55, "time_elapsed": 3139753, "internal_node_id": "0.0-6.0-2.0"}}, {"uniqueid": "w60759694:a23687346", "current_trial": 56, "dateTime": 1693568149513, "trialdata": {"rt": 265416, "response": {"Q0": "Click the furthest nodes first as they have the most amount. The number of clicks should not cost over $15. ", "Q1": "Yes, at first I clicked random nodes. I later realised that the furthest nodes usually have the most amount. I began clicked the furthest nodes to see nodes with amounts over $20. These were profitable paths.", "Q2": "It was not difficult at all. My performance probably improved before I got to round 10."}, "trial_id": "self_report_control", "trial_type": "survey-text", "trial_index": 56, "time_elapsed": 3405178, "internal_node_id": "0.0-6.0-3.0"}}, {"uniqueid": "w60759694:a23687346", "current_trial": 57, "dateTime": 1693568218344, "trialdata": {"rt": 68825, "response": {"Q0": "Strongly disagree", "Q1": "Disagree", "Q2": "Strongly agree", "Q3": "Strongly disagree", "Q4": "Strongly disagree", "Q5": "Strongly agree", "Q6": "Strongly disagree"}, "question_order": [0, 1, 2, 3, 4, 5, 6], "trial_id": "self_report_2", "trial_type": "survey-multi-choice", "trial_index": 57, "time_elapsed": 3474008, "internal_node_id": "0.0-6.0-4.0"}}, {"uniqueid": "w60759694:a23687346", "current_trial": 58, "dateTime": 1693568256554, "trialdata": {"rt": 38204, "response": {"gender": "male", "age": "23", "colorblind": "0", "effort": "1"}, "trial_type": "survey-html-form", "trial_index": 58, "time_elapsed": 3512219, "internal_node_id": "0.0-6.0-5.0"}}, {"uniqueid": "w60759694:a23687346", "current_trial": 59, "dateTime": 1693568399727, "trialdata": {"rt": 143169, "response": {"Q0": "Having not done a similar study before, I gave the instruction the benefit of the doubt. The two practice rounds were somewhat helpful in understanding the game, but it was the first several rounds that I got to understand how I could get the most out of the nodes.", "Q1": "No.", "Q2": "Good luck with the study."}, "trial_type": "survey-text", "trial_index": 59, "time_elapsed": 3655392, "internal_node_id": "0.0-6.0-6.0"}}, {"uniqueid": "w60759694:a23687346", "current_trial": 60, "dateTime": 1693568442402, "trialdata": {"rt": 42671, "stimulus": "<h1>Completion Code Instructions (1/2)</h1>\n<br><br><br><br>\nYou have reached the end of the experiment! The completion code consists of two parts: (1) a code with 2 characters (2) a code with 6 characters. On this page, you will receive the second part of the code. The first part of the completion code will be on the next page.\n<br><br>\nThe second part of your completion code is: <b>EWEK22</b>\n<br><br>\nPlease note this down. Then, press 'Finish HIT' in order to find the first part of your completion code. Once the data has been saved, you will receive this code either in this window or in the original browser window where you started the experiment.\n", "response": 0, "trial_type": "html-button-response", "trial_index": 60, "time_elapsed": 3698067, "internal_node_id": "0.0-6.0-7.0"}}, {"uniqueid": "w60759694:a23687346", "current_trial": 61, "dateTime": 1693568443415, "trialdata": {"success": true, "trial_type": "fullscreen", "trial_index": 61, "time_elapsed": 3699080, "internal_node_id": "0.0-7.0"}}], "questiondata": {"params": {"CODE": "C6DMOQA6", "MIN_TIME": 14, "inspectCost": 1, "startTime": "Fri Sep 01 2023 12:39:02 GMT+0200 (South Africa Standard Time)", "bonusRate": 0.002, "variance": "1_2_4_8_44", "branching": "31123"}, "final_score": 1676.3}, "eventdata": [{"eventtype": "initialized", "interval": 0, "timestamp": 1693564718627, "value": null}, {"eventtype": "window_resize", "interval": 0, "timestamp": 1693564718627, "value": [1024, 767]}, {"eventtype": "window_resize", "interval": 582, "timestamp": 1693564719209, "value": [1024, 767]}, {"eventtype": "window_resize", "value": [1920, 1026], "timestamp": 1693564742376, "interval": 23167}, {"eventtype": "window_resize", "value": [1920, 1080], "timestamp": 1693564747254, "interval": 4878}, {"eventtype": "window_resize", "value": [1920, 1026], "timestamp": 1693565714203, "interval": 966949}, {"eventtype": "focus", "value": "off", "timestamp": 1693565715429, "interval": 1226}, {"eventtype": "focus", "value": "on", "timestamp": 1693566169748, "interval": 454319}, {"eventtype": "focus", "value": "off", "timestamp": 1693566675506, "interval": 505758}, {"eventtype": "focus", "value": "on", "timestamp": 1693566675507, "interval": 1}, {"eventtype": "window_resize", "value": [1920, 1080], "timestamp": 1693566678042, "interval": 2535}, {"eventtype": "window_resize", "value": [1920, 1026], "timestamp": 1693568442638, "interval": 1764596}], "useragent": "Mozilla/5.0 (Windows NT 10.0; Win64; x64) AppleWebKit/537.36 (KHTML, like Gecko) Chrome/116.0.0.0 Safari/537.36", "mode": "live", "id": "w60759694:a23687346", "status": "user data saved", "Beginhit": "2023-09-01 10:38:25.739901", "Beginexp": "2023-09-01 10:38:58.818525", "Endhit": "2023-09-01 11:40:35.809723", "psiturkStatus": 3, "browser": "<redacted>", "platform": "windows", "language": "en-US"}