{"condition": 0, "counterbalance": 0, "assignmentId": "a95780465", "workerId": "w84685267", "hitId": "h44548492", "currenttrial": 62, "bonus": 0, "data": [{"uniqueid": "w84685267:a95780465", "current_trial": 0, "dateTime": 1693834645503, "trialdata": {"success": true, "trial_type": "fullscreen", "trial_index": 0, "time_elapsed": 9224, "internal_node_id": "0.0-0.0"}}, {"uniqueid": "w84685267:a95780465", "current_trial": 1, "dateTime": 1693834669950, "trialdata": {"view_history": [{"page_index": 0, "viewing_time": 24440}], "rt": 24441, "trial_id": "exp_instructions_misaligned", "trial_type": "instructions", "trial_index": 1, "time_elapsed": 33671, "internal_node_id": "0.0-1.0"}}, {"uniqueid": "w84685267:a95780465", "current_trial": 2, "dateTime": 1693834909303, "trialdata": {"view_history": [{"page_index": 0, "viewing_time": 56992}, {"page_index": 1, "viewing_time": 98378}, {"page_index": 0, "viewing_time": 1425}, {"page_index": 1, "viewing_time": 2177}, {"page_index": 2, "viewing_time": 9967}, {"page_index": 1, "viewing_time": 2745}, {"page_index": 2, "viewing_time": 24308}, {"page_index": 3, "viewing_time": 43358}], "rt": 239351, "trial_id": "mouselab_instructions_1_misaligned", "trial_type": "instructions", "trial_index": 2, "time_elapsed": 273024, "internal_node_id": "0.0-2.0-1.0"}}, {"uniqueid": "w84685267:a95780465", "current_trial": 3, "dateTime": 1693834926505, "trialdata": {"revealed_states": [], "clicked_states": ["18", "28"], "num_clicks_accrued": [0, 0, 0, 0, 0, 0, 0, 0, 0, 0, 0, 0, 0], "stateRewards": ["", -10, 10, 10, 10, 10, -10, -10, 10, 10, 10, -10, -10, -10, -10, -10, 10, -10, 10, 10, 10, -10, 10, 10, -10, 10, -10, -10, 10, -10, -10, -10, 10, 10], "withholdReward": false, "trial_id": "practice_1", "block": "test", "trialIndex": 0, "score": -27.5, "costs": -1, "simulationMode": [null, null, null, null, null], "rewards": [-10, -10, -10, -10, 10], "path": ["0", "0", "12", "13", "14", "15", "18"], "rt": [6712, 88, 290, 54, 21], "actions": ["right", "right", "right", "up", "left"], "actionTimes": [8132, 8743, 9544, 10127, 10674], "queries": {"click": {"state": {"target": ["18", "28"], "time": [3634, 5808]}, "edge": {"target": [], "time": []}}, "mouseover": {"state": {"target": ["12", "18", "1", "28", "23", "0"], "time": [2954, 3286, 4753, 5370, 6186, 6370]}, "edge": {"target": [], "time": []}}, "mouseout": {"state": {"target": ["0", "12", "18", "1", "28", "23", "0"], "time": [1821, 3020, 4387, 5003, 6103, 6286, 13136]}, "edge": {"target": [], "time": []}}}, "displayed_time": "11.19", "trialTime": 15999, "trial_type": "mouselab-mdp", "trial_index": 3, "time_elapsed": 290225, "internal_node_id": "0.0-2.0-2.0-0.0"}}, {"uniqueid": "w84685267:a95780465", "current_trial": 4, "dateTime": 1693834949685, "trialdata": {"revealed_states": [], "clicked_states": ["26", "7"], "num_clicks_accrued": [0, 0, 0, 0, 0, 0, 0, 0, 0, 0, 0, 0, 0], "stateRewards": ["", -10, -10, 10, 10, -10, -10, -10, 10, -10, 10, 10, 10, 10, 10, -10, 10, -10, -10, 10, -10, 10, -10, 10, 10, -10, -10, 10, -10, -10, -10, -10, 10, -10], "withholdReward": false, "trial_id": "practice_2", "block": "test", "trialIndex": 1, "score": 12.5, "costs": -1, "simulationMode": [null, null, null, null, null], "rewards": [-10, -10, 10, 10, 10], "path": ["0", "0", "1", "2", "3", "8", "11"], "rt": [10735, 775, 685, 316, 213], "actions": ["up", "up", "up", "left", "left"], "actionTimes": [14193, 15500, 16708, 17542, 18285], "queries": {"click": {"state": {"target": ["26", "7"], "time": [6514, 13158]}, "edge": {"target": [], "time": []}}, "mouseover": {"state": {"target": ["31", "24", "28", "26", "24", "22", "12", "7"], "time": [4874, 5639, 5722, 5988, 6755, 9905, 12438, 12771]}, "edge": {"target": [], "time": []}}, "mouseout": {"state": {"target": ["0", "31", "24", "28", "26", "24", "22", "12", "7"], "time": [4558, 5622, 5672, 5938, 6688, 6805, 12392, 12455, 13438]}, "edge": {"target": [], "time": []}}}, "displayed_time": "18.79", "trialTime": 23049, "trial_type": "mouselab-mdp", "trial_index": 4, "time_elapsed": 313406, "internal_node_id": "0.0-2.0-2.0-1.0"}}, {"uniqueid": "w84685267:a95780465", "current_trial": 5, "dateTime": 1693834997046, "trialdata": {"view_history": [{"page_index": 0, "viewing_time": 30672}, {"page_index": 1, "viewing_time": 16687}], "rt": 47360, "trial_id": "mouselab_instructions_2_misaligned", "trial_type": "instructions", "trial_index": 5, "time_elapsed": 360767, "internal_node_id": "0.0-2.0-3.0"}}, {"uniqueid": "w84685267:a95780465", "current_trial": 6, "dateTime": 1693835082909, "trialdata": {"rt": 85860, "response": {"Q0": "The cost for clicking on nodes may vary between nodes.", "Q1": "I will receive a $1 bonus if I perform well, otherwise I will receive no bonus.", "Q2": "No, the amount of cash at each node of the web may be different each time.", "Q3": "To get the highest total score.", "Q4": "Only before moving the spider.", "Q5": "3 seconds"}, "question_order": [0, 1, 2, 3, 4, 5], "correct": {"Q0": "The cost for clicking on nodes may vary between nodes.", "Q1": "The better I perform the higher my bonus will be.", "Q2": "No, the amount of cash at each node of the web may be different each time.", "Q3": "To get the highest total score.", "Q4": "Only before moving the spider.", "Q5": "3 seconds"}, "trial_id": "mouselab_quiz_misaligned", "trial_type": "survey-multi-choice", "trial_index": 6, "time_elapsed": 446630, "internal_node_id": "0.0-2.0-4.0"}}, {"uniqueid": "w84685267:a95780465", "current_trial": 7, "dateTime": 1693835095714, "trialdata": {"success": true, "trial_type": "fullscreen", "trial_index": 7, "time_elapsed": 459435, "internal_node_id": "0.0-2.1-0.1-0.1"}}, {"uniqueid": "w84685267:a95780465", "current_trial": 8, "dateTime": 1693835241940, "trialdata": {"view_history": [{"page_index": 0, "viewing_time": 17057}, {"page_index": 1, "viewing_time": 59986}, {"page_index": 2, "viewing_time": 23482}, {"page_index": 3, "viewing_time": 45698}], "rt": 146224, "trial_id": "mouselab_instructions_1_misaligned", "trial_type": "instructions", "trial_index": 8, "time_elapsed": 605661, "internal_node_id": "0.0-2.1-1.1"}}, {"uniqueid": "w84685267:a95780465", "current_trial": 9, "dateTime": 1693835255915, "trialdata": {"revealed_states": [], "clicked_states": ["8"], "num_clicks_accrued": [0, 0, 0, 0, 0, 0, 0, 0, 0, 0, 0, 0, 0], "stateRewards": ["", -10, 10, 10, 10, 10, -10, -10, 10, 10, 10, -10, -10, -10, -10, -10, 10, -10, 10, 10, 10, -10, 10, 10, -10, 10, -10, -10, 10, -10, -10, -10, 10, 10], "withholdReward": false, "trial_id": "practice_1", "block": "test", "trialIndex": 2, "score": 33, "costs": -0.5, "simulationMode": [null, null, null, null, null], "rewards": [-10, 10, 10, 10, 10], "path": ["0", "0", "1", "2", "3", "8", "9"], "rt": [4315, 602, 170, 51, 686], "actions": ["up", "up", "up", "left", "up"], "actionTimes": [6035, 7161, 7864, 8426, 9628], "queries": {"click": {"state": {"target": ["8"], "time": [3278]}, "edge": {"target": [], "time": []}}, "mouseover": {"state": {"target": ["1", "2", "3", "8", "11", "9", "1"], "time": [2241, 2441, 2658, 2825, 3675, 3808, 5409]}, "edge": {"target": [], "time": []}}, "mouseout": {"state": {"target": ["0", "1", "2", "3", "8", "11", "9", "8", "1", "1", "0"], "time": [2077, 2341, 2575, 2693, 3475, 3741, 4574, 4691, 6691, 11658, 11692]}, "edge": {"target": [], "time": []}}}, "displayed_time": "10.16", "trialTime": 13835, "trial_type": "mouselab-mdp", "trial_index": 9, "time_elapsed": 619635, "internal_node_id": "0.0-2.1-2.1-0.1"}}, {"uniqueid": "w84685267:a95780465", "current_trial": 10, "dateTime": 1693835272914, "trialdata": {"revealed_states": [], "clicked_states": ["15", "16", "5", "26", "29", "33"], "num_clicks_accrued": [0, 0, 0, 0, 0, 0, 0, 0, 0, 0, 0, 0, 0], "stateRewards": ["", -10, -10, 10, 10, -10, -10, -10, 10, -10, 10, 10, 10, 10, 10, -10, 10, -10, -10, 10, -10, 10, -10, 10, 10, -10, -10, 10, -10, -10, -10, -10, 10, -10], "withholdReward": false, "trial_id": "practice_2", "block": "test", "trialIndex": 3, "score": -9.5, "costs": -3, "simulationMode": [null, null, null, null, null], "rewards": [10, 10, -10, -10, -10], "path": ["0", "0", "23", "24", "25", "30", "31"], "rt": [9383, 405, 248, 113, 146], "actions": ["left", "left", "left", "down", "right"], "actionTimes": [11641, 12557, 13312, 13961, 14642], "queries": {"click": {"state": {"target": ["15", "16", "5", "26", "29", "33"], "time": [3018, 4165, 5252, 6993, 9208, 10555]}, "edge": {"target": [], "time": []}}, "mouseover": {"state": {"target": ["12", "13", "15", "17", "16", "6", "5", "9", "11", "27", "26", "27", "29", "25", "30", "30", "33", "30"], "time": [2513, 2546, 2866, 3347, 3863, 4429, 4946, 6280, 6529, 6713, 6763, 7346, 9030, 9529, 9779, 10029, 10462, 10763]}, "edge": {"target": [], "time": []}}, "mouseout": {"state": {"target": ["0", "12", "13", "15", "17", "16", "6", "5", "9", "11", "27", "26", "27", "26", "26", "29", "29", "25", "30", "30", "33", "30"], "time": [2497, 2530, 2580, 3181, 3780, 4363, 4846, 5580, 6496, 6579, 6729, 7279, 8263, 8313, 8780, 9258, 9463, 9546, 9813, 10080, 10712, 11281]}, "edge": {"target": [], "time": []}}}, "displayed_time": "15.15", "trialTime": 16857, "trial_type": "mouselab-mdp", "trial_index": 10, "time_elapsed": 636635, "internal_node_id": "0.0-2.1-2.1-1.1"}}, {"uniqueid": "w84685267:a95780465", "current_trial": 11, "dateTime": 1693835310784, "trialdata": {"view_history": [{"page_index": 0, "viewing_time": 32953}, {"page_index": 1, "viewing_time": 4912}], "rt": 37866, "trial_id": "mouselab_instructions_2_misaligned", "trial_type": "instructions", "trial_index": 11, "time_elapsed": 674505, "internal_node_id": "0.0-2.1-3.1"}}, {"uniqueid": "w84685267:a95780465", "current_trial": 12, "dateTime": 1693835388732, "trialdata": {"rt": 77945, "response": {"Q0": "The cost for clicking on nodes may vary between nodes.", "Q1": "The better I perform the higher my bonus will be.", "Q2": "No, the amount of cash at each node of the web may be different each time.", "Q3": "To get the highest total score.", "Q4": "Only before moving the spider.", "Q5": "3 seconds"}, "question_order": [0, 1, 2, 3, 4, 5], "correct": {"Q0": "The cost for clicking on nodes may vary between nodes.", "Q1": "The better I perform the higher my bonus will be.", "Q2": "No, the amount of cash at each node of the web may be different each time.", "Q3": "To get the highest total score.", "Q4": "Only before moving the spider.", "Q5": "3 seconds"}, "trial_id": "mouselab_quiz_misaligned", "trial_type": "survey-multi-choice", "trial_index": 12, "time_elapsed": 752453, "internal_node_id": "0.0-2.1-4.1"}}, {"uniqueid": "w84685267:a95780465", "current_trial": 13, "dateTime": 1693835400132, "trialdata": {"rt": 11396, "response": {"Q0": "No"}, "question_order": [0], "trial_id": "repeat_check", "trial_type": "survey-multi-choice", "trial_index": 13, "time_elapsed": 763853, "internal_node_id": "0.0-4.0-0.0"}}, {"uniqueid": "w84685267:a95780465", "current_trial": 14, "dateTime": 1693835418469, "trialdata": {"rt": 18334, "stimulus": "\n<h1> Get ready to start the game! </h1>\n\nThank you for reading the instructions. Get ready start with the 40 rounds of this game.\n<br><br>\nIf you need to take a break, feel free to take one after the end of a round, before continuing to the next one.\n<br><br>\nRemember, the more money the spider gets, the bigger your bonus will be!\n<br><br>\n<div style='text-align: center;'>Press <code>space</code> to begin.</div>\n\n<br><br>\n(If, at any point, the <code>space</code> key does not take you to the next page, click once on the text and try again.)", "response": " ", "trial_id": "mdp_ready", "trial_type": "html-keyboard-response", "trial_index": 14, "time_elapsed": 782190, "internal_node_id": "0.0-6.0-0.0"}}, {"uniqueid": "w84685267:a95780465", "current_trial": 15, "dateTime": 1693835437768, "trialdata": {"revealed_states": [], "clicked_states": ["15", "6"], "num_clicks_accrued": [0, 0, 0, 0, 0, 0, 0, 0, 0, 0, 0, 0, 0], "stateRewards": ["", -2, 2, -5, -6, 10, -66, -58, -10, -11, -63, -70, -1, -4, -5, 7, 66, -64, -43, -3, 45, -37, 4, -2, -2, -6, -4, -30, 33, 43, 15, -32, -65, -59], "withholdReward": false, "trial_id": "mdp_trial_1", "block": "test", "trialIndex": 4, "score": -81.7, "costs": -3.7, "simulationMode": [null, null, null, null, null], "rewards": [-2, 2, -5, -10, -63], "path": ["0", "0", "1", "2", "3", "8", "10"], "rt": [5274, 1, 281, 547, 171], "actions": ["up", "up", "up", "left", "down"], "actionTimes": [7723, 8247, 9059, 10126, 10815], "queries": {"click": {"state": {"target": ["15", "6"], "time": [3490, 4264]}, "edge": {"target": [], "time": []}}, "mouseover": {"state": {"target": ["18", "15", "16", "6", "5", "11"], "time": [2726, 3176, 3776, 3926, 4694, 5793]}, "edge": {"target": [], "time": []}}, "mouseout": {"state": {"target": ["7", "1", "0", "18", "15", "16", "6", "5", "11"], "time": [876, 962, 2594, 2876, 3546, 3843, 4560, 5310, 18159]}, "edge": {"target": [], "time": []}}}, "displayed_time": "16.45", "trialTime": 19168, "trial_type": "mouselab-mdp", "trial_index": 15, "time_elapsed": 801489, "internal_node_id": "0.0-6.0-1.0-0.0"}}, {"uniqueid": "w84685267:a95780465", "current_trial": 16, "dateTime": 1693835457218, "trialdata": {"revealed_states": [], "clicked_states": ["17", "25", "29"], "num_clicks_accrued": [0, 0, 0, 0, 0, 0, 0, 0, 0, 0, 0, 0, 0], "stateRewards": ["", -2, -1, 3, -3, 71, -58, -21, 7, -10, -75, -37, 2, 4, -1, -12, -79, -29, -48, 3, -41, -10, -30, -1, -2, 1, -15, 13, 66, 22, -1, -42, -86, -55], "withholdReward": false, "trial_id": "mdp_trial_2", "block": "test", "trialIndex": 5, "score": -7.25, "costs": -5.25, "simulationMode": [null, null, null, null, null], "rewards": [2, 4, -1, 3, -10], "path": ["0", "0", "12", "13", "14", "19", "21"], "rt": [7114, 143, 85, 247, 179], "actions": ["right", "right", "right", "down", "down"], "actionTimes": [10091, 10740, 11333, 12114, 12808], "queries": {"click": {"state": {"target": ["17", "25", "29"], "time": [3704, 6639, 7192]}, "edge": {"target": [], "time": []}}, "mouseover": {"state": {"target": ["12", "13", "17", "15", "18", "7", "3", "8", "11", "28", "24", "24", "25", "29", "33", "32", "22", "19", "20"], "time": [3162, 3211, 3428, 3945, 3962, 4028, 4428, 4695, 4978, 5528, 5701, 6029, 6395, 6928, 7678, 7995, 8228, 8378, 8611]}, "edge": {"target": [], "time": []}}, "mouseout": {"state": {"target": ["14", "13", "12", "0", "12", "13", "17", "15", "18", "7", "3", "8", "11", "28", "24", "24", "25", "29", "33", "32", "22", "19", "20"], "time": [2112, 2146, 2428, 3095, 3178, 3282, 3928, 3961, 3978, 4079, 4581, 4945, 5445, 5663, 5779, 6361, 6845, 7561, 7878, 8061, 8361, 8428, 9544]}, "edge": {"target": [], "time": []}}}, "displayed_time": "16.98", "trialTime": 19288, "trial_type": "mouselab-mdp", "trial_index": 16, "time_elapsed": 820938, "internal_node_id": "0.0-6.0-1.0-1.0"}}, {"uniqueid": "w84685267:a95780465", "current_trial": 17, "dateTime": 1693835475271, "trialdata": {"revealed_states": [], "clicked_states": ["9", "17"], "num_clicks_accrued": [0, 0, 0, 0, 0, 0, 0, 0, 0, 0, 0, 0, 0], "stateRewards": ["", 2, 4, 4, 9, -88, -10, 44, 16, -54, 64, 78, 1, 2, 5, 16, 80, 36, 7, -4, 9, -47, -70, -1, -3, 6, -16, 11, 80, 28, 8, -1, 34, -17], "withholdReward": false, "trial_id": "mdp_trial_3", "block": "test", "trialIndex": 6, "score": 55.7, "costs": -4.3, "simulationMode": [null, null, null, null, null], "rewards": [1, 2, 5, 16, 36], "path": ["0", "0", "12", "13", "14", "15", "17"], "rt": [8357, 485, 141, 484, 83], "actions": ["right", "right", "right", "up", "right"], "actionTimes": [9742, 10743, 11397, 12391, 12990], "queries": {"click": {"state": {"target": ["9", "17"], "time": [2173, 5930]}, "edge": {"target": [], "time": []}}, "mouseover": {"state": {"target": ["1", "8", "9", "11", "27", "29", "26", "27", "24", "12", "13", "15", "17", "13", "12", "0", "23", "30", "33"], "time": [1555, 1755, 2005, 2455, 2571, 2755, 3838, 3938, 5088, 5188, 5272, 5505, 5721, 6772, 6855, 6938, 6988, 7271, 7688]}, "edge": {"target": [], "time": []}}, "mouseout": {"state": {"target": ["0", "1", "8", "9", "11", "27", "29", "26", "27", "24", "12", "13", "15", "17", "13", "12", "0", "23", "30", "33"], "time": [1121, 1572, 1788, 2388, 2488, 2655, 3371, 3888, 5055, 5105, 5238, 5321, 5688, 6438, 6839, 6905, 6971, 7021, 7355, 8355]}, "edge": {"target": [], "time": []}}}, "displayed_time": "15.39", "trialTime": 17852, "trial_type": "mouselab-mdp", "trial_index": 17, "time_elapsed": 838991, "internal_node_id": "0.0-6.0-1.0-2.0"}}, {"uniqueid": "w84685267:a95780465", "current_trial": 18, "dateTime": 1693835495584, "trialdata": {"revealed_states": [], "clicked_states": ["29"], "num_clicks_accrued": [0, 0, 0, 0, 0, 0, 0, 0, 0, 0, 0, 0, 0], "stateRewards": ["", -1, -3, 1, 13, -64, -29, 12, -4, -33, 50, 56, 2, -3, 4, 11, -64, -58, -55, 12, 47, 38, -25, -2, 2, 5, -15, 85, 7, 84, 10, 8, 57, 26], "withholdReward": false, "trial_id": "mdp_trial_4", "block": "test", "trialIndex": 7, "score": 71.85, "costs": -2.15, "simulationMode": [null, null, null, null, null], "rewards": [-2, 2, 5, -15, 84], "path": ["0", "0", "23", "24", "25", "26", "29"], "rt": [5276, 132, 32, 15, 11], "actions": ["left", "left", "left", "up", "left"], "actionTimes": [8545, 9203, 9752, 10300, 10829], "queries": {"click": {"state": {"target": ["29"], "time": [4931]}, "edge": {"target": [], "time": []}}, "mouseover": {"state": {"target": ["0", "23", "24", "25", "29", "24", "23", "0", "12", "15", "16", "18"], "time": [3317, 3483, 3533, 3650, 4734, 5167, 5233, 5283, 5317, 5617, 6016, 6667]}, "edge": {"target": [], "time": []}}, "mouseout": {"state": {"target": ["31", "24", "0", "23", "24", "25", "29", "24", "23", "0", "12", "15", "16", "18"], "time": [800, 933, 3450, 3517, 3567, 3684, 5116, 5183, 5267, 5300, 5417, 5850, 6633, 6683]}, "edge": {"target": [], "time": []}}}, "displayed_time": "17.27", "trialTime": 20176, "trial_type": "mouselab-mdp", "trial_index": 18, "time_elapsed": 859304, "internal_node_id": "0.0-6.0-1.0-3.0"}}, {"uniqueid": "w84685267:a95780465", "current_trial": 19, "dateTime": 1693835514126, "trialdata": {"revealed_states": [], "clicked_states": [], "num_clicks_accrued": [0, 0, 0, 0, 0, 0, 0, 0, 0, 0, 0, 0, 0], "stateRewards": ["", 1, 4, 5, -5, 58, -80, 75, 6, 25, -39, 46, 2, -2, 4, 2, 59, 31, -22, -12, -61, 15, 72, 1, -2, -7, 8, 77, 76, -23, -7, 71, -15, -3], "withholdReward": false, "trial_id": "mdp_trial_5", "block": "test", "trialIndex": 8, "score": 64, "costs": 0, "simulationMode": [null, null, null, null, null], "rewards": [2, -2, 4, -12, 72], "path": ["0", "0", "12", "13", "14", "19", "22"], "rt": [886, 57, 152, 108, 199], "actions": ["right", "right", "right", "down", "left"], "actionTimes": [2950, 3534, 4193, 4818, 5526], "queries": {"click": {"state": {"target": [], "time": []}, "edge": {"target": [], "time": []}}, "mouseover": {"state": {"target": ["0"], "time": [2207]}, "edge": {"target": [], "time": []}}, "mouseout": {"state": {"target": ["0", "0"], "time": [1874, 2257]}, "edge": {"target": [], "time": []}}}, "displayed_time": "16.07", "trialTime": 18395, "trial_type": "mouselab-mdp", "trial_index": 19, "time_elapsed": 877847, "internal_node_id": "0.0-6.0-1.0-4.0"}}, {"uniqueid": "w84685267:a95780465", "current_trial": 20, "dateTime": 1693835531813, "trialdata": {"revealed_states": [], "clicked_states": [], "num_clicks_accrued": [0, 0, 0, 0, 0, 0, 0, 0, 0, 0, 0, 0, 0], "stateRewards": ["", 1, -3, -4, -11, -56, 61, -47, -16, -28, -9, 69, -2, -3, -4, -8, 40, -86, 59, -4, 80, 27, 54, -1, 3, -1, 8, 67, 23, 50, 6, 83, -43, -29], "withholdReward": false, "trial_id": "mdp_trial_6", "block": "test", "trialIndex": 9, "score": 32, "costs": 0, "simulationMode": [null, null, null, null, null], "rewards": [-1, 3, -1, 8, 23], "path": ["0", "0", "23", "24", "25", "26", "28"], "rt": [396, 167, 107, 536, 45], "actions": ["left", "left", "left", "up", "right"], "actionTimes": [2109, 2787, 3411, 4457, 5015], "queries": {"click": {"state": {"target": [], "time": []}, "edge": {"target": [], "time": []}}, "mouseover": {"state": {"target": [], "time": []}, "edge": {"target": [], "time": []}}, "mouseout": {"state": {"target": [], "time": []}, "edge": {"target": [], "time": []}}}, "displayed_time": "15.72", "trialTime": 17525, "trial_type": "mouselab-mdp", "trial_index": 20, "time_elapsed": 895533, "internal_node_id": "0.0-6.0-1.0-5.0"}}, {"uniqueid": "w84685267:a95780465", "current_trial": 21, "dateTime": 1693835548862, "trialdata": {"revealed_states": [], "clicked_states": [], "num_clicks_accrued": [0, 0, 0, 0, 0, 0, 0, 0, 0, 0, 0, 0, 0], "stateRewards": ["", -1, 2, -6, 6, -82, -19, -39, -16, -83, 11, -33, -2, -2, 4, -6, -82, -1, -19, -6, -10, -67, -41, -2, 1, -7, 16, -23, -78, -52, 14, 31, -71, 74], "withholdReward": false, "trial_id": "mdp_trial_7", "block": "test", "trialIndex": 10, "score": -81, "costs": 0, "simulationMode": [null, null, null, null, null], "rewards": [-1, 2, -6, 6, -82], "path": ["0", "0", "1", "2", "3", "4", "5"], "rt": [1169, 31, 583, 390, 77], "actions": ["up", "up", "up", "right", "up"], "actionTimes": [2143, 2682, 3781, 4708, 5310], "queries": {"click": {"state": {"target": [], "time": []}, "edge": {"target": [], "time": []}}, "mouseover": {"state": {"target": [], "time": []}, "edge": {"target": [], "time": []}}, "mouseout": {"state": {"target": ["0"], "time": [15768]}, "edge": {"target": [], "time": []}}}, "displayed_time": "14.98", "trialTime": 16890, "trial_type": "mouselab-mdp", "trial_index": 21, "time_elapsed": 912583, "internal_node_id": "0.0-6.0-1.0-6.0"}}, {"uniqueid": "w84685267:a95780465", "current_trial": 22, "dateTime": 1693835567065, "trialdata": {"revealed_states": [], "clicked_states": [], "num_clicks_accrued": [0, 0, 0, 0, 0, 0, 0, 0, 0, 0, 0, 0, 0], "stateRewards": ["", -1, -3, 1, -4, -48, -63, -49, -2, -84, -19, 65, 2, -2, -2, -12, -4, 59, 9, 6, 75, 69, -13, -1, -3, -3, -2, -37, -68, -36, 13, 32, 18, -14], "withholdReward": false, "trial_id": "mdp_trial_8", "block": "test", "trialIndex": 11, "score": -8, "costs": 0, "simulationMode": [null, null, null, null, null], "rewards": [-1, -3, -3, 13, -14], "path": ["0", "0", "23", "24", "25", "30", "33"], "rt": [585, 94, 1111, 320, 33], "actions": ["left", "left", "left", "down", "left"], "actionTimes": [1948, 2558, 4173, 5016, 5578], "queries": {"click": {"state": {"target": [], "time": []}, "edge": {"target": [], "time": []}}, "mouseover": {"state": {"target": [], "time": []}, "edge": {"target": [], "time": []}}, "mouseout": {"state": {"target": ["0"], "time": [1193]}, "edge": {"target": [], "time": []}}}, "displayed_time": "15.36", "trialTime": 18055, "trial_type": "mouselab-mdp", "trial_index": 22, "time_elapsed": 930785, "internal_node_id": "0.0-6.0-1.0-7.0"}}, {"uniqueid": "w84685267:a95780465", "current_trial": 23, "dateTime": 1693835584680, "trialdata": {"revealed_states": [], "clicked_states": [], "num_clicks_accrued": [0, 0, 0, 0, 0, 0, 0, 0, 0, 0, 0, 0, 0], "stateRewards": ["", 2, -1, 5, 6, 10, 86, 55, 10, -45, 63, -71, 1, -2, 5, -8, -50, -72, 36, 15, 61, 12, 33, -1, -4, 6, 5, 79, -56, -21, -16, -87, 60, -81], "withholdReward": false, "trial_id": "mdp_trial_9", "block": "test", "trialIndex": 12, "score": 79, "costs": 0, "simulationMode": [null, null, null, null, null], "rewards": [2, -1, 5, 10, 63], "path": ["0", "0", "1", "2", "3", "8", "10"], "rt": [873, 103, 614, 1, 418], "actions": ["up", "up", "up", "left", "down"], "actionTimes": [2164, 2773, 3905, 4439, 5388], "queries": {"click": {"state": {"target": [], "time": []}, "edge": {"target": [], "time": []}}, "mouseover": {"state": {"target": [], "time": []}, "edge": {"target": [], "time": []}}, "mouseout": {"state": {"target": [], "time": []}, "edge": {"target": [], "time": []}}}, "displayed_time": "15.29", "trialTime": 17416, "trial_type": "mouselab-mdp", "trial_index": 23, "time_elapsed": 948400, "internal_node_id": "0.0-6.0-1.0-8.0"}}, {"uniqueid": "w84685267:a95780465", "current_trial": 24, "dateTime": 1693835603387, "trialdata": {"revealed_states": [], "clicked_states": [], "num_clicks_accrued": [0, 0, 0, 0, 0, 0, 0, 0, 0, 0, 0, 0, 0], "stateRewards": ["", 1, -1, 8, -3, 38, 85, -20, -4, 8, 23, 73, 2, -4, 6, -13, 44, 7, -28, -11, -77, 45, -69, 1, -1, -7, -11, 75, -51, -87, 7, 36, -53, -26], "withholdReward": false, "trial_id": "mdp_trial_10", "block": "test", "trialIndex": 13, "score": -37, "costs": 0, "simulationMode": [null, null, null, null, null], "rewards": [2, -4, 6, -13, -28], "path": ["0", "0", "12", "13", "14", "15", "18"], "rt": [102, 103, 342, 73, 442], "actions": ["right", "right", "right", "up", "left"], "actionTimes": [3030, 3651, 4507, 5086, 6040], "queries": {"click": {"state": {"target": [], "time": []}, "edge": {"target": [], "time": []}}, "mouseover": {"state": {"target": [], "time": []}, "edge": {"target": [], "time": []}}, "mouseout": {"state": {"target": ["0"], "time": [15845]}, "edge": {"target": [], "time": []}}}, "displayed_time": "16.93", "trialTime": 18551, "trial_type": "mouselab-mdp", "trial_index": 24, "time_elapsed": 967108, "internal_node_id": "0.0-6.0-1.0-9.0"}}, {"uniqueid": "w84685267:a95780465", "current_trial": 25, "dateTime": 1693835624669, "trialdata": {"revealed_states": [], "clicked_states": ["20", "16"], "num_clicks_accrued": [0, 0, 0, 0, 0, 0, 0, 0, 0, 0, 0, 0, 0], "stateRewards": ["", -2, -1, -5, 10, -36, -70, 68, -9, 86, 71, -10, 2, -4, 7, -7, 66, 44, -66, -13, -69, 43, 15, -2, 2, 6, -13, 62, 57, 50, -10, -69, 42, -72], "withholdReward": false, "trial_id": "mdp_trial_11", "block": "test", "trialIndex": 14, "score": 59.7, "costs": -4.3, "simulationMode": [null, null, null, null, null], "rewards": [2, -4, 7, -7, 66], "path": ["0", "0", "12", "13", "14", "15", "16"], "rt": [8210, 78, 245, 6, 166], "actions": ["right", "right", "right", "up", "up"], "actionTimes": [9334, 9931, 10682, 11211, 11887], "queries": {"click": {"state": {"target": ["20", "16"], "time": [2047, 5401]}, "edge": {"target": [], "time": []}}, "mouseover": {"state": {"target": ["13", "19", "20", "22", "12", "7", "4", "5", "6", "15", "16", "17"], "time": [1369, 1535, 1935, 2635, 2902, 3119, 3235, 3868, 4386, 4436, 5185, 6002]}, "edge": {"target": [], "time": []}}, "mouseout": {"state": {"target": ["0", "13", "19", "20", "22", "12", "7", "4", "5", "6", "15", "16", "16", "17", "20", "21"], "time": [1353, 1402, 1752, 2436, 2719, 2986, 3186, 3635, 4369, 4402, 4471, 5455, 5902, 6018, 17853, 18218]}, "edge": {"target": [], "time": []}}}, "displayed_time": "15.13", "trialTime": 21123, "trial_type": "mouselab-mdp", "trial_index": 25, "time_elapsed": 988390, "internal_node_id": "0.0-6.0-1.0-10.0"}}, {"uniqueid": "w84685267:a95780465", "current_trial": 26, "dateTime": 1693835642934, "trialdata": {"revealed_states": [], "clicked_states": [], "num_clicks_accrued": [0, 0, 0, 0, 0, 0, 0, 0, 0, 0, 0, 0, 0], "stateRewards": ["", 1, -2, -8, -13, 4, 34, -84, -4, -49, 88, -70, -1, 3, -4, 10, -77, 13, -34, 15, -21, -16, 27, 1, -2, 8, -8, -6, 38, -26, 6, -15, 66, -3], "withholdReward": false, "trial_id": "mdp_trial_12", "block": "test", "trialIndex": 15, "score": 75, "costs": 0, "simulationMode": [null, null, null, null, null], "rewards": [1, -2, -8, -4, 88], "path": ["0", "0", "1", "2", "3", "8", "10"], "rt": [2021, 342, 564, 39, 96], "actions": ["up", "up", "up", "left", "down"], "actionTimes": [3738, 4596, 5670, 6227, 6834], "queries": {"click": {"state": {"target": [], "time": []}, "edge": {"target": [], "time": []}}, "mouseover": {"state": {"target": ["23", "24", "25", "26"], "time": [2187, 2270, 2355, 2570]}, "edge": {"target": [], "time": []}}, "mouseout": {"state": {"target": ["0", "23", "24", "25", "26", "28"], "time": [2156, 2237, 2320, 2404, 2786, 17769]}, "edge": {"target": [], "time": []}}}, "displayed_time": "15.72", "trialTime": 18105, "trial_type": "mouselab-mdp", "trial_index": 26, "time_elapsed": 1006654, "internal_node_id": "0.0-6.0-1.0-11.0"}}, {"uniqueid": "w84685267:a95780465", "current_trial": 27, "dateTime": 1693835660076, "trialdata": {"revealed_states": [], "clicked_states": [], "num_clicks_accrued": [0, 0, 0, 0, 0, 0, 0, 0, 0, 0, 0, 0, 0], "stateRewards": ["", -2, -4, 6, 14, -34, 49, 36, -8, -3, 32, -4, 1, -2, 1, -8, -20, -71, -57, -7, -86, -62, -16, -2, -3, -5, 11, 23, -21, 53, 5, -5, 85, 73], "withholdReward": false, "trial_id": "mdp_trial_13", "block": "test", "trialIndex": 16, "score": -10, "costs": 0, "simulationMode": [null, null, null, null, null], "rewards": [-2, -3, -5, 5, -5], "path": ["0", "0", "23", "24", "25", "30", "31"], "rt": [849, 47, 668, 103, 42], "actions": ["left", "left", "left", "down", "right"], "actionTimes": [2159, 2730, 3903, 4537, 5093], "queries": {"click": {"state": {"target": [], "time": []}, "edge": {"target": [], "time": []}}, "mouseover": {"state": {"target": [], "time": []}, "edge": {"target": [], "time": []}}, "mouseout": {"state": {"target": ["23", "0"], "time": [781, 897]}, "edge": {"target": [], "time": []}}}, "displayed_time": "15.31", "trialTime": 16943, "trial_type": "mouselab-mdp", "trial_index": 27, "time_elapsed": 1023796, "internal_node_id": "0.0-6.0-1.0-12.0"}}, {"uniqueid": "w84685267:a95780465", "current_trial": 28, "dateTime": 1693835677562, "trialdata": {"revealed_states": [], "clicked_states": [], "num_clicks_accrued": [0, 0, 0, 0, 0, 0, 0, 0, 0, 0, 0, 0, 0], "stateRewards": ["", 2, 4, 4, -8, -36, -33, 38, 16, -51, 57, 57, 1, 3, 4, -6, 45, 68, 87, 1, 63, 24, -55, -2, 2, -6, -13, -63, -50, 8, 2, 80, 6, 60], "withholdReward": false, "trial_id": "mdp_trial_14", "block": "test", "trialIndex": 17, "score": -25, "costs": 0, "simulationMode": [null, null, null, null, null], "rewards": [2, 4, 4, 16, -51], "path": ["0", "0", "1", "2", "3", "8", "9"], "rt": [459, 11, 306, 548, 74], "actions": ["up", "up", "up", "left", "up"], "actionTimes": [1346, 1886, 2699, 3772, 4352], "queries": {"click": {"state": {"target": [], "time": []}, "edge": {"target": [], "time": []}}, "mouseover": {"state": {"target": [], "time": []}, "edge": {"target": [], "time": []}}, "mouseout": {"state": {"target": ["0", "0"], "time": [490, 3173]}, "edge": {"target": [], "time": []}}}, "displayed_time": "14.89", "trialTime": 17272, "trial_type": "mouselab-mdp", "trial_index": 28, "time_elapsed": 1041282, "internal_node_id": "0.0-6.0-1.0-13.0"}}, {"uniqueid": "w84685267:a95780465", "current_trial": 29, "dateTime": 1693835702352, "trialdata": {"revealed_states": [], "clicked_states": ["29", "31", "6"], "num_clicks_accrued": [0, 0, 0, 0, 0, 0, 0, 0, 0, 0, 0, 0, 0], "stateRewards": ["", -2, 2, 3, -7, 76, 63, 21, 15, 35, -8, -44, 1, 1, -2, -12, 23, 24, 76, -9, 46, 66, -49, -2, -1, 7, 12, 40, -71, -45, -6, 38, -49, 46], "withholdReward": false, "trial_id": "mdp_trial_15", "block": "test", "trialIndex": 18, "score": 52.55, "costs": -6.449999999999999, "simulationMode": [null, null, null, null, null], "rewards": [-2, 2, 3, -7, 63], "path": ["0", "0", "1", "2", "3", "4", "6"], "rt": [13244, 57, 579, 15, 298], "actions": ["up", "up", "up", "right", "right"], "actionTimes": [14376, 14962, 16049, 16569, 17385], "queries": {"click": {"state": {"target": ["29", "31", "6"], "time": [1905, 5745, 10170]}, "edge": {"target": [], "time": []}}, "mouseover": {"state": {"target": ["28", "26", "29", "25", "31", "19", "15", "16", "6", "6", "7", "1", "0"], "time": [1353, 1455, 1586, 2271, 2437, 6486, 9502, 9569, 9752, 9969, 10486, 10537, 11870]}, "edge": {"target": [], "time": []}}, "mouseout": {"state": {"target": ["0", "28", "26", "29", "25", "31", "19", "15", "16", "6", "6", "7", "1", "0"], "time": [1286, 1403, 1487, 2220, 2370, 6186, 6553, 9519, 9652, 9769, 10454, 10503, 10586, 11902]}, "edge": {"target": [], "time": []}}}, "displayed_time": "17.91", "trialTime": 24594, "trial_type": "mouselab-mdp", "trial_index": 29, "time_elapsed": 1066073, "internal_node_id": "0.0-6.0-1.0-14.0"}}, {"uniqueid": "w84685267:a95780465", "current_trial": 30, "dateTime": 1693835720717, "trialdata": {"revealed_states": [], "clicked_states": [], "num_clicks_accrued": [0, 0, 0, 0, 0, 0, 0, 0, 0, 0, 0, 0, 0], "stateRewards": ["", -2, 2, 2, -6, 9, 37, 50, -13, -7, -18, -75, -2, -4, 4, 7, 23, -57, -66, -7, -81, -48, -76, 1, 1, -8, 1, 51, -2, 70, 14, 59, 71, -37], "withholdReward": false, "trial_id": "mdp_trial_16", "block": "test", "trialIndex": 19, "score": -61, "costs": 0, "simulationMode": [null, null, null, null, null], "rewards": [-2, -4, 4, 7, -66], "path": ["0", "0", "12", "13", "14", "15", "18"], "rt": [1386, 570, 39, 43, 5], "actions": ["right", "right", "right", "up", "left"], "actionTimes": [4193, 5281, 5834, 6406, 6915], "queries": {"click": {"state": {"target": [], "time": []}, "edge": {"target": [], "time": []}}, "mouseover": {"state": {"target": [], "time": []}, "edge": {"target": [], "time": []}}, "mouseout": {"state": {"target": [], "time": []}, "edge": {"target": [], "time": []}}}, "displayed_time": "16.81", "trialTime": 18168, "trial_type": "mouselab-mdp", "trial_index": 30, "time_elapsed": 1084438, "internal_node_id": "0.0-6.0-1.0-15.0"}}, {"uniqueid": "w84685267:a95780465", "current_trial": 31, "dateTime": 1693835743033, "trialdata": {"revealed_states": [], "clicked_states": ["20", "27", "5"], "num_clicks_accrued": [0, 0, 0, 0, 0, 0, 0, 0, 0, 0, 0, 0, 0], "stateRewards": ["", 2, -1, -2, -5, -47, -57, -33, -11, 31, -18, -72, -2, 1, -4, -8, -46, -53, -50, 15, -85, -9, 39, -2, -2, 1, 14, -1, -8, 53, -12, -41, -74, 62], "withholdReward": false, "trial_id": "mdp_trial_17", "block": "test", "trialIndex": 20, "score": -62.45, "costs": -6.449999999999999, "simulationMode": [null, null, null, null, null], "rewards": [-2, -2, 1, -12, -41], "path": ["0", "0", "23", "24", "25", "30", "31"], "rt": [12582, 195, 461, 282, 267], "actions": ["left", "left", "left", "down", "right"], "actionTimes": [14500, 15207, 16185, 16974, 17760], "queries": {"click": {"state": {"target": ["20", "27", "5"], "time": [3050, 7423, 10490]}, "edge": {"target": [], "time": []}}, "mouseover": {"state": {"target": ["12", "19", "20", "20", "19", "13", "12", "1", "27", "28", "2", "5", "18"], "time": [2326, 2357, 2375, 2790, 3390, 3440, 3490, 3573, 3957, 8090, 8273, 8473, 11240]}, "edge": {"target": [], "time": []}}, "mouseout": {"state": {"target": ["0", "12", "19", "20", "20", "20", "19", "13", "12", "1", "27", "28", "2", "5", "5", "18"], "time": [2324, 2340, 2374, 2407, 3070, 3373, 3423, 3473, 3506, 3590, 8006, 8140, 8323, 10571, 10956, 11256]}, "edge": {"target": [], "time": []}}}, "displayed_time": "18.28", "trialTime": 22115, "trial_type": "mouselab-mdp", "trial_index": 31, "time_elapsed": 1106754, "internal_node_id": "0.0-6.0-1.0-16.0"}}, {"uniqueid": "w84685267:a95780465", "current_trial": 32, "dateTime": 1693835760546, "trialdata": {"revealed_states": [], "clicked_states": ["17", "22", "29"], "num_clicks_accrued": [0, 0, 0, 0, 0, 0, 0, 0, 0, 0, 0, 0, 0], "stateRewards": ["", -2, -2, -3, -6, -15, -11, 41, -12, -63, -76, 2, -2, -3, 8, 9, -36, -2, -18, -16, -32, -85, -17, -2, 1, 5, -16, 82, 35, -88, -1, 80, -82, -20], "withholdReward": false, "trial_id": "mdp_trial_18", "block": "test", "trialIndex": 21, "score": -30.45, "costs": -6.449999999999999, "simulationMode": [null, null, null, null, null, null], "rewards": [-2, -2, -3, -6, -11], "path": ["0", "0", "1", "2", "3", "4", "6"], "rt": [6340, 4008, 296, 181, 77, 359], "actions": ["left", "up", "up", "up", "right", "right"], "actionTimes": [7688, 11698, 12526, 13211, 13808, 14675], "queries": {"click": {"state": {"target": ["17", "22", "29"], "time": [2394, 5171, 7906]}, "edge": {"target": [], "time": []}}, "mouseover": {"state": {"target": ["12", "15", "17", "2", "18", "13", "22", "22", "24", "25", "29", "26", "27", "10", "8"], "time": [1663, 1863, 2129, 2879, 3279, 4046, 4079, 4429, 5846, 5913, 6463, 8846, 8887, 10179, 10446]}, "edge": {"target": [], "time": []}}, "mouseout": {"state": {"target": ["14", "12", "0", "12", "15", "17", "2", "18", "13", "22", "22", "24", "25", "29", "26", "27", "10"], "time": [782, 846, 1646, 1696, 1896, 2663, 2913, 4029, 4063, 4212, 5614, 5879, 5979, 8662, 8885, 8896, 10329]}, "edge": {"target": [], "time": []}}}, "displayed_time": "15.35", "trialTime": 17320, "trial_type": "mouselab-mdp", "trial_index": 32, "time_elapsed": 1124267, "internal_node_id": "0.0-6.0-1.0-17.0"}}, {"uniqueid": "w84685267:a95780465", "current_trial": 33, "dateTime": 1693835778949, "trialdata": {"revealed_states": [], "clicked_states": ["33", "9", "17"], "num_clicks_accrued": [0, 0, 0, 0, 0, 0, 0, 0, 0, 0, 0, 0, 0], "stateRewards": ["", -1, -4, 8, 8, -68, 47, 24, -7, -61, 49, -69, -1, -1, 8, -7, 42, 1, -45, -11, 10, -63, -6, 1, 4, 6, -16, 79, -37, -58, -12, 81, 18, -53], "withholdReward": false, "trial_id": "mdp_trial_19", "block": "test", "trialIndex": 22, "score": -17.45, "costs": -6.449999999999999, "simulationMode": [null, null, null, null, null], "rewards": [-1, -1, 8, -11, -6], "path": ["0", "0", "12", "13", "14", "19", "22"], "rt": [12234, 301, 571, 52, 176], "actions": ["right", "right", "right", "down", "left"], "actionTimes": [13479, 14296, 15383, 15948, 16656], "queries": {"click": {"state": {"target": ["33", "9", "17"], "time": [2728, 5782, 8565]}, "edge": {"target": [], "time": []}}, "mouseover": {"state": {"target": ["24", "30", "33", "30", "25", "8", "9", "3", "4", "6", "17", "20"], "time": [1777, 2143, 2444, 3062, 3127, 3527, 3927, 6426, 6594, 7061, 7260, 10460]}, "edge": {"target": [], "time": []}}, "mouseout": {"state": {"target": ["8", "10", "1", "0", "24", "30", "33", "30", "25", "8", "9", "3", "4", "6", "17", "20"], "time": [644, 726, 843, 1746, 1793, 2327, 2794, 3080, 3160, 3710, 6377, 6460, 6627, 7094, 8944, 10476]}, "edge": {"target": [], "time": []}}}, "displayed_time": "17.18", "trialTime": 18222, "trial_type": "mouselab-mdp", "trial_index": 33, "time_elapsed": 1142670, "internal_node_id": "0.0-6.0-1.0-18.0"}}, {"uniqueid": "w84685267:a95780465", "current_trial": 34, "dateTime": 1693835799081, "trialdata": {"revealed_states": [], "clicked_states": ["10", "21", "33"], "num_clicks_accrued": [0, 0, 0, 0, 0, 0, 0, 0, 0, 0, 0, 0, 0], "stateRewards": ["", -2, 3, -5, -7, 66, 43, -60, -4, -70, -75, 4, -1, 2, 2, -13, 54, 11, -40, -1, 77, 32, 15, -2, 3, -8, -9, -35, 83, -27, 6, -74, -34, 44], "withholdReward": false, "trial_id": "mdp_trial_20", "block": "test", "trialIndex": 23, "score": 36.55, "costs": -6.449999999999999, "simulationMode": [null, null, null, null, null], "rewards": [-2, 3, -8, 6, 44], "path": ["0", "0", "23", "24", "25", "30", "33"], "rt": [11077, 175, 367, 13, 2], "actions": ["left", "left", "left", "down", "left"], "actionTimes": [13926, 14624, 15500, 16030, 16553], "queries": {"click": {"state": {"target": ["10", "21", "33"], "time": [4005, 7060, 10307]}, "edge": {"target": [], "time": []}}, "mouseover": {"state": {"target": ["1", "2", "10", "18", "14", "19", "21", "32", "33"], "time": [3381, 3481, 3816, 4598, 4698, 5115, 5349, 7481, 7881]}, "edge": {"target": [], "time": []}}, "mouseout": {"state": {"target": ["19", "22", "12", "0", "1", "2", "10", "18", "14", "19", "21", "32", "33"], "time": [1032, 1132, 1215, 1400, 3448, 3531, 4331, 4631, 5033, 5215, 7331, 7499, 10681]}, "edge": {"target": [], "time": []}}}, "displayed_time": "17.07", "trialTime": 19958, "trial_type": "mouselab-mdp", "trial_index": 34, "time_elapsed": 1162801, "internal_node_id": "0.0-6.0-1.0-19.0"}}, {"uniqueid": "w84685267:a95780465", "current_trial": 35, "dateTime": 1693835816218, "trialdata": {"revealed_states": [], "clicked_states": ["20", "29"], "num_clicks_accrued": [0, 0, 0, 0, 0, 0, 0, 0, 0, 0, 0, 0, 0], "stateRewards": ["", 1, 1, 1, -3, -7, -1, -41, -10, 20, -72, -63, 1, -4, -2, 2, -66, 30, -84, -2, 49, 23, 71, -1, -4, 4, -12, 67, 5, 18, -16, 88, 56, -5], "withholdReward": false, "trial_id": "mdp_trial_21", "block": "test", "trialIndex": 24, "score": 37.7, "costs": -4.3, "simulationMode": [null, null, null, null, null, null], "rewards": [1, -4, -2, -2, 49], "path": ["0", "0", "12", "13", "14", "19", "20"], "rt": [6031, 2201, 281, 350, 25, 67], "actions": ["right", "right", "right", "right", "down", "right"], "actionTimes": [7583, 9786, 10588, 11442, 11984, 12577], "queries": {"click": {"state": {"target": ["20", "29"], "time": [2816, 6524]}, "edge": {"target": [], "time": []}}, "mouseover": {"state": {"target": ["22", "20", "13", "2", "8", "9", "11", "27", "29", "26", "28", "12", "13"], "time": [2090, 2640, 3274, 3474, 3791, 4191, 4324, 5057, 5591, 6908, 6941, 8790, 8840]}, "edge": {"target": [], "time": []}}, "mouseout": {"state": {"target": ["0", "22", "20", "13", "2", "8", "9", "11", "27", "29", "26", "28", "12", "13", "13", "22"], "time": [2024, 2143, 3236, 3307, 3657, 3890, 4241, 4941, 5341, 6890, 6924, 8657, 8807, 8940, 14790, 16258]}, "edge": {"target": [], "time": []}}}, "displayed_time": "15.55", "trialTime": 16955, "trial_type": "mouselab-mdp", "trial_index": 35, "time_elapsed": 1179938, "internal_node_id": "0.0-6.0-1.0-20.0"}}, {"uniqueid": "w84685267:a95780465", "current_trial": 36, "dateTime": 1693835832842, "trialdata": {"revealed_states": [], "clicked_states": ["16"], "num_clicks_accrued": [0, 0, 0, 0, 0, 0, 0, 0, 0, 0, 0, 0, 0], "stateRewards": ["", 2, -1, 5, 8, 75, -35, -77, 1, -9, -81, -58, 1, 2, -7, 5, 77, -16, 19, 16, -10, -18, 40, -2, 3, 7, -5, 64, 1, -62, 10, 27, 10, 65], "withholdReward": false, "trial_id": "mdp_trial_22", "block": "test", "trialIndex": 25, "score": 75.85, "costs": -2.15, "simulationMode": [null, null, null, null, null], "rewards": [1, 2, -7, 5, 77], "path": ["0", "0", "12", "13", "14", "15", "16"], "rt": [5269, 29, 143, 270, 319], "actions": ["right", "right", "right", "up", "up"], "actionTimes": [6658, 7203, 7852, 8645, 9494], "queries": {"click": {"state": {"target": ["16"], "time": [2321]}, "edge": {"target": [], "time": []}}, "mouseover": {"state": {"target": ["12", "18", "16", "18", "1", "23", "30", "33", "32", "33", "33"], "time": [1740, 1843, 2106, 2612, 2840, 3092, 4106, 4523, 5024, 5773, 6256]}, "edge": {"target": [], "time": []}}, "mouseout": {"state": {"target": ["0", "12", "18", "16", "18", "1", "23", "30", "33", "32", "33"], "time": [1707, 1773, 1856, 2575, 2624, 2874, 3108, 4307, 4990, 5040, 5809]}, "edge": {"target": [], "time": []}}}, "displayed_time": "15.39", "trialTime": 16446, "trial_type": "mouselab-mdp", "trial_index": 36, "time_elapsed": 1196562, "internal_node_id": "0.0-6.0-1.0-21.0"}}, {"uniqueid": "w84685267:a95780465", "current_trial": 37, "dateTime": 1693835851407, "trialdata": {"revealed_states": [], "clicked_states": [], "num_clicks_accrued": [0, 0, 0, 0, 0, 0, 0, 0, 0, 0, 0, 0, 0], "stateRewards": ["", -2, -3, -3, 9, 79, 67, 22, -15, -56, 27, -85, -2, 4, -4, -15, -20, -32, 60, 15, 71, 57, 17, 1, 2, -8, 15, -37, -81, 82, 15, 21, -3, 2], "withholdReward": false, "trial_id": "mdp_trial_23", "block": "test", "trialIndex": 26, "score": 31, "costs": 0, "simulationMode": [null, null, null, null, null], "rewards": [1, 2, -8, 15, 21], "path": ["0", "0", "23", "24", "25", "30", "31"], "rt": [524, 129, 660, 21, 119], "actions": ["left", "left", "left", "down", "right"], "actionTimes": [3146, 3783, 4955, 5510, 6140], "queries": {"click": {"state": {"target": [], "time": []}, "edge": {"target": [], "time": []}}, "mouseover": {"state": {"target": [], "time": []}, "edge": {"target": [], "time": []}}, "mouseout": {"state": {"target": ["33", "23", "0"], "time": [1820, 2087, 12569]}, "edge": {"target": [], "time": []}}}, "displayed_time": "16.62", "trialTime": 18394, "trial_type": "mouselab-mdp", "trial_index": 37, "time_elapsed": 1215128, "internal_node_id": "0.0-6.0-1.0-22.0"}}, {"uniqueid": "w84685267:a95780465", "current_trial": 38, "dateTime": 1693835869577, "trialdata": {"revealed_states": [], "clicked_states": [], "num_clicks_accrued": [0, 0, 0, 0, 0, 0, 0, 0, 0, 0, 0, 0, 0], "stateRewards": ["", -2, 1, -5, 2, -68, 80, 33, 10, 67, -59, 20, -1, -3, 3, 14, 74, -2, 24, -16, 63, 80, 46, -1, 4, 6, 12, 83, -38, -43, -4, 43, 14, -79], "withholdReward": false, "trial_id": "mdp_trial_24", "block": "test", "trialIndex": 27, "score": 24, "costs": 0, "simulationMode": [null, null, null, null, null], "rewards": [-2, 1, -5, 10, 20], "path": ["0", "0", "1", "2", "3", "8", "11"], "rt": [1419, 219, 266, 7, 36], "actions": ["up", "up", "up", "left", "left"], "actionTimes": [3097, 3819, 4614, 5142, 5684], "queries": {"click": {"state": {"target": [], "time": []}, "edge": {"target": [], "time": []}}, "mouseover": {"state": {"target": ["10", "8", "11"], "time": [2298, 2364, 2748]}, "edge": {"target": [], "time": []}}, "mouseout": {"state": {"target": ["1", "0", "10", "8"], "time": [1249, 2182, 2348, 2698]}, "edge": {"target": [], "time": []}}}, "displayed_time": "15.68", "trialTime": 17960, "trial_type": "mouselab-mdp", "trial_index": 38, "time_elapsed": 1233298, "internal_node_id": "0.0-6.0-1.0-23.0"}}, {"uniqueid": "w84685267:a95780465", "current_trial": 39, "dateTime": 1693835886394, "trialdata": {"revealed_states": [], "clicked_states": [], "num_clicks_accrued": [0, 0, 0, 0, 0, 0, 0, 0, 0, 0, 0, 0, 0], "stateRewards": ["", 2, 4, -3, 16, -58, 30, -35, 11, -60, 47, 27, -2, -1, -7, -16, 23, -70, 68, -10, -65, -43, -34, -2, 1, 7, 9, -63, 34, -31, -8, -12, -86, 59], "withholdReward": false, "trial_id": "mdp_trial_25", "block": "test", "trialIndex": 28, "score": -16, "costs": 0, "simulationMode": [null, null, null, null, null], "rewards": [-2, 1, 7, 9, -31], "path": ["0", "0", "23", "24", "25", "26", "29"], "rt": [994, 262, 66, 95, 536], "actions": ["left", "left", "left", "up", "left"], "actionTimes": [2836, 3618, 4189, 4818, 5876], "queries": {"click": {"state": {"target": [], "time": []}, "edge": {"target": [], "time": []}}, "mouseover": {"state": {"target": ["0", "23"], "time": [2072, 2256]}, "edge": {"target": [], "time": []}}, "mouseout": {"state": {"target": ["11", "23", "0", "0", "23"], "time": [1005, 1138, 1422, 2241, 2272]}, "edge": {"target": [], "time": []}}}, "displayed_time": "15.85", "trialTime": 16600, "trial_type": "mouselab-mdp", "trial_index": 39, "time_elapsed": 1250114, "internal_node_id": "0.0-6.0-1.0-24.0"}}, {"uniqueid": "w84685267:a95780465", "current_trial": 40, "dateTime": 1693835905538, "trialdata": {"revealed_states": [], "clicked_states": ["17", "5"], "num_clicks_accrued": [0, 0, 0, 0, 0, 0, 0, 0, 0, 0, 0, 0, 0], "stateRewards": ["", -1, -4, -1, -5, -28, -23, -15, -15, -38, 59, -87, 2, 2, -5, 9, -55, -39, -71, -6, 85, -85, -11, -1, -2, 5, -10, 1, 25, 41, -4, 69, -35, 86], "withholdReward": false, "trial_id": "mdp_trial_26", "block": "test", "trialIndex": 29, "score": 33.7, "costs": -4.3, "simulationMode": [null, null, null, null, null], "rewards": [-1, -4, -1, -15, 59], "path": ["0", "0", "1", "2", "3", "8", "10"], "rt": [7486, 234, 385, 7, 471], "actions": ["up", "up", "up", "left", "down"], "actionTimes": [11085, 11835, 12751, 13290, 14287], "queries": {"click": {"state": {"target": ["17", "5"], "time": [4897, 7752]}, "edge": {"target": [], "time": []}}, "mouseover": {"state": {"target": ["12", "17", "15", "5"], "time": [4149, 4648, 5564, 5998]}, "edge": {"target": [], "time": []}}, "mouseout": {"state": {"target": ["24", "23", "0", "0", "12", "17", "15", "5"], "time": [2664, 2797, 2831, 4098, 4165, 5548, 5598, 8014]}, "edge": {"target": [], "time": []}}}, "displayed_time": "17.60", "trialTime": 18922, "trial_type": "mouselab-mdp", "trial_index": 40, "time_elapsed": 1269259, "internal_node_id": "0.0-6.0-1.0-25.0"}}, {"uniqueid": "w84685267:a95780465", "current_trial": 41, "dateTime": 1693835923190, "trialdata": {"revealed_states": [], "clicked_states": [], "num_clicks_accrued": [0, 0, 0, 0, 0, 0, 0, 0, 0, 0, 0, 0, 0], "stateRewards": ["", 1, 2, 8, -2, 23, -69, -18, -16, 54, -21, 71, -1, -4, 7, 11, 43, -6, 88, 6, -55, 72, 43, 1, -3, -2, -1, 68, -31, -54, 4, -8, 25, -2], "withholdReward": false, "trial_id": "mdp_trial_27", "block": "test", "trialIndex": 30, "score": 51, "costs": 0, "simulationMode": [null, null, null, null, null], "rewards": [-1, -4, 7, 6, 43], "path": ["0", "0", "12", "13", "14", "19", "22"], "rt": [1755, 63, 30, 387, 562], "actions": ["right", "right", "right", "down", "left"], "actionTimes": [4184, 4754, 5307, 6228, 7304], "queries": {"click": {"state": {"target": [], "time": []}, "edge": {"target": [], "time": []}}, "mouseover": {"state": {"target": ["12", "13", "19"], "time": [2723, 3156, 3242]}, "edge": {"target": [], "time": []}}, "mouseout": {"state": {"target": ["0", "12", "13", "19"], "time": [2673, 2773, 3173, 3274]}, "edge": {"target": [], "time": []}}}, "displayed_time": "16.43", "trialTime": 17433, "trial_type": "mouselab-mdp", "trial_index": 41, "time_elapsed": 1286910, "internal_node_id": "0.0-6.0-1.0-26.0"}}, {"uniqueid": "w84685267:a95780465", "current_trial": 42, "dateTime": 1693835941126, "trialdata": {"revealed_states": [], "clicked_states": [], "num_clicks_accrued": [0, 0, 0, 0, 0, 0, 0, 0, 0, 0, 0, 0, 0], "stateRewards": ["", 1, -3, -2, 14, 49, -40, -39, 2, 26, -61, 73, 1, -4, -8, 12, 79, 29, -65, -13, 55, -26, 27, -1, 3, 3, 9, -17, -60, -18, -8, 35, -88, 69], "withholdReward": false, "trial_id": "mdp_trial_28", "block": "test", "trialIndex": 31, "score": -4, "costs": 0, "simulationMode": [null, null, null, null, null], "rewards": [-1, 3, 3, 9, -18], "path": ["0", "0", "23", "24", "25", "26", "29"], "rt": [1461, 227, 109, 11, 37], "actions": ["left", "left", "left", "up", "left"], "actionTimes": [3863, 4601, 5217, 5752, 6294], "queries": {"click": {"state": {"target": [], "time": []}, "edge": {"target": [], "time": []}}, "mouseover": {"state": {"target": [], "time": []}, "edge": {"target": [], "time": []}}, "mouseout": {"state": {"target": ["0"], "time": [2621]}, "edge": {"target": [], "time": []}}}, "displayed_time": "16.41", "trialTime": 17687, "trial_type": "mouselab-mdp", "trial_index": 42, "time_elapsed": 1304847, "internal_node_id": "0.0-6.0-1.0-27.0"}}, {"uniqueid": "w84685267:a95780465", "current_trial": 43, "dateTime": 1693835962816, "trialdata": {"revealed_states": [], "clicked_states": [], "num_clicks_accrued": [0, 0, 0, 0, 0, 0, 0, 0, 0, 0, 0, 0, 0], "stateRewards": ["", 2, 3, -3, 4, 72, -28, 34, -12, 57, -64, -15, 2, 1, -4, -15, 2, 49, 31, -1, -42, -58, 31, -2, 1, -2, -13, -75, -19, -22, -6, 61, 10, -56], "withholdReward": false, "trial_id": "mdp_trial_29", "block": "test", "trialIndex": 32, "score": 33, "costs": 0, "simulationMode": [null, null, null, null, null], "rewards": [2, 1, -4, -15, 49], "path": ["0", "0", "12", "13", "14", "15", "17"], "rt": [1680, 357, 1546, 188, 880], "actions": ["right", "right", "right", "up", "right"], "actionTimes": [4132, 5020, 7075, 7783, 9191], "queries": {"click": {"state": {"target": [], "time": []}, "edge": {"target": [], "time": []}}, "mouseover": {"state": {"target": ["12", "13"], "time": [2860, 2911]}, "edge": {"target": [], "time": []}}, "mouseout": {"state": {"target": ["23", "0", "12", "13"], "time": [1943, 2827, 2910, 3076]}, "edge": {"target": [], "time": []}}}, "displayed_time": "16.45", "trialTime": 21449, "trial_type": "mouselab-mdp", "trial_index": 43, "time_elapsed": 1326537, "internal_node_id": "0.0-6.0-1.0-28.0"}}, {"uniqueid": "w84685267:a95780465", "current_trial": 44, "dateTime": 1693835980095, "trialdata": {"revealed_states": [], "clicked_states": [], "num_clicks_accrued": [0, 0, 0, 0, 0, 0, 0, 0, 0, 0, 0, 0, 0], "stateRewards": ["", 1, 1, 1, 15, -76, 52, -32, 14, -57, 37, 49, 1, -4, -3, 6, 83, -76, 25, 9, 36, -1, -17, -1, 4, 4, -2, -22, -21, 58, -15, -57, 49, -24], "withholdReward": false, "trial_id": "mdp_trial_30", "block": "test", "trialIndex": 33, "score": 66, "costs": 0, "simulationMode": [null, null, null, null, null], "rewards": [1, 1, 1, 14, 49], "path": ["0", "0", "1", "2", "3", "8", "11"], "rt": [1009, 137, 527, 100, 25], "actions": ["up", "up", "up", "left", "left"], "actionTimes": [3163, 3826, 4866, 5473, 6030], "queries": {"click": {"state": {"target": [], "time": []}, "edge": {"target": [], "time": []}}, "mouseover": {"state": {"target": ["0", "1"], "time": [2504, 2687]}, "edge": {"target": [], "time": []}}, "mouseout": {"state": {"target": ["15", "18", "0", "0", "1"], "time": [1304, 1320, 2420, 2654, 2754]}, "edge": {"target": [], "time": []}}}, "displayed_time": "16.16", "trialTime": 17039, "trial_type": "mouselab-mdp", "trial_index": 44, "time_elapsed": 1343815, "internal_node_id": "0.0-6.0-1.0-29.0"}}, {"uniqueid": "w84685267:a95780465", "current_trial": 45, "dateTime": 1693835998146, "trialdata": {"revealed_states": [], "clicked_states": [], "num_clicks_accrued": [0, 0, 0, 0, 0, 0, 0, 0, 0, 0, 0, 0, 0], "stateRewards": ["", 1, 1, 7, -11, 80, -20, -53, -14, 3, 31, 27, 2, -1, -8, -10, 33, 41, 86, 9, 78, -37, -13, -1, -2, -6, -8, -80, 75, 4, -16, -49, -74, 24], "withholdReward": false, "trial_id": "mdp_trial_31", "block": "test", "trialIndex": 34, "score": 69, "costs": 0, "simulationMode": [null, null, null, null, null], "rewards": [2, -1, -8, -10, 86], "path": ["0", "0", "12", "13", "14", "15", "18"], "rt": [1209, 166, 247, 406, 285], "actions": ["right", "right", "right", "up", "left"], "actionTimes": [3603, 4286, 5052, 5960, 6774], "queries": {"click": {"state": {"target": [], "time": []}, "edge": {"target": [], "time": []}}, "mouseover": {"state": {"target": ["1", "18", "15", "17"], "time": [2936, 3003, 3119, 3271]}, "edge": {"target": [], "time": []}}, "mouseout": {"state": {"target": ["0", "0", "1", "18", "15", "17"], "time": [1638, 2820, 2953, 3053, 3186, 8786]}, "edge": {"target": [], "time": []}}}, "displayed_time": "16.39", "trialTime": 17809, "trial_type": "mouselab-mdp", "trial_index": 45, "time_elapsed": 1361867, "internal_node_id": "0.0-6.0-1.0-30.0"}}, {"uniqueid": "w84685267:a95780465", "current_trial": 46, "dateTime": 1693836015644, "trialdata": {"revealed_states": [], "clicked_states": [], "num_clicks_accrued": [0, 0, 0, 0, 0, 0, 0, 0, 0, 0, 0, 0, 0], "stateRewards": ["", 2, 3, 8, 14, 69, -27, 17, 2, -71, -65, -10, 2, -3, 7, 8, 65, -10, 65, -12, 73, -12, 13, -2, -2, 6, 10, -79, -69, -18, 10, -85, 67, 74], "withholdReward": false, "trial_id": "mdp_trial_32", "block": "test", "trialIndex": 35, "score": -18, "costs": 0, "simulationMode": [null, null, null, null, null], "rewards": [2, -3, 7, -12, -12], "path": ["0", "0", "12", "13", "14", "19", "21"], "rt": [1418, 3, 1555, 2, 244], "actions": ["right", "right", "right", "down", "down"], "actionTimes": [3742, 4251, 6337, 6850, 7624], "queries": {"click": {"state": {"target": [], "time": []}, "edge": {"target": [], "time": []}}, "mouseover": {"state": {"target": [], "time": []}, "edge": {"target": [], "time": []}}, "mouseout": {"state": {"target": ["14", "13", "12"], "time": [1362, 1613, 1845]}, "edge": {"target": [], "time": []}}}, "displayed_time": "16.32", "trialTime": 17269, "trial_type": "mouselab-mdp", "trial_index": 46, "time_elapsed": 1379365, "internal_node_id": "0.0-6.0-1.0-31.0"}}, {"uniqueid": "w84685267:a95780465", "current_trial": 47, "dateTime": 1693836034405, "trialdata": {"revealed_states": [], "clicked_states": ["11", "33"], "num_clicks_accrued": [0, 0, 0, 0, 0, 0, 0, 0, 0, 0, 0, 0, 0], "stateRewards": ["", -1, 4, 3, 12, -27, 34, -33, 3, -63, 1, 6, 2, 2, -6, -11, -77, -85, 68, -6, 51, 81, -60, -2, -2, 1, 15, 20, 15, 68, -10, -14, 6, -4], "withholdReward": false, "trial_id": "mdp_trial_33", "block": "test", "trialIndex": 36, "score": -13.3, "costs": -4.3, "simulationMode": [null, null, null, null, null], "rewards": [-1, 4, 3, 12, -27], "path": ["0", "0", "1", "2", "3", "4", "5"], "rt": [11440, 177, 24, 282, 417], "actions": ["up", "up", "up", "right", "up"], "actionTimes": [13078, 13778, 14324, 15116, 16051], "queries": {"click": {"state": {"target": ["11", "33"], "time": [4349, 7619]}, "edge": {"target": [], "time": []}}, "mouseover": {"state": {"target": ["7", "4", "5", "11", "10", "14", "33"], "time": [3215, 3265, 3551, 4166, 4632, 4815, 6316]}, "edge": {"target": [], "time": []}}, "mouseout": {"state": {"target": ["0", "7", "4", "5", "11", "10", "14", "33"], "time": [1486, 3249, 3398, 3651, 4615, 4649, 4832, 7832]}, "edge": {"target": [], "time": []}}}, "displayed_time": "16.58", "trialTime": 18533, "trial_type": "mouselab-mdp", "trial_index": 47, "time_elapsed": 1398126, "internal_node_id": "0.0-6.0-1.0-32.0"}}, {"uniqueid": "w84685267:a95780465", "current_trial": 48, "dateTime": 1693836055961, "trialdata": {"revealed_states": [], "clicked_states": [], "num_clicks_accrued": [0, 0, 0, 0, 0, 0, 0, 0, 0, 0, 0, 0, 0], "stateRewards": ["", 2, -3, -8, 14, -7, -51, 73, 2, 36, 36, -43, -1, 3, -4, 1, 6, 87, -65, 15, 61, -42, -83, -1, 3, -2, -7, 30, -48, 35, 13, 26, 60, 78], "withholdReward": false, "trial_id": "mdp_trial_34", "block": "test", "trialIndex": 37, "score": 74, "costs": 0, "simulationMode": [null, null, null, null, null], "rewards": [-1, 3, -4, 15, 61], "path": ["0", "0", "12", "13", "14", "19", "20"], "rt": [767, 123, 641, 208, 70], "actions": ["right", "right", "right", "down", "right"], "actionTimes": [6123, 6776, 7929, 8644, 9225], "queries": {"click": {"state": {"target": [], "time": []}, "edge": {"target": [], "time": []}}, "mouseover": {"state": {"target": [], "time": []}, "edge": {"target": [], "time": []}}, "mouseout": {"state": {"target": [], "time": []}, "edge": {"target": [], "time": []}}}, "displayed_time": "19.36", "trialTime": 21344, "trial_type": "mouselab-mdp", "trial_index": 48, "time_elapsed": 1419682, "internal_node_id": "0.0-6.0-1.0-33.0"}}, {"uniqueid": "w84685267:a95780465", "current_trial": 49, "dateTime": 1693836073830, "trialdata": {"revealed_states": [], "clicked_states": [], "num_clicks_accrued": [0, 0, 0, 0, 0, 0, 0, 0, 0, 0, 0, 0, 0], "stateRewards": ["", 1, -4, -6, -1, -21, 17, -72, 10, 77, 67, -46, -1, 4, -2, 14, -66, -49, -45, -15, -52, 23, -67, 2, -2, -2, 15, -3, 45, -64, 5, -44, 83, 61], "withholdReward": false, "trial_id": "mdp_trial_35", "block": "test", "trialIndex": 38, "score": -30, "costs": 0, "simulationMode": [null, null, null, null, null], "rewards": [-1, 4, -2, 14, -45], "path": ["0", "0", "12", "13", "14", "15", "18"], "rt": [614, 110, 176, 186, 507], "actions": ["right", "right", "right", "up", "left"], "actionTimes": [2634, 3260, 3940, 4634, 5656], "queries": {"click": {"state": {"target": [], "time": []}, "edge": {"target": [], "time": []}}, "mouseover": {"state": {"target": [], "time": []}, "edge": {"target": [], "time": []}}, "mouseout": {"state": {"target": [], "time": []}, "edge": {"target": [], "time": []}}}, "displayed_time": "16.02", "trialTime": 17609, "trial_type": "mouselab-mdp", "trial_index": 49, "time_elapsed": 1437551, "internal_node_id": "0.0-6.0-1.0-34.0"}}, {"uniqueid": "w84685267:a95780465", "current_trial": 50, "dateTime": 1693836092784, "trialdata": {"revealed_states": [], "clicked_states": [], "num_clicks_accrued": [0, 0, 0, 0, 0, 0, 0, 0, 0, 0, 0, 0, 0], "stateRewards": ["", -2, 4, -5, -12, 85, -24, -18, -15, -78, -22, 26, -1, -1, 2, 14, -45, 52, -23, 7, -33, 24, -6, -2, -4, 5, -7, -16, 36, -39, 5, 71, -87, -23], "withholdReward": false, "trial_id": "mdp_trial_36", "block": "test", "trialIndex": 39, "score": 28, "costs": 0, "simulationMode": [null, null, null, null, null], "rewards": [-2, -4, 5, -7, 36], "path": ["0", "0", "23", "24", "25", "26", "28"], "rt": [527, 164, 117, 68, 3], "actions": ["left", "left", "left", "up", "right"], "actionTimes": [2237, 2906, 3527, 4110, 4644], "queries": {"click": {"state": {"target": [], "time": []}, "edge": {"target": [], "time": []}}, "mouseover": {"state": {"target": [], "time": []}, "edge": {"target": [], "time": []}}, "mouseout": {"state": {"target": ["0"], "time": [18641]}, "edge": {"target": [], "time": []}}}, "displayed_time": "15.71", "trialTime": 18673, "trial_type": "mouselab-mdp", "trial_index": 50, "time_elapsed": 1456504, "internal_node_id": "0.0-6.0-1.0-35.0"}}, {"uniqueid": "w84685267:a95780465", "current_trial": 51, "dateTime": 1693836109604, "trialdata": {"revealed_states": [], "clicked_states": ["6", "33"], "num_clicks_accrued": [0, 0, 0, 0, 0, 0, 0, 0, 0, 0, 0, 0, 0], "stateRewards": ["", -1, -4, -6, -15, 21, -67, -63, 9, 51, 69, -14, -1, 3, 8, -8, 39, 72, 63, 15, 19, 47, 15, 1, 4, 5, 16, -18, 34, 35, -14, -80, 40, 1], "withholdReward": false, "trial_id": "mdp_trial_37", "block": "test", "trialIndex": 40, "score": 36.7, "costs": -4.3, "simulationMode": [null, null, null, null, null], "rewards": [-1, 3, 8, -8, 39], "path": ["0", "0", "12", "13", "14", "15", "16"], "rt": [9463, 132, 3, 82, 109], "actions": ["right", "right", "right", "up", "up"], "actionTimes": [10328, 10979, 11517, 12116, 12757], "queries": {"click": {"state": {"target": ["6", "33"], "time": [3519, 6660]}, "edge": {"target": [], "time": []}}, "mouseover": {"state": {"target": ["12", "15", "6", "7", "1", "23", "31", "32", "33", "30", "33", "32"], "time": [1297, 3098, 3280, 3796, 3815, 3846, 3864, 3897, 4913, 6130, 6330, 6930]}, "edge": {"target": [], "time": []}}, "mouseout": {"state": {"target": ["0", "12", "15", "6", "7", "1", "23", "31", "32", "33", "30", "33", "32"], "time": [1296, 1313, 3114, 3763, 3814, 3830, 3863, 3880, 3913, 5380, 6163, 6913, 6947]}, "edge": {"target": [], "time": []}}}, "displayed_time": "14.87", "trialTime": 16567, "trial_type": "mouselab-mdp", "trial_index": 51, "time_elapsed": 1473324, "internal_node_id": "0.0-6.0-1.0-36.0"}}, {"uniqueid": "w84685267:a95780465", "current_trial": 52, "dateTime": 1693836129973, "trialdata": {"revealed_states": [], "clicked_states": ["21"], "num_clicks_accrued": [0, 0, 0, 0, 0, 0, 0, 0, 0, 0, 0, 0, 0], "stateRewards": ["", 2, -1, 8, -2, -16, 69, -39, -7, -13, -27, -86, 2, -2, 2, 13, -34, -16, -20, -5, 19, 81, 32, -2, -1, 2, -14, 20, 80, 58, 4, 70, 12, 73], "withholdReward": false, "trial_id": "mdp_trial_38", "block": "test", "trialIndex": 41, "score": 75.85, "costs": -2.15, "simulationMode": [null, null, null, null, null], "rewards": [2, -2, 2, -5, 81], "path": ["0", "0", "12", "13", "14", "19", "21"], "rt": [4731, 13, 262, 3, 190], "actions": ["right", "right", "right", "down", "down"], "actionTimes": [7316, 7842, 8638, 9162, 9867], "queries": {"click": {"state": {"target": ["21"], "time": [4095]}, "edge": {"target": [], "time": []}}, "mouseover": {"state": {"target": ["0", "21", "0"], "time": [3073, 3873, 5007]}, "edge": {"target": [], "time": []}}, "mouseout": {"state": {"target": ["0", "0", "21", "0"], "time": [2057, 3156, 4473, 10256]}, "edge": {"target": [], "time": []}}}, "displayed_time": "16.59", "trialTime": 20131, "trial_type": "mouselab-mdp", "trial_index": 52, "time_elapsed": 1493694, "internal_node_id": "0.0-6.0-1.0-37.0"}}, {"uniqueid": "w84685267:a95780465", "current_trial": 53, "dateTime": 1693836146405, "trialdata": {"revealed_states": [], "clicked_states": [], "num_clicks_accrued": [0, 0, 0, 0, 0, 0, 0, 0, 0, 0, 0, 0, 0], "stateRewards": ["", -2, -1, -4, -15, -14, -67, 32, -3, -59, 63, 31, 2, -1, -7, -15, 71, -66, -27, -3, -54, -39, 72, 2, 1, 1, -13, 77, -40, 35, -9, 35, 75, 57], "withholdReward": false, "trial_id": "mdp_trial_39", "block": "test", "trialIndex": 42, "score": -87, "costs": 0, "simulationMode": [null, null, null, null, null], "rewards": [2, -1, -7, -15, -66], "path": ["0", "0", "12", "13", "14", "15", "17"], "rt": [664, 86, 132, 135, 368], "actions": ["right", "right", "right", "up", "right"], "actionTimes": [1825, 2433, 3093, 3763, 4646], "queries": {"click": {"state": {"target": [], "time": []}, "edge": {"target": [], "time": []}}, "mouseover": {"state": {"target": [], "time": []}, "edge": {"target": [], "time": []}}, "mouseout": {"state": {"target": ["0"], "time": [6795]}, "edge": {"target": [], "time": []}}}, "displayed_time": "15.16", "trialTime": 16182, "trial_type": "mouselab-mdp", "trial_index": 53, "time_elapsed": 1510124, "internal_node_id": "0.0-6.0-1.0-38.0"}}, {"uniqueid": "w84685267:a95780465", "current_trial": 54, "dateTime": 1693836164969, "trialdata": {"revealed_states": [], "clicked_states": [], "num_clicks_accrued": [0, 0, 0, 0, 0, 0, 0, 0, 0, 0, 0, 0, 0], "stateRewards": ["", 2, 3, -3, 12, -43, 81, -82, -15, 58, -7, -75, -1, -1, 3, -5, 50, -25, -8, 4, 66, 65, -66, 2, -4, 2, -1, -10, 10, 37, 11, 88, -37, 8], "withholdReward": false, "trial_id": "mdp_trial_40", "block": "test", "trialIndex": 43, "score": 19, "costs": 0, "simulationMode": [null, null, null, null, null], "rewards": [2, -4, 2, 11, 8], "path": ["0", "0", "23", "24", "25", "30", "33"], "rt": [2058, 214, 22, 399, 511], "actions": ["left", "left", "left", "down", "left"], "actionTimes": [4793, 5509, 6068, 6978, 8006], "queries": {"click": {"state": {"target": [], "time": []}, "edge": {"target": [], "time": []}}, "mouseover": {"state": {"target": ["0", "23", "24", "25", "29"], "time": [3142, 3625, 3709, 3792, 3975]}, "edge": {"target": [], "time": []}}, "mouseout": {"state": {"target": ["0", "23", "24", "25"], "time": [3225, 3675, 3775, 3842]}, "edge": {"target": [], "time": []}}}, "displayed_time": "16.74", "trialTime": 18298, "trial_type": "mouselab-mdp", "trial_index": 54, "time_elapsed": 1528690, "internal_node_id": "0.0-6.0-1.0-39.0"}}, {"uniqueid": "w84685267:a95780465", "current_trial": 55, "dateTime": 1693836254922, "trialdata": {"rt": 89950, "response": {"Q0": "$-88 to $88", "Q1": "$-16 to $16", "Q2": "$-88 to $88", "Q3": "The cost for clicking on nodes varied between nodes.", "Q4": "Slightly motivated"}, "question_order": [0, 1, 2, 3, 4], "trial_id": "final_quiz_control", "trial_type": "survey-multi-choice", "trial_index": 55, "time_elapsed": 1618643, "internal_node_id": "0.0-6.0-2.0"}}, {"uniqueid": "w84685267:a95780465", "current_trial": 56, "dateTime": 1693836451562, "trialdata": {"rt": 196632, "response": {"Q0": "At first, I randomly selected nodes and made my move until I realized that I could possibly earn more if I revealed some nodes and that worked but not all the time ", "Q1": "I actually avoided all the  nodes that reflected negatives and focused on moving the opposite direction ", "Q2": "the the random changes and charges for each reveal made it difficult as I thought that I am loosing rewards instead of gaining some"}, "trial_id": "self_report_control", "trial_type": "survey-text", "trial_index": 56, "time_elapsed": 1815282, "internal_node_id": "0.0-6.0-3.0"}}, {"uniqueid": "w84685267:a95780465", "current_trial": 57, "dateTime": 1693836503945, "trialdata": {"rt": 52376, "response": {"Q0": "Strongly disagree", "Q1": "Disagree", "Q2": "Strongly agree", "Q3": "Strongly agree", "Q4": "Disagree", "Q5": "Strongly agree", "Q6": "Disagree"}, "question_order": [0, 1, 2, 3, 4, 5, 6], "trial_id": "self_report_2", "trial_type": "survey-multi-choice", "trial_index": 57, "time_elapsed": 1867666, "internal_node_id": "0.0-6.0-4.0"}}, {"uniqueid": "w84685267:a95780465", "current_trial": 58, "dateTime": 1693836543965, "trialdata": {"rt": 40017, "response": {"gender": "male", "age": "36", "colorblind": "0", "effort": "0"}, "trial_type": "survey-html-form", "trial_index": 58, "time_elapsed": 1907686, "internal_node_id": "0.0-6.0-5.0"}}, {"uniqueid": "w84685267:a95780465", "current_trial": 59, "dateTime": 1693836603713, "trialdata": {"rt": 59741, "response": {"Q0": "not at all", "Q1": "I do not remember", "Q2": ""}, "trial_type": "survey-text", "trial_index": 59, "time_elapsed": 1967434, "internal_node_id": "0.0-6.0-6.0"}}, {"uniqueid": "w84685267:a95780465", "current_trial": 60, "dateTime": 1693836647844, "trialdata": {"rt": 44128, "stimulus": "<h1>Completion Code Instructions (1/2)</h1>\n<br><br><br><br>\nYou have reached the end of the experiment! The completion code consists of two parts: (1) a code with 2 characters (2) a code with 6 characters. On this page, you will receive the second part of the code. The first part of the completion code will be on the next page.\n<br><br>\nThe second part of your completion code is: <b>EWEK22</b>\n<br><br>\nPlease note this down. Then, press 'Next' in order to find the first part of your completion code. Once the data has been saved, you will receive this code either in this window or in the original browser window where you started the experiment.\n <br><br>\n<h2 style='color: red;'>Note: this is <strong>NOT</strong> the full completion code. Copy this down and click 'Next' to get the full completion code on the next page.</h2>", "response": 0, "trial_type": "html-button-response", "trial_index": 60, "time_elapsed": 2011565, "internal_node_id": "0.0-6.0-7.0"}}, {"uniqueid": "w84685267:a95780465", "current_trial": 61, "dateTime": 1693836648847, "trialdata": {"success": true, "trial_type": "fullscreen", "trial_index": 61, "time_elapsed": 2012568, "internal_node_id": "0.0-7.0"}}], "questiondata": {"params": {"CODE": "C6DMOQA6", "MIN_TIME": 14, "inspectCost": 1, "startTime": "Mon Sep 04 2023 15:37:13 GMT+0200 (South Africa Standard Time)", "bonusRate": 0.002, "variance": "1_2_4_8_44", "branching": "31123"}, "final_score": 591.55}, "eventdata": [{"eventtype": "initialized", "value": null, "timestamp": 1693834632680, "interval": 0}, {"eventtype": "window_resize", "value": [1536, 764], "timestamp": 1693834632680, "interval": 0}, {"eventtype": "window_resize", "value": [1536, 764], "timestamp": 1693834633207, "interval": 527}, {"eventtype": "window_resize", "value": [1536, 864], "timestamp": 1693834644723, "interval": 11516}, {"eventtype": "focus", "value": "off", "timestamp": 1693835091739, "interval": 447016}, {"eventtype": "focus", "value": "on", "timestamp": 1693835091739, "interval": 0}, {"eventtype": "window_resize", "value": [1536, 764], "timestamp": 1693835091945, "interval": 206}, {"eventtype": "window_resize", "value": [1536, 864], "timestamp": 1693835094945, "interval": 3000}, {"eventtype": "focus", "value": "off", "timestamp": 1693836189858, "interval": 1094913}, {"eventtype": "focus", "value": "on", "timestamp": 1693836193394, "interval": 3536}, {"eventtype": "window_resize", "value": [1536, 764], "timestamp": 1693836648080, "interval": 454686}], "useragent": "Mozilla/5.0 (Windows NT 10.0; Win64; x64) AppleWebKit/537.36 (KHTML, like Gecko) Chrome/116.0.0.0 Safari/537.36", "mode": "live", "id": "w84685267:a95780465", "status": "user data saved", "Beginhit": "2023-09-04 13:37:11.800167", "Beginexp": "2023-09-04 13:37:28.494591", "Endhit": "2023-09-04 14:10:53.553173", "psiturkStatus": 3, "browser": "<redacted>", "platform": "windows", "language": "en-US"}