{"condition": 0, "counterbalance": 0, "assignmentId": "a33936216", "workerId": "w62562993", "hitId": "h44073314", "currenttrial": 55, "bonus": 0, "data": [{"uniqueid": "w62562993:a33936216", "current_trial": 0, "dateTime": 1693564702170, "trialdata": {"success": true, "trial_type": "fullscreen", "trial_index": 0, "time_elapsed": 2474, "internal_node_id": "0.0-0.0"}}, {"uniqueid": "w62562993:a33936216", "current_trial": 1, "dateTime": 1693564717095, "trialdata": {"view_history": [{"page_index": 0, "viewing_time": 14919}], "rt": 14919, "trial_id": "exp_instructions_control", "trial_type": "instructions", "trial_index": 1, "time_elapsed": 17400, "internal_node_id": "0.0-1.0"}}, {"uniqueid": "w62562993:a33936216", "current_trial": 2, "dateTime": 1693564931170, "trialdata": {"view_history": [{"page_index": 0, "viewing_time": 79990}, {"page_index": 1, "viewing_time": 90336}, {"page_index": 2, "viewing_time": 16304}, {"page_index": 3, "viewing_time": 27472}], "rt": 214104, "trial_id": "mouselab_instructions_1_control", "trial_type": "instructions", "trial_index": 2, "time_elapsed": 231474, "internal_node_id": "0.0-2.0-1.0"}}, {"uniqueid": "w62562993:a33936216", "current_trial": 3, "dateTime": 1693564962707, "trialdata": {"revealed_states": [], "clicked_states": [], "num_clicks_accrued": [0, 0, 0, 0, 0, 0, 0, 0, 0, 0, 0, 0, 0], "stateRewards": ["", 10, -10, -10, -10, 10, -10, -10, 10, -10, -10, 10, -10, -10, 10, 10, 10, 10, 10, -10, 10, 10, -10, -10, -10, -10, -10, -10, -10, 10, -10, 10, -10, -10], "withholdReward": false, "trial_id": "practice_1", "block": "test", "trialIndex": 0, "score": -6.5, "costs": 0, "simulationMode": [null, null, null, null, null], "rewards": [-10, -10, 10, -10, 10], "path": ["0", "0", "12", "13", "14", "19", "20"], "rt": [9229, 3011, 632, 153, 7007], "actions": ["right", "right", "right", "down", "right"], "actionTimes": [14220, 17724, 18860, 19516, 27036], "queries": {"click": {"state": {"target": [], "time": []}, "edge": {"target": [], "time": []}}, "mouseover": {"state": {"target": ["19", "22", "12"], "time": [7944, 12181, 12513]}, "edge": {"target": [], "time": []}}, "mouseout": {"state": {"target": ["12", "0", "19", "22", "12", "21", "21", "21", "20", "17"], "time": [3134, 7893, 8243, 12210, 21131, 21582, 22626, 25314, 30048, 30597]}, "edge": {"target": [], "time": []}}}, "displayed_time": "27.53", "trialTime": 31131, "trial_type": "mouselab-mdp", "trial_index": 3, "time_elapsed": 263011, "internal_node_id": "0.0-2.0-2.0-0.0"}}, {"uniqueid": "w62562993:a33936216", "current_trial": 4, "dateTime": 1693564993092, "trialdata": {"revealed_states": [], "clicked_states": ["13", "14", "19", "21", "24", "25", "30", "26", "33", "31"], "num_clicks_accrued": [0, 0, 0, 0, 0, 0, 0, 0, 0, 0, 0, 0, 0], "stateRewards": ["", 10, -10, -10, -10, 10, 10, -10, 10, -10, -10, -10, 10, -10, -10, 10, -10, 10, -10, -10, -10, -10, 10, -10, 10, 10, -10, -10, 10, 10, -10, 10, 10, -10], "withholdReward": false, "trial_id": "practice_2", "block": "test", "trialIndex": 1, "score": 8.5, "costs": -5, "simulationMode": [null, null, null, null, null], "rewards": [-10, 10, 10, -10, 10], "path": ["0", "0", "23", "24", "25", "30", "31"], "rt": [20365, 299, 281, 155, 177], "actions": ["left", "left", "left", "down", "right"], "actionTimes": [22370, 23185, 23984, 24641, 25313], "queries": {"click": {"state": {"target": ["13", "14", "19", "21", "24", "25", "30", "26", "33", "31"], "time": [4000, 5097, 6658, 7878, 10389, 11707, 13268, 14845, 18284, 19660]}, "edge": {"target": [], "time": []}}, "mouseover": {"state": {"target": ["22", "13", "14", "19", "19", "21", "23", "24", "25", "30", "26", "24", "25", "31", "33", "30", "31", "32"], "time": [2701, 3056, 4434, 5501, 6255, 7168, 9985, 10135, 10718, 12856, 14389, 15152, 15972, 16754, 17788, 18652, 18935, 20252]}, "edge": {"target": [], "time": []}}, "mouseout": {"state": {"target": ["13", "22", "0", "22", "13", "14", "19", "19", "21", "21", "21", "23", "24", "25", "30", "30", "25", "26", "24", "25", "25", "31", "30", "33", "30", "31", "32"], "time": [620, 754, 2558, 2734, 4368, 5434, 6085, 7051, 8451, 9273, 9439, 10104, 10701, 12335, 13751, 14118, 14268, 15101, 15202, 15568, 16205, 17006, 17354, 18619, 18818, 20085, 21321]}, "edge": {"target": [], "time": []}}}, "displayed_time": "25.82", "trialTime": 30273, "trial_type": "mouselab-mdp", "trial_index": 4, "time_elapsed": 293396, "internal_node_id": "0.0-2.0-2.0-1.0"}}, {"uniqueid": "w62562993:a33936216", "current_trial": 5, "dateTime": 1693565037662, "trialdata": {"view_history": [{"page_index": 0, "viewing_time": 37114}, {"page_index": 1, "viewing_time": 7472}], "rt": 44586, "trial_id": "mouselab_instructions_2_control", "trial_type": "instructions", "trial_index": 5, "time_elapsed": 337967, "internal_node_id": "0.0-2.0-3.0"}}, {"uniqueid": "w62562993:a33936216", "current_trial": 6, "dateTime": 1693565087157, "trialdata": {"rt": 49510, "response": {"Q0": "The cost for clicking on nodes may vary between nodes.", "Q1": "The better I perform the higher my bonus will be.", "Q2": "No, the amount of cash at each node of the web may be different each time.", "Q3": "To get the highest total score.", "Q4": "Only before moving the spider.", "Q5": "3 seconds"}, "question_order": [0, 1, 2, 3, 4, 5], "correct": {"Q0": "The cost for clicking on nodes may vary between nodes.", "Q1": "The better I perform the higher my bonus will be.", "Q2": "No, the amount of cash at each node of the web may be different each time.", "Q3": "To get the highest total score.", "Q4": "Only before moving the spider.", "Q5": "3 seconds"}, "trial_id": "mouselab_quiz_control", "trial_type": "survey-multi-choice", "trial_index": 6, "time_elapsed": 387462, "internal_node_id": "0.0-2.0-4.0"}}, {"uniqueid": "w62562993:a33936216", "current_trial": 7, "dateTime": 1693565093964, "trialdata": {"rt": 6803, "response": {"Q0": "No"}, "question_order": [0], "trial_id": "repeat_check", "trial_type": "survey-multi-choice", "trial_index": 7, "time_elapsed": 394269, "internal_node_id": "0.0-4.0-0.0"}}, {"uniqueid": "w62562993:a33936216", "current_trial": 8, "dateTime": 1693565100893, "trialdata": {"rt": 6925, "stimulus": "\n<h1> Get ready to start the game! </h1>\n\nThank you for reading the instructions. Get ready start with the 40 rounds of this game.\n<br><br>\nIf you need to take a break, feel free to take one after the end of a round, before continuing to the next one.\n<br><br>\nRemember, the more money the spider gets, the bigger your bonus will be!\n<br><br>\n<div style='text-align: center;'>Press <code>space</code> to begin.</div>\n\n<br><br>\n(If, at any point, the <code>space</code> key does not take you to the next page, click once on the text and try again.)", "response": " ", "trial_id": "mdp_ready", "trial_type": "html-keyboard-response", "trial_index": 8, "time_elapsed": 401198, "internal_node_id": "0.0-6.0-0.0"}}, {"uniqueid": "w62562993:a33936216", "current_trial": 9, "dateTime": 1693565126225, "trialdata": {"revealed_states": [], "clicked_states": ["24", "23", "25", "26", "29", "30"], "num_clicks_accrued": [0, 0, 0, 0, 0, 0, 0, 0, 0, 0, 0, 0, 0], "stateRewards": ["", 1, 1, -5, 10, -31, 73, 14, -8, -23, 63, -70, -1, 2, 8, 7, 25, -59, 27, -10, -40, -71, -15, -2, 3, -8, -5, -19, 77, -34, 7, 67, 63, 19], "withholdReward": false, "trial_id": "mdp_trial_1", "block": "test", "trialIndex": 2, "score": 58.6, "costs": -8.4, "simulationMode": [null, null, null, null, null, null], "rewards": [-2, 3, -8, 7, 67], "path": ["0", "0", "23", "24", "25", "30", "31"], "rt": [12702, 2670, 361, 262, 342, 391], "actions": ["left", "left", "left", "left", "down", "right"], "actionTimes": [15133, 17806, 18670, 19438, 20285, 21166], "queries": {"click": {"state": {"target": ["24", "23", "25", "26", "29", "30"], "time": [3623, 5195, 7608, 9383, 10994, 13636]}, "edge": {"target": [], "time": []}}, "mouseover": {"state": {"target": ["0", "23", "24", "23", "23", "23", "25", "30", "26", "29", "30", "31"], "time": [2812, 2858, 3357, 3841, 4057, 4774, 5758, 8224, 8474, 9957, 11623, 14024]}, "edge": {"target": [], "time": []}}, "mouseout": {"state": {"target": ["10", "0", "23", "24", "23", "23", "24", "23", "24", "25", "30", "25", "26", "29", "25", "30", "31"], "time": [1243, 2823, 3327, 3807, 3890, 4423, 4724, 5557, 5640, 8157, 8407, 8457, 9923, 11507, 11590, 13974, 14124]}, "edge": {"target": [], "time": []}}}, "displayed_time": "21.66", "trialTime": 25214, "trial_type": "mouselab-mdp", "trial_index": 9, "time_elapsed": 426529, "internal_node_id": "0.0-6.0-1.0-0.0"}}, {"uniqueid": "w62562993:a33936216", "current_trial": 10, "dateTime": 1693565152123, "trialdata": {"revealed_states": [], "clicked_states": ["1", "3", "8", "4", "5", "9"], "num_clicks_accrued": [0, 0, 0, 0, 0, 0, 0, 0, 0, 0, 0, 0, 0], "stateRewards": ["", -2, 3, -5, -7, 66, 43, -60, -4, -70, -75, 4, -1, 2, 2, -13, 54, 11, -40, -1, 77, 32, 15, -2, 3, -8, -9, -35, 83, -27, 6, -74, -34, 44], "withholdReward": false, "trial_id": "mdp_trial_2", "block": "test", "trialIndex": 3, "score": 46.6, "costs": -8.4, "simulationMode": [null, null, null, null, null, null], "rewards": [-2, 3, -5, -7, 66], "path": ["0", "0", "1", "2", "3", "4", "5"], "rt": [16017, 2718, 330, 247, 218, 220], "actions": ["up", "up", "up", "up", "right", "up"], "actionTimes": [17724, 20438, 21270, 22039, 22759, 23494], "queries": {"click": {"state": {"target": ["1", "3", "8", "4", "5", "9"], "time": [3386, 5741, 8775, 10353, 12421, 16261]}, "edge": {"target": [], "time": []}}, "mouseover": {"state": {"target": ["17", "1", "2", "3", "8", "4", "8", "4", "5", "9", "6", "1"], "time": [2160, 3011, 3610, 4044, 6160, 7864, 8311, 9277, 10793, 12960, 16844, 19059]}, "edge": {"target": [], "time": []}}, "mouseout": {"state": {"target": ["0", "17", "1", "2", "3", "8", "3", "4", "3", "8", "3", "4", "5", "9", "6", "1"], "time": [2028, 2380, 3527, 3677, 6127, 7227, 7698, 8181, 8262, 9093, 9210, 10744, 12710, 16677, 18926, 19160]}, "edge": {"target": [], "time": []}}}, "displayed_time": "24.01", "trialTime": 25782, "trial_type": "mouselab-mdp", "trial_index": 10, "time_elapsed": 452427, "internal_node_id": "0.0-6.0-1.0-1.0"}}, {"uniqueid": "w62562993:a33936216", "current_trial": 11, "dateTime": 1693565199996, "trialdata": {"revealed_states": [], "clicked_states": ["31", "32", "33", "29", "27", "28", "9", "11", "10", "6", "5", "7", "16", "17", "18", "20", "21", "22"], "num_clicks_accrued": [0, 0, 0, 0, 0, 0, 0, 0, 0, 0, 0, 0, 0], "stateRewards": ["", 2, 3, -6, -5, -3, 55, 40, 11, 61, 11, 51, 2, -4, -6, 9, -25, 29, -15, -6, 7, -77, -2, -2, -4, 1, 14, -43, -1, 56, -12, -54, 41, -74], "withholdReward": false, "trial_id": "mdp_trial_3", "block": "test", "trialIndex": 4, "score": 35.80000000000001, "costs": -25.199999999999992, "simulationMode": [null, null, null, null, null], "rewards": [2, 3, -6, 11, 51], "path": ["0", "0", "1", "2", "3", "8", "11"], "rt": [38526, 91, 292, 469, 125], "actions": ["up", "up", "up", "left", "left"], "actionTimes": [40911, 41500, 42300, 43261, 43900], "queries": {"click": {"state": {"target": ["31", "32", "33", "29", "27", "28", "9", "11", "10", "6", "5", "7", "16", "17", "18", "20", "21", "22"], "time": [3254, 5222, 7302, 9167, 11263, 13107, 15063, 18287, 20303, 22310, 24422, 26808, 28766, 30403, 32399, 34488, 36537, 38647]}, "edge": {"target": [], "time": []}}, "mouseover": {"state": {"target": ["31", "32", "33", "33", "29", "27", "28", "28", "2", "3", "9", "11", "10", "11", "10", "2", "7", "6", "5", "5", "7", "16", "17", "15", "18", "20", "21", "22", "19"], "time": [2910, 3674, 5624, 5857, 7907, 9774, 11590, 11757, 13690, 13774, 14158, 15390, 17195, 17729, 18891, 21223, 21290, 21809, 22840, 23107, 25058, 27490, 29324, 30774, 30857, 33357, 34877, 36824, 39141]}, "edge": {"target": [], "time": []}}, "mouseout": {"state": {"target": ["0", "12", "22", "21", "31", "0", "0", "31", "32", "33", "33", "29", "27", "28", "28", "2", "3", "9", "11", "10", "11", "10", "2", "7", "6", "5", "5", "7", "16", "17", "15", "18", "20", "21", "22", "19", "16", "15", "19", "22"], "time": [493, 557, 610, 960, 1227, 1776, 2809, 3590, 5574, 5640, 7790, 9573, 11540, 11657, 13440, 13723, 13807, 15357, 16590, 17545, 18674, 21190, 21257, 21340, 22807, 22857, 24774, 27257, 29074, 30707, 30824, 32791, 34807, 36774, 39074, 39174, 45977, 46024, 46278, 46324]}, "edge": {"target": [], "time": []}}}, "displayed_time": "44.39", "trialTime": 47757, "trial_type": "mouselab-mdp", "trial_index": 11, "time_elapsed": 500300, "internal_node_id": "0.0-6.0-1.0-2.0"}}, {"uniqueid": "w62562993:a33936216", "current_trial": 12, "dateTime": 1693565218301, "trialdata": {"revealed_states": [], "clicked_states": ["11"], "num_clicks_accrued": [0, 0, 0, 0, 0, 0, 0, 0, 0, 0, 0, 0, 0], "stateRewards": ["", -2, -3, 1, -7, 39, -67, 16, 5, -20, 73, 66, -1, 4, 5, -3, 23, -68, -87, -8, 3, -3, 17, 1, -4, -2, -13, -32, 34, 61, -5, -11, -18, 12], "withholdReward": false, "trial_id": "mdp_trial_4", "block": "test", "trialIndex": 5, "score": 65.6, "costs": -1.4, "simulationMode": [null, null, null, null, null], "rewards": [-2, -3, 1, 5, 66], "path": ["0", "0", "1", "2", "3", "8", "11"], "rt": [3939, 101, 91, 21, 31], "actions": ["up", "up", "up", "left", "left"], "actionTimes": [6431, 7021, 7611, 8124, 8668], "queries": {"click": {"state": {"target": ["11"], "time": [3556]}, "edge": {"target": [], "time": []}}, "mouseover": {"state": {"target": ["10", "10", "11", "8", "7"], "time": [2805, 3139, 3389, 3902, 5774]}, "edge": {"target": [], "time": []}}, "mouseout": {"state": {"target": ["12", "0", "0", "10", "10", "11", "8"], "time": [2105, 2171, 2719, 2870, 3168, 3885, 3935]}, "edge": {"target": [], "time": []}}}, "displayed_time": "16.50", "trialTime": 18189, "trial_type": "mouselab-mdp", "trial_index": 12, "time_elapsed": 518606, "internal_node_id": "0.0-6.0-1.0-3.0"}}, {"uniqueid": "w62562993:a33936216", "current_trial": 13, "dateTime": 1693565247019, "trialdata": {"revealed_states": [], "clicked_states": ["11", "6", "5", "9", "10", "7", "27", "29", "28"], "num_clicks_accrued": [0, 0, 0, 0, 0, 0, 0, 0, 0, 0, 0, 0, 0], "stateRewards": ["", 2, 3, -2, -8, -8, -41, 74, 15, -23, -80, 1, 1, 3, 3, -15, -63, -78, 67, 13, 75, -41, 86, 2, -2, 6, -3, -8, -49, 50, -6, 83, 74, 80], "withholdReward": false, "trial_id": "mdp_trial_5", "block": "test", "trialIndex": 6, "score": 56.4, "costs": -12.600000000000001, "simulationMode": [null, null, null, null, null], "rewards": [2, 3, -2, -8, 74], "path": ["0", "0", "1", "2", "3", "4", "7"], "rt": [22337, 163, 249, 220, 335], "actions": ["up", "up", "up", "right", "down"], "actionTimes": [23312, 23963, 24715, 25453, 26285], "queries": {"click": {"state": {"target": ["11", "6", "5", "9", "10", "7", "27", "29", "28"], "time": [1816, 4793, 6936, 8832, 10673, 12545, 15916, 17808, 19847]}, "edge": {"target": [], "time": []}}, "mouseover": {"state": {"target": ["8", "11", "8", "9", "6", "5", "3", "9", "8", "10", "10", "2", "7", "1", "28", "26", "26", "27", "26", "29", "26", "28"], "time": [1385, 1598, 2266, 2515, 4503, 5215, 7415, 8282, 9132, 9449, 9716, 10932, 11315, 12899, 13199, 15037, 15569, 15668, 16215, 16849, 17998, 18432]}, "edge": {"target": [], "time": []}}, "mouseout": {"state": {"target": ["7", "0", "0", "0", "8", "11", "8", "9", "6", "5", "3", "9", "8", "10", "10", "2", "7", "1", "28", "26", "26", "27", "26", "29", "26", "28"], "time": [202, 266, 535, 1318, 1415, 1901, 2416, 4401, 4853, 7349, 7482, 9082, 9149, 9532, 10916, 10965, 12848, 12915, 14601, 15336, 15581, 16182, 16316, 17981, 18032, 20198]}, "edge": {"target": [], "time": []}}}, "displayed_time": "26.80", "trialTime": 28589, "trial_type": "mouselab-mdp", "trial_index": 13, "time_elapsed": 547323, "internal_node_id": "0.0-6.0-1.0-4.0"}}, {"uniqueid": "w62562993:a33936216", "current_trial": 14, "dateTime": 1693565276859, "trialdata": {"revealed_states": [], "clicked_states": ["23", "12", "1", "21", "32", "29", "27"], "num_clicks_accrued": [0, 0, 0, 0, 0, 0, 0, 0, 0, 0, 0, 0, 0], "stateRewards": ["", 1, 2, -8, 9, 18, -83, -11, 6, -64, -48, 17, -2, -2, -5, -3, -24, -3, -86, -2, 48, -41, -22, -2, 4, 7, 8, 81, 13, -48, 10, 61, 19, 57], "withholdReward": false, "trial_id": "mdp_trial_6", "block": "test", "trialIndex": 7, "score": 88.2, "costs": -9.8, "simulationMode": [null, null, null, null, null], "rewards": [-2, 4, 7, 8, 81], "path": ["0", "0", "23", "24", "25", "26", "27"], "rt": [19822, 143, 83, 108, 115], "actions": ["left", "left", "left", "up", "up"], "actionTimes": [25156, 25797, 26387, 26996, 27604], "queries": {"click": {"state": {"target": ["23", "12", "1", "21", "32", "29", "27"], "time": [6527, 9107, 11040, 15389, 17863, 20152, 22321]}, "edge": {"target": [], "time": []}}, "mouseover": {"state": {"target": ["23", "0", "12", "1", "1", "22", "19", "21", "22", "13", "7", "3", "12", "22", "21", "32", "30", "29", "26", "27", "28"], "time": [6324, 8703, 8857, 9537, 9803, 13238, 13269, 14208, 14258, 14275, 14408, 14671, 14807, 14821, 15237, 17741, 18869, 19440, 20436, 22039, 22719]}, "edge": {"target": [], "time": []}}, "mouseout": {"state": {"target": ["12", "0", "23", "0", "12", "1", "1", "12", "22", "19", "21", "22", "13", "7", "3", "12", "22", "21", "32", "30", "29", "26", "27", "28"], "time": [589, 5908, 6920, 8737, 9470, 9587, 11287, 11670, 13253, 13286, 14224, 14273, 14286, 14489, 14726, 14820, 14836, 15720, 18153, 18919, 20403, 20503, 22556, 24556]}, "edge": {"target": [], "time": []}}}, "displayed_time": "28.10", "trialTime": 29716, "trial_type": "mouselab-mdp", "trial_index": 14, "time_elapsed": 577163, "internal_node_id": "0.0-6.0-1.0-5.0"}}, {"uniqueid": "w62562993:a33936216", "current_trial": 15, "dateTime": 1693565305309, "trialdata": {"revealed_states": [], "clicked_states": ["23", "29", "27", "28", "9", "10"], "num_clicks_accrued": [0, 0, 0, 0, 0, 0, 0, 0, 0, 0, 0, 0, 0], "stateRewards": ["", 1, -1, 1, 13, 31, -56, 72, 2, 41, 5, 63, -2, -3, -2, 3, -71, -26, 52, 13, -31, 24, -67, 2, -2, 5, 4, 66, 43, 72, 9, 86, -26, 44], "withholdReward": false, "trial_id": "mdp_trial_7", "block": "test", "trialIndex": 8, "score": 72.6, "costs": -8.4, "simulationMode": [null, null, null, null, null], "rewards": [2, -2, 5, 4, 72], "path": ["0", "0", "23", "24", "25", "26", "29"], "rt": [17081, 138, 142, 116, 75], "actions": ["left", "left", "left", "up", "left"], "actionTimes": [20677, 21333, 21970, 22578, 23154], "queries": {"click": {"state": {"target": ["23", "29", "27", "28", "9", "10"], "time": [4943, 7868, 10076, 12235, 15457, 18594]}, "edge": {"target": [], "time": []}}, "mouseover": {"state": {"target": ["23", "23", "24", "25", "26", "29", "26", "13", "14", "13", "27", "28", "28", "0", "23", "24", "9", "4", "7", "2", "10"], "time": [4427, 4648, 6731, 7031, 7394, 7632, 8211, 8294, 8328, 8961, 9749, 10327, 10628, 13527, 14799, 14811, 15347, 18215, 18260, 18294, 18394]}, "edge": {"target": [], "time": []}}, "mouseout": {"state": {"target": ["23", "31", "0", "23", "23", "24", "25", "26", "29", "26", "13", "14", "13", "27", "28", "28", "0", "23", "24", "9", "4", "7", "2", "10", "2", "1"], "time": [1997, 2314, 4411, 4444, 5794, 6965, 7381, 7429, 8194, 8228, 8311, 8944, 8978, 10277, 10361, 12511, 14798, 14810, 14827, 18111, 18231, 18277, 18344, 26748, 26794, 26846]}, "edge": {"target": [], "time": []}}}, "displayed_time": "23.65", "trialTime": 28325, "trial_type": "mouselab-mdp", "trial_index": 15, "time_elapsed": 605613, "internal_node_id": "0.0-6.0-1.0-6.0"}}, {"uniqueid": "w62562993:a33936216", "current_trial": 16, "dateTime": 1693565322620, "trialdata": {"revealed_states": [], "clicked_states": ["23", "29"], "num_clicks_accrued": [0, 0, 0, 0, 0, 0, 0, 0, 0, 0, 0, 0, 0], "stateRewards": ["", -2, -3, -3, 9, 79, 67, 22, -15, -56, 27, -85, -2, 4, -4, -15, -20, -32, 60, 15, 71, 57, 17, 1, 2, -8, 15, -37, -81, 82, 15, 21, -3, 2], "withholdReward": false, "trial_id": "mdp_trial_8", "block": "test", "trialIndex": 9, "score": 89.2, "costs": -2.8, "simulationMode": [null, null, null, null, null], "rewards": [1, 2, -8, 15, 82], "path": ["0", "0", "23", "24", "25", "26", "29"], "rt": [5674, 24, 227, 150, 78], "actions": ["left", "left", "left", "up", "left"], "actionTimes": [6997, 7522, 8259, 8899, 9476], "queries": {"click": {"state": {"target": ["23", "29"], "time": [1828, 4269]}, "edge": {"target": [], "time": []}}, "mouseover": {"state": {"target": ["23", "31", "29", "33"], "time": [1716, 2814, 3851, 5030]}, "edge": {"target": [], "time": []}}, "mouseout": {"state": {"target": ["0", "0", "23", "31", "29", "33", "32"], "time": [917, 1601, 2014, 2830, 4697, 5047, 15649]}, "edge": {"target": [], "time": []}}}, "displayed_time": "15.33", "trialTime": 17188, "trial_type": "mouselab-mdp", "trial_index": 16, "time_elapsed": 622923, "internal_node_id": "0.0-6.0-1.0-7.0"}}, {"uniqueid": "w62562993:a33936216", "current_trial": 17, "dateTime": 1693565347643, "trialdata": {"revealed_states": [], "clicked_states": ["20", "21", "16", "17", "18", "6", "5", "7"], "num_clicks_accrued": [0, 0, 0, 0, 0, 0, 0, 0, 0, 0, 0, 0, 0], "stateRewards": ["", -2, -4, 2, 10, -17, 18, 73, 11, -32, 23, -13, -2, -4, 7, 12, -25, 66, -23, 15, 40, -76, -9, 1, 2, -7, -5, -20, 24, 3, -5, 16, -73, 70], "withholdReward": false, "trial_id": "mdp_trial_9", "block": "test", "trialIndex": 10, "score": 67.8, "costs": -11.200000000000001, "simulationMode": [null, null, null, null, null], "rewards": [-2, -4, 2, 10, 73], "path": ["0", "0", "1", "2", "3", "4", "7"], "rt": [18104, 144, 102, 140, 100], "actions": ["up", "up", "up", "right", "down"], "actionTimes": [19107, 19745, 20353, 21008, 21601], "queries": {"click": {"state": {"target": ["20", "21", "16", "17", "18", "6", "5", "7"], "time": [1704, 3724, 6001, 7975, 10012, 12125, 14003, 15957]}, "edge": {"target": [], "time": []}}, "mouseover": {"state": {"target": ["0", "21", "20", "21", "21", "19", "14", "15", "16", "17", "15", "18", "4", "6", "5", "5", "4", "7", "7", "2", "10", "8", "9"], "time": [1128, 1271, 1534, 1916, 2800, 4267, 4316, 4400, 5820, 6316, 8183, 8633, 11517, 11971, 12450, 12633, 14233, 14283, 14600, 16283, 17383, 17604, 17771]}, "edge": {"target": [], "time": []}}, "mouseout": {"state": {"target": ["0", "0", "21", "20", "21", "21", "19", "14", "15", "16", "16", "17", "15", "18", "4", "6", "5", "5", "4", "7", "7", "2", "10", "8", "9", "3"], "time": [803, 1149, 1404, 1850, 1933, 4250, 4300, 4349, 4600, 6042, 6183, 8133, 8400, 10383, 11566, 12135, 12550, 14199, 14266, 14333, 16249, 16399, 17483, 17701, 18491, 23734]}, "edge": {"target": [], "time": []}}}, "displayed_time": "22.12", "trialTime": 24898, "trial_type": "mouselab-mdp", "trial_index": 17, "time_elapsed": 647947, "internal_node_id": "0.0-6.0-1.0-8.0"}}, {"uniqueid": "w62562993:a33936216", "current_trial": 18, "dateTime": 1693565376396, "trialdata": {"revealed_states": [], "clicked_states": ["29", "28", "9", "10", "11", "6", "5", "7"], "num_clicks_accrued": [0, 0, 0, 0, 0, 0, 0, 0, 0, 0, 0, 0, 0], "stateRewards": ["", 2, 3, 8, 14, 69, -27, 17, 2, -71, -65, -10, 2, -3, 7, 8, 65, -10, 65, -12, 73, -12, 13, -2, -2, 6, 10, -79, -69, -18, 10, -85, 67, 74], "withholdReward": false, "trial_id": "mdp_trial_10", "block": "test", "trialIndex": 11, "score": 84.8, "costs": -11.200000000000001, "simulationMode": [null, null, null, null, null], "rewards": [2, 3, 8, 14, 69], "path": ["0", "0", "1", "2", "3", "4", "5"], "rt": [19032, 888, 208, 147, 170], "actions": ["up", "up", "up", "right", "up"], "actionTimes": [20276, 21682, 22386, 23042, 23714], "queries": {"click": {"state": {"target": ["29", "28", "9", "10", "11", "6", "5", "7"], "time": [2301, 4764, 7099, 8980, 10966, 13113, 14989, 17540]}, "edge": {"target": [], "time": []}}, "mouseover": {"state": {"target": ["23", "28", "26", "29", "27", "28", "8", "9", "9", "8", "11", "11", "10", "11", "8", "6", "6", "5", "5", "4", "7"], "time": [1647, 1747, 1948, 2177, 4246, 4445, 6677, 6694, 6960, 7310, 7543, 7743, 8177, 9360, 11228, 11260, 12865, 13743, 14144, 15193, 15293]}, "edge": {"target": [], "time": []}}, "mouseout": {"state": {"target": ["12", "0", "23", "28", "26", "29", "27", "28", "8", "9", "9", "8", "11", "11", "10", "11", "8", "6", "6", "5", "5", "5", "4", "7"], "time": [997, 1248, 1677, 1793, 2114, 4164, 4348, 5677, 6693, 6761, 7277, 7509, 7560, 7994, 9243, 11227, 11243, 11277, 13677, 13777, 15034, 15177, 15227, 27610]}, "edge": {"target": [], "time": []}}}, "displayed_time": "24.21", "trialTime": 28628, "trial_type": "mouselab-mdp", "trial_index": 18, "time_elapsed": 676700, "internal_node_id": "0.0-6.0-1.0-9.0"}}, {"uniqueid": "w62562993:a33936216", "current_trial": 19, "dateTime": 1693565398744, "trialdata": {"revealed_states": [], "clicked_states": [], "num_clicks_accrued": [0, 0, 0, 0, 0, 0, 0, 0, 0, 0, 0, 0, 0], "stateRewards": ["", 2, 3, 6, -5, -74, -53, 17, -12, 46, 44, 18, -2, 4, 1, -8, 22, -23, -49, 9, -45, 55, 81, 1, -1, -7, -16, -83, -71, -45, 2, 51, 82, 61], "withholdReward": false, "trial_id": "mdp_trial_11", "block": "test", "trialIndex": 12, "score": -68, "costs": 0, "simulationMode": [null, null, null, null, null], "rewards": [1, -1, -7, -16, -45], "path": ["0", "0", "23", "24", "25", "26", "29"], "rt": [13781, 83, 76, 52, 669], "actions": ["left", "left", "left", "up", "left"], "actionTimes": [15252, 15824, 16400, 16960, 18160], "queries": {"click": {"state": {"target": [], "time": []}, "edge": {"target": [], "time": []}}, "mouseover": {"state": {"target": ["23", "24", "25", "30", "32", "12", "23", "31", "32", "22", "0", "23"], "time": [1990, 2057, 2274, 3391, 4374, 9061, 9393, 9645, 9690, 10857, 11660, 11725]}, "edge": {"target": [], "time": []}}, "mouseout": {"state": {"target": ["0", "23", "24", "25", "30", "32", "12", "23", "31", "32", "22", "0", "23"], "time": [1977, 2041, 2161, 3344, 4327, 5379, 9073, 9528, 9657, 10590, 10891, 11690, 21256]}, "edge": {"target": [], "time": []}}}, "displayed_time": "18.66", "trialTime": 22225, "trial_type": "mouselab-mdp", "trial_index": 19, "time_elapsed": 699049, "internal_node_id": "0.0-6.0-1.0-10.0"}}, {"uniqueid": "w62562993:a33936216", "current_trial": 20, "dateTime": 1693565422074, "trialdata": {"revealed_states": [], "clicked_states": ["29", "27", "28", "31", "33", "32", "22"], "num_clicks_accrued": [0, 0, 0, 0, 0, 0, 0, 0, 0, 0, 0, 0, 0], "stateRewards": ["", 2, -3, 5, -14, -63, -9, -24, -11, -54, -43, 68, 2, -2, -4, 7, -64, 30, 47, 12, -74, 11, 86, 1, -3, 3, 10, -71, -42, -52, -1, -29, -16, 69], "withholdReward": false, "trial_id": "mdp_trial_12", "block": "test", "trialIndex": 13, "score": 84.2, "costs": -9.8, "simulationMode": [null, null, null, null, null], "rewards": [2, -2, -4, 12, 86], "path": ["0", "0", "12", "13", "14", "19", "22"], "rt": [16604, 23, 33, 700, 252], "actions": ["right", "right", "right", "down", "left"], "actionTimes": [17981, 18522, 19066, 20283, 21036], "queries": {"click": {"state": {"target": ["29", "27", "28", "31", "33", "32", "22"], "time": [2365, 4437, 6573, 8565, 10466, 12541, 15262]}, "edge": {"target": [], "time": []}}, "mouseover": {"state": {"target": ["0", "31", "24", "25", "29", "27", "28", "28", "24", "31", "30", "33", "32", "14", "22", "21"], "time": [1478, 1636, 1882, 1982, 2252, 4186, 4915, 5798, 6848, 7349, 8948, 9398, 10715, 14669, 14898, 15465]}, "edge": {"target": [], "time": []}}, "mouseout": {"state": {"target": ["31", "0", "0", "31", "24", "25", "29", "29", "27", "28", "28", "24", "31", "30", "33", "32", "14", "22", "21"], "time": [932, 1050, 1518, 1850, 1948, 2084, 2428, 3632, 4632, 5149, 6815, 6881, 8898, 9165, 10648, 12932, 14770, 15432, 17370]}, "edge": {"target": [], "time": []}}}, "displayed_time": "21.55", "trialTime": 23211, "trial_type": "mouselab-mdp", "trial_index": 20, "time_elapsed": 722378, "internal_node_id": "0.0-6.0-1.0-11.0"}}, {"uniqueid": "w62562993:a33936216", "current_trial": 21, "dateTime": 1693565453292, "trialdata": {"revealed_states": [], "clicked_states": ["20", "21", "22", "31", "32", "33", "29", "27", "28"], "num_clicks_accrued": [0, 0, 0, 0, 0, 0, 0, 0, 0, 0, 0, 0, 0], "stateRewards": ["", -1, 1, -6, -1, 80, 23, 2, -11, 73, -81, 59, 1, 3, 5, -1, -26, 28, -3, 16, -59, -13, -50, -2, -2, 2, 15, -50, 86, 17, -4, 37, 35, 44], "withholdReward": false, "trial_id": "mdp_trial_13", "block": "test", "trialIndex": 14, "score": 86.4, "costs": -12.600000000000001, "simulationMode": [null, null, null, null, null], "rewards": [-2, -2, 2, 15, 86], "path": ["0", "0", "23", "24", "25", "26", "28"], "rt": [19626, 102, 1, 25, 596], "actions": ["left", "left", "left", "up", "right"], "actionTimes": [23046, 23670, 24185, 24741, 25846], "queries": {"click": {"state": {"target": ["20", "21", "22", "31", "32", "33", "29", "27", "28"], "time": [4674, 6692, 8706, 10786, 12793, 14769, 16650, 18489, 20329]}, "edge": {"target": [], "time": []}}, "mouseover": {"state": {"target": ["0", "12", "13", "14", "20", "21", "22", "31", "32", "33", "29", "29", "27", "27", "28", "26", "26"], "time": [3482, 3565, 3787, 3932, 4533, 5448, 7066, 9415, 11282, 13232, 15015, 15615, 17065, 17565, 18932, 20598, 20882]}, "edge": {"target": [], "time": []}}, "mouseout": {"state": {"target": ["19", "33", "30", "31", "12", "0", "0", "12", "13", "14", "20", "21", "22", "31", "32", "33", "29", "29", "27", "27", "28", "26", "26", "10", "5", "4", "7", "0", "23", "28", "27", "28"], "time": [835, 1368, 1485, 1601, 2701, 3199, 3498, 3652, 3884, 4381, 4965, 6932, 8948, 10965, 13015, 14982, 15032, 16832, 17301, 18665, 20565, 20665, 27786, 27832, 28053, 28701, 28804, 29003, 29836, 29865, 29989, 30618]}, "edge": {"target": [], "time": []}}}, "displayed_time": "26.33", "trialTime": 31095, "trial_type": "mouselab-mdp", "trial_index": 21, "time_elapsed": 753596, "internal_node_id": "0.0-6.0-1.0-12.0"}}, {"uniqueid": "w62562993:a33936216", "current_trial": 22, "dateTime": 1693565470940, "trialdata": {"revealed_states": [], "clicked_states": ["28"], "num_clicks_accrued": [0, 0, 0, 0, 0, 0, 0, 0, 0, 0, 0, 0, 0], "stateRewards": ["", -2, -3, 7, -13, 60, 9, 37, -6, 37, 20, 1, 2, -2, -8, 6, -80, -31, -10, -7, 70, -65, -44, -1, 1, 7, 6, -11, 73, -85, 16, -21, 47, 34], "withholdReward": false, "trial_id": "mdp_trial_14", "block": "test", "trialIndex": 15, "score": 84.6, "costs": -1.4, "simulationMode": [null, null, null, null, null], "rewards": [-1, 1, 7, 6, 73], "path": ["0", "0", "23", "24", "25", "26", "28"], "rt": [3391, 228, 54, 48, 57], "actions": ["left", "left", "left", "up", "right"], "actionTimes": [5540, 6275, 6818, 7379, 7954], "queries": {"click": {"state": {"target": ["28"], "time": [2772]}, "edge": {"target": [], "time": []}}, "mouseover": {"state": {"target": ["23", "24", "28", "26", "29", "26", "2", "7", "6", "4", "2", "2", "4", "6"], "time": [2331, 2463, 2531, 3313, 3380, 4013, 4113, 4147, 4384, 4465, 4514, 4633, 4852, 4896]}, "edge": {"target": [], "time": []}}, "mouseout": {"state": {"target": ["23", "0", "0", "23", "24", "28", "28", "26", "29", "26", "2", "7", "6", "4", "2", "2", "4", "6", "9", "27", "27", "0"], "time": [266, 1233, 2251, 2399, 2480, 2784, 3180, 3346, 3997, 4030, 4130, 4163, 4430, 4480, 4548, 4680, 4863, 9042, 9097, 9518, 9980, 12784]}, "edge": {"target": [], "time": []}}}, "displayed_time": "16.15", "trialTime": 17524, "trial_type": "mouselab-mdp", "trial_index": 22, "time_elapsed": 771244, "internal_node_id": "0.0-6.0-1.0-13.0"}}, {"uniqueid": "w62562993:a33936216", "current_trial": 23, "dateTime": 1693565513291, "trialdata": {"revealed_states": [], "clicked_states": ["27", "29", "28", "33", "32", "31", "22", "21", "20", "16", "18", "17", "6", "5", "7", "11", "10"], "num_clicks_accrued": [0, 0, 0, 0, 0, 0, 0, 0, 0, 0, 0, 0, 0], "stateRewards": ["", -1, 4, -6, -5, -22, -38, -38, -2, -56, 88, 14, -1, -1, -7, -6, 61, -60, 21, 11, 57, 31, -30, -2, -2, 6, -9, -44, -70, -44, -15, 34, 16, -78], "withholdReward": false, "trial_id": "mdp_trial_15", "block": "test", "trialIndex": 16, "score": 59.2, "costs": -23.799999999999994, "simulationMode": [null, null, null, null, null], "rewards": [-1, 4, -6, -2, 88], "path": ["0", "0", "1", "2", "3", "8", "10"], "rt": [35185, 524, 99, 42, 37], "actions": ["up", "up", "up", "left", "down"], "actionTimes": [36500, 37525, 38117, 38660, 39204], "queries": {"click": {"state": {"target": ["27", "29", "28", "33", "32", "31", "22", "21", "20", "16", "18", "17", "6", "5", "7", "11", "10"], "time": [2293, 4128, 5926, 7722, 9523, 11537, 13630, 15489, 17559, 19527, 21698, 23586, 25472, 27336, 29340, 31779, 33775]}, "edge": {"target": [], "time": []}}, "mouseover": {"state": {"target": ["23", "24", "26", "29", "27", "29", "26", "28", "25", "30", "33", "32", "31", "21", "21", "22", "21", "20", "15", "16", "18", "15", "17", "15", "6", "5", "7", "2", "10", "11", "10", "8", "9", "3"], "time": [1500, 1551, 1637, 1684, 2101, 2517, 4334, 4400, 6284, 6317, 6368, 8252, 9800, 11783, 12534, 12651, 14117, 15750, 17917, 18617, 19851, 21884, 21934, 23917, 24334, 26100, 28117, 30918, 31186, 31535, 32017, 33983, 34050, 35933]}, "edge": {"target": [], "time": []}}, "mouseout": {"state": {"target": ["24", "23", "0", "0", "23", "24", "26", "29", "27", "29", "26", "28", "25", "30", "33", "32", "31", "21", "21", "22", "21", "20", "15", "16", "16", "18", "15", "17", "15", "6", "5", "7", "2", "10", "11", "10", "8", "9", "3", "13"], "time": [287, 637, 701, 1471, 1534, 1568, 1654, 1787, 2433, 4284, 4384, 6217, 6301, 6334, 8000, 9717, 11717, 11800, 12584, 13800, 15617, 17834, 18034, 19590, 19767, 21867, 21917, 23901, 23950, 25717, 27517, 30767, 31117, 31488, 31967, 33950, 34017, 35899, 41166, 41217]}, "edge": {"target": [], "time": []}}}, "displayed_time": "39.73", "trialTime": 42229, "trial_type": "mouselab-mdp", "trial_index": 23, "time_elapsed": 813595, "internal_node_id": "0.0-6.0-1.0-14.0"}}, {"uniqueid": "w62562993:a33936216", "current_trial": 24, "dateTime": 1693565547803, "trialdata": {"revealed_states": [], "clicked_states": ["27", "28", "29", "33", "31", "32", "21", "22", "20", "17", "16", "18"], "num_clicks_accrued": [0, 0, 0, 0, 0, 0, 0, 0, 0, 0, 0, 0, 0], "stateRewards": ["", -1, -2, -1, -10, -57, 73, -72, -16, 75, -14, -46, -2, -3, -7, -1, -61, -60, 76, -4, 50, 4, 14, 2, 2, -7, 12, -65, -32, 15, -8, -76, -25, -61], "withholdReward": false, "trial_id": "mdp_trial_16", "block": "test", "trialIndex": 17, "score": 46.2, "costs": -16.8, "simulationMode": [null, null, null, null, null], "rewards": [-2, -3, -7, -1, 76], "path": ["0", "0", "12", "13", "14", "15", "18"], "rt": [26613, 15, 123, 130, 24], "actions": ["right", "right", "right", "up", "left"], "actionTimes": [28019, 28527, 29185, 29808, 30320], "queries": {"click": {"state": {"target": ["27", "28", "29", "33", "31", "32", "21", "22", "20", "17", "16", "18"], "time": [2210, 4282, 6139, 8315, 10180, 12283, 14670, 16575, 18460, 20875, 22923, 24926]}, "edge": {"target": [], "time": []}}, "mouseover": {"state": {"target": ["25", "26", "27", "28", "29", "33", "32", "31", "32", "22", "21", "22", "19", "20", "17", "16", "18", "4", "7", "7"], "time": [1648, 1915, 2081, 2477, 4811, 6810, 8994, 9897, 10677, 14060, 14484, 14994, 16810, 16860, 20228, 21944, 23527, 25644, 25910, 26733]}, "edge": {"target": [], "time": []}}, "mouseout": {"state": {"target": ["0", "25", "26", "27", "28", "29", "33", "32", "31", "32", "22", "21", "22", "19", "20", "17", "16", "18", "4", "7"], "time": [1213, 1711, 1961, 2427, 4510, 6344, 8527, 9715, 10394, 13044, 14144, 14910, 16794, 16843, 19161, 21477, 23194, 25310, 25844, 25960]}, "edge": {"target": [], "time": []}}}, "displayed_time": "30.83", "trialTime": 34385, "trial_type": "mouselab-mdp", "trial_index": 24, "time_elapsed": 848107, "internal_node_id": "0.0-6.0-1.0-15.0"}}, {"uniqueid": "w62562993:a33936216", "current_trial": 25, "dateTime": 1693565568317, "trialdata": {"revealed_states": [], "clicked_states": ["15", "19", "21", "22", "20"], "num_clicks_accrued": [0, 0, 0, 0, 0, 0, 0, 0, 0, 0, 0, 0, 0], "stateRewards": ["", 2, -1, 5, 6, 10, 86, 55, 10, -45, 63, -71, 1, -2, 5, -8, -50, -72, 36, 15, 61, 12, 33, -1, -4, 6, 5, 79, -56, -21, -16, -87, 60, -81], "withholdReward": false, "trial_id": "mdp_trial_17", "block": "test", "trialIndex": 18, "score": 73, "costs": -7, "simulationMode": [null, null, null, null, null], "rewards": [1, -2, 5, 15, 61], "path": ["0", "0", "12", "13", "14", "19", "20"], "rt": [12848, 9, 53, 111, 151], "actions": ["right", "right", "right", "down", "right"], "actionTimes": [14066, 14574, 15135, 15759, 16399], "queries": {"click": {"state": {"target": ["15", "19", "21", "22", "20"], "time": [1991, 4268, 7092, 9116, 11059]}, "edge": {"target": [], "time": []}}, "mouseover": {"state": {"target": ["0", "13", "15", "14", "19", "19", "22", "31", "31", "21", "22", "20", "19", "19"], "time": [1385, 1535, 1834, 2180, 2247, 3097, 4530, 5197, 6264, 6868, 7697, 9631, 11930, 13447]}, "edge": {"target": [], "time": []}}, "mouseout": {"state": {"target": ["7", "12", "0", "13", "15", "14", "19", "19", "22", "31", "31", "21", "22", "20", "19", "22"], "time": [717, 967, 1398, 1615, 2164, 2214, 2747, 4514, 4547, 5230, 6298, 7514, 9314, 11497, 12198, 13416]}, "edge": {"target": [], "time": []}}}, "displayed_time": "16.90", "trialTime": 20385, "trial_type": "mouselab-mdp", "trial_index": 25, "time_elapsed": 868620, "internal_node_id": "0.0-6.0-1.0-16.0"}}, {"uniqueid": "w62562993:a33936216", "current_trial": 26, "dateTime": 1693565595916, "trialdata": {"revealed_states": [], "clicked_states": ["30", "26", "15", "19", "27", "28", "29"], "num_clicks_accrued": [0, 0, 0, 0, 0, 0, 0, 0, 0, 0, 0, 0, 0], "stateRewards": ["", -2, -4, 6, 14, -34, 49, 36, -8, -3, 32, -4, 1, -2, 1, -8, -20, -71, -57, -7, -86, -62, -16, -2, -3, -5, 11, 23, -21, 53, 5, -5, 85, 73], "withholdReward": false, "trial_id": "mdp_trial_18", "block": "test", "trialIndex": 19, "score": 44.2, "costs": -9.8, "simulationMode": [null, null, null, null, null], "rewards": [-2, -3, -5, 11, 53], "path": ["0", "0", "23", "24", "25", "26", "29"], "rt": [17171, 68, 31, 344, 71], "actions": ["left", "left", "left", "up", "left"], "actionTimes": [18414, 19003, 19547, 20427, 20987], "queries": {"click": {"state": {"target": ["30", "26", "15", "19", "27", "28", "29"], "time": [2485, 4492, 6621, 8866, 11403, 13529, 15438]}, "edge": {"target": [], "time": []}}, "mouseover": {"state": {"target": ["23", "24", "25", "30", "25", "26", "27", "26", "26", "17", "15", "14", "19", "22", "25", "29", "27", "28", "26", "29"], "time": [1598, 1732, 1935, 2165, 2831, 2882, 2982, 3282, 3515, 5064, 5298, 8031, 8266, 9414, 9531, 10781, 11182, 11781, 13898, 14148]}, "edge": {"target": [], "time": []}}, "mouseout": {"state": {"target": ["19", "22", "32", "0", "23", "24", "25", "30", "25", "26", "27", "26", "26", "17", "15", "14", "19", "22", "25", "29", "27", "28", "26", "29", "25"], "time": [501, 514, 784, 1367, 1668, 1852, 2069, 2798, 2865, 2932, 3231, 3348, 4781, 5098, 7581, 8218, 9315, 9448, 9548, 10832, 11648, 13864, 13998, 15892, 22984]}, "edge": {"target": [], "time": []}}}, "displayed_time": "21.48", "trialTime": 27468, "trial_type": "mouselab-mdp", "trial_index": 26, "time_elapsed": 896219, "internal_node_id": "0.0-6.0-1.0-17.0"}}, {"uniqueid": "w62562993:a33936216", "current_trial": 27, "dateTime": 1693565634444, "trialdata": {"revealed_states": [], "clicked_states": ["11", "9", "10", "7", "5", "6", "17", "16", "18", "20", "21", "22", "31", "32", "33", "29"], "num_clicks_accrued": [0, 0, 0, 0, 0, 0, 0, 0, 0, 0, 0, 0, 0], "stateRewards": ["", -1, 3, 1, -11, -22, -36, 19, -5, -70, -52, 50, -2, -4, 4, -2, -41, -83, 29, -2, 22, 10, -6, -2, 3, -2, 14, 54, 44, 77, -9, -65, -37, -40], "withholdReward": false, "trial_id": "mdp_trial_19", "block": "test", "trialIndex": 20, "score": 67.60000000000001, "costs": -22.399999999999995, "simulationMode": [null, null, null, null, null], "rewards": [-2, 3, -2, 14, 77], "path": ["0", "0", "23", "24", "25", "26", "29"], "rt": [32847, 17, 125, 36, 2], "actions": ["left", "left", "left", "up", "left"], "actionTimes": [33766, 34274, 34915, 35442, 35942], "queries": {"click": {"state": {"target": ["11", "9", "10", "7", "5", "6", "17", "16", "18", "20", "21", "22", "31", "32", "33", "29"], "time": [1808, 3828, 5694, 7598, 9689, 11612, 13481, 15326, 17353, 19321, 21229, 23246, 25124, 26992, 28863, 30948]}, "edge": {"target": [], "time": []}}, "mouseover": {"state": {"target": ["1", "10", "11", "11", "8", "8", "9", "1", "10", "2", "7", "7", "4", "5", "5", "5", "6", "6", "16", "17", "17", "16", "18", "20", "20", "21", "22", "31", "30", "31", "32", "33", "30", "25", "25", "29", "26", "27", "27", "28"], "time": [1205, 1238, 1288, 1660, 2305, 3238, 3525, 4155, 4439, 5939, 5988, 6655, 7822, 7857, 8105, 8222, 9988, 10155, 11905, 12455, 12956, 13722, 16106, 17871, 19059, 19855, 22305, 23755, 23789, 24205, 25688, 27255, 29355, 30221, 30622, 30743, 31355, 31439, 31756, 33125]}, "edge": {"target": [], "time": []}}, "mouseout": {"state": {"target": ["0", "1", "10", "11", "11", "8", "8", "9", "1", "10", "2", "7", "7", "4", "5", "5", "5", "6", "6", "16", "17", "17", "16", "18", "20", "20", "21", "22", "31", "30", "31", "32", "33", "30", "25", "25", "29", "26", "27", "27", "28"], "time": [1184, 1221, 1272, 1305, 2071, 2371, 3288, 4038, 4338, 5922, 5971, 6038, 7667, 7855, 7889, 8122, 9938, 10005, 11855, 11938, 12505, 13605, 15638, 17555, 18822, 19605, 21471, 23672, 23772, 23872, 25339, 27205, 29272, 29421, 30322, 30673, 31138, 31405, 31488, 33056, 37506]}, "edge": {"target": [], "time": []}}}, "displayed_time": "36.47", "trialTime": 38403, "trial_type": "mouselab-mdp", "trial_index": 27, "time_elapsed": 934747, "internal_node_id": "0.0-6.0-1.0-18.0"}}, {"uniqueid": "w62562993:a33936216", "current_trial": 28, "dateTime": 1693565654300, "trialdata": {"revealed_states": [], "clicked_states": ["26", "30", "19", "15", "20"], "num_clicks_accrued": [0, 0, 0, 0, 0, 0, 0, 0, 0, 0, 0, 0, 0], "stateRewards": ["", 2, 3, -3, 12, -43, 81, -82, -15, 58, -7, -75, -1, -1, 3, -5, 50, -25, -8, 4, 66, 65, -66, 2, -4, 2, -1, -10, 10, 37, 11, 88, -37, 8], "withholdReward": false, "trial_id": "mdp_trial_20", "block": "test", "trialIndex": 21, "score": 64, "costs": -7, "simulationMode": [null, null, null, null, null], "rewards": [-1, -1, 3, 4, 66], "path": ["0", "0", "12", "13", "14", "19", "20"], "rt": [13079, 553, 223, 81, 106], "actions": ["right", "right", "right", "down", "right"], "actionTimes": [14655, 15711, 16431, 17023, 17647], "queries": {"click": {"state": {"target": ["26", "30", "19", "15", "20"], "time": [2286, 4215, 6495, 8626, 11705]}, "edge": {"target": [], "time": []}}, "mouseover": {"state": {"target": ["23", "24", "26", "25", "30", "32", "30", "31", "19", "15", "1", "28", "26", "28", "22", "19", "20", "19", "31", "29", "24", "19"], "time": [1842, 1873, 2207, 2507, 2525, 2607, 2823, 4657, 6361, 7257, 9974, 10140, 10259, 11175, 11258, 11358, 11510, 11857, 11957, 13293, 13790, 14040]}, "edge": {"target": [], "time": []}}, "mouseout": {"state": {"target": ["22", "13", "0", "23", "24", "26", "25", "30", "32", "30", "31", "19", "15", "1", "28", "26", "28", "22", "19", "20", "19", "31", "29", "24", "19"], "time": [925, 1010, 1830, 1857, 1890, 2490, 2524, 2557, 2740, 4640, 4690, 6874, 8974, 10024, 10209, 10311, 11190, 11291, 11441, 11841, 11890, 11974, 13757, 13807, 14190]}, "edge": {"target": [], "time": []}}}, "displayed_time": "18.16", "trialTime": 19727, "trial_type": "mouselab-mdp", "trial_index": 28, "time_elapsed": 954604, "internal_node_id": "0.0-6.0-1.0-19.0"}}, {"uniqueid": "w62562993:a33936216", "current_trial": 29, "dateTime": 1693565689052, "trialdata": {"revealed_states": [], "clicked_states": ["26", "30", "19", "15", "8", "4", "5", "6", "7", "32", "33", "31"], "num_clicks_accrued": [0, 0, 0, 0, 0, 0, 0, 0, 0, 0, 0, 0, 0], "stateRewards": ["", 2, 4, 7, 7, -79, -2, -21, -5, -53, 47, -21, 1, -3, -1, 7, 83, 7, 84, -7, 80, -37, 69, 2, -4, 5, 2, 4, -20, -30, 7, 71, 44, -81], "withholdReward": false, "trial_id": "mdp_trial_21", "block": "test", "trialIndex": 22, "score": 64.2, "costs": -16.8, "simulationMode": [null, null, null, null, null], "rewards": [2, -4, 5, 7, 71], "path": ["0", "0", "23", "24", "25", "30", "31"], "rt": [28079, 162, 119, 124, 245], "actions": ["left", "left", "left", "down", "right"], "actionTimes": [29795, 30449, 31057, 31697, 32449], "queries": {"click": {"state": {"target": ["26", "30", "19", "15", "8", "4", "5", "6", "7", "32", "33", "31"], "time": [3028, 4892, 7093, 9221, 12023, 13929, 16685, 18768, 20685, 23025, 25154, 27064]}, "edge": {"target": [], "time": []}}, "mouseover": {"state": {"target": ["23", "24", "25", "26", "25", "30", "30", "31", "19", "14", "15", "8", "3", "4", "7", "7", "5", "6", "7", "31", "31", "32", "33", "30", "31"], "time": [2053, 2155, 2687, 2874, 3253, 3320, 3803, 5170, 5537, 8953, 8988, 11886, 12286, 12903, 14370, 15912, 16224, 16986, 19353, 21620, 21770, 22837, 23336, 25386, 25586]}, "edge": {"target": [], "time": []}}, "mouseout": {"state": {"target": ["23", "12", "12", "23", "24", "25", "26", "25", "30", "30", "31", "19", "14", "15", "8", "3", "4", "7", "7", "5", "6", "7", "31", "31", "32", "33", "30", "31"], "time": [990, 1106, 1319, 2122, 2424, 2721, 3236, 3286, 3586, 5153, 5186, 8936, 8987, 11236, 12253, 12553, 14269, 14570, 15936, 16936, 19136, 21486, 21670, 22235, 23065, 25370, 25436, 27503]}, "edge": {"target": [], "time": []}}}, "displayed_time": "32.95", "trialTime": 34626, "trial_type": "mouselab-mdp", "trial_index": 29, "time_elapsed": 989356, "internal_node_id": "0.0-6.0-1.0-20.0"}}, {"uniqueid": "w62562993:a33936216", "current_trial": 30, "dateTime": 1693565719837, "trialdata": {"revealed_states": [], "clicked_states": ["32", "31", "33", "27", "28"], "num_clicks_accrued": [0, 0, 0, 0, 0, 0, 0, 0, 0, 0, 0, 0, 0], "stateRewards": ["", -2, -4, 4, -11, -63, -60, -7, 2, -14, 81, -43, -1, -1, -5, 7, 10, 69, 40, 8, -83, 52, 60, 1, 2, 5, -5, 16, 64, 14, -3, 29, 7, -51], "withholdReward": false, "trial_id": "mdp_trial_22", "block": "test", "trialIndex": 23, "score": 10, "costs": -7, "simulationMode": [null, null, null, null, null], "rewards": [1, 2, 5, -5, 14], "path": ["0", "0", "23", "24", "25", "26", "29"], "rt": [23493, 355, 192, 36, 256], "actions": ["left", "left", "left", "up", "left"], "actionTimes": [25009, 25855, 26558, 27086, 27839], "queries": {"click": {"state": {"target": ["32", "31", "33", "27", "28"], "time": [2521, 5217, 7186, 9863, 12120]}, "edge": {"target": [], "time": []}}, "mouseover": {"state": {"target": ["0", "23", "31", "32", "31", "30", "33", "30", "25", "26", "27", "28", "26", "29", "29", "29", "26", "23", "28", "26", "24"], "time": [1931, 1965, 2068, 2386, 2832, 5665, 5731, 9082, 9115, 9216, 9485, 10165, 19235, 19318, 19665, 20031, 21716, 21853, 22098, 22149, 22368]}, "edge": {"target": [], "time": []}}, "mouseout": {"state": {"target": ["23", "0", "23", "31", "32", "31", "30", "33", "33", "30", "25", "26", "27", "28", "26", "29", "29", "29", "26", "23", "28", "26", "24"], "time": [1149, 1948, 1998, 2081, 2585, 5632, 5698, 7255, 8648, 9099, 9131, 9383, 9903, 12207, 19282, 19401, 19703, 21682, 21748, 22068, 22133, 22316, 22849]}, "edge": {"target": [], "time": []}}}, "displayed_time": "28.35", "trialTime": 30655, "trial_type": "mouselab-mdp", "trial_index": 30, "time_elapsed": 1020141, "internal_node_id": "0.0-6.0-1.0-21.0"}}, {"uniqueid": "w62562993:a33936216", "current_trial": 31, "dateTime": 1693565737260, "trialdata": {"revealed_states": [], "clicked_states": ["28", "27", "29"], "num_clicks_accrued": [0, 0, 0, 0, 0, 0, 0, 0, 0, 0, 0, 0, 0], "stateRewards": ["", -1, -3, -7, -7, -76, 30, -49, 11, -70, 56, 2, 1, 4, -3, -14, -59, -83, -25, -9, -21, -67, -73, -2, 4, 4, -9, -11, -32, 60, 9, -87, 22, -64], "withholdReward": false, "trial_id": "mdp_trial_23", "block": "test", "trialIndex": 24, "score": 52.8, "costs": -4.199999999999999, "simulationMode": [null, null, null, null, null], "rewards": [-2, 4, 4, -9, 60], "path": ["0", "0", "23", "24", "25", "26", "29"], "rt": [8099, 60, 103, 79, 568], "actions": ["left", "left", "left", "up", "left"], "actionTimes": [9549, 10106, 10698, 11274, 12346], "queries": {"click": {"state": {"target": ["28", "27", "29"], "time": [2245, 4342, 6196]}, "edge": {"target": [], "time": []}}, "mouseover": {"state": {"target": ["24", "26", "28", "27", "29", "33", "33", "30", "25", "25"], "time": [1778, 1899, 2063, 3261, 5028, 6594, 7277, 8644, 8711, 8897]}, "edge": {"target": [], "time": []}}, "mouseout": {"state": {"target": ["28", "8", "0", "24", "26", "28", "27", "29", "33", "33", "30", "25", "25"], "time": [594, 627, 1744, 1811, 2049, 2677, 4694, 6544, 6628, 8346, 8679, 8799, 8998]}, "edge": {"target": [], "time": []}}}, "displayed_time": "15.45", "trialTime": 17274, "trial_type": "mouselab-mdp", "trial_index": 31, "time_elapsed": 1037564, "internal_node_id": "0.0-6.0-1.0-22.0"}}, {"uniqueid": "w62562993:a33936216", "current_trial": 32, "dateTime": 1693565777805, "trialdata": {"revealed_states": [], "clicked_states": ["26", "30", "31", "32", "33", "19", "21", "20", "22", "17", "16", "15"], "num_clicks_accrued": [0, 0, 0, 0, 0, 0, 0, 0, 0, 0, 0, 0, 0], "stateRewards": ["", 1, 2, 2, -15, -84, 28, -26, 13, 31, 86, 30, -2, 1, -1, -8, 66, -40, -1, -10, -32, 57, -17, 1, 2, -2, 9, -23, 77, 85, 12, -32, -62, -35], "withholdReward": false, "trial_id": "mdp_trial_24", "block": "test", "trialIndex": 25, "score": 39.2, "costs": -16.8, "simulationMode": [null, null, null, null, null], "rewards": [-2, 1, -1, -8, 66], "path": ["0", "0", "12", "13", "14", "15", "16"], "rt": [31140, 91, 49, 621, 337], "actions": ["right", "right", "right", "up", "up"], "actionTimes": [34167, 34757, 35316, 36452, 37285], "queries": {"click": {"state": {"target": ["26", "30", "31", "32", "33", "19", "21", "20", "22", "17", "16", "15"], "time": [4051, 6750, 10095, 11968, 13865, 16497, 18449, 20566, 22495, 24353, 26376, 30869]}, "edge": {"target": [], "time": []}}, "mouseover": {"state": {"target": ["0", "24", "28", "26", "26", "30", "25", "30", "31", "25", "29", "29", "26", "25", "31", "31", "31", "32", "33", "21", "22", "19", "21", "20", "20", "22", "14", "17", "17", "16", "15", "17", "15", "15", "16"], "time": [3094, 3247, 3448, 3532, 3917, 4530, 6215, 6582, 7147, 8652, 8680, 8798, 8847, 8864, 8897, 9665, 9815, 10547, 12314, 15131, 16219, 16298, 16814, 18948, 19214, 20898, 22847, 22898, 23198, 24765, 28552, 30198, 30281, 30533, 31847]}, "edge": {"target": [], "time": []}}, "mouseout": {"state": {"target": ["23", "23", "30", "22", "0", "0", "24", "28", "26", "26", "30", "25", "30", "31", "25", "29", "29", "26", "25", "31", "30", "31", "31", "32", "33", "21", "22", "19", "21", "20", "20", "19", "22", "14", "17", "17", "16", "15", "17", "15", "15", "16", "15", "15", "14"], "time": [997, 1363, 1397, 1950, 2797, 3198, 3368, 3463, 3581, 4297, 6199, 6380, 7097, 7730, 8666, 8730, 8832, 8863, 8880, 8932, 9598, 9767, 10347, 12214, 14164, 16017, 16262, 16764, 18881, 18965, 20815, 20867, 22814, 22864, 22948, 24446, 28316, 29215, 30249, 30332, 31264, 32014, 32114, 32281, 39281]}, "edge": {"target": [], "time": []}}}, "displayed_time": "37.80", "trialTime": 40406, "trial_type": "mouselab-mdp", "trial_index": 32, "time_elapsed": 1078109, "internal_node_id": "0.0-6.0-1.0-23.0"}}, {"uniqueid": "w62562993:a33936216", "current_trial": 33, "dateTime": 1693565803949, "trialdata": {"revealed_states": [], "clicked_states": ["13", "24", "26", "27", "28", "29", "33", "32", "30"], "num_clicks_accrued": [0, 0, 0, 0, 0, 0, 0, 0, 0, 0, 0, 0, 0], "stateRewards": ["", 1, -2, -8, -13, 4, 34, -84, -4, -49, 88, -70, -1, 3, -4, 10, -77, 13, -34, 15, -21, -16, 27, 1, -2, 8, -8, -6, 38, -26, 6, -15, 66, -3], "withholdReward": false, "trial_id": "mdp_trial_25", "block": "test", "trialIndex": 26, "score": 66.4, "costs": -12.600000000000001, "simulationMode": [null, null, null, null, null], "rewards": [1, -2, 8, 6, 66], "path": ["0", "0", "23", "24", "25", "30", "32"], "rt": [20007, 101, 59, 118, 93], "actions": ["left", "left", "left", "down", "down"], "actionTimes": [21375, 21981, 22557, 23181, 23773], "queries": {"click": {"state": {"target": ["13", "24", "26", "27", "28", "29", "33", "32", "30"], "time": [2072, 4019, 6223, 8121, 9980, 12155, 13979, 15779, 18750]}, "edge": {"target": [], "time": []}}, "mouseover": {"state": {"target": ["12", "13", "23", "24", "26", "25", "30", "27", "28", "29", "30", "33", "32", "31", "31", "30", "31"], "time": [1680, 1763, 2762, 3229, 6067, 6412, 6646, 6979, 8863, 10229, 12630, 12862, 14646, 15995, 16312, 18630, 19012]}, "edge": {"target": [], "time": []}}, "mouseout": {"state": {"target": ["21", "19", "13", "12", "0", "12", "13", "23", "24", "26", "25", "30", "27", "26", "28", "26", "29", "30", "33", "32", "31", "31", "30", "30", "31"], "time": [714, 747, 916, 1048, 1648, 1713, 2279, 2896, 4296, 6379, 6462, 6679, 8329, 8429, 10129, 10195, 12429, 12662, 14129, 15912, 16196, 18463, 18806, 18945, 24879]}, "edge": {"target": [], "time": []}}}, "displayed_time": "24.28", "trialTime": 25997, "trial_type": "mouselab-mdp", "trial_index": 33, "time_elapsed": 1104252, "internal_node_id": "0.0-6.0-1.0-24.0"}}, {"uniqueid": "w62562993:a33936216", "current_trial": 34, "dateTime": 1693565824046, "trialdata": {"revealed_states": [], "clicked_states": ["32", "31", "33", "30", "25"], "num_clicks_accrued": [0, 0, 0, 0, 0, 0, 0, 0, 0, 0, 0, 0, 0], "stateRewards": ["", 2, -2, -3, 10, -4, -1, -11, -8, -9, -36, -78, 2, 1, 7, -7, 44, -1, -31, -1, 26, 47, 83, 2, -4, -4, -6, -52, -76, -81, -1, -59, 45, 67], "withholdReward": false, "trial_id": "mdp_trial_26", "block": "test", "trialIndex": 27, "score": 53, "costs": -7, "simulationMode": [null, null, null, null, null], "rewards": [2, -4, -4, -1, 67], "path": ["0", "0", "23", "24", "25", "30", "33"], "rt": [14175, 2, 11, 102, 29], "actions": ["left", "left", "left", "down", "left"], "actionTimes": [15341, 15852, 16394, 17018, 17561], "queries": {"click": {"state": {"target": ["32", "31", "33", "30", "25"], "time": [2251, 6345, 8181, 10683, 12983]}, "edge": {"target": [], "time": []}}, "mouseover": {"state": {"target": ["0", "31", "30", "32", "31", "31", "31", "31", "30", "33", "25", "25", "30", "32", "32", "32", "32", "30", "32", "25"], "time": [1487, 1616, 1814, 2064, 2680, 4447, 5536, 6219, 6598, 6631, 8598, 8698, 8748, 8832, 9065, 9165, 9265, 10433, 11782, 12834]}, "edge": {"target": [], "time": []}}, "mouseout": {"state": {"target": ["23", "0", "31", "30", "32", "31", "31", "31", "31", "30", "33", "25", "25", "30", "32", "32", "32", "32", "30", "32", "30", "25", "25", "30"], "time": [683, 1513, 1764, 2017, 2630, 4331, 5299, 5983, 6581, 6615, 8548, 8648, 8731, 8781, 8865, 9098, 9198, 10032, 10948, 12631, 12699, 13131, 13231, 18785]}, "edge": {"target": [], "time": []}}}, "displayed_time": "18.07", "trialTime": 19962, "trial_type": "mouselab-mdp", "trial_index": 34, "time_elapsed": 1124350, "internal_node_id": "0.0-6.0-1.0-25.0"}}, {"uniqueid": "w62562993:a33936216", "current_trial": 35, "dateTime": 1693565841758, "trialdata": {"revealed_states": [], "clicked_states": ["33", "32", "31", "30"], "num_clicks_accrued": [0, 0, 0, 0, 0, 0, 0, 0, 0, 0, 0, 0, 0], "stateRewards": ["", 1, 1, 5, 6, -29, -7, 3, -16, 9, -46, 65, -1, 4, -1, -16, -63, -77, -87, 8, 80, -50, 43, -1, -1, -5, 5, -38, -71, -62, 9, 81, -50, -52], "withholdReward": false, "trial_id": "mdp_trial_27", "block": "test", "trialIndex": 28, "score": 77.4, "costs": -5.6, "simulationMode": [null, null, null, null, null], "rewards": [-1, -1, -5, 9, 81], "path": ["0", "0", "23", "24", "25", "30", "31"], "rt": [10509, 4, 368, 173, 97], "actions": ["left", "left", "left", "down", "right"], "actionTimes": [11532, 12056, 12953, 13625, 14233], "queries": {"click": {"state": {"target": ["33", "32", "31", "30"], "time": [2529, 4403, 6437, 9555]}, "edge": {"target": [], "time": []}}, "mouseover": {"state": {"target": ["31", "31", "30", "33", "32", "31", "30", "30"], "time": [1672, 1985, 2268, 2420, 2834, 4684, 8771, 9305]}, "edge": {"target": [], "time": []}}, "mouseout": {"state": {"target": ["22", "12", "0", "31", "31", "30", "33", "32", "31", "30", "30", "31"], "time": [421, 536, 1568, 1687, 2238, 2319, 2784, 4585, 8684, 8803, 9650, 16852]}, "edge": {"target": [], "time": []}}}, "displayed_time": "15.03", "trialTime": 17578, "trial_type": "mouselab-mdp", "trial_index": 35, "time_elapsed": 1142063, "internal_node_id": "0.0-6.0-1.0-26.0"}}, {"uniqueid": "w62562993:a33936216", "current_trial": 36, "dateTime": 1693565866590, "trialdata": {"revealed_states": [], "clicked_states": ["28", "27", "29", "5", "9", "11", "8"], "num_clicks_accrued": [0, 0, 0, 0, 0, 0, 0, 0, 0, 0, 0, 0, 0], "stateRewards": ["", 1, 3, -2, 15, 51, 15, -19, 11, 67, -45, -73, 2, 4, -2, -13, 36, 9, -28, 10, -30, 31, 16, 1, 2, -1, -16, 14, -22, 36, -1, 88, -5, 45], "withholdReward": false, "trial_id": "mdp_trial_28", "block": "test", "trialIndex": 29, "score": 70.2, "costs": -9.8, "simulationMode": [null, null, null, null, null], "rewards": [1, 3, -2, 11, 67], "path": ["0", "0", "1", "2", "3", "8", "9"], "rt": [18677, 168, 126, 37, 79], "actions": ["up", "up", "up", "left", "up"], "actionTimes": [19752, 20407, 21032, 21576, 22152], "queries": {"click": {"state": {"target": ["28", "27", "29", "5", "9", "11", "8"], "time": [3334, 5205, 7139, 9235, 11470, 13300, 15834]}, "edge": {"target": [], "time": []}}, "mouseover": {"state": {"target": ["0", "23", "24", "25", "30", "31", "24", "28", "10", "8", "28", "27", "29", "3", "5", "5", "9", "11", "11", "10", "8", "10", "10", "9", "9", "10"], "time": [1522, 1572, 1604, 1656, 1771, 2026, 2271, 2339, 2774, 2971, 3273, 3921, 5505, 7455, 7505, 8188, 9755, 11688, 12005, 13855, 15523, 16038, 16371, 17155, 17640, 17772]}, "edge": {"target": [], "time": []}}, "mouseout": {"state": {"target": ["23", "0", "0", "23", "24", "25", "30", "31", "24", "28", "10", "8", "28", "27", "29", "3", "5", "5", "9", "11", "11", "11", "10", "8", "10", "10", "8", "9", "9", "8", "10", "1"], "time": [822, 1326, 1555, 1588, 1621, 1757, 1788, 2257, 2322, 2355, 2806, 3022, 3788, 5438, 7371, 7471, 7771, 9438, 11655, 11938, 13377, 13771, 15488, 16005, 16055, 16921, 17038, 17205, 17671, 17739, 18092, 23838]}, "edge": {"target": [], "time": []}}}, "displayed_time": "22.66", "trialTime": 24696, "trial_type": "mouselab-mdp", "trial_index": 36, "time_elapsed": 1166894, "internal_node_id": "0.0-6.0-1.0-27.0"}}, {"uniqueid": "w62562993:a33936216", "current_trial": 37, "dateTime": 1693565905471, "trialdata": {"revealed_states": [], "clicked_states": ["9", "10", "7", "5", "6", "11", "16", "18", "17", "21", "20", "15", "19", "22"], "num_clicks_accrued": [0, 0, 0, 0, 0, 0, 0, 0, 0, 0, 0, 0, 0], "stateRewards": ["", -1, 2, 5, -6, 13, -64, -47, 8, -79, -80, -33, 1, 2, -2, -16, 56, -71, -10, 3, 29, 44, 85, -1, 4, 5, 4, -36, -56, 19, 8, 52, -13, -2], "withholdReward": false, "trial_id": "mdp_trial_29", "block": "test", "trialIndex": 30, "score": 69.4, "costs": -19.599999999999998, "simulationMode": [null, null, null, null, null], "rewards": [1, 2, -2, 3, 85], "path": ["0", "0", "12", "13", "14", "19", "22"], "rt": [31923, 479, 137, 143, 100], "actions": ["right", "right", "right", "down", "left"], "actionTimes": [33144, 34118, 34758, 35398, 36005], "queries": {"click": {"state": {"target": ["9", "10", "7", "5", "6", "11", "16", "18", "17", "21", "20", "15", "19", "22"], "time": [3473, 5499, 7375, 9208, 11352, 13232, 15486, 17543, 19441, 21387, 23652, 25648, 27978, 30048]}, "edge": {"target": [], "time": []}}, "mouseover": {"state": {"target": ["12", "2", "9", "5", "9", "10", "2", "7", "4", "5", "5", "6", "4", "3", "8", "11", "10", "16", "18", "15", "17", "15", "17", "14", "19", "21", "21", "20", "19", "22", "14", "15", "14", "19", "22", "19", "22"], "time": [1644, 1703, 1788, 2538, 3341, 3754, 5672, 5737, 7604, 7638, 7903, 9520, 11655, 11675, 11688, 11720, 13770, 15187, 16737, 17837, 17904, 18320, 19154, 20270, 20737, 20821, 21240, 23023, 24037, 24270, 24503, 24620, 25854, 25903, 27571, 27791, 28403]}, "edge": {"target": [], "time": []}}, "mouseout": {"state": {"target": ["21", "22", "0", "12", "2", "9", "5", "9", "10", "2", "7", "4", "5", "5", "5", "6", "4", "3", "8", "11", "10", "16", "18", "15", "17", "16", "15", "16", "16", "16", "17", "17", "14", "19", "21", "21", "20", "19", "22", "14", "15", "14", "19", "22", "19", "19", "22", "22"], "time": [652, 738, 1253, 1670, 1720, 2371, 2720, 3518, 5670, 5704, 7587, 7637, 7670, 9280, 9487, 11653, 11674, 11686, 11703, 13703, 13787, 15687, 17787, 17887, 18137, 18286, 18387, 18420, 18637, 19104, 19494, 19687, 20404, 20770, 20870, 21820, 24004, 24087, 24454, 24570, 25820, 25886, 27541, 27773, 28040, 28220, 30471, 32222]}, "edge": {"target": [], "time": []}}}, "displayed_time": "36.51", "trialTime": 38742, "trial_type": "mouselab-mdp", "trial_index": 37, "time_elapsed": 1205774, "internal_node_id": "0.0-6.0-1.0-28.0"}}, {"uniqueid": "w62562993:a33936216", "current_trial": 38, "dateTime": 1693565932812, "trialdata": {"revealed_states": [], "clicked_states": ["27", "26", "25", "32", "33", "31", "30"], "num_clicks_accrued": [0, 0, 0, 0, 0, 0, 0, 0, 0, 0, 0, 0, 0], "stateRewards": ["", -2, -2, -3, -6, -15, -11, 41, -12, -63, -76, 2, -2, -3, 8, 9, -36, -2, -18, -16, -32, -85, -17, -2, 1, 5, -16, 82, 35, -88, -1, 80, -82, -20], "withholdReward": false, "trial_id": "mdp_trial_30", "block": "test", "trialIndex": 31, "score": 73.2, "costs": -9.8, "simulationMode": [null, null, null, null, null], "rewards": [-2, 1, 5, -1, 80], "path": ["0", "0", "23", "24", "25", "30", "31"], "rt": [20974, 92, 99, 105, 179], "actions": ["left", "left", "left", "down", "right"], "actionTimes": [22747, 23353, 23960, 24584, 25257], "queries": {"click": {"state": {"target": ["27", "26", "25", "32", "33", "31", "30"], "time": [2443, 5783, 8992, 11123, 13099, 14930, 18453]}, "edge": {"target": [], "time": []}}, "mouseover": {"state": {"target": ["23", "28", "27", "29", "26", "28", "26", "24", "0", "23", "28", "25", "30", "32", "33", "30", "31", "30", "33", "33", "30", "31", "24", "25", "24"], "time": [2060, 2109, 2177, 2659, 4443, 5079, 5632, 6009, 8494, 8512, 8576, 8764, 10126, 10426, 11693, 13326, 13376, 17892, 17926, 18129, 18246, 20413, 20596, 20693, 21609]}, "edge": {"target": [], "time": []}}, "mouseout": {"state": {"target": ["23", "23", "28", "27", "27", "29", "26", "28", "26", "24", "0", "23", "28", "25", "30", "32", "33", "30", "31", "30", "33", "33", "30", "31", "24", "25"], "time": [878, 2076, 2126, 2488, 2592, 4426, 4459, 5111, 5976, 6026, 8510, 8526, 8609, 10076, 10326, 11224, 13310, 13359, 17876, 17909, 17959, 18160, 18776, 20443, 20609, 21312]}, "edge": {"target": [], "time": []}}}, "displayed_time": "25.76", "trialTime": 27191, "trial_type": "mouselab-mdp", "trial_index": 38, "time_elapsed": 1233116, "internal_node_id": "0.0-6.0-1.0-29.0"}}, {"uniqueid": "w62562993:a33936216", "current_trial": 39, "dateTime": 1693565980635, "trialdata": {"revealed_states": [], "clicked_states": ["31", "32", "33", "29", "27", "28", "26", "25", "9", "11", "10", "8", "3", "2", "1", "5", "6", "7", "4"], "num_clicks_accrued": [0, 0, 0, 0, 0, 0, 0, 0, 0, 0, 0, 0, 0], "stateRewards": ["", 2, -3, -2, 14, -4, 85, 46, 15, -28, 41, 31, -1, -1, -1, 5, 62, 79, 57, 12, -73, -64, 86, -1, 1, -3, -5, 68, 11, -32, 8, -80, -21, -56], "withholdReward": false, "trial_id": "mdp_trial_31", "block": "test", "trialIndex": 32, "score": 69.4, "costs": -26.59999999999999, "simulationMode": [null, null, null, null, null], "rewards": [2, -3, -2, 14, 85], "path": ["0", "0", "1", "2", "3", "4", "6"], "rt": [41282, 120, 177, 53, 159], "actions": ["up", "up", "up", "right", "right"], "actionTimes": [42653, 43276, 43950, 44493, 45166], "queries": {"click": {"state": {"target": ["31", "32", "33", "29", "27", "28", "26", "25", "9", "11", "10", "8", "3", "2", "1", "5", "6", "7", "4"], "time": [2312, 4218, 6135, 7957, 9768, 12025, 14024, 16203, 18732, 21030, 22993, 25541, 28680, 30676, 32594, 34571, 36432, 38340, 40128]}, "edge": {"target": [], "time": []}}, "mouseover": {"state": {"target": ["23", "31", "32", "33", "25", "26", "29", "27", "28", "26", "25", "25", "24", "23", "10", "8", "9", "8", "11", "10", "10", "3", "5", "8", "3", "4", "5", "5", "3", "2", "3", "2", "10", "2", "1", "4", "5", "6", "7", "4"], "time": [1907, 2092, 2757, 4505, 6389, 6822, 7339, 8739, 10355, 12705, 14455, 15956, 16472, 16556, 18090, 18107, 18325, 18972, 20892, 21289, 21822, 23322, 23622, 25307, 25839, 25922, 26039, 27139, 27941, 28006, 28526, 29022, 29356, 30441, 31856, 32872, 34056, 34989, 37155, 39039]}, "edge": {"target": [], "time": []}}, "mouseout": {"state": {"target": ["24", "23", "23", "31", "32", "33", "25", "26", "29", "27", "28", "26", "25", "25", "24", "23", "10", "8", "9", "8", "11", "10", "10", "3", "5", "8", "3", "4", "5", "5", "3", "2", "3", "2", "10", "8", "3", "2", "1", "4", "5", "6", "7", "4", "15", "12"], "time": [940, 1040, 1939, 2673, 4294, 6339, 6455, 6906, 8030, 9972, 12655, 14438, 14489, 16278, 16522, 16756, 18106, 18224, 18922, 18988, 21086, 21322, 23272, 23355, 25222, 25593, 25889, 25939, 26072, 27872, 27972, 28324, 28955, 29089, 29506, 29838, 30273, 31289, 32662, 32889, 34789, 36638, 38972, 40638, 46905, 46992]}, "edge": {"target": [], "time": []}}}, "displayed_time": "45.67", "trialTime": 47661, "trial_type": "mouselab-mdp", "trial_index": 39, "time_elapsed": 1280940, "internal_node_id": "0.0-6.0-1.0-30.0"}}, {"uniqueid": "w62562993:a33936216", "current_trial": 40, "dateTime": 1693566036286, "trialdata": {"revealed_states": [], "clicked_states": ["9", "11", "10", "5", "6", "7", "18", "16", "17", "20", "21", "22", "33", "32", "31", "29", "27", "28", "15", "14", "13", "12"], "num_clicks_accrued": [0, 0, 0, 0, 0, 0, 0, 0, 0, 0, 0, 0, 0], "stateRewards": ["", 2, 4, -3, 16, -58, 30, -35, 11, -60, 47, 27, -2, -1, -7, -16, 23, -70, 68, -10, -65, -43, -34, -2, 1, 7, 9, -63, 34, -31, -8, -12, -86, 59], "withholdReward": false, "trial_id": "mdp_trial_32", "block": "test", "trialIndex": 33, "score": -33.79999999999998, "costs": -30.799999999999986, "simulationMode": [null, null, null, null, null], "rewards": [-2, -1, -7, -16, 23], "path": ["0", "0", "12", "13", "14", "15", "16"], "rt": [48661, 96, 135, 111, 71], "actions": ["right", "right", "right", "up", "up"], "actionTimes": [50252, 50841, 51482, 52089, 52649], "queries": {"click": {"state": {"target": ["9", "11", "10", "5", "6", "7", "18", "16", "17", "20", "21", "22", "33", "32", "31", "29", "27", "28", "15", "14", "13", "12"], "time": [2522, 4847, 6816, 9080, 10899, 12844, 14899, 17172, 19202, 21151, 23052, 24941, 27447, 29347, 31184, 33028, 34876, 36740, 38900, 40912, 42997, 45569]}, "edge": {"target": [], "time": []}}, "mouseover": {"state": {"target": ["1", "2", "3", "9", "8", "3", "8", "11", "27", "11", "11", "11", "10", "10", "3", "5", "6", "7", "18", "16", "17", "20", "20", "21", "22", "25", "33", "32", "32", "31", "25", "29", "27", "28", "23", "0", "12", "13", "14", "15", "14", "14", "19", "19", "13", "12", "0", "23", "23", "12", "14", "0", "23", "24", "31", "13"], "time": [1843, 1861, 1944, 2360, 2710, 2860, 3026, 3044, 3110, 3510, 3660, 4720, 5227, 5743, 7029, 7127, 9626, 11426, 14026, 15110, 18393, 19760, 20077, 21410, 23443, 25394, 26043, 27760, 28660, 29843, 31460, 32077, 33443, 35143, 37160, 37343, 37393, 37443, 37660, 38010, 39210, 39560, 41410, 41928, 42830, 43494, 44077, 44110, 44560, 45427, 46076, 47711, 47776, 47859, 49029, 49277]}, "edge": {"target": [], "time": []}}, "mouseout": {"state": {"target": ["12", "1", "1", "2", "3", "9", "8", "3", "8", "11", "27", "11", "11", "11", "10", "10", "3", "5", "6", "7", "18", "16", "17", "20", "20", "20", "21", "22", "25", "33", "33", "32", "32", "31", "25", "29", "27", "28", "28", "23", "0", "12", "13", "14", "15", "14", "14", "19", "19", "13", "12", "0", "23", "23", "12", "13", "14", "13", "12", "0", "23", "24", "31", "12", "13", "13"], "time": [876, 1043, 1860, 1893, 1978, 2677, 2743, 3010, 3043, 3060, 3260, 3593, 3810, 5077, 5527, 6994, 7043, 9577, 11127, 13460, 15026, 17643, 19426, 19777, 21218, 21327, 23360, 25277, 25410, 27461, 27643, 28444, 29493, 31426, 31476, 33177, 35076, 36797, 37026, 37310, 37377, 37426, 37493, 37760, 39177, 39243, 41310, 41643, 42529, 43276, 44060, 44094, 44143, 44731, 45826, 45893, 46377, 47676, 47709, 47743, 47809, 47943, 49078, 49260, 49344, 54460]}, "edge": {"target": [], "time": []}}}, "displayed_time": "53.15", "trialTime": 55498, "trial_type": "mouselab-mdp", "trial_index": 40, "time_elapsed": 1336590, "internal_node_id": "0.0-6.0-1.0-31.0"}}, {"uniqueid": "w62562993:a33936216", "current_trial": 41, "dateTime": 1693566067437, "trialdata": {"revealed_states": [], "clicked_states": ["27", "28", "29", "31", "32", "33", "21", "22", "20", "19", "14"], "num_clicks_accrued": [0, 0, 0, 0, 0, 0, 0, 0, 0, 0, 0, 0, 0], "stateRewards": ["", -1, 3, 1, -7, 56, 76, 57, 3, 11, -9, 14, 1, -2, 2, 8, -77, -3, 79, -5, 88, 24, -66, -2, -1, 7, -7, -30, 14, -76, 11, -36, 28, -6], "withholdReward": false, "trial_id": "mdp_trial_33", "block": "test", "trialIndex": 34, "score": 68.6, "costs": -15.400000000000002, "simulationMode": [null, null, null, null, null], "rewards": [1, -2, 2, -5, 88], "path": ["0", "0", "12", "13", "14", "19", "20"], "rt": [24639, 97, 24, 18, 526], "actions": ["right", "right", "right", "down", "right"], "actionTimes": [26582, 27187, 27730, 28258, 29299], "queries": {"click": {"state": {"target": ["27", "28", "29", "31", "32", "33", "21", "22", "20", "19", "14"], "time": [2801, 4644, 6510, 8367, 10205, 12603, 15514, 17518, 19478, 22557, 24652]}, "edge": {"target": [], "time": []}}, "mouseover": {"state": {"target": ["23", "24", "26", "27", "28", "26", "29", "8", "11", "24", "31", "32", "33", "21", "22", "20", "20", "17", "19", "14", "19", "14"], "time": [2290, 2323, 2542, 2675, 3506, 4889, 4942, 6989, 7107, 7823, 8091, 8772, 10589, 13939, 15972, 17672, 18089, 20506, 21811, 22056, 22406, 24473]}, "edge": {"target": [], "time": []}}, "mouseout": {"state": {"target": ["29", "25", "24", "22", "0", "23", "24", "26", "27", "28", "26", "29", "8", "11", "24", "31", "32", "33", "21", "22", "20", "20", "17", "19", "14", "19", "14", "19"], "time": [1043, 1089, 1106, 1297, 2256, 2306, 2444, 2608, 2972, 4856, 4906, 6939, 7106, 7123, 7873, 8572, 10439, 12876, 15906, 17639, 17689, 19855, 21455, 21856, 22291, 22627, 24839, 24922]}, "edge": {"target": [], "time": []}}}, "displayed_time": "29.81", "trialTime": 30995, "trial_type": "mouselab-mdp", "trial_index": 41, "time_elapsed": 1367741, "internal_node_id": "0.0-6.0-1.0-32.0"}}, {"uniqueid": "w62562993:a33936216", "current_trial": 42, "dateTime": 1693566085550, "trialdata": {"revealed_states": [], "clicked_states": ["20", "19"], "num_clicks_accrued": [0, 0, 0, 0, 0, 0, 0, 0, 0, 0, 0, 0, 0], "stateRewards": ["", -2, -1, -6, -14, -55, 78, -13, 11, 14, -71, 59, 2, 2, 6, -6, 9, 38, 14, 7, 85, 11, 68, 1, -4, -1, -3, -63, -85, 9, -2, 63, -86, -10], "withholdReward": false, "trial_id": "mdp_trial_34", "block": "test", "trialIndex": 35, "score": 99.2, "costs": -2.8, "simulationMode": [null, null, null, null, null], "rewards": [2, 2, 6, 7, 85], "path": ["0", "0", "12", "13", "14", "19", "20"], "rt": [8765, 9, 52, 30, 122], "actions": ["right", "right", "right", "down", "right"], "actionTimes": [11197, 11706, 12282, 12826, 13435], "queries": {"click": {"state": {"target": ["20", "19"], "time": [4313, 8629]}, "edge": {"target": [], "time": []}}, "mouseover": {"state": {"target": ["23", "12", "13", "14", "19", "20", "21", "19", "19", "14", "19", "21"], "time": [2895, 3096, 3145, 3195, 3814, 4030, 5012, 6733, 7079, 7780, 8162, 8895]}, "edge": {"target": [], "time": []}}, "mouseout": {"state": {"target": ["20", "19", "22", "12", "0", "23", "12", "13", "14", "19", "20", "21", "19", "19", "14", "19"], "time": [1013, 1163, 1280, 1879, 2848, 2999, 3130, 3179, 3779, 3947, 4712, 6599, 6780, 7678, 8113, 8845]}, "edge": {"target": [], "time": []}}}, "displayed_time": "16.43", "trialTime": 17948, "trial_type": "mouselab-mdp", "trial_index": 42, "time_elapsed": 1385854, "internal_node_id": "0.0-6.0-1.0-33.0"}}, {"uniqueid": "w62562993:a33936216", "current_trial": 43, "dateTime": 1693566104526, "trialdata": {"revealed_states": [], "clicked_states": ["20", "19"], "num_clicks_accrued": [0, 0, 0, 0, 0, 0, 0, 0, 0, 0, 0, 0, 0], "stateRewards": ["", 1, -4, 6, -3, 40, 76, -51, 5, -24, -63, 44, -2, -2, 8, 1, 76, -85, -58, 10, 59, 20, 11, -2, 3, -3, 3, -82, -10, 54, -7, -57, -6, -32], "withholdReward": false, "trial_id": "mdp_trial_35", "block": "test", "trialIndex": 36, "score": 70.2, "costs": -2.8, "simulationMode": [null, null, null, null, null], "rewards": [-2, -2, 8, 10, 59], "path": ["0", "0", "12", "13", "14", "19", "20"], "rt": [6272, 501, 301, 77, 88], "actions": ["right", "right", "right", "down", "right"], "actionTimes": [8034, 9024, 9824, 10400, 10977], "queries": {"click": {"state": {"target": ["20", "19"], "time": [2720, 5510]}, "edge": {"target": [], "time": []}}, "mouseover": {"state": {"target": ["12", "13", "14", "20", "21", "22", "13", "14", "19"], "time": [2205, 2223, 2239, 2476, 3088, 4238, 4988, 5123, 5372]}, "edge": {"target": [], "time": []}}, "mouseout": {"state": {"target": ["21", "22", "0", "12", "13", "14", "20", "21", "22", "13", "14", "19", "19"], "time": [1071, 1173, 2188, 2222, 2238, 2306, 3022, 3122, 4924, 5022, 5324, 5592, 6672]}, "edge": {"target": [], "time": []}}}, "displayed_time": "15.77", "trialTime": 18816, "trial_type": "mouselab-mdp", "trial_index": 43, "time_elapsed": 1404830, "internal_node_id": "0.0-6.0-1.0-34.0"}}, {"uniqueid": "w62562993:a33936216", "current_trial": 44, "dateTime": 1693566146365, "trialdata": {"revealed_states": [], "clicked_states": ["20", "22", "21", "14", "16", "17", "18", "27", "26", "32", "31", "33", "30", "29", "28"], "num_clicks_accrued": [0, 0, 0, 0, 0, 0, 0, 0, 0, 0, 0, 0, 0], "stateRewards": ["", 1, -1, 8, -3, 38, 85, -20, -4, 8, 23, 73, 2, -4, 6, -13, 44, 7, -28, -11, -77, 45, -69, 1, -1, -7, -11, 75, -51, -87, 7, 36, -53, -26], "withholdReward": false, "trial_id": "mdp_trial_36", "block": "test", "trialIndex": 37, "score": 36, "costs": -20.999999999999996, "simulationMode": [null, null, null, null, null], "rewards": [1, -1, -7, -11, 75], "path": ["0", "0", "23", "24", "25", "26", "27"], "rt": [35374, 126, 36, 496, 201], "actions": ["left", "left", "left", "up", "up"], "actionTimes": [37216, 37838, 38365, 39358, 40046], "queries": {"click": {"state": {"target": ["20", "22", "21", "14", "16", "17", "18", "27", "26", "32", "31", "33", "30", "29", "28"], "time": [2715, 5281, 8789, 10876, 12800, 14672, 16816, 18995, 21668, 23579, 25436, 27628, 29497, 32722, 34768]}, "edge": {"target": [], "time": []}}, "mouseover": {"state": {"target": ["12", "19", "20", "21", "19", "22", "19", "19", "14", "19", "21", "31", "2", "18", "14", "15", "16", "17", "15", "18", "18", "24", "26", "27", "29", "26", "25", "30", "32", "30", "31", "30", "33", "30", "25", "29", "26", "28"], "time": [2094, 2112, 2563, 4899, 5012, 5181, 6728, 7644, 7699, 8027, 8515, 9094, 9428, 9478, 9611, 11178, 11244, 13128, 14978, 15127, 15511, 18144, 18395, 18879, 19728, 21430, 21944, 22044, 22112, 23878, 24711, 25628, 25878, 28110, 30094, 32565, 32927, 33144]}, "edge": {"target": [], "time": []}}, "mouseout": {"state": {"target": ["19", "12", "12", "19", "20", "20", "21", "19", "22", "19", "19", "14", "19", "21", "31", "2", "18", "14", "15", "16", "17", "15", "18", "18", "24", "26", "27", "29", "26", "25", "30", "32", "30", "31", "30", "33", "30", "25", "29", "26", "28"], "time": [1244, 1403, 2111, 2127, 3011, 4645, 4928, 5028, 5811, 6744, 7678, 7811, 8062, 9044, 9111, 9446, 9561, 11144, 11211, 13028, 14944, 15011, 15244, 17111, 18194, 18614, 19144, 21211, 21878, 22011, 22094, 23811, 24644, 25561, 25711, 27894, 29728, 32447, 32910, 33028, 35127]}, "edge": {"target": [], "time": []}}}, "displayed_time": "40.55", "trialTime": 41662, "trial_type": "mouselab-mdp", "trial_index": 44, "time_elapsed": 1446669, "internal_node_id": "0.0-6.0-1.0-35.0"}}, {"uniqueid": "w62562993:a33936216", "current_trial": 45, "dateTime": 1693566172590, "trialdata": {"revealed_states": [], "clicked_states": ["27", "28", "26", "31", "32", "33", "30"], "num_clicks_accrued": [0, 0, 0, 0, 0, 0, 0, 0, 0, 0, 0, 0, 0], "stateRewards": ["", -2, -3, 4, 1, 33, -53, 15, 9, -12, 61, -6, -2, 4, 6, -11, 47, -43, -7, -11, 46, 23, -28, -1, -1, 3, -10, 11, 76, -76, 10, 18, -38, 87], "withholdReward": false, "trial_id": "mdp_trial_37", "block": "test", "trialIndex": 38, "score": 88.2, "costs": -9.8, "simulationMode": [null, null, null, null, null], "rewards": [-1, -1, 3, 10, 87], "path": ["0", "0", "23", "24", "25", "30", "33"], "rt": [17843, 85, 158, 115, 90], "actions": ["left", "left", "left", "down", "left"], "actionTimes": [21193, 21784, 22441, 23064, 23656], "queries": {"click": {"state": {"target": ["27", "28", "26", "31", "32", "33", "30"], "time": [4887, 6790, 9262, 12180, 14141, 16084, 18654]}, "edge": {"target": [], "time": []}}, "mouseover": {"state": {"target": ["0", "0", "0", "23", "28", "26", "27", "28", "26", "26", "29", "26", "25", "30", "25", "31", "31", "32", "30", "33", "30", "22", "19", "19", "22", "24", "30"], "time": [3450, 3665, 3824, 4015, 4583, 4615, 4717, 5132, 7065, 7932, 8216, 9100, 9449, 9532, 9782, 11800, 11918, 13934, 14349, 14532, 16432, 17032, 17098, 18049, 18081, 18320, 18499]}, "edge": {"target": [], "time": []}}, "mouseout": {"state": {"target": ["13", "22", "22", "0", "0", "0", "23", "28", "26", "27", "27", "28", "26", "26", "29", "26", "25", "30", "25", "31", "31", "31", "32", "30", "33", "30", "22", "19", "19", "22", "24", "30"], "time": [751, 984, 1818, 3567, 3699, 3950, 4468, 4599, 4648, 4945, 5082, 7032, 7115, 7999, 9049, 9432, 9482, 9699, 11733, 11816, 12216, 12432, 14209, 14365, 16415, 16465, 17065, 17132, 18066, 18133, 18416, 18705]}, "edge": {"target": [], "time": []}}}, "displayed_time": "24.15", "trialTime": 26058, "trial_type": "mouselab-mdp", "trial_index": 45, "time_elapsed": 1472894, "internal_node_id": "0.0-6.0-1.0-36.0"}}, {"uniqueid": "w62562993:a33936216", "current_trial": 46, "dateTime": 1693566199854, "trialdata": {"revealed_states": [], "clicked_states": ["20", "21", "22", "19", "18", "16", "17", "15"], "num_clicks_accrued": [0, 0, 0, 0, 0, 0, 0, 0, 0, 0, 0, 0, 0], "stateRewards": ["", -1, 1, 8, -8, -49, 62, -78, 16, 28, -81, 78, -2, -3, -1, -4, 67, 49, -2, -13, -16, -39, 83, 1, -4, 4, -5, -20, 7, 84, 7, -32, -59, 19], "withholdReward": false, "trial_id": "mdp_trial_38", "block": "test", "trialIndex": 39, "score": 52.8, "costs": -11.200000000000001, "simulationMode": [null, null, null, null, null], "rewards": [-2, -3, -1, -13, 83], "path": ["0", "0", "12", "13", "14", "19", "22"], "rt": [19408, 47, 282, 1467, 107], "actions": ["right", "right", "right", "down", "left"], "actionTimes": [21108, 21648, 22449, 24418, 25041], "queries": {"click": {"state": {"target": ["20", "21", "22", "19", "18", "16", "17", "15"], "time": [2898, 4876, 6939, 9904, 12464, 14309, 16189, 18437]}, "edge": {"target": [], "time": []}}, "mouseover": {"state": {"target": ["23", "23", "13", "19", "20", "21", "22", "31", "19", "17", "15", "18", "16", "17", "15", "14"], "time": [1904, 2233, 2501, 2567, 2736, 4669, 5183, 7350, 9603, 10200, 10966, 12316, 12700, 14750, 17200, 19750]}, "edge": {"target": [], "time": []}}, "mouseout": {"state": {"target": ["23", "12", "13", "12", "0", "23", "23", "13", "19", "20", "21", "22", "31", "22", "22", "19", "17", "15", "18", "16", "17", "17", "15"], "time": [767, 868, 1152, 1368, 1888, 1967, 2283, 2516, 2618, 3016, 5083, 7200, 8933, 9166, 9300, 10133, 10217, 12052, 12513, 14466, 16258, 16654, 18883]}, "edge": {"target": [], "time": []}}}, "displayed_time": "25.55", "trialTime": 27105, "trial_type": "mouselab-mdp", "trial_index": 46, "time_elapsed": 1500158, "internal_node_id": "0.0-6.0-1.0-37.0"}}, {"uniqueid": "w62562993:a33936216", "current_trial": 47, "dateTime": 1693566220558, "trialdata": {"revealed_states": [], "clicked_states": ["27", "29", "28", "33", "30"], "num_clicks_accrued": [0, 0, 0, 0, 0, 0, 0, 0, 0, 0, 0, 0, 0], "stateRewards": ["", -1, -4, -1, -5, -28, -23, -15, -15, -38, 59, -87, 2, 2, -5, 9, -55, -39, -71, -6, 85, -85, -11, -1, -2, 5, -10, 1, 25, 41, -4, 69, -35, 86], "withholdReward": false, "trial_id": "mdp_trial_39", "block": "test", "trialIndex": 40, "score": 77, "costs": -7, "simulationMode": [null, null, null, null, null], "rewards": [-1, -2, 5, -4, 86], "path": ["0", "0", "23", "24", "25", "30", "33"], "rt": [13394, 150, 267, 492, 100], "actions": ["left", "left", "left", "down", "left"], "actionTimes": [14883, 15552, 16336, 17328, 17936], "queries": {"click": {"state": {"target": ["27", "29", "28", "33", "30"], "time": [2788, 4689, 6652, 9366, 11854]}, "edge": {"target": [], "time": []}}, "mouseover": {"state": {"target": ["0", "23", "23", "24", "25", "26", "27", "26", "29", "26", "28", "25", "33", "25", "26", "33", "32", "30"], "time": [1619, 1652, 2151, 2303, 2385, 2469, 2702, 3068, 3301, 4901, 5118, 6951, 7535, 8669, 8804, 9184, 9651, 11651]}, "edge": {"target": [], "time": []}}, "mouseout": {"state": {"target": ["14", "12", "23", "23", "0", "0", "23", "23", "24", "25", "26", "27", "26", "29", "26", "28", "25", "33", "25", "26", "33", "32", "30", "30", "30"], "time": [668, 702, 717, 1235, 1335, 1636, 1668, 2228, 2352, 2452, 2519, 3018, 3251, 4755, 4968, 6885, 7034, 8635, 8701, 9070, 9551, 11621, 11905, 12068, 14191]}, "edge": {"target": [], "time": []}}}, "displayed_time": "18.44", "trialTime": 20544, "trial_type": "mouselab-mdp", "trial_index": 47, "time_elapsed": 1520862, "internal_node_id": "0.0-6.0-1.0-38.0"}}, {"uniqueid": "w62562993:a33936216", "current_trial": 48, "dateTime": 1693566269899, "trialdata": {"revealed_states": [], "clicked_states": ["29", "27", "28", "11", "9", "10", "8", "5", "6", "7", "16", "17", "18", "20", "21", "22", "19"], "num_clicks_accrued": [0, 0, 0, 0, 0, 0, 0, 0, 0, 0, 0, 0, 0], "stateRewards": ["", -1, -3, -3, 1, -38, 2, -53, -2, -1, -81, 70, -1, 1, -5, -9, 46, 15, 35, -1, -22, 38, 59, -2, 4, -8, 13, 1, -83, -43, 4, 76, 13, 48], "withholdReward": false, "trial_id": "mdp_trial_40", "block": "test", "trialIndex": 41, "score": 37.2, "costs": -23.799999999999994, "simulationMode": [null, null, null, null, null], "rewards": [-1, -3, -3, -2, 70], "path": ["0", "0", "1", "2", "3", "8", "11"], "rt": [39671, 94, 6, 337, 15], "actions": ["up", "up", "up", "left", "left"], "actionTimes": [42783, 43376, 43887, 44752, 45263], "queries": {"click": {"state": {"target": ["29", "27", "28", "11", "9", "10", "8", "5", "6", "7", "16", "17", "18", "20", "21", "22", "19"], "time": [4224, 6092, 8131, 10266, 12733, 16354, 18303, 20995, 22852, 24866, 26731, 28542, 30614, 32666, 34522, 36874, 40322]}, "edge": {"target": [], "time": []}}, "mouseover": {"state": {"target": ["23", "31", "25", "26", "29", "27", "28", "8", "11", "9", "8", "10", "8", "8", "3", "4", "6", "5", "6", "7", "16", "17", "15", "18", "14", "20", "21", "22", "19"], "time": [3430, 3480, 3582, 3698, 4080, 5164, 6381, 9080, 10064, 12098, 14848, 16115, 16630, 18114, 19780, 20164, 20580, 20881, 21214, 23263, 25464, 26980, 28763, 28980, 31830, 32113, 33496, 34947, 39983]}, "edge": {"target": [], "time": []}}, "mouseout": {"state": {"target": ["24", "23", "0", "0", "23", "31", "25", "26", "29", "27", "28", "8", "11", "9", "8", "10", "8", "8", "3", "4", "6", "5", "6", "6", "7", "16", "17", "15", "18", "14", "20", "20", "21", "22", "22", "19"], "time": [2130, 2164, 2180, 2681, 3447, 3531, 3631, 3764, 4581, 6281, 8414, 9214, 10328, 13897, 15698, 16382, 17630, 19764, 19814, 20214, 20749, 21130, 22888, 23080, 25147, 26913, 28549, 28930, 30997, 31880, 32720, 32930, 34613, 37813, 39968, 40980]}, "edge": {"target": [], "time": []}}}, "displayed_time": "45.77", "trialTime": 49183, "trial_type": "mouselab-mdp", "trial_index": 48, "time_elapsed": 1570204, "internal_node_id": "0.0-6.0-1.0-39.0"}}, {"uniqueid": "w62562993:a33936216", "current_trial": 49, "dateTime": 1693566330234, "trialdata": {"rt": 60330, "response": {"Q0": "$-2 to $2", "Q1": "$-16 to $16", "Q2": "$-88 to $88", "Q3": "The cost was always $1.4.", "Q4": "Very motivated"}, "question_order": [0, 1, 2, 3, 4], "trial_id": "final_quiz_control", "trial_type": "survey-multi-choice", "trial_index": 49, "time_elapsed": 1630539, "internal_node_id": "0.0-6.0-2.0"}}, {"uniqueid": "w62562993:a33936216", "current_trial": 50, "dateTime": 1693566652747, "trialdata": {"rt": 322505, "response": {"Q0": "I attempted to find the highest value in the last node. I then checked if the 4th node contributed or deducted. If it detected I would look at different branches and do the same.", "Q1": "Yes I initially clicked on almost all nodes to get a sense of how the game works. I quickly figured out that the highest values were in the fith position and then followed the strategy described in the previous question.", "Q2": "Initially it was easy but felt that luck had a big influence on how quickly you could find the highest value "}, "trial_id": "self_report_control", "trial_type": "survey-text", "trial_index": 50, "time_elapsed": 1953051, "internal_node_id": "0.0-6.0-3.0"}}, {"uniqueid": "w62562993:a33936216", "current_trial": 51, "dateTime": 1693566680475, "trialdata": {"rt": 27725, "response": {"gender": "male", "age": "27", "colorblind": "0", "effort": "0"}, "trial_type": "survey-html-form", "trial_index": 51, "time_elapsed": 1980780, "internal_node_id": "0.0-6.0-4.0"}}, {"uniqueid": "w62562993:a33936216", "current_trial": 52, "dateTime": 1693566831556, "trialdata": {"rt": 151075, "response": {"Q0": "The initial explanation sounded complicated, but the game itself was simple  ", "Q1": "It looked somewhat familiar, but would not bet my life on it that I have played it before.", "Q2": "I sneezed during round 21 and my 3 seconds ran out to view the nodes so I just guessed."}, "trial_type": "survey-text", "trial_index": 52, "time_elapsed": 2131861, "internal_node_id": "0.0-6.0-5.0"}}, {"uniqueid": "w62562993:a33936216", "current_trial": 53, "dateTime": 1693566837093, "trialdata": {"rt": 5533, "stimulus": "<h1>Completion Code Instructions (1/2)</h1>\n<br><br><br><br>\nYou have reached the end of the experiment! The completion code consists of two parts: (1) a code with 2 characters (2) a code with 6 characters. On this page, you will receive the second part of the code. The first part of the completion code will be on the next page.\n<br><br>\nThe second part of your completion code is: <b>EWEK22</b>\n<br><br>\nPlease note this down. Then, press 'Finish HIT' in order to find the first part of your completion code. Once the data has been saved, you will receive this code either in this window or in the original browser window where you started the experiment.\n", "response": 0, "trial_type": "html-button-response", "trial_index": 53, "time_elapsed": 2137398, "internal_node_id": "0.0-6.0-6.0"}}, {"uniqueid": "w62562993:a33936216", "current_trial": 54, "dateTime": 1693566838096, "trialdata": {"success": true, "trial_type": "fullscreen", "trial_index": 54, "time_elapsed": 2138401, "internal_node_id": "0.0-7.0"}}], "questiondata": {"params": {"CODE": "C6DMOQA6", "MIN_TIME": 14, "inspectCost": 1, "startTime": "Fri Sep 01 2023 12:38:18 GMT+0200 (South Africa Standard Time)", "bonusRate": 0.002, "variance": "1_2_4_8_44", "branching": "31123"}, "final_score": 2347.6}, "eventdata": [{"eventtype": "initialized", "value": null, "timestamp": 1693564697983, "interval": 0}, {"eventtype": "window_resize", "value": [1920, 982], "timestamp": 1693564697983, "interval": 0}, {"eventtype": "window_resize", "value": [1920, 982], "timestamp": 1693564698384, "interval": 401}, {"eventtype": "window_resize", "value": [1920, 1080], "timestamp": 1693564701390, "interval": 3006}, {"eventtype": "window_resize", "value": [1920, 982], "timestamp": 1693566837316, "interval": 2135926}], "useragent": "Mozilla/5.0 (Windows NT 10.0; Win64; x64) AppleWebKit/537.36 (KHTML, like Gecko) Chrome/116.0.0.0 Safari/537.36", "mode": "live", "id": "w62562993:a33936216", "status": "user data saved", "Beginhit": "2023-09-01 10:38:16.144441", "Beginexp": "2023-09-01 10:38:22.221942", "Endhit": "2023-09-01 11:13:58.903417", "psiturkStatus": 3, "browser": "<redacted>", "platform": "windows", "language": "en-US"}