{"condition": 1, "counterbalance": 0, "assignmentId": "a38788309", "workerId": "w11177063", "hitId": "h50554374", "currenttrial": 56, "bonus": 0, "data": [{"uniqueid": "w11177063:a38788309", "current_trial": 0, "dateTime": 1693579824307, "trialdata": {"success": true, "trial_type": "fullscreen", "trial_index": 0, "time_elapsed": 8475, "internal_node_id": "0.0-0.0"}}, {"uniqueid": "w11177063:a38788309", "current_trial": 1, "dateTime": 1693579855938, "trialdata": {"view_history": [{"page_index": 0, "viewing_time": 31585}], "rt": 31595, "trial_id": "exp_instructions_misaligned", "trial_type": "instructions", "trial_index": 1, "time_elapsed": 40111, "internal_node_id": "0.0-1.0"}}, {"uniqueid": "w11177063:a38788309", "current_trial": 2, "dateTime": 1693580301152, "trialdata": {"view_history": [{"page_index": 0, "viewing_time": 122277}, {"page_index": 1, "viewing_time": 156448}, {"page_index": 2, "viewing_time": 83819}, {"page_index": 3, "viewing_time": 82645}], "rt": 445191, "trial_id": "mouselab_instructions_1_misaligned", "trial_type": "instructions", "trial_index": 2, "time_elapsed": 485325, "internal_node_id": "0.0-2.0-1.0"}}, {"uniqueid": "w11177063:a38788309", "current_trial": 3, "dateTime": 1693580333526, "trialdata": {"revealed_states": [], "clicked_states": ["23", "24"], "num_clicks_accrued": [0, 0, 0, 0, 0, 0, 0, 0, 0, 0, 0, 0, 0], "stateRewards": ["", -10, 10, -10, -10, -10, -10, -10, 10, 10, 10, -10, 10, -10, 10, -10, -10, 10, 10, -10, 10, 10, 10, -10, -10, -10, 10, -10, -10, -10, -10, -10, -10, 10], "withholdReward": false, "trial_id": "practice_1", "block": "test", "trialIndex": 0, "score": -27.5, "costs": -1, "simulationMode": [null, null, null, null, null], "rewards": [-10, -10, -10, 10, -10], "path": ["0", "0", "23", "24", "25", "26", "27"], "rt": [12481, 303, 366, 4783, 936], "actions": ["left", "left", "left", "up", "up"], "actionTimes": [18035, 18887, 19775, 25129, 26631], "queries": {"click": {"state": {"target": ["23", "24"], "time": [12560, 15835]}, "edge": {"target": [], "time": []}}, "mouseover": {"state": {"target": ["23", "23", "24"], "time": [11549, 11994, 15235]}, "edge": {"target": [], "time": []}}, "mouseout": {"state": {"target": ["13", "18", "23", "23", "23", "24", "25", "25"], "time": [1769, 2506, 11717, 12717, 14993, 21391, 21549, 21783]}, "edge": {"target": [], "time": []}}}, "displayed_time": "27.15", "trialTime": 30355, "trial_type": "mouselab-mdp", "trial_index": 3, "time_elapsed": 517693, "internal_node_id": "0.0-2.0-2.0-0.0"}}, {"uniqueid": "w11177063:a38788309", "current_trial": 4, "dateTime": 1693580350285, "trialdata": {"revealed_states": [], "clicked_states": [], "num_clicks_accrued": [0, 0, 0, 0, 0, 0, 0, 0, 0, 0, 0, 0, 0], "stateRewards": ["", -10, -10, 10, 10, 10, 10, 10, -10, 10, -10, 10, -10, 10, -10, 10, -10, 10, 10, 10, -10, -10, -10, -10, 10, -10, 10, -10, 10, 10, -10, -10, -10, 10], "withholdReward": false, "trial_id": "practice_2", "block": "test", "trialIndex": 1, "score": -6.5, "costs": 0, "simulationMode": [null, null, null, null, null], "rewards": [-10, 10, -10, 10, -10], "path": ["0", "0", "12", "13", "14", "15", "16"], "rt": [1625, 2490, 573, 478, 419], "actions": ["right", "right", "right", "up", "up"], "actionTimes": [6066, 9091, 10247, 11280, 12260], "queries": {"click": {"state": {"target": [], "time": []}, "edge": {"target": [], "time": []}}, "mouseover": {"state": {"target": [], "time": []}, "edge": {"target": [], "time": []}}, "mouseout": {"state": {"target": ["25", "12", "0", "0", "12", "12"], "time": [1875, 2234, 2582, 7212, 7357, 7801]}, "edge": {"target": [], "time": []}}}, "displayed_time": "12.81", "trialTime": 15482, "trial_type": "mouselab-mdp", "trial_index": 4, "time_elapsed": 534452, "internal_node_id": "0.0-2.0-2.0-1.0"}}, {"uniqueid": "w11177063:a38788309", "current_trial": 5, "dateTime": 1693580462631, "trialdata": {"view_history": [{"page_index": 0, "viewing_time": 94413}, {"page_index": 1, "viewing_time": 17905}], "rt": 112320, "trial_id": "mouselab_instructions_2_misaligned", "trial_type": "instructions", "trial_index": 5, "time_elapsed": 646804, "internal_node_id": "0.0-2.0-3.0"}}, {"uniqueid": "w11177063:a38788309", "current_trial": 6, "dateTime": 1693580535967, "trialdata": {"rt": 73318, "response": {"Q0": "The cost for clicking on nodes may vary between nodes.", "Q1": "The better I perform the higher my bonus will be.", "Q2": "No, the amount of cash at each node of the web may be different each time.", "Q3": "To get the highest total score.", "Q4": "Only before moving the spider.", "Q5": "3 seconds"}, "question_order": [0, 1, 2, 3, 4, 5], "correct": {"Q0": "The cost for clicking on nodes may vary between nodes.", "Q1": "The better I perform the higher my bonus will be.", "Q2": "No, the amount of cash at each node of the web may be different each time.", "Q3": "To get the highest total score.", "Q4": "Only before moving the spider.", "Q5": "3 seconds"}, "trial_id": "mouselab_quiz_misaligned", "trial_type": "survey-multi-choice", "trial_index": 6, "time_elapsed": 720140, "internal_node_id": "0.0-2.0-4.0"}}, {"uniqueid": "w11177063:a38788309", "current_trial": 7, "dateTime": 1693580550372, "trialdata": {"rt": 14360, "response": {"Q0": "No"}, "question_order": [0], "trial_id": "repeat_check", "trial_type": "survey-multi-choice", "trial_index": 7, "time_elapsed": 734541, "internal_node_id": "0.0-4.0-0.0"}}, {"uniqueid": "w11177063:a38788309", "current_trial": 8, "dateTime": 1693580573474, "trialdata": {"rt": 23065, "stimulus": "\n<h1> Get ready to start the game! </h1>\n\nThank you for reading the instructions. Get ready start with the 40 rounds of this game.\n<br><br>\nIf you need to take a break, feel free to take one after the end of a round, before continuing to the next one.\n<br><br>\nRemember, the more money the spider gets, the bigger your bonus will be!\n<br><br>\n<div style='text-align: center;'>Press <code>space</code> to begin.</div>\n\n<br><br>\n(If, at any point, the <code>space</code> key does not take you to the next page, click once on the text and try again.)", "response": " ", "trial_id": "mdp_ready", "trial_type": "html-keyboard-response", "trial_index": 8, "time_elapsed": 757647, "internal_node_id": "0.0-6.0-0.0"}}, {"uniqueid": "w11177063:a38788309", "current_trial": 9, "dateTime": 1693580626874, "trialdata": {"revealed_states": [], "clicked_states": ["23", "24", "25", "30", "32"], "num_clicks_accrued": [0, 0, 0, 0, 0, 0, 0, 0, 0, 0, 0, 0, 0], "stateRewards": ["", 2, -3, -2, 14, -4, 85, 46, 15, -28, 41, 31, -1, -1, -1, 5, 62, 79, 57, 12, -73, -64, 86, -1, 1, -3, -5, 68, 11, -32, 8, -80, -21, -56], "withholdReward": false, "trial_id": "mdp_trial_1", "block": "test", "trialIndex": 2, "score": -44.75, "costs": -4.75, "simulationMode": [null, null, null, null, null], "rewards": [-1, 1, -3, -5, -32], "path": ["0", "0", "23", "24", "25", "26", "29"], "rt": [27681, 694, 460, 366, 7145], "actions": ["left", "left", "left", "up", "left"], "actionTimes": [31205, 32445, 33465, 34387, 42052], "queries": {"click": {"state": {"target": ["23", "24", "25", "30", "32"], "time": [6437, 9022, 11533, 13365, 15161]}, "edge": {"target": [], "time": []}}, "mouseover": {"state": {"target": ["23", "24", "25", "30", "32", "23", "0", "0"], "time": [5441, 8368, 10826, 12907, 14818, 19938, 24801, 25200]}, "edge": {"target": [], "time": []}}, "mouseout": {"state": {"target": ["13", "0", "23", "24", "25", "30", "32", "30", "23", "0", "0", "0", "28", "26", "27"], "time": [1676, 5185, 8138, 10691, 12768, 14680, 15352, 19744, 24746, 24956, 25268, 36835, 37146, 48164, 49101]}, "edge": {"target": [], "time": []}}}, "displayed_time": "42.59", "trialTime": 52116, "trial_type": "mouselab-mdp", "trial_index": 9, "time_elapsed": 811044, "internal_node_id": "0.0-6.0-1.0-0.0"}}, {"uniqueid": "w11177063:a38788309", "current_trial": 10, "dateTime": 1693580653177, "trialdata": {"revealed_states": [], "clicked_states": [], "num_clicks_accrued": [0, 0, 0, 0, 0, 0, 0, 0, 0, 0, 0, 0, 0], "stateRewards": ["", -2, 2, -2, -7, -50, -62, -45, 7, 36, -24, -72, -1, -1, 8, -1, -67, 20, -52, 2, 35, -50, 80, -1, 1, 6, -6, -70, 6, 88, 8, -47, 74, -19], "withholdReward": false, "trial_id": "mdp_trial_2", "block": "test", "trialIndex": 3, "score": -62, "costs": 0, "simulationMode": [null, null, null, null, null], "rewards": [-1, -1, 8, -1, -67], "path": ["0", "0", "12", "13", "14", "15", "16"], "rt": [1721, 7129, 405, 254, 434], "actions": ["right", "right", "right", "up", "up"], "actionTimes": [6164, 13876, 14826, 15662, 16645], "queries": {"click": {"state": {"target": [], "time": []}, "edge": {"target": [], "time": []}}, "mouseover": {"state": {"target": [], "time": []}, "edge": {"target": [], "time": []}}, "mouseout": {"state": {"target": ["29", "0", "12", "13", "12"], "time": [2033, 7968, 8129, 12970, 13186]}, "edge": {"target": [], "time": []}}}, "displayed_time": "18.45", "trialTime": 24835, "trial_type": "mouselab-mdp", "trial_index": 10, "time_elapsed": 837346, "internal_node_id": "0.0-6.0-1.0-1.0"}}, {"uniqueid": "w11177063:a38788309", "current_trial": 11, "dateTime": 1693580677158, "trialdata": {"revealed_states": [], "clicked_states": [], "num_clicks_accrued": [0, 0, 0, 0, 0, 0, 0, 0, 0, 0, 0, 0, 0], "stateRewards": ["", 2, -3, 5, -14, -63, -9, -24, -11, -54, -43, 68, 2, -2, -4, 7, -64, 30, 47, 12, -74, 11, 86, 1, -3, 3, 10, -71, -42, -52, -1, -29, -16, 69], "withholdReward": false, "trial_id": "mdp_trial_3", "block": "test", "trialIndex": 4, "score": -19, "costs": 0, "simulationMode": [null, null, null, null, null], "rewards": [2, -3, 5, -14, -9], "path": ["0", "0", "1", "2", "3", "4", "6"], "rt": [2004, 1280, 663, 1881, 511], "actions": ["up", "up", "up", "right", "right"], "actionTimes": [5366, 7203, 8427, 10859, 11919], "queries": {"click": {"state": {"target": [], "time": []}, "edge": {"target": [], "time": []}}, "mouseover": {"state": {"target": [], "time": []}, "edge": {"target": [], "time": []}}, "mouseout": {"state": {"target": ["12"], "time": [1346]}, "edge": {"target": [], "time": []}}}, "displayed_time": "17.37", "trialTime": 22464, "trial_type": "mouselab-mdp", "trial_index": 11, "time_elapsed": 861326, "internal_node_id": "0.0-6.0-1.0-2.0"}}, {"uniqueid": "w11177063:a38788309", "current_trial": 12, "dateTime": 1693580700398, "trialdata": {"revealed_states": [], "clicked_states": [], "num_clicks_accrued": [0, 0, 0, 0, 0, 0, 0, 0, 0, 0, 0, 0, 0], "stateRewards": ["", 1, -4, 6, -3, 40, 76, -51, 5, -24, -63, 44, -2, -2, 8, 1, 76, -85, -58, 10, 59, 20, 11, -2, 3, -3, 3, -82, -10, 54, -7, -57, -6, -32], "withholdReward": false, "trial_id": "mdp_trial_4", "block": "test", "trialIndex": 5, "score": 52, "costs": 0, "simulationMode": [null, null, null, null, null], "rewards": [1, -4, 6, 5, 44], "path": ["0", "0", "1", "2", "3", "8", "11"], "rt": [5240, 889, 550, 422, 758], "actions": ["up", "up", "up", "left", "left"], "actionTimes": [9515, 10931, 12017, 12998, 14307], "queries": {"click": {"state": {"target": [], "time": []}, "edge": {"target": [], "time": []}}, "mouseover": {"state": {"target": ["0"], "time": [7812]}, "edge": {"target": [], "time": []}}, "mouseout": {"state": {"target": ["0", "0", "0", "28"], "time": [1533, 7533, 15806, 15963]}, "edge": {"target": [], "time": []}}}, "displayed_time": "18.27", "trialTime": 21629, "trial_type": "mouselab-mdp", "trial_index": 12, "time_elapsed": 884566, "internal_node_id": "0.0-6.0-1.0-3.0"}}, {"uniqueid": "w11177063:a38788309", "current_trial": 13, "dateTime": 1693580725227, "trialdata": {"revealed_states": [], "clicked_states": [], "num_clicks_accrued": [0, 0, 0, 0, 0, 0, 0, 0, 0, 0, 0, 0, 0], "stateRewards": ["", 2, 4, 4, 9, -88, -10, 44, 16, -54, 64, 78, 1, 2, 5, 16, 80, 36, 7, -4, 9, -47, -70, -1, -3, 6, -16, 11, 80, 28, 8, -1, 34, -17], "withholdReward": false, "trial_id": "mdp_trial_5", "block": "test", "trialIndex": 6, "score": 90, "costs": 0, "simulationMode": [null, null, null, null, null], "rewards": [2, 4, 4, 16, 64], "path": ["0", "0", "1", "2", "3", "8", "10"], "rt": [5055, 1282, 481, 604, 388], "actions": ["up", "up", "up", "left", "down"], "actionTimes": [8881, 10705, 11738, 12924, 13865], "queries": {"click": {"state": {"target": [], "time": []}, "edge": {"target": [], "time": []}}, "mouseover": {"state": {"target": [], "time": []}, "edge": {"target": [], "time": []}}, "mouseout": {"state": {"target": ["11"], "time": [1736]}, "edge": {"target": [], "time": []}}}, "displayed_time": "17.82", "trialTime": 23261, "trial_type": "mouselab-mdp", "trial_index": 13, "time_elapsed": 909395, "internal_node_id": "0.0-6.0-1.0-4.0"}}, {"uniqueid": "w11177063:a38788309", "current_trial": 14, "dateTime": 1693580746193, "trialdata": {"revealed_states": [], "clicked_states": [], "num_clicks_accrued": [0, 0, 0, 0, 0, 0, 0, 0, 0, 0, 0, 0, 0], "stateRewards": ["", -1, -3, -7, -7, -76, 30, -49, 11, -70, 56, 2, 1, 4, -3, -14, -59, -83, -25, -9, -21, -67, -73, -2, 4, 4, -9, -11, -32, 60, 9, -87, 22, -64], "withholdReward": false, "trial_id": "mdp_trial_6", "block": "test", "trialIndex": 7, "score": 56, "costs": 0, "simulationMode": [null, null, null, null, null], "rewards": [-1, -3, -7, 11, 56], "path": ["0", "0", "1", "2", "3", "8", "10"], "rt": [1171, 490, 637, 534, 281], "actions": ["up", "up", "up", "left", "down"], "actionTimes": [3567, 4604, 5775, 6839, 7659], "queries": {"click": {"state": {"target": [], "time": []}, "edge": {"target": [], "time": []}}, "mouseover": {"state": {"target": [], "time": []}, "edge": {"target": [], "time": []}}, "mouseout": {"state": {"target": ["0"], "time": [1331]}, "edge": {"target": [], "time": []}}}, "displayed_time": "16.40", "trialTime": 19237, "trial_type": "mouselab-mdp", "trial_index": 14, "time_elapsed": 930360, "internal_node_id": "0.0-6.0-1.0-5.0"}}, {"uniqueid": "w11177063:a38788309", "current_trial": 15, "dateTime": 1693580770596, "trialdata": {"revealed_states": [], "clicked_states": [], "num_clicks_accrued": [0, 0, 0, 0, 0, 0, 0, 0, 0, 0, 0, 0, 0], "stateRewards": ["", 2, 3, 8, 11, 25, -80, 6, -4, -56, 84, -23, -2, -4, -3, 4, -51, -9, -61, -15, -64, 67, -35, 1, -1, -7, -6, 83, 59, -15, 12, -79, 56, 41], "withholdReward": false, "trial_id": "mdp_trial_7", "block": "test", "trialIndex": 8, "score": 30, "costs": 0, "simulationMode": [null, null, null, null, null], "rewards": [2, 3, 8, 11, 6], "path": ["0", "0", "1", "2", "3", "4", "7"], "rt": [2826, 211, 479, 110, 620], "actions": ["up", "up", "up", "right", "down"], "actionTimes": [4996, 5740, 6744, 7405, 8583], "queries": {"click": {"state": {"target": [], "time": []}, "edge": {"target": [], "time": []}}, "mouseover": {"state": {"target": ["0", "0"], "time": [2354, 2972]}, "edge": {"target": [], "time": []}}, "mouseout": {"state": {"target": ["0", "0", "0", "0", "0", "23"], "time": [1089, 2440, 3016, 10134, 21699, 21826]}, "edge": {"target": [], "time": []}}}, "displayed_time": "16.18", "trialTime": 22619, "trial_type": "mouselab-mdp", "trial_index": 15, "time_elapsed": 954763, "internal_node_id": "0.0-6.0-1.0-6.0"}}, {"uniqueid": "w11177063:a38788309", "current_trial": 16, "dateTime": 1693580792619, "trialdata": {"revealed_states": [], "clicked_states": [], "num_clicks_accrued": [0, 0, 0, 0, 0, 0, 0, 0, 0, 0, 0, 0, 0], "stateRewards": ["", 1, -1, 1, 13, 31, -56, 72, 2, 41, 5, 63, -2, -3, -2, 3, -71, -26, 52, 13, -31, 24, -67, 2, -2, 5, 4, 66, 43, 72, 9, 86, -26, 44], "withholdReward": false, "trial_id": "mdp_trial_8", "block": "test", "trialIndex": 9, "score": -42, "costs": 0, "simulationMode": [null, null, null, null, null], "rewards": [1, -1, 1, 13, -56], "path": ["0", "0", "1", "2", "3", "4", "6"], "rt": [1305, 219, 137, 271, 517], "actions": ["up", "up", "up", "right", "right"], "actionTimes": [4592, 5359, 6047, 6899, 7947], "queries": {"click": {"state": {"target": [], "time": []}, "edge": {"target": [], "time": []}}, "mouseover": {"state": {"target": [], "time": []}, "edge": {"target": [], "time": []}}, "mouseout": {"state": {"target": [], "time": []}, "edge": {"target": [], "time": []}}}, "displayed_time": "17.29", "trialTime": 20374, "trial_type": "mouselab-mdp", "trial_index": 16, "time_elapsed": 976790, "internal_node_id": "0.0-6.0-1.0-7.0"}}, {"uniqueid": "w11177063:a38788309", "current_trial": 17, "dateTime": 1693580812804, "trialdata": {"revealed_states": [], "clicked_states": [], "num_clicks_accrued": [0, 0, 0, 0, 0, 0, 0, 0, 0, 0, 0, 0, 0], "stateRewards": ["", -2, 4, -5, -12, 85, -24, -18, -15, -78, -22, 26, -1, -1, 2, 14, -45, 52, -23, 7, -33, 24, -6, -2, -4, 5, -7, -16, 36, -39, 5, 71, -87, -23], "withholdReward": false, "trial_id": "mdp_trial_9", "block": "test", "trialIndex": 10, "score": -33, "costs": 0, "simulationMode": [null, null, null, null, null], "rewards": [-2, 4, -5, -12, -18], "path": ["0", "0", "1", "2", "3", "4", "7"], "rt": [749, 6, 193, 67, 155], "actions": ["up", "up", "up", "right", "down"], "actionTimes": [2885, 3443, 4214, 4815, 5531], "queries": {"click": {"state": {"target": [], "time": []}, "edge": {"target": [], "time": []}}, "mouseover": {"state": {"target": [], "time": []}, "edge": {"target": [], "time": []}}, "mouseout": {"state": {"target": [], "time": []}, "edge": {"target": [], "time": []}}}, "displayed_time": "16.14", "trialTime": 18539, "trial_type": "mouselab-mdp", "trial_index": 17, "time_elapsed": 996974, "internal_node_id": "0.0-6.0-1.0-8.0"}}, {"uniqueid": "w11177063:a38788309", "current_trial": 18, "dateTime": 1693580833214, "trialdata": {"revealed_states": [], "clicked_states": [], "num_clicks_accrued": [0, 0, 0, 0, 0, 0, 0, 0, 0, 0, 0, 0, 0], "stateRewards": ["", 1, -3, -4, -11, -56, 61, -47, -16, -28, -9, 69, -2, -3, -4, -8, 40, -86, 59, -4, 80, 27, 54, -1, 3, -1, 8, 67, 23, 50, 6, 83, -43, -29], "withholdReward": false, "trial_id": "mdp_trial_10", "block": "test", "trialIndex": 11, "score": -103, "costs": 0, "simulationMode": [null, null, null, null, null], "rewards": [-2, -3, -4, -8, -86], "path": ["0", "0", "12", "13", "14", "15", "17"], "rt": [1348, 239, 309, 177, 448], "actions": ["right", "right", "right", "up", "right"], "actionTimes": [3640, 4445, 5309, 6046, 7050], "queries": {"click": {"state": {"target": [], "time": []}, "edge": {"target": [], "time": []}}, "mouseover": {"state": {"target": [], "time": []}, "edge": {"target": [], "time": []}}, "mouseout": {"state": {"target": [], "time": []}, "edge": {"target": [], "time": []}}}, "displayed_time": "16.30", "trialTime": 18674, "trial_type": "mouselab-mdp", "trial_index": 18, "time_elapsed": 1017383, "internal_node_id": "0.0-6.0-1.0-9.0"}}, {"uniqueid": "w11177063:a38788309", "current_trial": 19, "dateTime": 1693580853464, "trialdata": {"revealed_states": [], "clicked_states": [], "num_clicks_accrued": [0, 0, 0, 0, 0, 0, 0, 0, 0, 0, 0, 0, 0], "stateRewards": ["", -2, 2, 2, -6, 9, 37, 50, -13, -7, -18, -75, -2, -4, 4, 7, 23, -57, -66, -7, -81, -48, -76, 1, 1, -8, 1, 51, -2, 70, 14, 59, 71, -37], "withholdReward": false, "trial_id": "mdp_trial_11", "block": "test", "trialIndex": 12, "score": -57, "costs": 0, "simulationMode": [null, null, null, null, null], "rewards": [-2, -4, 4, -7, -48], "path": ["0", "0", "12", "13", "14", "19", "21"], "rt": [3365, 463, 337, 104, 56], "actions": ["right", "right", "right", "down", "down"], "actionTimes": [5663, 6673, 7559, 8190, 8766], "queries": {"click": {"state": {"target": [], "time": []}, "edge": {"target": [], "time": []}}, "mouseover": {"state": {"target": [], "time": []}, "edge": {"target": [], "time": []}}, "mouseout": {"state": {"target": [], "time": []}, "edge": {"target": [], "time": []}}}, "displayed_time": "16.30", "trialTime": 18424, "trial_type": "mouselab-mdp", "trial_index": 19, "time_elapsed": 1037632, "internal_node_id": "0.0-6.0-1.0-10.0"}}, {"uniqueid": "w11177063:a38788309", "current_trial": 20, "dateTime": 1693580874329, "trialdata": {"revealed_states": [], "clicked_states": [], "num_clicks_accrued": [0, 0, 0, 0, 0, 0, 0, 0, 0, 0, 0, 0, 0], "stateRewards": ["", -2, 4, -7, -3, -76, 39, -28, 10, 14, 12, 60, 2, -3, 6, -10, 88, -34, -41, -3, 72, -13, -56, 1, 3, 2, 8, -51, 23, -57, 1, 14, -46, -16], "withholdReward": false, "trial_id": "mdp_trial_12", "block": "test", "trialIndex": 13, "score": 17, "costs": 0, "simulationMode": [null, null, null, null, null], "rewards": [-2, 4, -7, 10, 12], "path": ["0", "0", "1", "2", "3", "8", "10"], "rt": [2474, 352, 184, 135, 206], "actions": ["up", "up", "up", "left", "down"], "actionTimes": [6432, 7353, 8094, 8774, 9518], "queries": {"click": {"state": {"target": [], "time": []}, "edge": {"target": [], "time": []}}, "mouseover": {"state": {"target": [], "time": []}, "edge": {"target": [], "time": []}}, "mouseout": {"state": {"target": [], "time": []}, "edge": {"target": [], "time": []}}}, "displayed_time": "17.96", "trialTime": 19000, "trial_type": "mouselab-mdp", "trial_index": 20, "time_elapsed": 1058496, "internal_node_id": "0.0-6.0-1.0-11.0"}}, {"uniqueid": "w11177063:a38788309", "current_trial": 21, "dateTime": 1693580894661, "trialdata": {"revealed_states": [], "clicked_states": [], "num_clicks_accrued": [0, 0, 0, 0, 0, 0, 0, 0, 0, 0, 0, 0, 0], "stateRewards": ["", 1, -1, 8, -3, 38, 85, -20, -4, 8, 23, 73, 2, -4, 6, -13, 44, 7, -28, -11, -77, 45, -69, 1, -1, -7, -11, 75, -51, -87, 7, 36, -53, -26], "withholdReward": false, "trial_id": "mdp_trial_13", "block": "test", "trialIndex": 14, "score": 27, "costs": 0, "simulationMode": [null, null, null, null, null], "rewards": [1, -1, 8, -4, 23], "path": ["0", "0", "1", "2", "3", "8", "10"], "rt": [3856, 345, 8, 104, 203], "actions": ["up", "up", "up", "left", "down"], "actionTimes": [6470, 7354, 7943, 8619, 9418], "queries": {"click": {"state": {"target": [], "time": []}, "edge": {"target": [], "time": []}}, "mouseover": {"state": {"target": [], "time": []}, "edge": {"target": [], "time": []}}, "mouseout": {"state": {"target": [], "time": []}, "edge": {"target": [], "time": []}}}, "displayed_time": "16.62", "trialTime": 18576, "trial_type": "mouselab-mdp", "trial_index": 21, "time_elapsed": 1078829, "internal_node_id": "0.0-6.0-1.0-12.0"}}, {"uniqueid": "w11177063:a38788309", "current_trial": 22, "dateTime": 1693580919258, "trialdata": {"revealed_states": [], "clicked_states": [], "num_clicks_accrued": [0, 0, 0, 0, 0, 0, 0, 0, 0, 0, 0, 0, 0], "stateRewards": ["", 1, -2, 7, -14, 88, -56, -44, -14, 64, -51, -57, -2, 3, -4, -9, -11, 19, -77, -1, 68, 75, -67, -1, 1, -2, 5, -37, 70, -34, -10, -72, 63, -41], "withholdReward": false, "trial_id": "mdp_trial_14", "block": "test", "trialIndex": 15, "score": -59, "costs": 0, "simulationMode": [null, null, null, null, null], "rewards": [1, -2, 7, -14, -51], "path": ["0", "0", "1", "2", "3", "8", "10"], "rt": [2782, 99, 67, 442, 51], "actions": ["up", "up", "up", "left", "down"], "actionTimes": [9186, 9846, 10440, 11452, 12022], "queries": {"click": {"state": {"target": [], "time": []}, "edge": {"target": [], "time": []}}, "mouseover": {"state": {"target": [], "time": []}, "edge": {"target": [], "time": []}}, "mouseout": {"state": {"target": [], "time": []}, "edge": {"target": [], "time": []}}}, "displayed_time": "20.41", "trialTime": 22791, "trial_type": "mouselab-mdp", "trial_index": 22, "time_elapsed": 1103425, "internal_node_id": "0.0-6.0-1.0-13.0"}}, {"uniqueid": "w11177063:a38788309", "current_trial": 23, "dateTime": 1693580944932, "trialdata": {"revealed_states": [], "clicked_states": [], "num_clicks_accrued": [0, 0, 0, 0, 0, 0, 0, 0, 0, 0, 0, 0, 0], "stateRewards": ["", 1, 2, 8, -2, 23, -69, -18, -16, 54, -21, 71, -1, -4, 7, 11, 43, -6, 88, 6, -55, 72, 43, 1, -3, -2, -1, 68, -31, -54, 4, -8, 25, -2], "withholdReward": false, "trial_id": "mdp_trial_15", "block": "test", "trialIndex": 16, "score": -36, "costs": 0, "simulationMode": [null, null, null, null, null], "rewards": [1, -3, -2, -1, -31], "path": ["0", "0", "23", "24", "25", "26", "28"], "rt": [3801, 639, 356, 173, 58], "actions": ["left", "left", "left", "up", "right"], "actionTimes": [12466, 13666, 14570, 15287, 15916], "queries": {"click": {"state": {"target": [], "time": []}, "edge": {"target": [], "time": []}}, "mouseover": {"state": {"target": [], "time": []}, "edge": {"target": [], "time": []}}, "mouseout": {"state": {"target": [], "time": []}, "edge": {"target": [], "time": []}}}, "displayed_time": "22.67", "trialTime": 23860, "trial_type": "mouselab-mdp", "trial_index": 23, "time_elapsed": 1129100, "internal_node_id": "0.0-6.0-1.0-14.0"}}, {"uniqueid": "w11177063:a38788309", "current_trial": 24, "dateTime": 1693580966522, "trialdata": {"revealed_states": [], "clicked_states": [], "num_clicks_accrued": [0, 0, 0, 0, 0, 0, 0, 0, 0, 0, 0, 0, 0], "stateRewards": ["", 1, -4, -6, 11, -20, 8, -30, 1, -38, 88, 42, 2, 3, 5, -12, -8, -74, 30, -8, 67, -19, 42, 2, -1, 4, 13, 50, -68, 2, -8, -15, 87, -46], "withholdReward": false, "trial_id": "mdp_trial_16", "block": "test", "trialIndex": 17, "score": -18, "costs": 0, "simulationMode": [null, null, null, null, null], "rewards": [1, -4, -6, 11, -20], "path": ["0", "0", "1", "2", "3", "4", "5"], "rt": [5449, 501, 247, 79, 192], "actions": ["up", "up", "up", "right", "up"], "actionTimes": [7860, 8967, 9778, 10462, 11193], "queries": {"click": {"state": {"target": [], "time": []}, "edge": {"target": [], "time": []}}, "mouseover": {"state": {"target": [], "time": []}, "edge": {"target": [], "time": []}}, "mouseout": {"state": {"target": [], "time": []}, "edge": {"target": [], "time": []}}}, "displayed_time": "16.41", "trialTime": 19676, "trial_type": "mouselab-mdp", "trial_index": 24, "time_elapsed": 1150692, "internal_node_id": "0.0-6.0-1.0-15.0"}}, {"uniqueid": "w11177063:a38788309", "current_trial": 25, "dateTime": 1693580996248, "trialdata": {"revealed_states": [], "clicked_states": [], "num_clicks_accrued": [0, 0, 0, 0, 0, 0, 0, 0, 0, 0, 0, 0, 0], "stateRewards": ["", 2, -3, -8, 14, -7, -51, 73, 2, 36, 36, -43, -1, 3, -4, 1, 6, 87, -65, 15, 61, -42, -83, -1, 3, -2, -7, 30, -48, 35, 13, 26, 60, 78], "withholdReward": false, "trial_id": "mdp_trial_17", "block": "test", "trialIndex": 18, "score": 29, "costs": 0, "simulationMode": [null, null, null, null, null], "rewards": [2, -3, -8, 2, 36], "path": ["0", "0", "1", "2", "3", "8", "9"], "rt": [2113, 535, 92, 94, 41], "actions": ["up", "up", "up", "left", "up"], "actionTimes": [12819, 13914, 14544, 15211, 15816], "queries": {"click": {"state": {"target": [], "time": []}, "edge": {"target": [], "time": []}}, "mouseover": {"state": {"target": [], "time": []}, "edge": {"target": [], "time": []}}, "mouseout": {"state": {"target": [], "time": []}, "edge": {"target": [], "time": []}}}, "displayed_time": "24.72", "trialTime": 27827, "trial_type": "mouselab-mdp", "trial_index": 25, "time_elapsed": 1180418, "internal_node_id": "0.0-6.0-1.0-16.0"}}, {"uniqueid": "w11177063:a38788309", "current_trial": 26, "dateTime": 1693581016286, "trialdata": {"revealed_states": [], "clicked_states": [], "num_clicks_accrued": [0, 0, 0, 0, 0, 0, 0, 0, 0, 0, 0, 0, 0], "stateRewards": ["", -1, 2, -2, 5, 80, -61, -27, 12, 44, -26, -75, -2, -4, 1, -16, 42, -49, -50, 4, -44, 2, 80, -2, -2, 5, -2, 59, 10, 24, 7, -48, -86, -44], "withholdReward": false, "trial_id": "mdp_trial_18", "block": "test", "trialIndex": 19, "score": 55, "costs": 0, "simulationMode": [null, null, null, null, null], "rewards": [-1, 2, -2, 12, 44], "path": ["0", "0", "1", "2", "3", "8", "9"], "rt": [2329, 13, 786, 313, 143], "actions": ["up", "up", "up", "left", "up"], "actionTimes": [4560, 5105, 6477, 7358, 8065], "queries": {"click": {"state": {"target": [], "time": []}, "edge": {"target": [], "time": []}}, "mouseover": {"state": {"target": [], "time": []}, "edge": {"target": [], "time": []}}, "mouseout": {"state": {"target": ["0", "12"], "time": [49, 669]}, "edge": {"target": [], "time": []}}}, "displayed_time": "16.23", "trialTime": 16721, "trial_type": "mouselab-mdp", "trial_index": 26, "time_elapsed": 1200453, "internal_node_id": "0.0-6.0-1.0-17.0"}}, {"uniqueid": "w11177063:a38788309", "current_trial": 27, "dateTime": 1693581035305, "trialdata": {"revealed_states": [], "clicked_states": [], "num_clicks_accrued": [0, 0, 0, 0, 0, 0, 0, 0, 0, 0, 0, 0, 0], "stateRewards": ["", 1, 1, -2, 7, -31, -6, 76, 1, -36, -16, -53, 2, 1, 7, 13, -47, -10, 47, -7, 72, 46, -56, -2, -2, -2, 11, -80, 44, 38, 16, 67, 85, -78], "withholdReward": false, "trial_id": "mdp_trial_19", "block": "test", "trialIndex": 20, "score": -35, "costs": 0, "simulationMode": [null, null, null, null, null], "rewards": [1, 1, -2, 1, -36], "path": ["0", "0", "1", "2", "3", "8", "9"], "rt": [1500, 12, 837, 203, 449], "actions": ["up", "up", "up", "left", "up"], "actionTimes": [3496, 4057, 5474, 6224, 7211], "queries": {"click": {"state": {"target": [], "time": []}, "edge": {"target": [], "time": []}}, "mouseover": {"state": {"target": [], "time": []}, "edge": {"target": [], "time": []}}, "mouseout": {"state": {"target": ["0"], "time": [832]}, "edge": {"target": [], "time": []}}}, "displayed_time": "16.00", "trialTime": 17119, "trial_type": "mouselab-mdp", "trial_index": 27, "time_elapsed": 1219473, "internal_node_id": "0.0-6.0-1.0-18.0"}}, {"uniqueid": "w11177063:a38788309", "current_trial": 28, "dateTime": 1693581056297, "trialdata": {"revealed_states": [], "clicked_states": [], "num_clicks_accrued": [0, 0, 0, 0, 0, 0, 0, 0, 0, 0, 0, 0, 0], "stateRewards": ["", 2, -1, 3, -12, -83, 6, -33, 9, 28, 24, -50, -2, -1, -2, -5, -87, 37, 82, 12, 80, -5, 10, -2, -3, -6, 9, 22, -1, 16, 9, 77, -62, 58], "withholdReward": false, "trial_id": "mdp_trial_20", "block": "test", "trialIndex": 21, "score": -41, "costs": 0, "simulationMode": [null, null, null, null, null], "rewards": [2, -1, 3, -12, -33], "path": ["0", "0", "1", "2", "3", "4", "7"], "rt": [1194, 140, 453, 69, 144], "actions": ["up", "up", "up", "right", "down"], "actionTimes": [3998, 4659, 5708, 6334, 7064], "queries": {"click": {"state": {"target": [], "time": []}, "edge": {"target": [], "time": []}}, "mouseover": {"state": {"target": [], "time": []}, "edge": {"target": [], "time": []}}, "mouseout": {"state": {"target": ["0"], "time": [1710]}, "edge": {"target": [], "time": []}}}, "displayed_time": "16.81", "trialTime": 19144, "trial_type": "mouselab-mdp", "trial_index": 28, "time_elapsed": 1240464, "internal_node_id": "0.0-6.0-1.0-19.0"}}, {"uniqueid": "w11177063:a38788309", "current_trial": 29, "dateTime": 1693581076118, "trialdata": {"revealed_states": [], "clicked_states": [], "num_clicks_accrued": [0, 0, 0, 0, 0, 0, 0, 0, 0, 0, 0, 0, 0], "stateRewards": ["", 1, -1, -7, -7, -22, 15, -13, 13, 26, -32, 38, -1, 1, -7, -4, 16, -62, 86, 12, -54, 56, 64, -2, -1, 6, 14, -57, 37, 62, -6, -25, 50, -70], "withholdReward": false, "trial_id": "mdp_trial_21", "block": "test", "trialIndex": 22, "score": 47, "costs": 0, "simulationMode": [null, null, null, null, null], "rewards": [-2, -1, 6, -6, 50], "path": ["0", "0", "23", "24", "25", "30", "32"], "rt": [2876, 230, 447, 149, 18], "actions": ["left", "left", "left", "down", "down"], "actionTimes": [5652, 6489, 7454, 8123, 8684], "queries": {"click": {"state": {"target": [], "time": []}, "edge": {"target": [], "time": []}}, "mouseover": {"state": {"target": [], "time": []}, "edge": {"target": [], "time": []}}, "mouseout": {"state": {"target": ["0"], "time": [1581]}, "edge": {"target": [], "time": []}}}, "displayed_time": "16.78", "trialTime": 17870, "trial_type": "mouselab-mdp", "trial_index": 29, "time_elapsed": 1260286, "internal_node_id": "0.0-6.0-1.0-20.0"}}, {"uniqueid": "w11177063:a38788309", "current_trial": 30, "dateTime": 1693581097609, "trialdata": {"revealed_states": [], "clicked_states": [], "num_clicks_accrued": [0, 0, 0, 0, 0, 0, 0, 0, 0, 0, 0, 0, 0], "stateRewards": ["", 1, 1, 7, -11, 80, -20, -53, -14, 3, 31, 27, 2, -1, -8, -10, 33, 41, 86, 9, 78, -37, -13, -1, -2, -6, -8, -80, 75, 4, -16, -49, -74, 24], "withholdReward": false, "trial_id": "mdp_trial_22", "block": "test", "trialIndex": 23, "score": -1, "costs": 0, "simulationMode": [null, null, null, null, null], "rewards": [-1, -2, -6, -16, 24], "path": ["0", "0", "23", "24", "25", "30", "33"], "rt": [1396, 308, 356, 188, 1530], "actions": ["left", "left", "left", "down", "left"], "actionTimes": [6468, 7367, 8265, 9003, 11085], "queries": {"click": {"state": {"target": [], "time": []}, "edge": {"target": [], "time": []}}, "mouseover": {"state": {"target": [], "time": []}, "edge": {"target": [], "time": []}}, "mouseout": {"state": {"target": ["0"], "time": [3769]}, "edge": {"target": [], "time": []}}}, "displayed_time": "19.08", "trialTime": 19466, "trial_type": "mouselab-mdp", "trial_index": 30, "time_elapsed": 1281777, "internal_node_id": "0.0-6.0-1.0-21.0"}}, {"uniqueid": "w11177063:a38788309", "current_trial": 31, "dateTime": 1693581118204, "trialdata": {"revealed_states": [], "clicked_states": [], "num_clicks_accrued": [0, 0, 0, 0, 0, 0, 0, 0, 0, 0, 0, 0, 0], "stateRewards": ["", -1, 2, -2, 13, -56, -28, 10, 14, 53, -80, -29, 1, -3, -3, -14, 14, 9, -40, -9, 18, 18, 48, 1, 1, 1, -9, 64, -39, -9, 7, -52, -78, 7], "withholdReward": false, "trial_id": "mdp_trial_23", "block": "test", "trialIndex": 24, "score": -42, "costs": 0, "simulationMode": [null, null, null, null, null], "rewards": [1, 1, 1, 7, -52], "path": ["0", "0", "23", "24", "25", "30", "31"], "rt": [1540, 18, 168, 81, 274], "actions": ["left", "left", "left", "down", "right"], "actionTimes": [4145, 4721, 5475, 6119, 6963], "queries": {"click": {"state": {"target": [], "time": []}, "edge": {"target": [], "time": []}}, "mouseover": {"state": {"target": [], "time": []}, "edge": {"target": [], "time": []}}, "mouseout": {"state": {"target": ["0"], "time": [1174]}, "edge": {"target": [], "time": []}}}, "displayed_time": "16.61", "trialTime": 18730, "trial_type": "mouselab-mdp", "trial_index": 31, "time_elapsed": 1302372, "internal_node_id": "0.0-6.0-1.0-22.0"}}, {"uniqueid": "w11177063:a38788309", "current_trial": 32, "dateTime": 1693581140688, "trialdata": {"revealed_states": [], "clicked_states": [], "num_clicks_accrued": [0, 0, 0, 0, 0, 0, 0, 0, 0, 0, 0, 0, 0], "stateRewards": ["", -1, -3, -6, -2, -7, 80, -45, -3, -38, -72, 76, 2, 1, 7, 4, -62, 14, -74, 14, -87, -21, -88, -2, 1, -7, -10, 66, 56, -76, 10, -29, -72, -70], "withholdReward": false, "trial_id": "mdp_trial_24", "block": "test", "trialIndex": 25, "score": -60, "costs": 0, "simulationMode": [null, null, null, null, null], "rewards": [2, 1, 7, 4, -74], "path": ["0", "0", "12", "13", "14", "15", "18"], "rt": [1442, 344, 66, 202, 75], "actions": ["right", "right", "right", "up", "left"], "actionTimes": [6153, 7048, 7631, 8425, 9082], "queries": {"click": {"state": {"target": [], "time": []}, "edge": {"target": [], "time": []}}, "mouseover": {"state": {"target": [], "time": []}, "edge": {"target": [], "time": []}}, "mouseout": {"state": {"target": ["0"], "time": [3424]}, "edge": {"target": [], "time": []}}}, "displayed_time": "18.72", "trialTime": 20566, "trial_type": "mouselab-mdp", "trial_index": 32, "time_elapsed": 1324854, "internal_node_id": "0.0-6.0-1.0-23.0"}}, {"uniqueid": "w11177063:a38788309", "current_trial": 33, "dateTime": 1693581169697, "trialdata": {"revealed_states": [], "clicked_states": [], "num_clicks_accrued": [0, 0, 0, 0, 0, 0, 0, 0, 0, 0, 0, 0, 0], "stateRewards": ["", 2, 4, -6, -13, -75, -81, 30, 7, 5, 59, -65, -1, -1, 7, 14, -38, 36, -41, 1, -54, -5, 64, 2, -1, 5, 6, -19, 79, 11, 16, -33, -50, 58], "withholdReward": false, "trial_id": "mdp_trial_25", "block": "test", "trialIndex": 26, "score": -48, "costs": 0, "simulationMode": [null, null, null, null, null], "rewards": [-1, -1, 7, 1, -54], "path": ["0", "0", "12", "13", "14", "19", "20"], "rt": [1457, 527, 139, 183, 787], "actions": ["right", "right", "right", "down", "right"], "actionTimes": [12171, 13259, 13954, 14699, 16053], "queries": {"click": {"state": {"target": [], "time": []}, "edge": {"target": [], "time": []}}, "mouseover": {"state": {"target": [], "time": []}, "edge": {"target": [], "time": []}}, "mouseout": {"state": {"target": ["0"], "time": [8285]}, "edge": {"target": [], "time": []}}}, "displayed_time": "24.72", "trialTime": 26881, "trial_type": "mouselab-mdp", "trial_index": 33, "time_elapsed": 1353865, "internal_node_id": "0.0-6.0-1.0-24.0"}}, {"uniqueid": "w11177063:a38788309", "current_trial": 34, "dateTime": 1693581189209, "trialdata": {"revealed_states": [], "clicked_states": [], "num_clicks_accrued": [0, 0, 0, 0, 0, 0, 0, 0, 0, 0, 0, 0, 0], "stateRewards": ["", -2, -3, 4, 1, 33, -53, 15, 9, -12, 61, -6, -2, 4, 6, -11, 47, -43, -7, -11, 46, 23, -28, -1, -1, 3, -10, 11, 76, -76, 10, 18, -38, 87], "withholdReward": false, "trial_id": "mdp_trial_26", "block": "test", "trialIndex": 27, "score": 67, "costs": 0, "simulationMode": [null, null, null, null, null], "rewards": [-1, -1, 3, -10, 76], "path": ["0", "0", "23", "24", "25", "26", "28"], "rt": [1516, 202, 325, 130, 12], "actions": ["left", "left", "left", "up", "right"], "actionTimes": [3481, 4234, 5102, 5815, 6405], "queries": {"click": {"state": {"target": [], "time": []}, "edge": {"target": [], "time": []}}, "mouseover": {"state": {"target": [], "time": []}, "edge": {"target": [], "time": []}}, "mouseout": {"state": {"target": ["0"], "time": [785]}, "edge": {"target": [], "time": []}}}, "displayed_time": "15.97", "trialTime": 17500, "trial_type": "mouselab-mdp", "trial_index": 34, "time_elapsed": 1373376, "internal_node_id": "0.0-6.0-1.0-25.0"}}, {"uniqueid": "w11177063:a38788309", "current_trial": 35, "dateTime": 1693581210171, "trialdata": {"revealed_states": [], "clicked_states": [], "num_clicks_accrued": [0, 0, 0, 0, 0, 0, 0, 0, 0, 0, 0, 0, 0], "stateRewards": ["", -1, -2, 8, -6, -79, -6, 87, 9, -5, -66, -38, 2, 2, 5, -6, -82, 74, 85, -8, 67, -30, -15, 1, -2, -2, -2, 87, 64, 49, 7, 2, -38, -9], "withholdReward": false, "trial_id": "mdp_trial_27", "block": "test", "trialIndex": 28, "score": 82, "costs": 0, "simulationMode": [null, null, null, null, null], "rewards": [1, -2, -2, -2, 87], "path": ["0", "0", "23", "24", "25", "26", "27"], "rt": [1626, 400, 108, 182, 11], "actions": ["left", "left", "left", "up", "up"], "actionTimes": [3767, 4727, 5426, 6163, 6720], "queries": {"click": {"state": {"target": [], "time": []}, "edge": {"target": [], "time": []}}, "mouseover": {"state": {"target": [], "time": []}, "edge": {"target": [], "time": []}}, "mouseout": {"state": {"target": ["0"], "time": [993]}, "edge": {"target": [], "time": []}}}, "displayed_time": "16.14", "trialTime": 18323, "trial_type": "mouselab-mdp", "trial_index": 35, "time_elapsed": 1394338, "internal_node_id": "0.0-6.0-1.0-26.0"}}, {"uniqueid": "w11177063:a38788309", "current_trial": 36, "dateTime": 1693581230056, "trialdata": {"revealed_states": [], "clicked_states": [], "num_clicks_accrued": [0, 0, 0, 0, 0, 0, 0, 0, 0, 0, 0, 0, 0], "stateRewards": ["", 2, 3, -1, 16, -78, -11, 46, 2, -20, 79, -67, 2, 3, 2, 11, -83, -42, -58, -11, -67, -22, 55, 2, -1, -1, -16, -83, -82, 23, -11, -29, 13, 13], "withholdReward": false, "trial_id": "mdp_trial_28", "block": "test", "trialIndex": 29, "score": 7, "costs": 0, "simulationMode": [null, null, null, null, null], "rewards": [2, -1, -1, -16, 23], "path": ["0", "0", "23", "24", "25", "26", "29"], "rt": [951, 12, 80, 231, 102], "actions": ["left", "left", "left", "up", "left"], "actionTimes": [3133, 3692, 4338, 5117, 5743], "queries": {"click": {"state": {"target": [], "time": []}, "edge": {"target": [], "time": []}}, "mouseover": {"state": {"target": [], "time": []}, "edge": {"target": [], "time": []}}, "mouseout": {"state": {"target": ["0"], "time": [936]}, "edge": {"target": [], "time": []}}}, "displayed_time": "16.19", "trialTime": 17909, "trial_type": "mouselab-mdp", "trial_index": 36, "time_elapsed": 1414224, "internal_node_id": "0.0-6.0-1.0-27.0"}}, {"uniqueid": "w11177063:a38788309", "current_trial": 37, "dateTime": 1693581260499, "trialdata": {"revealed_states": [], "clicked_states": [], "num_clicks_accrued": [0, 0, 0, 0, 0, 0, 0, 0, 0, 0, 0, 0, 0], "stateRewards": ["", 1, -2, 4, 7, -43, -83, -60, -5, -86, -80, 83, -1, -2, 6, 11, -15, 21, 13, 9, 29, -49, 11, -1, 4, -6, -11, 87, 40, 63, -8, -39, -11, 62], "withholdReward": false, "trial_id": "mdp_trial_29", "block": "test", "trialIndex": 30, "score": -82, "costs": 0, "simulationMode": [null, null, null, null, null], "rewards": [1, -2, 4, -5, -80], "path": ["0", "0", "1", "2", "3", "8", "10"], "rt": [1559, 89, 737, 60, 114], "actions": ["up", "up", "up", "left", "down"], "actionTimes": [13011, 13656, 14989, 15650, 16315], "queries": {"click": {"state": {"target": [], "time": []}, "edge": {"target": [], "time": []}}, "mouseover": {"state": {"target": [], "time": []}, "edge": {"target": [], "time": []}}, "mouseout": {"state": {"target": ["0"], "time": [10077]}, "edge": {"target": [], "time": []}}}, "displayed_time": "25.46", "trialTime": 28298, "trial_type": "mouselab-mdp", "trial_index": 37, "time_elapsed": 1444667, "internal_node_id": "0.0-6.0-1.0-28.0"}}, {"uniqueid": "w11177063:a38788309", "current_trial": 38, "dateTime": 1693581280212, "trialdata": {"revealed_states": [], "clicked_states": [], "num_clicks_accrued": [0, 0, 0, 0, 0, 0, 0, 0, 0, 0, 0, 0, 0], "stateRewards": ["", -2, 1, 6, -2, -10, -78, -69, 14, -15, 7, -1, 1, -1, -2, 13, 77, 32, 87, 5, -74, 30, -26, 1, 3, 4, 12, 39, 54, -43, 2, 10, 23, 13], "withholdReward": false, "trial_id": "mdp_trial_30", "block": "test", "trialIndex": 31, "score": -23, "costs": 0, "simulationMode": [null, null, null, null, null], "rewards": [1, 3, 4, 12, -43], "path": ["0", "0", "23", "24", "25", "26", "29"], "rt": [684, 205, 528, 188, 12], "actions": ["left", "left", "left", "up", "left"], "actionTimes": [3895, 4686, 5778, 6535, 7123], "queries": {"click": {"state": {"target": [], "time": []}, "edge": {"target": [], "time": []}}, "mouseover": {"state": {"target": [], "time": []}, "edge": {"target": [], "time": []}}, "mouseout": {"state": {"target": ["0"], "time": [1968]}, "edge": {"target": [], "time": []}}}, "displayed_time": "17.21", "trialTime": 17622, "trial_type": "mouselab-mdp", "trial_index": 38, "time_elapsed": 1464380, "internal_node_id": "0.0-6.0-1.0-29.0"}}, {"uniqueid": "w11177063:a38788309", "current_trial": 39, "dateTime": 1693581300942, "trialdata": {"revealed_states": [], "clicked_states": [], "num_clicks_accrued": [0, 0, 0, 0, 0, 0, 0, 0, 0, 0, 0, 0, 0], "stateRewards": ["", 1, 2, -8, 9, 18, -83, -11, 6, -64, -48, 17, -2, -2, -5, -3, -24, -3, -86, -2, 48, -41, -22, -2, 4, 7, 8, 81, 13, -48, 10, 61, 19, 57], "withholdReward": false, "trial_id": "mdp_trial_31", "block": "test", "trialIndex": 32, "score": 22, "costs": 0, "simulationMode": [null, null, null, null, null], "rewards": [1, 2, -8, 9, 18], "path": ["0", "0", "1", "2", "3", "4", "5"], "rt": [1571, 106, 844, 18, 204], "actions": ["up", "up", "up", "right", "up"], "actionTimes": [4617, 5251, 6671, 7288, 8064], "queries": {"click": {"state": {"target": [], "time": []}, "edge": {"target": [], "time": []}}, "mouseover": {"state": {"target": [], "time": []}, "edge": {"target": [], "time": []}}, "mouseout": {"state": {"target": ["0"], "time": [1827]}, "edge": {"target": [], "time": []}}}, "displayed_time": "17.05", "trialTime": 18662, "trial_type": "mouselab-mdp", "trial_index": 39, "time_elapsed": 1485109, "internal_node_id": "0.0-6.0-1.0-30.0"}}, {"uniqueid": "w11177063:a38788309", "current_trial": 40, "dateTime": 1693581321283, "trialdata": {"revealed_states": [], "clicked_states": [], "num_clicks_accrued": [0, 0, 0, 0, 0, 0, 0, 0, 0, 0, 0, 0, 0], "stateRewards": ["", -2, -3, -5, 8, 27, 11, 43, -6, -24, -87, 69, -2, 1, 1, 9, 19, 48, -37, 9, -14, 45, 62, 1, 2, 1, 16, -81, -41, 22, 4, -6, -63, 47], "withholdReward": false, "trial_id": "mdp_trial_32", "block": "test", "trialIndex": 33, "score": 41, "costs": 0, "simulationMode": [null, null, null, null, null], "rewards": [-2, -3, -5, 8, 43], "path": ["0", "0", "1", "2", "3", "4", "7"], "rt": [488, 99, 130, 96, 41], "actions": ["up", "up", "up", "right", "down"], "actionTimes": [2655, 3310, 4044, 4691, 5301], "queries": {"click": {"state": {"target": [], "time": []}, "edge": {"target": [], "time": []}}, "mouseover": {"state": {"target": [], "time": []}, "edge": {"target": [], "time": []}}, "mouseout": {"state": {"target": ["0"], "time": [309]}, "edge": {"target": [], "time": []}}}, "displayed_time": "16.17", "trialTime": 17904, "trial_type": "mouselab-mdp", "trial_index": 40, "time_elapsed": 1505450, "internal_node_id": "0.0-6.0-1.0-31.0"}}, {"uniqueid": "w11177063:a38788309", "current_trial": 41, "dateTime": 1693581341101, "trialdata": {"revealed_states": [], "clicked_states": [], "num_clicks_accrued": [0, 0, 0, 0, 0, 0, 0, 0, 0, 0, 0, 0, 0], "stateRewards": ["", -1, -4, 8, 8, -68, 47, 24, -7, -61, 49, -69, -1, -1, 8, -7, 42, 1, -45, -11, 10, -63, -6, 1, 4, 6, -16, 79, -37, -58, -12, 81, 18, -53], "withholdReward": false, "trial_id": "mdp_trial_33", "block": "test", "trialIndex": 34, "score": -65, "costs": 0, "simulationMode": [null, null, null, null, null], "rewards": [-1, -4, 8, -7, -61], "path": ["0", "0", "1", "2", "3", "8", "9"], "rt": [789, 160, 402, 52, 433], "actions": ["up", "up", "up", "left", "up"], "actionTimes": [2931, 3637, 4611, 5197, 6198], "queries": {"click": {"state": {"target": [], "time": []}, "edge": {"target": [], "time": []}}, "mouseover": {"state": {"target": [], "time": []}, "edge": {"target": [], "time": []}}, "mouseout": {"state": {"target": [], "time": []}, "edge": {"target": [], "time": []}}}, "displayed_time": "16.15", "trialTime": 17480, "trial_type": "mouselab-mdp", "trial_index": 41, "time_elapsed": 1525269, "internal_node_id": "0.0-6.0-1.0-32.0"}}, {"uniqueid": "w11177063:a38788309", "current_trial": 42, "dateTime": 1693581361133, "trialdata": {"revealed_states": [], "clicked_states": [], "num_clicks_accrued": [0, 0, 0, 0, 0, 0, 0, 0, 0, 0, 0, 0, 0], "stateRewards": ["", -2, 2, 5, -14, -56, 64, 84, -5, 52, 39, 85, -2, 1, 7, 8, 21, 29, -78, -9, -10, -69, 10, -2, -1, -7, 15, 72, 20, 41, -2, 52, 80, 22], "withholdReward": false, "trial_id": "mdp_trial_34", "block": "test", "trialIndex": 35, "score": 55, "costs": 0, "simulationMode": [null, null, null, null, null], "rewards": [-2, 2, 5, -14, 64], "path": ["0", "0", "1", "2", "3", "4", "6"], "rt": [777, 116, 45, 131, 213], "actions": ["up", "up", "up", "right", "right"], "actionTimes": [2677, 3368, 3992, 4696, 5437], "queries": {"click": {"state": {"target": [], "time": []}, "edge": {"target": [], "time": []}}, "mouseover": {"state": {"target": [], "time": []}, "edge": {"target": [], "time": []}}, "mouseout": {"state": {"target": [], "time": []}, "edge": {"target": [], "time": []}}}, "displayed_time": "15.91", "trialTime": 17587, "trial_type": "mouselab-mdp", "trial_index": 42, "time_elapsed": 1545301, "internal_node_id": "0.0-6.0-1.0-33.0"}}, {"uniqueid": "w11177063:a38788309", "current_trial": 43, "dateTime": 1693581380498, "trialdata": {"revealed_states": [], "clicked_states": [], "num_clicks_accrued": [0, 0, 0, 0, 0, 0, 0, 0, 0, 0, 0, 0, 0], "stateRewards": ["", -1, 1, -5, -6, -78, 47, -13, 12, 48, -88, 20, 2, -3, -2, 13, -20, 37, -57, 14, -38, 30, 31, -2, -2, 8, 2, -23, 78, 28, 12, -74, -88, 8], "withholdReward": false, "trial_id": "mdp_trial_35", "block": "test", "trialIndex": 36, "score": -24, "costs": 0, "simulationMode": [null, null, null, null, null], "rewards": [-1, 1, -5, -6, -13], "path": ["0", "0", "1", "2", "3", "4", "7"], "rt": [779, 80, 58, 116, 265], "actions": ["up", "up", "up", "right", "down"], "actionTimes": [3457, 4127, 4785, 5454, 6323], "queries": {"click": {"state": {"target": [], "time": []}, "edge": {"target": [], "time": []}}, "mouseover": {"state": {"target": [], "time": []}, "edge": {"target": [], "time": []}}, "mouseout": {"state": {"target": [], "time": []}, "edge": {"target": [], "time": []}}}, "displayed_time": "16.68", "trialTime": 17207, "trial_type": "mouselab-mdp", "trial_index": 43, "time_elapsed": 1564664, "internal_node_id": "0.0-6.0-1.0-34.0"}}, {"uniqueid": "w11177063:a38788309", "current_trial": 44, "dateTime": 1693581400584, "trialdata": {"revealed_states": [], "clicked_states": [], "num_clicks_accrued": [0, 0, 0, 0, 0, 0, 0, 0, 0, 0, 0, 0, 0], "stateRewards": ["", -2, -1, 3, -3, 71, -58, -21, 7, -10, -75, -37, 2, 4, -1, -12, -79, -29, -48, 3, -41, -10, -30, -1, -2, 1, -15, 13, 66, 22, -1, -42, -86, -55], "withholdReward": false, "trial_id": "mdp_trial_36", "block": "test", "trialIndex": 37, "score": 68, "costs": 0, "simulationMode": [null, null, null, null, null], "rewards": [-2, -1, 3, -3, 71], "path": ["0", "0", "1", "2", "3", "4", "5"], "rt": [774, 88, 386, 22, 330], "actions": ["up", "up", "up", "right", "up"], "actionTimes": [3136, 3801, 4764, 5347, 6260], "queries": {"click": {"state": {"target": [], "time": []}, "edge": {"target": [], "time": []}}, "mouseover": {"state": {"target": [], "time": []}, "edge": {"target": [], "time": []}}, "mouseout": {"state": {"target": [], "time": []}, "edge": {"target": [], "time": []}}}, "displayed_time": "16.37", "trialTime": 17953, "trial_type": "mouselab-mdp", "trial_index": 44, "time_elapsed": 1584751, "internal_node_id": "0.0-6.0-1.0-35.0"}}, {"uniqueid": "w11177063:a38788309", "current_trial": 45, "dateTime": 1693581419987, "trialdata": {"revealed_states": [], "clicked_states": [], "num_clicks_accrued": [0, 0, 0, 0, 0, 0, 0, 0, 0, 0, 0, 0, 0], "stateRewards": ["", 1, -1, 8, 4, 76, -33, -17, -3, -1, -54, -74, -2, 2, -5, 13, -51, 63, 83, 1, 84, 29, -36, 2, -1, 7, -12, -10, -44, -43, -14, 8, -69, 19], "withholdReward": false, "trial_id": "mdp_trial_37", "block": "test", "trialIndex": 38, "score": -5, "costs": 0, "simulationMode": [null, null, null, null, null], "rewards": [1, -1, 8, 4, -17], "path": ["0", "0", "1", "2", "3", "4", "7"], "rt": [1393, 108, 174, 181, 17], "actions": ["up", "up", "up", "right", "down"], "actionTimes": [3461, 4156, 4907, 5654, 6216], "queries": {"click": {"state": {"target": [], "time": []}, "edge": {"target": [], "time": []}}, "mouseover": {"state": {"target": [], "time": []}, "edge": {"target": [], "time": []}}, "mouseout": {"state": {"target": [], "time": []}, "edge": {"target": [], "time": []}}}, "displayed_time": "16.07", "trialTime": 17127, "trial_type": "mouselab-mdp", "trial_index": 45, "time_elapsed": 1604154, "internal_node_id": "0.0-6.0-1.0-36.0"}}, {"uniqueid": "w11177063:a38788309", "current_trial": 46, "dateTime": 1693581446217, "trialdata": {"revealed_states": [], "clicked_states": [], "num_clicks_accrued": [0, 0, 0, 0, 0, 0, 0, 0, 0, 0, 0, 0, 0], "stateRewards": ["", -1, 2, -7, -12, -62, 12, -13, 5, 77, -71, 83, 1, -4, 7, 15, -42, -87, -4, 5, -25, 44, 88, -1, 4, -5, -8, 14, 51, 8, -5, 83, -24, -19], "withholdReward": false, "trial_id": "mdp_trial_38", "block": "test", "trialIndex": 39, "score": 82, "costs": 0, "simulationMode": [null, null, null, null, null], "rewards": [-1, 2, -7, 5, 83], "path": ["0", "0", "1", "2", "3", "8", "11"], "rt": [976, 150, 774, 103, 1360], "actions": ["up", "up", "up", "left", "left"], "actionTimes": [8661, 9364, 10691, 11334, 13309], "queries": {"click": {"state": {"target": [], "time": []}, "edge": {"target": [], "time": []}}, "mouseover": {"state": {"target": [], "time": []}, "edge": {"target": [], "time": []}}, "mouseout": {"state": {"target": [], "time": []}, "edge": {"target": [], "time": []}}}, "displayed_time": "21.69", "trialTime": 24048, "trial_type": "mouselab-mdp", "trial_index": 46, "time_elapsed": 1630385, "internal_node_id": "0.0-6.0-1.0-37.0"}}, {"uniqueid": "w11177063:a38788309", "current_trial": 47, "dateTime": 1693581466698, "trialdata": {"revealed_states": [], "clicked_states": [], "num_clicks_accrued": [0, 0, 0, 0, 0, 0, 0, 0, 0, 0, 0, 0, 0], "stateRewards": ["", -2, 1, -5, 2, -68, 80, 33, 10, 67, -59, 20, -1, -3, 3, 14, 74, -2, 24, -16, 63, 80, 46, -1, 4, 6, 12, 83, -38, -43, -4, 43, 14, -79], "withholdReward": false, "trial_id": "mdp_trial_39", "block": "test", "trialIndex": 40, "score": 24, "costs": 0, "simulationMode": [null, null, null, null, null], "rewards": [-2, 1, -5, 10, 20], "path": ["0", "0", "1", "2", "3", "8", "11"], "rt": [1223, 110, 362, 104, 113], "actions": ["up", "up", "up", "left", "left"], "actionTimes": [3758, 4415, 5403, 6073, 6789], "queries": {"click": {"state": {"target": [], "time": []}, "edge": {"target": [], "time": []}}, "mouseover": {"state": {"target": [], "time": []}, "edge": {"target": [], "time": []}}, "mouseout": {"state": {"target": [], "time": []}, "edge": {"target": [], "time": []}}}, "displayed_time": "16.54", "trialTime": 18223, "trial_type": "mouselab-mdp", "trial_index": 47, "time_elapsed": 1650865, "internal_node_id": "0.0-6.0-1.0-38.0"}}, {"uniqueid": "w11177063:a38788309", "current_trial": 48, "dateTime": 1693581490366, "trialdata": {"revealed_states": [], "clicked_states": [], "num_clicks_accrued": [0, 0, 0, 0, 0, 0, 0, 0, 0, 0, 0, 0, 0], "stateRewards": ["", 1, 1, -3, 2, 22, -25, -11, -5, 50, 49, 3, 1, -1, 8, 14, -85, -30, 57, -6, -39, -16, 59, -2, -1, 5, 5, 59, -16, 8, 4, 67, 56, -9], "withholdReward": false, "trial_id": "mdp_trial_40", "block": "test", "trialIndex": 41, "score": -10, "costs": 0, "simulationMode": [null, null, null, null, null], "rewards": [1, 1, -3, 2, -11], "path": ["0", "0", "1", "2", "3", "4", "7"], "rt": [672, 328, 430, 33, 115], "actions": ["up", "up", "up", "right", "down"], "actionTimes": [2783, 3668, 4646, 5281, 5972], "queries": {"click": {"state": {"target": [], "time": []}, "edge": {"target": [], "time": []}}, "mouseover": {"state": {"target": [], "time": []}, "edge": {"target": [], "time": []}}, "mouseout": {"state": {"target": [], "time": []}, "edge": {"target": [], "time": []}}}, "displayed_time": "16.12", "trialTime": 21434, "trial_type": "mouselab-mdp", "trial_index": 48, "time_elapsed": 1674536, "internal_node_id": "0.0-6.0-1.0-39.0"}}, {"uniqueid": "w11177063:a38788309", "current_trial": 49, "dateTime": 1693581549199, "trialdata": {"rt": 58795, "response": {"Q0": "$-88 to $88", "Q1": "$-32 to $32", "Q2": "$-16 to $16", "Q3": "It was less costly to inspect further nodes.", "Q4": "Very motivated"}, "question_order": [0, 1, 2, 3, 4], "trial_id": "final_quiz_control", "trial_type": "survey-multi-choice", "trial_index": 49, "time_elapsed": 1733371, "internal_node_id": "0.0-6.0-2.0"}}, {"uniqueid": "w11177063:a38788309", "current_trial": 50, "dateTime": 1693581657549, "trialdata": {"rt": 108301, "response": {"Q0": "I had no specific strategy, it strictly based on luck", "Q1": "Not at all. it was vibes all the way. I win the wins and lose the losses. for my mental health I did not wanna be all heart in", "Q2": "it was not difficult. the spider went where it needed to go"}, "trial_id": "self_report_control", "trial_type": "survey-text", "trial_index": 50, "time_elapsed": 1841720, "internal_node_id": "0.0-6.0-3.0"}}, {"uniqueid": "w11177063:a38788309", "current_trial": 51, "dateTime": 1693581723907, "trialdata": {"rt": 66330, "response": {"Q0": "Agree", "Q1": "Disagree", "Q2": "Agree", "Q3": "Strongly agree", "Q4": "Agree", "Q5": "Disagree", "Q6": "Strongly agree"}, "question_order": [0, 1, 2, 3, 4, 5, 6], "trial_id": "self_report_2", "trial_type": "survey-multi-choice", "trial_index": 51, "time_elapsed": 1908079, "internal_node_id": "0.0-6.0-4.0"}}, {"uniqueid": "w11177063:a38788309", "current_trial": 52, "dateTime": 1693581748022, "trialdata": {"rt": 24088, "response": {"gender": "female", "age": "39", "colorblind": "0", "effort": "0"}, "trial_type": "survey-html-form", "trial_index": 52, "time_elapsed": 1932194, "internal_node_id": "0.0-6.0-5.0"}}, {"uniqueid": "w11177063:a38788309", "current_trial": 53, "dateTime": 1693581814111, "trialdata": {"rt": 66031, "response": {"Q0": "The node numbers, they didnt appear when i clicked", "Q1": "no, never before", "Q2": "it was an interesting study"}, "trial_type": "survey-text", "trial_index": 53, "time_elapsed": 1998283, "internal_node_id": "0.0-6.0-6.0"}}, {"uniqueid": "w11177063:a38788309", "current_trial": 54, "dateTime": 1693581853544, "trialdata": {"rt": 39389, "stimulus": "<h1>Completion Code Instructions (1/2)</h1>\n<br><br><br><br>\nYou have reached the end of the experiment! The completion code consists of two parts: (1) a code with 2 characters (2) a code with 6 characters. On this page, you will receive the second part of the code. The first part of the completion code will be on the next page.\n<br><br>\nThe second part of your completion code is: <b>EWEK22</b>\n<br><br>\nPlease note this down. Then, press 'Next' in order to find the first part of your completion code. Once the data has been saved, you will receive this code either in this window or in the original browser window where you started the experiment.\n <br><br>\n<h2 style='color: red;'>Note: this is <strong>NOT</strong> the full completion code. Copy this down and click 'Next' to get the full completion code on the next page.</h2>", "response": 0, "trial_type": "html-button-response", "trial_index": 54, "time_elapsed": 2037716, "internal_node_id": "0.0-6.0-7.0"}}, {"uniqueid": "w11177063:a38788309", "current_trial": 55, "dateTime": 1693581854571, "trialdata": {"success": true, "trial_type": "fullscreen", "trial_index": 55, "time_elapsed": 2038743, "internal_node_id": "0.0-7.0"}}], "questiondata": {"params": {"CODE": "C6DMOQA6", "MIN_TIME": 14, "inspectCost": 1, "startTime": "Fri Sep 01 2023 16:50:11 GMT+0200 (South Africa Standard Time)", "bonusRate": 0.002, "variance": "1_2_4_8_44", "branching": "31123"}}, "eventdata": [{"eventtype": "initialized", "value": null, "timestamp": 1693579809875, "interval": 0}, {"eventtype": "window_resize", "value": [1028, 778], "timestamp": 1693579809876, "interval": 1}, {"eventtype": "window_resize", "value": [1028, 778], "timestamp": 1693579810722, "interval": 846}, {"eventtype": "window_resize", "value": [1536, 864], "timestamp": 1693579823733, "interval": 13011}, {"eventtype": "focus", "value": "off", "timestamp": 1693579869594, "interval": 45861}, {"eventtype": "focus", "value": "on", "timestamp": 1693579873785, "interval": 4191}, {"eventtype": "focus", "value": "off", "timestamp": 1693580186937, "interval": 313152}, {"eventtype": "focus", "value": "on", "timestamp": 1693580211540, "interval": 24603}, {"eventtype": "window_resize", "value": [1028, 778], "timestamp": 1693581854049, "interval": 1642509}], "useragent": "Mozilla/5.0 (Windows NT 10.0; Win64; x64) AppleWebKit/537.36 (KHTML, like Gecko) Chrome/116.0.0.0 Safari/537.36", "mode": "live", "id": "w11177063:a38788309", "status": "user data saved", "Beginhit": "2023-09-01 14:50:04.461759", "Beginexp": "2023-09-01 14:50:24.701796", "Endhit": "2023-09-01 15:24:15.683605", "psiturkStatus": 3, "browser": "<redacted>", "platform": "windows", "language": "en-ZA"}