{"condition": 1, "counterbalance": 0, "assignmentId": "a35902061", "workerId": "w11930620", "hitId": "h79144660", "currenttrial": 62, "bonus": 0, "data": [{"uniqueid": "w11930620:a35902061", "current_trial": 0, "dateTime": 1691159250954, "trialdata": {"success": true, "trial_type": "fullscreen", "trial_index": 0, "time_elapsed": 54774, "internal_node_id": "0.0-0.0"}}, {"uniqueid": "w11930620:a35902061", "current_trial": 1, "dateTime": 1691159260471, "trialdata": {"view_history": [{"page_index": 0, "viewing_time": 9514}], "rt": 9514, "trial_id": "exp_instructions_misaligned", "trial_type": "instructions", "trial_index": 1, "time_elapsed": 64292, "internal_node_id": "0.0-1.0"}}, {"uniqueid": "w11930620:a35902061", "current_trial": 2, "dateTime": 1691159263423, "trialdata": {"success": true, "trial_type": "fullscreen", "trial_index": 2, "time_elapsed": 67244, "internal_node_id": "0.0-2.0-0.0"}}, {"uniqueid": "w11930620:a35902061", "current_trial": 3, "dateTime": 1691159476842, "trialdata": {"view_history": [{"page_index": 0, "viewing_time": 99941}, {"page_index": 1, "viewing_time": 71950}, {"page_index": 2, "viewing_time": 20617}, {"page_index": 3, "viewing_time": 20911}], "rt": 213419, "trial_id": "mouselab_instructions_1_misaligned", "trial_type": "instructions", "trial_index": 3, "time_elapsed": 280663, "internal_node_id": "0.0-2.0-1.0"}}, {"uniqueid": "w11930620:a35902061", "current_trial": 4, "dateTime": 1691159506606, "trialdata": {"revealed_states": [], "clicked_states": ["12", "1", "23", "24"], "num_clicks_accrued": [0, 0, 0, 0, 0, 0, 0, 0, 0, 0, 0, 0, 0], "stateRewards": ["", 10, 10, 10, -10, 10, -10, -10, 10, 10, 10, -10, -10, 10, -10, 10, 10, 10, -10, 10, 10, 10, -10, -10, -10, -10, 10, -10, 10, 10, 10, 10, 10, -10], "withholdReward": false, "trial_id": "practice_1", "block": "test", "trialIndex": 0, "score": -48.5, "costs": -2, "simulationMode": [null, null, null, null, null, null, null, null, null, null], "rewards": [-10, -10, -10, -10, -10, 10, -10], "path": ["0", "0", "23", "23", "24", "24", "25", "26", "27"], "rt": [13503, 8967, 392, 368, 5881, 5420, 795, 302, 1395, 4], "actions": ["left", "left", "left", "left", "left", "left", "left", "left", "up", "up"], "actionTimes": [8967, 8975, 9375, 9843, 15774, 15778, 16576, 16580, 18474, 18980], "queries": {"click": {"state": {"target": ["12", "1", "23", "24"], "time": [null, 1582, 3511, 5670]}, "edge": {"target": [], "time": []}}, "mouseover": {"state": {"target": ["0", "12", "1", "23", "24", "25", "24", "25"], "time": [null, null, 1325, 2846, 4713, 4755, 5081, 7592]}, "edge": {"target": [], "time": []}}, "mouseout": {"state": {"target": ["0", "0", "12", "1", "23", "24", "25", "24", "25", "25"], "time": [null, null, null, 2702, 4697, 4730, 5011, 6732, 8147, 14616]}, "edge": {"target": [], "time": []}}}, "displayed_time": "19.50", "trialTime": 21883, "trial_type": "mouselab-mdp", "trial_index": 4, "time_elapsed": 310426, "internal_node_id": "0.0-2.0-2.0-0.0"}}, {"uniqueid": "w11930620:a35902061", "current_trial": 5, "dateTime": 1691159521420, "trialdata": {"revealed_states": [], "clicked_states": ["12"], "num_clicks_accrued": [0, 0, 0, 0, 0, 0, 0, 0, 0, 0, 0, 0, 0], "stateRewards": ["", -10, -10, 10, 10, 10, 10, 10, -10, 10, -10, -10, -10, -10, -10, -10, -10, -10, 10, 10, -10, -10, -10, 10, 10, -10, 10, 10, 10, 10, -10, 10, -10, -10], "withholdReward": false, "trial_id": "practice_2", "block": "test", "trialIndex": 1, "score": -47, "costs": -0.5, "simulationMode": [null, null, null, null, null], "rewards": [-10, -10, -10, -10, -10], "path": ["0", "0", "12", "13", "14", "15", "17"], "rt": [2636, 805, 582, 1399, 590], "actions": ["right", "right", "right", "up", "right"], "actionTimes": [5569, 6878, 7966, 9877, 10971], "queries": {"click": {"state": {"target": ["12"], "time": [4218]}, "edge": {"target": [], "time": []}}, "mouseover": {"state": {"target": ["12"], "time": [3993]}, "edge": {"target": [], "time": []}}, "mouseout": {"state": {"target": ["23"], "time": [2010]}, "edge": {"target": [], "time": []}}}, "displayed_time": "11.48", "trialTime": 14131, "trial_type": "mouselab-mdp", "trial_index": 5, "time_elapsed": 325240, "internal_node_id": "0.0-2.0-2.0-1.0"}}, {"uniqueid": "w11930620:a35902061", "current_trial": 6, "dateTime": 1691159550618, "trialdata": {"view_history": [{"page_index": 0, "viewing_time": 23815}, {"page_index": 1, "viewing_time": 5376}], "rt": 29191, "trial_id": "mouselab_instructions_2_misaligned", "trial_type": "instructions", "trial_index": 6, "time_elapsed": 354439, "internal_node_id": "0.0-2.0-3.0"}}, {"uniqueid": "w11930620:a35902061", "current_trial": 7, "dateTime": 1691159590920, "trialdata": {"rt": 40299, "response": {"Q0": "The cost for clicking on nodes may vary between nodes.", "Q1": "The better I perform the higher my bonus will be.", "Q2": "No, the amount of cash at each node of the web may be different each time.", "Q3": "To get the highest total score.", "Q4": "Only before moving the spider.", "Q5": "1 second"}, "question_order": [0, 1, 2, 3, 4, 5], "correct": {"Q0": "The cost for clicking on nodes may vary between nodes.", "Q1": "The better I perform the higher my bonus will be.", "Q2": "No, the amount of cash at each node of the web may be different each time.", "Q3": "To get the highest total score.", "Q4": "Only before moving the spider.", "Q5": "3 seconds"}, "trial_id": "mouselab_quiz_misaligned", "trial_type": "survey-multi-choice", "trial_index": 7, "time_elapsed": 394741, "internal_node_id": "0.0-2.0-4.0"}}, {"uniqueid": "w11930620:a35902061", "current_trial": 8, "dateTime": 1691159599298, "trialdata": {"success": true, "trial_type": "fullscreen", "trial_index": 8, "time_elapsed": 403119, "internal_node_id": "0.0-2.1-0.1"}}, {"uniqueid": "w11930620:a35902061", "current_trial": 9, "dateTime": 1691159655391, "trialdata": {"view_history": [{"page_index": 0, "viewing_time": 20408}, {"page_index": 1, "viewing_time": 13600}, {"page_index": 2, "viewing_time": 10234}, {"page_index": 3, "viewing_time": 11848}], "rt": 56090, "trial_id": "mouselab_instructions_1_misaligned", "trial_type": "instructions", "trial_index": 9, "time_elapsed": 459212, "internal_node_id": "0.0-2.1-1.1"}}, {"uniqueid": "w11930620:a35902061", "current_trial": 10, "dateTime": 1691159679580, "trialdata": {"revealed_states": [], "clicked_states": ["1", "2", "3", "4", "5", "6", "7"], "num_clicks_accrued": [0, 0, 0, 0, 0, 0, 0, 0, 0, 0, 0, 0, 0], "stateRewards": ["", 10, 10, 10, -10, 10, -10, -10, 10, 10, 10, -10, -10, 10, -10, 10, 10, 10, -10, 10, 10, 10, -10, -10, -10, -10, 10, -10, 10, 10, 10, 10, 10, -10], "withholdReward": false, "trial_id": "practice_1", "block": "test", "trialIndex": 2, "score": 10, "costs": -3.5, "simulationMode": [null, null, null, null, null], "rewards": [10, 10, 10, -10, -10], "path": ["0", "0", "1", "2", "3", "4", "7"], "rt": [14702, 38, 170, 130, 71], "actions": ["up", "up", "up", "right", "down"], "actionTimes": [17029, 17578, 18259, 18899, 19481], "queries": {"click": {"state": {"target": ["1", "2", "3", "4", "5", "6", "7"], "time": [4200, 5861, 8749, 10968, 12240, 13483, 15335]}, "edge": {"target": [], "time": []}}, "mouseover": {"state": {"target": ["1", "2", "3", "7", "4", "5", "6", "7", "18", "14"], "time": [3201, 4820, 8223, 9975, 10617, 11405, 13235, 14179, 15857, 15898]}, "edge": {"target": [], "time": []}}, "mouseout": {"state": {"target": ["12", "1", "2", "3", "7", "4", "5", "6", "6", "7", "18", "14"], "time": [1545, 4570, 5959, 9676, 10474, 11239, 13077, 13587, 13914, 15832, 15882, 15907]}, "edge": {"target": [], "time": []}}}, "displayed_time": "19.99", "trialTime": 23930, "trial_type": "mouselab-mdp", "trial_index": 10, "time_elapsed": 483400, "internal_node_id": "0.0-2.1-2.1-0.1"}}, {"uniqueid": "w11930620:a35902061", "current_trial": 11, "dateTime": 1691159694546, "trialdata": {"revealed_states": [], "clicked_states": ["12", "13", "14", "19", "21"], "num_clicks_accrued": [0, 0, 0, 0, 0, 0, 0, 0, 0, 0, 0, 0, 0], "stateRewards": ["", -10, -10, 10, 10, 10, 10, 10, -10, 10, -10, -10, -10, -10, -10, -10, -10, -10, 10, 10, -10, -10, -10, 10, 10, -10, 10, 10, 10, 10, -10, 10, -10, -10], "withholdReward": false, "trial_id": "practice_2", "block": "test", "trialIndex": 3, "score": -29, "costs": -2.5, "simulationMode": [null, null, null, null, null], "rewards": [-10, -10, -10, 10, -10], "path": ["0", "0", "12", "13", "14", "19", "21"], "rt": [7251, 169, 66, 560, 219], "actions": ["right", "right", "right", "down", "down"], "actionTimes": [9570, 10251, 10829, 11895, 12617], "queries": {"click": {"state": {"target": ["12", "13", "14", "19", "21"], "time": [3148, 4435, 5931, 7037, 8203]}, "edge": {"target": [], "time": []}}, "mouseover": {"state": {"target": ["12", "13", "14", "19", "21"], "time": [2850, 3593, 5066, 6359, 7454]}, "edge": {"target": [], "time": []}}, "mouseout": {"state": {"target": ["0", "12", "13", "14", "19", "19", "21"], "time": [1804, 3242, 4522, 6267, 7126, 7404, 8721]}, "edge": {"target": [], "time": []}}}, "displayed_time": "13.13", "trialTime": 14472, "trial_type": "mouselab-mdp", "trial_index": 11, "time_elapsed": 498365, "internal_node_id": "0.0-2.1-2.1-1.1"}}, {"uniqueid": "w11930620:a35902061", "current_trial": 12, "dateTime": 1691159708536, "trialdata": {"view_history": [{"page_index": 0, "viewing_time": 12780}, {"page_index": 1, "viewing_time": 1204}], "rt": 13984, "trial_id": "mouselab_instructions_2_misaligned", "trial_type": "instructions", "trial_index": 12, "time_elapsed": 512357, "internal_node_id": "0.0-2.1-3.1"}}, {"uniqueid": "w11930620:a35902061", "current_trial": 13, "dateTime": 1691159729783, "trialdata": {"rt": 21245, "response": {"Q0": "The cost for clicking on nodes may vary between nodes.", "Q1": "The better I perform the higher my bonus will be.", "Q2": "No, the amount of cash at each node of the web may be different each time.", "Q3": "To get the highest total score.", "Q4": "Only before moving the spider.", "Q5": "3 seconds"}, "question_order": [0, 1, 2, 3, 4, 5], "correct": {"Q0": "The cost for clicking on nodes may vary between nodes.", "Q1": "The better I perform the higher my bonus will be.", "Q2": "No, the amount of cash at each node of the web may be different each time.", "Q3": "To get the highest total score.", "Q4": "Only before moving the spider.", "Q5": "3 seconds"}, "trial_id": "mouselab_quiz_misaligned", "trial_type": "survey-multi-choice", "trial_index": 13, "time_elapsed": 533604, "internal_node_id": "0.0-2.1-4.1"}}, {"uniqueid": "w11930620:a35902061", "current_trial": 14, "dateTime": 1691159751301, "trialdata": {"rt": 21509, "stimulus": "\n<h1> Get ready to start the game! </h1>\n\nThank you for reading the instructions. Get ready start with the 40 rounds of this game.\n<br><br>\nIf you need to take a break, feel free to take one after the end of a round, before continuing to the next one.\n<br><br>\nRemember, the more money the spider gets, the bigger your bonus will be!\n<br><br>\n<div style='text-align: center;'>Press <code>space</code> to begin.</div>\n\n<br><br>\n(If, at any point, the <code>space</code> key does not take you to the next page, click once on the text and try again.)", "response": " ", "trial_id": "mdp_ready", "trial_type": "html-keyboard-response", "trial_index": 14, "time_elapsed": 555121, "internal_node_id": "0.0-4.0-0.0"}}, {"uniqueid": "w11930620:a35902061", "current_trial": 15, "dateTime": 1691159771936, "trialdata": {"revealed_states": [], "clicked_states": ["12", "13", "14", "15", "16"], "num_clicks_accrued": [0, 0, 0, 0, 0, 0, 0, 0, 0, 0, 0, 0, 0], "stateRewards": ["", 2, -1, 4, -9, -43, 7, 54, -13, 38, -40, -83, -1, 2, -8, -10, 34, -33, 11, -14, -79, 65, 26, 1, 2, 4, 10, 21, 1, 86, 4, -53, 28, -29], "withholdReward": false, "trial_id": "mdp_trial_1", "block": "test", "trialIndex": 4, "score": 12.25, "costs": -4.75, "simulationMode": [null, null, null, null, null, null], "rewards": [-1, 2, -8, -10, 34], "path": ["0", "0", "12", "13", "14", "15", "16"], "rt": [7870, 556, 358, 3, 345, 67], "actions": ["right", "right", "right", "right", "up", "up"], "actionTimes": [12224, 12782, 13657, 14181, 15045, 15626], "queries": {"click": {"state": {"target": ["12", "13", "14", "15", "16"], "time": [6104, 7611, 8834, 9873, 10689]}, "edge": {"target": [], "time": []}}, "mouseover": {"state": {"target": ["0", "12", "13", "14", "15", "16"], "time": [5647, 5736, 6620, 8444, 9318, 10515]}, "edge": {"target": [], "time": []}}, "mouseout": {"state": {"target": ["0", "0", "12", "13", "14", "15", "16"], "time": [781, 5663, 6588, 8394, 8924, 10410, 11256]}, "edge": {"target": [], "time": []}}}, "displayed_time": "18.36", "trialTime": 19931, "trial_type": "mouselab-mdp", "trial_index": 15, "time_elapsed": 575756, "internal_node_id": "0.0-4.0-1.0-0.0"}}, {"uniqueid": "w11930620:a35902061", "current_trial": 16, "dateTime": 1691159797096, "trialdata": {"revealed_states": [], "clicked_states": ["1", "2", "3", "8", "11", "10"], "num_clicks_accrued": [0, 0, 0, 0, 0, 0, 0, 0, 0, 0, 0, 0, 0], "stateRewards": ["", 1, -1, 8, 4, 76, -33, -17, -3, -1, -54, -74, -2, 2, -5, 13, -51, 63, 83, 1, 84, 29, -36, 2, -1, 7, -12, -10, -44, -43, -14, 8, -69, 19], "withholdReward": false, "trial_id": "mdp_trial_2", "block": "test", "trialIndex": 5, "score": -75.9, "costs": -6.9, "simulationMode": [null, null, null, null, null, null], "rewards": [1, -1, 8, -3, -74], "path": ["0", "0", "1", "2", "3", "8", "11"], "rt": [11583, 654, 340, 342, 85, 1305], "actions": ["up", "up", "up", "up", "left", "left"], "actionTimes": [17638, 18297, 19151, 19997, 20586, 22402], "queries": {"click": {"state": {"target": ["1", "2", "3", "8", "11", "10"], "time": [7430, 8287, 9602, 10646, 12770, 16223]}, "edge": {"target": [], "time": []}}, "mouseover": {"state": {"target": ["1", "2", "3", "8", "10", "10", "11", "9", "9", "8", "9", "8", "10", "10", "2", "18"], "time": [6946, 8070, 9368, 10446, 11563, 12311, 12552, 13656, 13973, 14462, 14796, 15437, 15553, 15972, 16569, 16660]}, "edge": {"target": [], "time": []}}, "mouseout": {"state": {"target": ["18", "0", "0", "1", "2", "3", "8", "8", "10", "10", "11", "9", "9", "8", "9", "8", "10", "10", "2"], "time": [4702, 5283, 5627, 7870, 9084, 10280, 11006, 11302, 12234, 12375, 13556, 13684, 14444, 14715, 15345, 15511, 15636, 16535, 16579]}, "edge": {"target": [], "time": []}}}, "displayed_time": "22.91", "trialTime": 24871, "trial_type": "mouselab-mdp", "trial_index": 16, "time_elapsed": 600916, "internal_node_id": "0.0-4.0-1.0-1.0"}}, {"uniqueid": "w11930620:a35902061", "current_trial": 17, "dateTime": 1691159816248, "trialdata": {"revealed_states": [], "clicked_states": [], "num_clicks_accrued": [0, 0, 0, 0, 0, 0, 0, 0, 0, 0, 0, 0, 0], "stateRewards": ["", -1, -3, -7, -4, -85, -70, 79, 8, 84, -66, 42, 2, -2, -3, -16, -54, -66, 68, -3, 21, -14, 7, -2, -1, -3, -8, 75, 80, 86, -7, -84, 73, -16], "withholdReward": false, "trial_id": "mdp_trial_3", "block": "test", "trialIndex": 6, "score": 15, "costs": 0, "simulationMode": [null, null, null, null, null], "rewards": [2, -2, -3, -3, 21], "path": ["0", "0", "12", "13", "14", "19", "20"], "rt": [1624, 437, 407, 1489, 2629], "actions": ["right", "right", "right", "down", "right"], "actionTimes": [4311, 5252, 6168, 8160, 11292], "queries": {"click": {"state": {"target": [], "time": []}, "edge": {"target": [], "time": []}}, "mouseover": {"state": {"target": [], "time": []}, "edge": {"target": [], "time": []}}, "mouseout": {"state": {"target": ["18", "0", "12", "0"], "time": [1455, 1562, 1937, 2249]}, "edge": {"target": [], "time": []}}}, "displayed_time": "16.69", "trialTime": 18498, "trial_type": "mouselab-mdp", "trial_index": 17, "time_elapsed": 620068, "internal_node_id": "0.0-4.0-1.0-2.0"}}, {"uniqueid": "w11930620:a35902061", "current_trial": 18, "dateTime": 1691159835566, "trialdata": {"revealed_states": [], "clicked_states": ["23", "24", "25", "26", "30"], "num_clicks_accrued": [0, 0, 0, 0, 0, 0, 0, 0, 0, 0, 0, 0, 0], "stateRewards": ["", 2, 1, -3, 7, 46, 11, -36, 16, 71, 5, 1, 2, -2, -8, -3, -4, 6, 55, 7, 68, -54, 2, 1, 1, 6, -6, 42, -4, -84, -11, -65, 63, 25], "withholdReward": false, "trial_id": "mdp_trial_4", "block": "test", "trialIndex": 7, "score": -72.15, "costs": -4.1499999999999995, "simulationMode": [null, null, null, null, null], "rewards": [1, 1, 6, -11, -65], "path": ["0", "0", "23", "24", "25", "30", "31"], "rt": [9101, 550, 2, 2532, 1088], "actions": ["left", "left", "left", "down", "right"], "actionTimes": [10500, 11545, 12051, 15106, 16708], "queries": {"click": {"state": {"target": ["23", "24", "25", "26", "30"], "time": [2302, 3769, 5336, 7490, 8910]}, "edge": {"target": [], "time": []}}, "mouseover": {"state": {"target": ["0", "23", "24", "24", "25", "30", "26", "30"], "time": [1950, 2054, 3054, 3349, 4475, 6323, 6953, 8650]}, "edge": {"target": [], "time": []}}, "mouseout": {"state": {"target": ["0", "0", "0", "23", "24", "24", "25", "30", "25", "26", "25", "30"], "time": [1102, 1409, 2012, 2389, 3087, 3788, 6248, 6472, 6659, 8078, 8326, 9832]}, "edge": {"target": [], "time": []}}}, "displayed_time": "17.21", "trialTime": 19008, "trial_type": "mouselab-mdp", "trial_index": 18, "time_elapsed": 639386, "internal_node_id": "0.0-4.0-1.0-3.0"}}, {"uniqueid": "w11930620:a35902061", "current_trial": 19, "dateTime": 1691159853933, "trialdata": {"revealed_states": [], "clicked_states": ["12", "13", "14", "15", "18"], "num_clicks_accrued": [0, 0, 0, 0, 0, 0, 0, 0, 0, 0, 0, 0, 0], "stateRewards": ["", 2, -3, 5, 11, -79, 54, 11, -9, -78, 33, 22, -2, -1, 2, 14, 43, 34, 1, 10, 49, -65, 39, -1, 1, -1, 3, -16, -2, 11, 2, 12, 48, -65], "withholdReward": false, "trial_id": "mdp_trial_5", "block": "test", "trialIndex": 8, "score": 42.25, "costs": -4.75, "simulationMode": [null, null, null, null, null], "rewards": [-2, -1, 2, 14, 34], "path": ["0", "0", "12", "13", "14", "15", "17"], "rt": [8268, 218, 155, 762, 575], "actions": ["right", "right", "right", "up", "right"], "actionTimes": [11023, 11758, 12415, 13689, 14774], "queries": {"click": {"state": {"target": ["12", "13", "14", "15", "18"], "time": [4535, 5313, 6011, 7133, 7813]}, "edge": {"target": [], "time": []}}, "mouseover": {"state": {"target": ["0", "12", "13", "14", "15", "18", "16", "16", "17"], "time": [3527, 4069, 4919, 5862, 6832, 7628, 8668, 9576, 10232]}, "edge": {"target": [], "time": []}}, "mouseout": {"state": {"target": ["31", "13", "12", "0", "12", "13", "14", "15", "18", "16", "16", "17"], "time": [1537, 1882, 1936, 3543, 4877, 5776, 6800, 7245, 8535, 9309, 10174, 10282]}, "edge": {"target": [], "time": []}}}, "displayed_time": "16.76", "trialTime": 18010, "trial_type": "mouselab-mdp", "trial_index": 19, "time_elapsed": 657753, "internal_node_id": "0.0-4.0-1.0-4.0"}}, {"uniqueid": "w11930620:a35902061", "current_trial": 20, "dateTime": 1691159873297, "trialdata": {"revealed_states": [], "clicked_states": [], "num_clicks_accrued": [0, 0, 0, 0, 0, 0, 0, 0, 0, 0, 0, 0, 0], "stateRewards": ["", -2, 2, 3, -7, -31, -33, 29, -8, -57, 50, -83, -1, -1, 5, 13, -23, -62, 25, 5, -66, -85, 14, 1, -2, -1, 16, 71, 33, -19, -14, 5, -43, 79], "withholdReward": false, "trial_id": "mdp_trial_6", "block": "test", "trialIndex": 9, "score": 22, "costs": 0, "simulationMode": [null, null, null, null, null], "rewards": [-1, -1, 5, 5, 14], "path": ["0", "0", "12", "13", "14", "19", "22"], "rt": [7397, 364, 418, 793, 749], "actions": ["right", "right", "right", "down", "left"], "actionTimes": [11395, 12274, 13210, 14504, 15758], "queries": {"click": {"state": {"target": [], "time": []}, "edge": {"target": [], "time": []}}, "mouseover": {"state": {"target": ["0", "12", "13", "10", "28", "24", "25", "24", "23", "12", "12", "13", "14"], "time": [4006, 4641, 4653, 6592, 6659, 6692, 7035, 7296, 7572, 7954, 8362, 10583, 10615]}, "edge": {"target": [], "time": []}}, "mouseout": {"state": {"target": ["17", "16", "0", "12", "13", "10", "28", "24", "25", "24", "23", "12", "12", "13", "14"], "time": [2868, 3109, 4011, 4649, 4658, 6609, 6676, 6701, 7213, 7333, 7860, 7988, 10570, 10602, 10629]}, "edge": {"target": [], "time": []}}}, "displayed_time": "18.00", "trialTime": 18995, "trial_type": "mouselab-mdp", "trial_index": 20, "time_elapsed": 677117, "internal_node_id": "0.0-4.0-1.0-5.0"}}, {"uniqueid": "w11930620:a35902061", "current_trial": 21, "dateTime": 1691159891957, "trialdata": {"revealed_states": [], "clicked_states": ["24", "23", "31", "25"], "num_clicks_accrued": [0, 0, 0, 0, 0, 0, 0, 0, 0, 0, 0, 0, 0], "stateRewards": ["", -2, 2, -2, -7, -50, -62, -45, 7, 36, -24, -72, -1, -1, 8, -1, -67, 20, -52, 2, 35, -50, 80, -1, 1, 6, -6, -70, 6, 88, 8, -47, 74, -19], "withholdReward": false, "trial_id": "mdp_trial_7", "block": "test", "trialIndex": 10, "score": 84.8, "costs": -3.2, "simulationMode": [null, null, null, null, null], "rewards": [-1, 1, 6, 8, 74], "path": ["0", "0", "23", "24", "25", "30", "32"], "rt": [8117, 30, 24, 421, 12], "actions": ["left", "left", "left", "down", "down"], "actionTimes": [10769, 11318, 11867, 12800, 13323], "queries": {"click": {"state": {"target": ["24", "23", "31", "25"], "time": [4036, 4617, 6102, 9477]}, "edge": {"target": [], "time": []}}, "mouseover": {"state": {"target": ["31", "24", "23", "31", "31", "25", "30", "30", "25", "25", "22"], "time": [3139, 3866, 4480, 5295, 5966, 6793, 7351, 7945, 8945, 9312, 9929]}, "edge": {"target": [], "time": []}}, "mouseout": {"state": {"target": ["14", "13", "12", "0", "31", "24", "23", "24", "31", "31", "25", "30", "30", "25", "25", "22"], "time": [1410, 1443, 1969, 3012, 3238, 4330, 4887, 4996, 5412, 6297, 7334, 7700, 8881, 9042, 9887, 9937]}, "edge": {"target": [], "time": []}}}, "displayed_time": "16.66", "trialTime": 18251, "trial_type": "mouselab-mdp", "trial_index": 21, "time_elapsed": 695777, "internal_node_id": "0.0-4.0-1.0-6.0"}}, {"uniqueid": "w11930620:a35902061", "current_trial": 22, "dateTime": 1691159910950, "trialdata": {"revealed_states": [], "clicked_states": [], "num_clicks_accrued": [0, 0, 0, 0, 0, 0, 0, 0, 0, 0, 0, 0, 0], "stateRewards": ["", 2, -1, -2, -5, -47, -57, -33, -11, 31, -18, -72, -2, 1, -4, -8, -46, -53, -50, 15, -85, -9, 39, -2, -2, 1, 14, -1, -8, 53, -12, -41, -74, 62], "withholdReward": false, "trial_id": "mdp_trial_8", "block": "test", "trialIndex": 11, "score": -53, "costs": 0, "simulationMode": [null, null, null, null, null], "rewards": [2, -1, -2, -5, -47], "path": ["0", "0", "1", "2", "3", "4", "5"], "rt": [4524, 644, 177, 361, 21], "actions": ["up", "up", "up", "right", "up"], "actionTimes": [7082, 8238, 8928, 9799, 10335], "queries": {"click": {"state": {"target": [], "time": []}, "edge": {"target": [], "time": []}}, "mouseover": {"state": {"target": ["12", "13", "14", "19", "14", "13", "12", "13", "14"], "time": [2787, 2869, 2903, 4891, 5067, 5338, 5533, 6085, 6135]}, "edge": {"target": [], "time": []}}, "mouseout": {"state": {"target": ["21", "0", "12", "13", "14", "19", "14", "13", "12", "13", "14"], "time": [1158, 2220, 2828, 2887, 2935, 4916, 5268, 5366, 6061, 6127, 6152]}, "edge": {"target": [], "time": []}}}, "displayed_time": "16.57", "trialTime": 18621, "trial_type": "mouselab-mdp", "trial_index": 22, "time_elapsed": 714770, "internal_node_id": "0.0-4.0-1.0-7.0"}}, {"uniqueid": "w11930620:a35902061", "current_trial": 23, "dateTime": 1691159928658, "trialdata": {"revealed_states": [], "clicked_states": ["12", "13", "14", "19", "21"], "num_clicks_accrued": [0, 0, 0, 0, 0, 0, 0, 0, 0, 0, 0, 0, 0], "stateRewards": ["", -1, -3, -6, 14, 41, 18, 63, -14, 80, 21, 17, -2, -4, -2, -5, 13, 70, 8, -4, -64, -10, -20, 2, -1, 4, -1, -17, -55, 42, -7, 47, 54, 15], "withholdReward": false, "trial_id": "mdp_trial_9", "block": "test", "trialIndex": 12, "score": -26.75, "costs": -4.75, "simulationMode": [null, null, null, null, null, null], "rewards": [-2, -4, -2, -4, -10], "path": ["0", "0", "12", "13", "14", "19", "21"], "rt": [7846, 610, 42, 1, 731, 2], "actions": ["right", "right", "right", "right", "down", "down"], "actionTimes": [10423, 11036, 11595, 12111, 13356, 13865], "queries": {"click": {"state": {"target": ["12", "13", "14", "19", "21"], "time": [5116, 6380, 7034, 7782, 8382]}, "edge": {"target": [], "time": []}}, "mouseover": {"state": {"target": ["16", "16", "18", "12", "13", "13", "14", "19", "21", "20"], "time": [2992, 4265, 4416, 4824, 5519, 6221, 6801, 7566, 8165, 8980]}, "edge": {"target": [], "time": []}}, "mouseout": {"state": {"target": ["14", "13", "12", "0", "16", "16", "18", "12", "13", "13", "14", "19", "21"], "time": [1384, 1500, 1667, 1758, 3018, 4363, 4457, 5477, 5943, 6759, 7491, 8090, 8797]}, "edge": {"target": [], "time": []}}}, "displayed_time": "16.58", "trialTime": 17367, "trial_type": "mouselab-mdp", "trial_index": 23, "time_elapsed": 732478, "internal_node_id": "0.0-4.0-1.0-8.0"}}, {"uniqueid": "w11930620:a35902061", "current_trial": 24, "dateTime": 1691159946468, "trialdata": {"revealed_states": [], "clicked_states": ["1", "2", "3", "8", "10"], "num_clicks_accrued": [0, 0, 0, 0, 0, 0, 0, 0, 0, 0, 0, 0, 0], "stateRewards": ["", 1, 2, -3, -5, 66, -50, -47, -5, 1, 28, -27, 1, 1, -1, -6, 37, -25, 56, 1, -82, -66, -40, -1, -4, -7, 15, -61, -23, 26, 10, 14, -56, 29], "withholdReward": false, "trial_id": "mdp_trial_10", "block": "test", "trialIndex": 13, "score": 18.25, "costs": -4.75, "simulationMode": [null, null, null, null, null], "rewards": [1, 2, -3, -5, 28], "path": ["0", "0", "1", "2", "3", "8", "10"], "rt": [7087, 39, 600, 384, 65], "actions": ["up", "up", "up", "left", "down"], "actionTimes": [9332, 9874, 10985, 11881, 12458], "queries": {"click": {"state": {"target": ["1", "2", "3", "8", "10"], "time": [3251, 4064, 4946, 5700, 6307]}, "edge": {"target": [], "time": []}}, "mouseover": {"state": {"target": ["0", "1", "2", "2", "3", "8", "10", "4", "4", "4"], "time": [2709, 3063, 3504, 3755, 4719, 5476, 6066, 6826, 7108, 7409]}, "edge": {"target": [], "time": []}}, "mouseout": {"state": {"target": ["20", "14", "19", "22", "0", "0", "1", "2", "2", "3", "8", "10", "4", "4"], "time": [1086, 1158, 1209, 1465, 1764, 2863, 3446, 3571, 4519, 5418, 6036, 6770, 6887, 7217]}, "edge": {"target": [], "time": []}}}, "displayed_time": "16.25", "trialTime": 17273, "trial_type": "mouselab-mdp", "trial_index": 24, "time_elapsed": 750288, "internal_node_id": "0.0-4.0-1.0-9.0"}}, {"uniqueid": "w11930620:a35902061", "current_trial": 25, "dateTime": 1691159979967, "trialdata": {"revealed_states": [], "clicked_states": ["12", "13", "14", "15", "16"], "num_clicks_accrued": [0, 0, 0, 0, 0, 0, 0, 0, 0, 0, 0, 0, 0], "stateRewards": ["", 2, -2, -8, 9, -20, 55, -58, 14, 42, 2, 36, 1, -3, -5, 5, -58, 57, 60, 16, 57, 30, -70, -2, 1, 3, 10, 59, 23, 77, -13, -26, 88, -72], "withholdReward": false, "trial_id": "mdp_trial_11", "block": "test", "trialIndex": 14, "score": 50.25, "costs": -4.75, "simulationMode": [null, null, null, null, null], "rewards": [1, -3, -5, 5, 57], "path": ["0", "0", "12", "13", "14", "15", "17"], "rt": [6525, 247, 84, 440, 178], "actions": ["right", "right", "right", "up", "right"], "actionTimes": [24402, 25160, 25755, 26702, 27385], "queries": {"click": {"state": {"target": ["12", "13", "14", "15", "16"], "time": [18647, 19611, 20229, 20950, 21601]}, "edge": {"target": [], "time": []}}, "mouseover": {"state": {"target": ["12", "13", "14", "14", "13", "14", "15", "16", "17", "18"], "time": [18288, 18930, 18988, 19171, 19413, 19987, 20744, 21303, 22146, 23356]}, "edge": {"target": [], "time": []}}, "mouseout": {"state": {"target": ["4", "12", "0", "12", "13", "14", "14", "13", "14", "15", "16", "16", "17", "15"], "time": [16821, 17230, 18076, 18713, 18972, 19005, 19222, 19937, 20310, 21248, 21858, 21931, 23123, 23214]}, "edge": {"target": [], "time": []}}}, "displayed_time": "31.88", "trialTime": 33150, "trial_type": "mouselab-mdp", "trial_index": 25, "time_elapsed": 783787, "internal_node_id": "0.0-4.0-1.0-10.0"}}, {"uniqueid": "w11930620:a35902061", "current_trial": 26, "dateTime": 1691159999387, "trialdata": {"revealed_states": [], "clicked_states": [], "num_clicks_accrued": [0, 0, 0, 0, 0, 0, 0, 0, 0, 0, 0, 0, 0], "stateRewards": ["", 2, -2, -3, 10, -4, -1, -11, -8, -9, -36, -78, 2, 1, 7, -7, 44, -1, -31, -1, 26, 47, 83, 2, -4, -4, -6, -52, -76, -81, -1, -59, 45, 67], "withholdReward": false, "trial_id": "mdp_trial_12", "block": "test", "trialIndex": 15, "score": 2, "costs": 0, "simulationMode": [null, null, null, null, null], "rewards": [2, 1, 7, -7, -1], "path": ["0", "0", "12", "13", "14", "15", "17"], "rt": [5841, 33, 550, 359, 2298], "actions": ["right", "right", "right", "up", "right"], "actionTimes": [8532, 9068, 10133, 10999, 13803], "queries": {"click": {"state": {"target": [], "time": []}, "edge": {"target": [], "time": []}}, "mouseover": {"state": {"target": ["12", "13", "2"], "time": [3037, 3049, 6757]}, "edge": {"target": [], "time": []}}, "mouseout": {"state": {"target": ["18", "12", "0", "12", "13", "2"], "time": [1772, 2047, 3030, 3046, 3057, 6766]}, "edge": {"target": [], "time": []}}}, "displayed_time": "16.69", "trialTime": 19024, "trial_type": "mouselab-mdp", "trial_index": 26, "time_elapsed": 803207, "internal_node_id": "0.0-4.0-1.0-11.0"}}, {"uniqueid": "w11930620:a35902061", "current_trial": 27, "dateTime": 1691160016396, "trialdata": {"revealed_states": [], "clicked_states": ["24", "30", "33"], "num_clicks_accrued": [0, 0, 0, 0, 0, 0, 0, 0, 0, 0, 0, 0, 0], "stateRewards": ["", -2, -4, 6, 14, -34, 49, 36, -8, -3, 32, -4, 1, -2, 1, -8, -20, -71, -57, -7, -86, -62, -16, -2, -3, -5, 11, 23, -21, 53, 5, -5, 85, 73], "withholdReward": false, "trial_id": "mdp_trial_13", "block": "test", "trialIndex": 16, "score": 63.95, "costs": -4.05, "simulationMode": [null, null, null, null, null, null], "rewards": [-2, -3, -5, 5, 73], "path": ["0", "0", "23", "24", "25", "30", "33"], "rt": [7236, 1082, 18, 2, 449, 449], "actions": ["left", "left", "left", "left", "down", "left"], "actionTimes": [9173, 10258, 10788, 11295, 12258, 13227], "queries": {"click": {"state": {"target": ["24", "30", "33"], "time": [4290, 5280, 6478]}, "edge": {"target": [], "time": []}}, "mouseover": {"state": {"target": ["29", "24", "23", "24", "30", "32", "33", "32"], "time": [3200, 3340, 3642, 4057, 4940, 6005, 6238, 7115]}, "edge": {"target": [], "time": []}}, "mouseout": {"state": {"target": ["1", "23", "0", "29", "24", "23", "24", "30", "32", "33", "33", "32"], "time": [628, 645, 1002, 3241, 3529, 3782, 4790, 5963, 6013, 6565, 7058, 8122]}, "edge": {"target": [], "time": []}}}, "displayed_time": "15.94", "trialTime": 16568, "trial_type": "mouselab-mdp", "trial_index": 27, "time_elapsed": 820216, "internal_node_id": "0.0-4.0-1.0-12.0"}}, {"uniqueid": "w11930620:a35902061", "current_trial": 28, "dateTime": 1691160037249, "trialdata": {"revealed_states": [], "clicked_states": ["12", "13", "14", "19", "21"], "num_clicks_accrued": [0, 0, 0, 0, 0, 0, 0, 0, 0, 0, 0, 0, 0], "stateRewards": ["", -2, -1, -3, -1, -78, -6, 2, -1, 22, -88, 32, 2, 2, -7, -8, -51, -17, 54, 2, -44, 54, 75, 2, -2, -8, -15, -29, 12, -67, 15, -1, -47, -47], "withholdReward": false, "trial_id": "mdp_trial_14", "block": "test", "trialIndex": 17, "score": 48.25, "costs": -4.75, "simulationMode": [null, null, null, null, null], "rewards": [2, 2, -7, 2, 54], "path": ["0", "0", "12", "13", "14", "19", "21"], "rt": [11555, 91, 177, 718, 3], "actions": ["right", "right", "right", "down", "down"], "actionTimes": [15532, 16125, 16807, 18028, 18551], "queries": {"click": {"state": {"target": ["12", "13", "14", "19", "21"], "time": [4939, 6994, 9119, 10313, 11529]}, "edge": {"target": [], "time": []}}, "mouseover": {"state": {"target": ["12", "13", "13", "13", "14", "19", "21", "20"], "time": [4673, 5454, 6371, 6770, 8906, 9863, 11149, 12473]}, "edge": {"target": [], "time": []}}, "mouseout": {"state": {"target": ["22", "0", "23", "24", "23", "12", "12", "13", "13", "13", "14", "19", "19", "21", "20"], "time": [2784, 2808, 2824, 3052, 3218, 5015, 5413, 5807, 6405, 8879, 9630, 10335, 10998, 11619, 13397]}, "edge": {"target": [], "time": []}}}, "displayed_time": "19.07", "trialTime": 20450, "trial_type": "mouselab-mdp", "trial_index": 28, "time_elapsed": 841069, "internal_node_id": "0.0-4.0-1.0-13.0"}}, {"uniqueid": "w11930620:a35902061", "current_trial": 29, "dateTime": 1691160057915, "trialdata": {"revealed_states": [], "clicked_states": ["1", "2", "3", "8", "11", "10"], "num_clicks_accrued": [0, 0, 0, 0, 0, 0, 0, 0, 0, 0, 0, 0, 0], "stateRewards": ["", 1, 1, -5, 10, -31, 73, 14, -8, -23, 63, -70, -1, 2, 8, 7, 25, -59, 27, -10, -40, -71, -15, -2, 3, -8, -5, -19, 77, -34, 7, 67, 63, 19], "withholdReward": false, "trial_id": "mdp_trial_15", "block": "test", "trialIndex": 18, "score": 45.1, "costs": -6.9, "simulationMode": [null, null, null, null, null], "rewards": [1, 1, -5, -8, 63], "path": ["0", "0", "1", "2", "3", "8", "10"], "rt": [13344, 499, 54, 120, 52], "actions": ["up", "up", "up", "left", "down"], "actionTimes": [15481, 16482, 17038, 17671, 18236], "queries": {"click": {"state": {"target": ["1", "2", "3", "8", "11", "10"], "time": [3689, 4265, 5644, 6842, 7620, 11406]}, "edge": {"target": [], "time": []}}, "mouseover": {"state": {"target": ["1", "2", "3", "8", "11", "10", "10", "8", "9", "2", "12", "19"], "time": [3194, 4001, 5024, 6605, 7393, 8292, 11114, 12068, 12334, 14775, 14824, 14883]}, "edge": {"target": [], "time": []}}, "mouseout": {"state": {"target": ["14", "13", "12", "0", "1", "2", "3", "8", "11", "10", "10", "8", "9", "2", "12"], "time": [1306, 1381, 1622, 1676, 3763, 4692, 6439, 7327, 8250, 8308, 12035, 12101, 14725, 14790, 14840]}, "edge": {"target": [], "time": []}}}, "displayed_time": "18.75", "trialTime": 20109, "trial_type": "mouselab-mdp", "trial_index": 29, "time_elapsed": 861735, "internal_node_id": "0.0-4.0-1.0-14.0"}}, {"uniqueid": "w11930620:a35902061", "current_trial": 30, "dateTime": 1691160088324, "trialdata": {"revealed_states": [], "clicked_states": ["27", "28", "29", "33", "32", "31"], "num_clicks_accrued": [0, 0, 0, 0, 0, 0, 0, 0, 0, 0, 0, 0, 0], "stateRewards": ["", -2, -1, -6, -14, -55, 78, -13, 11, 14, -71, 59, 2, 2, 6, -6, 9, 38, 14, 7, 85, 11, 68, 1, -4, -1, -3, -63, -85, 9, -2, 63, -86, -10], "withholdReward": false, "trial_id": "mdp_trial_16", "block": "test", "trialIndex": 19, "score": 44.1, "costs": -12.9, "simulationMode": [null, null, null, null, null], "rewards": [1, -4, -1, -2, 63], "path": ["0", "0", "23", "24", "25", "30", "31"], "rt": [23187, 419, 31, 426, 53], "actions": ["left", "left", "left", "down", "right"], "actionTimes": [25188, 26128, 26676, 27617, 28182], "queries": {"click": {"state": {"target": ["27", "28", "29", "33", "32", "31"], "time": [4711, 7967, 11093, 14453, 19145, 22253]}, "edge": {"target": [], "time": []}}, "mouseover": {"state": {"target": ["23", "24", "23", "25", "26", "27", "26", "28", "26", "29", "26", "25", "30", "33", "32", "31"], "time": [2653, 2886, 3322, 3971, 4165, 4353, 5151, 6168, 8332, 8854, 12460, 12851, 13108, 13333, 18611, 21819]}, "edge": {"target": [], "time": []}}, "mouseout": {"state": {"target": ["19", "13", "12", "12", "0", "23", "24", "23", "25", "26", "27", "27", "26", "28", "26", "29", "26", "25", "30", "33", "32"], "time": [746, 813, 930, 1409, 2335, 2775, 3191, 3520, 4149, 4215, 4800, 5054, 6081, 8303, 8455, 12194, 12817, 12917, 13208, 18198, 21703]}, "edge": {"target": [], "time": []}}}, "displayed_time": "28.70", "trialTime": 29782, "trial_type": "mouselab-mdp", "trial_index": 30, "time_elapsed": 892144, "internal_node_id": "0.0-4.0-1.0-15.0"}}, {"uniqueid": "w11930620:a35902061", "current_trial": 31, "dateTime": 1691160109950, "trialdata": {"revealed_states": [], "clicked_states": ["17", "14", "16", "18"], "num_clicks_accrued": [0, 0, 0, 0, 0, 0, 0, 0, 0, 0, 0, 0, 0], "stateRewards": ["", 1, 1, -3, 2, 22, -25, -11, -5, 50, 49, 3, 1, -1, 8, 14, -85, -30, 57, -6, -39, -16, 59, -2, -1, 5, 5, 59, -16, 8, 4, 67, 56, -9], "withholdReward": false, "trial_id": "mdp_trial_17", "block": "test", "trialIndex": 20, "score": 71.6, "costs": -7.4, "simulationMode": [null, null, null, null, null], "rewards": [1, -1, 8, 14, 57], "path": ["0", "0", "12", "13", "14", "15", "18"], "rt": [13827, 135, 206, 242, 462], "actions": ["right", "right", "right", "up", "left"], "actionTimes": [16169, 16808, 17519, 18263, 19227], "queries": {"click": {"state": {"target": ["17", "14", "16", "18"], "time": [3857, 7157, 8935, 12145]}, "edge": {"target": [], "time": []}}, "mouseover": {"state": {"target": ["12", "13", "14", "15", "17", "14", "15", "16", "18", "14", "19", "20"], "time": [2873, 3161, 3223, 3572, 3606, 4787, 7660, 8051, 9391, 12712, 12862, 13228]}, "edge": {"target": [], "time": []}}, "mouseout": {"state": {"target": ["31", "25", "24", "23", "12", "13", "14", "15", "17", "17", "14", "15", "16", "18", "14", "19"], "time": [801, 1348, 1414, 1690, 3130, 3178, 3438, 3589, 3886, 4304, 7519, 7677, 9282, 12646, 12729, 12912]}, "edge": {"target": [], "time": []}}}, "displayed_time": "19.74", "trialTime": 21249, "trial_type": "mouselab-mdp", "trial_index": 31, "time_elapsed": 913770, "internal_node_id": "0.0-4.0-1.0-16.0"}}, {"uniqueid": "w11930620:a35902061", "current_trial": 32, "dateTime": 1691160127913, "trialdata": {"revealed_states": [], "clicked_states": ["22", "20"], "num_clicks_accrued": [0, 0, 0, 0, 0, 0, 0, 0, 0, 0, 0, 0, 0], "stateRewards": ["", 2, 3, -3, 12, -43, 81, -82, -15, 58, -7, -75, -1, -1, 3, -5, 50, -25, -8, 4, 66, 65, -66, 2, -4, 2, -1, -10, 10, 37, 11, 88, -37, 8], "withholdReward": false, "trial_id": "mdp_trial_18", "block": "test", "trialIndex": 21, "score": 66.7, "costs": -4.3, "simulationMode": [null, null, null, null, null], "rewards": [-1, -1, 3, 4, 66], "path": ["0", "0", "12", "13", "14", "19", "20"], "rt": [8648, 109, 277, 319, 291], "actions": ["right", "right", "right", "down", "right"], "actionTimes": [11063, 11683, 12463, 13284, 14086], "queries": {"click": {"state": {"target": ["22", "20"], "time": [3738, 6853]}, "edge": {"target": [], "time": []}}, "mouseover": {"state": {"target": ["12", "13", "22", "19", "20", "20", "21"], "time": [2997, 3145, 3359, 4098, 4156, 4596, 7415]}, "edge": {"target": [], "time": []}}, "mouseout": {"state": {"target": ["20", "19", "22", "12", "0", "23", "12", "13", "22", "19", "20", "20", "21"], "time": [487, 792, 836, 1066, 1116, 1413, 3063, 3267, 4056, 4131, 4331, 7091, 10507]}, "edge": {"target": [], "time": []}}}, "displayed_time": "16.42", "trialTime": 17215, "trial_type": "mouselab-mdp", "trial_index": 32, "time_elapsed": 931733, "internal_node_id": "0.0-4.0-1.0-17.0"}}, {"uniqueid": "w11930620:a35902061", "current_trial": 33, "dateTime": 1691160151939, "trialdata": {"revealed_states": [], "clicked_states": ["27", "28", "29", "33"], "num_clicks_accrued": [0, 0, 0, 0, 0, 0, 0, 0, 0, 0, 0, 0, 0], "stateRewards": ["", -2, -3, -5, 8, 27, 11, 43, -6, -24, -87, 69, -2, 1, 1, 9, 19, 48, -37, 9, -14, 45, 62, 1, 2, 1, 16, -81, -41, 22, 4, -6, -63, 47], "withholdReward": false, "trial_id": "mdp_trial_19", "block": "test", "trialIndex": 22, "score": 46.4, "costs": -8.6, "simulationMode": [null, null, null, null, null], "rewards": [1, 2, 1, 4, 47], "path": ["0", "0", "23", "24", "25", "30", "33"], "rt": [15203, 2, 438, 500, 226], "actions": ["left", "left", "left", "down", "left"], "actionTimes": [17313, 17818, 18769, 19779, 20508], "queries": {"click": {"state": {"target": ["27", "28", "29", "33"], "time": [3009, 6157, 9440, 13189]}, "edge": {"target": [], "time": []}}, "mouseover": {"state": {"target": ["23", "28", "26", "27", "28", "26", "29", "33", "30", "31"], "time": [2230, 2455, 2480, 2809, 3528, 6490, 6615, 11424, 13650, 13833]}, "edge": {"target": [], "time": []}}, "mouseout": {"state": {"target": ["21", "21", "19", "13", "10", "11", "27", "26", "23", "0", "23", "28", "26", "27", "28", "26", "29", "29", "33", "30"], "time": [504, 616, 679, 704, 746, 770, 1056, 1081, 1663, 2172, 2247, 2471, 2513, 3295, 6432, 6540, 9529, 11332, 13290, 13759]}, "edge": {"target": [], "time": []}}}, "displayed_time": "21.01", "trialTime": 23636, "trial_type": "mouselab-mdp", "trial_index": 33, "time_elapsed": 955759, "internal_node_id": "0.0-4.0-1.0-18.0"}}, {"uniqueid": "w11930620:a35902061", "current_trial": 34, "dateTime": 1691160191349, "trialdata": {"revealed_states": [], "clicked_states": ["7", "6", "5", "9", "11", "10", "16", "18", "17"], "num_clicks_accrued": [0, 0, 0, 0, 0, 0, 0, 0, 0, 0, 0, 0, 0], "stateRewards": ["", -1, -1, 7, -15, -43, -21, -84, -9, -45, -66, 2, 1, -2, 2, 8, -27, 44, -52, -5, -84, 11, 53, 1, 4, -4, 16, 83, -82, -15, -16, 68, -43, 81], "withholdReward": false, "trial_id": "mdp_trial_20", "block": "test", "trialIndex": 23, "score": 33.650000000000006, "costs": -19.349999999999998, "simulationMode": [null, null, null, null, null], "rewards": [1, -2, 2, 8, 44], "path": ["0", "0", "12", "13", "14", "15", "17"], "rt": [31829, 48, 104, 38, 422], "actions": ["right", "right", "right", "up", "right"], "actionTimes": [33597, 34149, 34762, 35314, 36254], "queries": {"click": {"state": {"target": ["7", "6", "5", "9", "11", "10", "16", "18", "17"], "time": [3820, 6947, 10156, 13590, 16735, 19947, 23538, 27199, 30522]}, "edge": {"target": [], "time": []}}, "mouseover": {"state": {"target": ["12", "12", "7", "6", "5", "9", "11", "10", "2", "16", "15", "18", "15", "17"], "time": [2586, 3065, 3402, 4150, 7310, 13139, 14214, 17371, 20833, 21307, 24318, 26996, 27659, 27867]}, "edge": {"target": [], "time": []}}, "mouseout": {"state": {"target": ["0", "12", "12", "7", "6", "5", "9", "11", "10", "2", "16", "15", "18", "18", "15", "17"], "time": [1205, 2627, 3165, 4045, 7276, 12918, 13959, 17130, 20816, 20858, 24265, 26894, 27275, 27609, 27817, 31250]}, "edge": {"target": [], "time": []}}}, "displayed_time": "36.76", "trialTime": 38672, "trial_type": "mouselab-mdp", "trial_index": 34, "time_elapsed": 995169, "internal_node_id": "0.0-4.0-1.0-19.0"}}, {"uniqueid": "w11930620:a35902061", "current_trial": 35, "dateTime": 1691160208746, "trialdata": {"revealed_states": [], "clicked_states": ["20"], "num_clicks_accrued": [0, 0, 0, 0, 0, 0, 0, 0, 0, 0, 0, 0, 0], "stateRewards": ["", 1, 3, 3, -10, 52, 68, 59, 12, 7, 49, 21, -2, -3, -4, -2, -2, 63, 63, -4, 44, 43, -76, -2, -3, -6, 13, 48, 36, 12, -5, -36, -33, -11], "withholdReward": false, "trial_id": "mdp_trial_21", "block": "test", "trialIndex": 24, "score": 28.85, "costs": -2.15, "simulationMode": [null, null, null, null, null], "rewards": [-2, -3, -4, -4, 44], "path": ["0", "0", "12", "13", "14", "19", "20"], "rt": [5369, 319, 46, 530, 90], "actions": ["right", "right", "right", "down", "right"], "actionTimes": [7201, 8023, 8580, 9623, 10216], "queries": {"click": {"state": {"target": ["20"], "time": [3352]}, "edge": {"target": [], "time": []}}, "mouseover": {"state": {"target": ["14", "19", "20", "21"], "time": [2633, 2783, 3124, 4310]}, "edge": {"target": [], "time": []}}, "mouseout": {"state": {"target": ["17", "14", "22", "14", "19", "20"], "time": [866, 907, 932, 2724, 3024, 3661]}, "edge": {"target": [], "time": []}}}, "displayed_time": "15.84", "trialTime": 17000, "trial_type": "mouselab-mdp", "trial_index": 35, "time_elapsed": 1012566, "internal_node_id": "0.0-4.0-1.0-20.0"}}, {"uniqueid": "w11930620:a35902061", "current_trial": 36, "dateTime": 1691160226520, "trialdata": {"revealed_states": [], "clicked_states": [], "num_clicks_accrued": [0, 0, 0, 0, 0, 0, 0, 0, 0, 0, 0, 0, 0], "stateRewards": ["", 2, 3, 6, -12, -29, 12, 87, 4, 35, -30, 67, 2, 3, -5, -9, 44, 69, -8, 1, 45, -8, 28, -2, -1, -8, 11, -12, -5, 81, 9, 87, 82, 88], "withholdReward": false, "trial_id": "mdp_trial_22", "block": "test", "trialIndex": 25, "score": 85, "costs": 0, "simulationMode": [null, null, null, null, null], "rewards": [-2, -1, -8, 9, 87], "path": ["0", "0", "23", "24", "25", "30", "31"], "rt": [6709, 243, 224, 375, 20], "actions": ["left", "left", "left", "down", "right"], "actionTimes": [8252, 8998, 9728, 10605, 11128], "queries": {"click": {"state": {"target": [], "time": []}, "edge": {"target": [], "time": []}}, "mouseover": {"state": {"target": ["23", "24"], "time": [2594, 5463]}, "edge": {"target": [], "time": []}}, "mouseout": {"state": {"target": ["21", "12", "23", "24"], "time": [485, 1001, 2648, 5554]}, "edge": {"target": [], "time": []}}}, "displayed_time": "15.55", "trialTime": 17056, "trial_type": "mouselab-mdp", "trial_index": 36, "time_elapsed": 1030340, "internal_node_id": "0.0-4.0-1.0-21.0"}}, {"uniqueid": "w11930620:a35902061", "current_trial": 37, "dateTime": 1691160244622, "trialdata": {"revealed_states": [], "clicked_states": ["22", "21"], "num_clicks_accrued": [0, 0, 0, 0, 0, 0, 0, 0, 0, 0, 0, 0, 0], "stateRewards": ["", 1, -2, 4, 7, -43, -83, -60, -5, -86, -80, 83, -1, -2, 6, 11, -15, 21, 13, 9, 29, -49, 11, -1, 4, -6, -11, 87, 40, 63, -8, -39, -11, 62], "withholdReward": false, "trial_id": "mdp_trial_23", "block": "test", "trialIndex": 26, "score": 18.7, "costs": -4.3, "simulationMode": [null, null, null, null, null], "rewards": [-1, -2, 6, 9, 11], "path": ["0", "0", "12", "13", "14", "19", "22"], "rt": [7279, 27, 18, 528, 125], "actions": ["right", "right", "right", "down", "left"], "actionTimes": [10067, 10597, 11129, 12163, 12797], "queries": {"click": {"state": {"target": ["22", "21"], "time": [3833, 7010]}, "edge": {"target": [], "time": []}}, "mouseover": {"state": {"target": ["12", "13", "14", "19", "22", "21", "20"], "time": [2987, 3063, 3137, 3519, 3586, 4532, 7689]}, "edge": {"target": [], "time": []}}, "mouseout": {"state": {"target": ["25", "24", "23", "0", "0", "12", "13", "14", "19", "22", "21", "20"], "time": [1231, 1957, 2183, 2480, 2954, 3029, 3095, 3237, 3561, 4133, 7140, 14465]}, "edge": {"target": [], "time": []}}}, "displayed_time": "16.79", "trialTime": 17310, "trial_type": "mouselab-mdp", "trial_index": 37, "time_elapsed": 1048442, "internal_node_id": "0.0-4.0-1.0-22.0"}}, {"uniqueid": "w11930620:a35902061", "current_trial": 38, "dateTime": 1691160261675, "trialdata": {"revealed_states": [], "clicked_states": [], "num_clicks_accrued": [0, 0, 0, 0, 0, 0, 0, 0, 0, 0, 0, 0, 0], "stateRewards": ["", 2, -1, 8, -2, -16, 69, -39, -7, -13, -27, -86, 2, -2, 2, 13, -34, -16, -20, -5, 19, 81, 32, -2, -1, 2, -14, 20, 80, 58, 4, 70, 12, 73], "withholdReward": false, "trial_id": "mdp_trial_24", "block": "test", "trialIndex": 27, "score": -1, "costs": 0, "simulationMode": [null, null, null, null, null], "rewards": [2, -2, 2, 13, -16], "path": ["0", "0", "12", "13", "14", "15", "17"], "rt": [5595, 36, 29, 221, 64], "actions": ["right", "right", "right", "up", "right"], "actionTimes": [7517, 8061, 8604, 9346, 9915], "queries": {"click": {"state": {"target": [], "time": []}, "edge": {"target": [], "time": []}}, "mouseover": {"state": {"target": ["13", "18", "18"], "time": [4914, 5472, 6434]}, "edge": {"target": [], "time": []}}, "mouseout": {"state": {"target": ["19", "12", "0", "13", "18"], "time": [1153, 1258, 4470, 4932, 6014]}, "edge": {"target": [], "time": []}}}, "displayed_time": "15.92", "trialTime": 16480, "trial_type": "mouselab-mdp", "trial_index": 38, "time_elapsed": 1065495, "internal_node_id": "0.0-4.0-1.0-23.0"}}, {"uniqueid": "w11930620:a35902061", "current_trial": 39, "dateTime": 1691160279984, "trialdata": {"revealed_states": [], "clicked_states": ["7", "6"], "num_clicks_accrued": [0, 0, 0, 0, 0, 0, 0, 0, 0, 0, 0, 0, 0], "stateRewards": ["", 1, 1, -5, 8, -6, 45, 16, -6, -7, -22, -38, -1, -4, 8, -11, -16, 21, -45, -15, -59, -32, 42, -1, 3, 6, 11, -7, 34, -27, -8, 85, 43, -9], "withholdReward": false, "trial_id": "mdp_trial_25", "block": "test", "trialIndex": 28, "score": 45.7, "costs": -4.3, "simulationMode": [null, null, null, null, null], "rewards": [1, 1, -5, 8, 45], "path": ["0", "0", "1", "2", "3", "4", "6"], "rt": [7522, 298, 82, 370, 106], "actions": ["up", "up", "up", "right", "right"], "actionTimes": [10078, 10887, 11472, 12350, 12967], "queries": {"click": {"state": {"target": ["7", "6"], "time": [3923, 6982]}, "edge": {"target": [], "time": []}}, "mouseover": {"state": {"target": ["1", "2", "7", "6"], "time": [2699, 2860, 3601, 4255]}, "edge": {"target": [], "time": []}}, "mouseout": {"state": {"target": ["18", "0", "23", "24", "24", "23", "0", "0", "1", "2", "7", "6"], "time": [568, 816, 1460, 1493, 1746, 1917, 1959, 2616, 2804, 2890, 3948, 7651]}, "edge": {"target": [], "time": []}}}, "displayed_time": "16.57", "trialTime": 17506, "trial_type": "mouselab-mdp", "trial_index": 39, "time_elapsed": 1083804, "internal_node_id": "0.0-4.0-1.0-24.0"}}, {"uniqueid": "w11930620:a35902061", "current_trial": 40, "dateTime": 1691160298381, "trialdata": {"revealed_states": [], "clicked_states": ["27", "28"], "num_clicks_accrued": [0, 0, 0, 0, 0, 0, 0, 0, 0, 0, 0, 0, 0], "stateRewards": ["", 2, -1, 1, 10, -52, 86, -22, -2, -14, -63, 38, 1, 3, 7, -8, 11, -32, -27, 9, -71, 40, -87, -2, -1, 5, -7, 12, 31, -57, 13, 86, -58, 29], "withholdReward": false, "trial_id": "mdp_trial_26", "block": "test", "trialIndex": 29, "score": 21.7, "costs": -4.3, "simulationMode": [null, null, null, null, null], "rewards": [-2, -1, 5, -7, 31], "path": ["0", "0", "23", "24", "25", "26", "28"], "rt": [7286, 117, 535, 453, 92], "actions": ["left", "left", "left", "up", "right"], "actionTimes": [10682, 11307, 12354, 13317, 13920], "queries": {"click": {"state": {"target": ["27", "28"], "time": [4392, 7882]}, "edge": {"target": [], "time": []}}, "mouseover": {"state": {"target": ["23", "24", "25", "29", "27", "28"], "time": [3678, 3747, 3809, 3975, 4177, 4847]}, "edge": {"target": [], "time": []}}, "mouseout": {"state": {"target": ["7", "0", "23", "24", "25", "29", "27", "27", "28"], "time": [2663, 3586, 3729, 3791, 3840, 4056, 4473, 4680, 7998]}, "edge": {"target": [], "time": []}}}, "displayed_time": "17.40", "trialTime": 17927, "trial_type": "mouselab-mdp", "trial_index": 40, "time_elapsed": 1102201, "internal_node_id": "0.0-4.0-1.0-25.0"}}, {"uniqueid": "w11930620:a35902061", "current_trial": 41, "dateTime": 1691160315557, "trialdata": {"revealed_states": [], "clicked_states": [], "num_clicks_accrued": [0, 0, 0, 0, 0, 0, 0, 0, 0, 0, 0, 0, 0], "stateRewards": ["", 1, 2, 8, -2, 23, -69, -18, -16, 54, -21, 71, -1, -4, 7, 11, 43, -6, 88, 6, -55, 72, 43, 1, -3, -2, -1, 68, -31, -54, 4, -8, 25, -2], "withholdReward": false, "trial_id": "mdp_trial_27", "block": "test", "trialIndex": 30, "score": 25, "costs": 0, "simulationMode": [null, null, null, null, null], "rewards": [1, -3, -2, 4, 25], "path": ["0", "0", "23", "24", "25", "30", "32"], "rt": [5211, 196, 82, 1090, 61], "actions": ["left", "left", "left", "down", "down"], "actionTimes": [7362, 8060, 8653, 10252, 10815], "queries": {"click": {"state": {"target": [], "time": []}, "edge": {"target": [], "time": []}}, "mouseover": {"state": {"target": ["12", "13", "13", "13", "14", "19", "20", "21", "21"], "time": [2778, 2857, 3404, 4110, 4267, 4620, 5484, 6099, 6712]}, "edge": {"target": [], "time": []}}, "mouseout": {"state": {"target": ["28", "0", "12", "13", "13", "13", "14", "19", "20", "21"], "time": [1537, 2637, 2837, 3232, 3924, 4218, 4585, 4640, 6070, 6166]}, "edge": {"target": [], "time": []}}}, "displayed_time": "16.16", "trialTime": 16482, "trial_type": "mouselab-mdp", "trial_index": 41, "time_elapsed": 1119377, "internal_node_id": "0.0-4.0-1.0-26.0"}}, {"uniqueid": "w11930620:a35902061", "current_trial": 42, "dateTime": 1691160332606, "trialdata": {"revealed_states": [], "clicked_states": ["18", "16"], "num_clicks_accrued": [0, 0, 0, 0, 0, 0, 0, 0, 0, 0, 0, 0, 0], "stateRewards": ["", 2, -4, -8, -15, 71, -43, -41, 7, -17, 20, 67, -1, -1, -4, 6, 37, -24, -47, 9, 34, 57, 45, 1, 2, -4, -5, -23, 88, -5, 13, -40, 43, 44], "withholdReward": false, "trial_id": "mdp_trial_28", "block": "test", "trialIndex": 31, "score": 32.7, "costs": -4.3, "simulationMode": [null, null, null, null, null], "rewards": [-1, -1, -4, 6, 37], "path": ["0", "0", "12", "13", "14", "15", "16"], "rt": [7988, 281, 109, 646, 11], "actions": ["right", "right", "right", "up", "up"], "actionTimes": [10065, 10849, 11462, 12610, 13124], "queries": {"click": {"state": {"target": ["18", "16"], "time": [3129, 6309]}, "edge": {"target": [], "time": []}}, "mouseover": {"state": {"target": ["12", "13", "18", "16", "6", "4", "3", "9"], "time": [2573, 2671, 2891, 3548, 8236, 8340, 8362, 8464]}, "edge": {"target": [], "time": []}}, "mouseout": {"state": {"target": ["21", "0", "12", "13", "18", "16", "6", "4", "3", "9"], "time": [1074, 2517, 2612, 2699, 3400, 6368, 8321, 8359, 8372, 8476]}, "edge": {"target": [], "time": []}}}, "displayed_time": "16.09", "trialTime": 16610, "trial_type": "mouselab-mdp", "trial_index": 42, "time_elapsed": 1136426, "internal_node_id": "0.0-4.0-1.0-27.0"}}, {"uniqueid": "w11930620:a35902061", "current_trial": 43, "dateTime": 1691160350199, "trialdata": {"revealed_states": [], "clicked_states": ["17"], "num_clicks_accrued": [0, 0, 0, 0, 0, 0, 0, 0, 0, 0, 0, 0, 0], "stateRewards": ["", -1, -3, -5, -14, -13, -47, 79, 8, -60, -64, 41, -1, 2, 3, 13, -46, 61, -79, -11, -64, -65, 23, 1, -2, 6, -14, 46, 32, 21, 7, 75, -66, 15], "withholdReward": false, "trial_id": "mdp_trial_29", "block": "test", "trialIndex": 32, "score": 75.85, "costs": -2.15, "simulationMode": [null, null, null, null, null], "rewards": [-1, 2, 3, 13, 61], "path": ["0", "0", "12", "13", "14", "15", "17"], "rt": [4979, 49, 71, 488, 49], "actions": ["right", "right", "right", "up", "right"], "actionTimes": [7213, 7773, 8353, 9352, 9905], "queries": {"click": {"state": {"target": ["17"], "time": [3356]}, "edge": {"target": [], "time": []}}, "mouseover": {"state": {"target": ["12", "13", "14", "17", "16"], "time": [2751, 2817, 2920, 3142, 3850]}, "edge": {"target": [], "time": []}}, "mouseout": {"state": {"target": ["16", "18", "12", "0", "12", "13", "14", "17", "16"], "time": [1559, 1700, 1726, 2726, 2793, 2851, 3038, 3696, 6715]}, "edge": {"target": [], "time": []}}}, "displayed_time": "16.23", "trialTime": 17303, "trial_type": "mouselab-mdp", "trial_index": 43, "time_elapsed": 1154019, "internal_node_id": "0.0-4.0-1.0-28.0"}}, {"uniqueid": "w11930620:a35902061", "current_trial": 44, "dateTime": 1691160370240, "trialdata": {"revealed_states": [], "clicked_states": ["27", "28", "29"], "num_clicks_accrued": [0, 0, 0, 0, 0, 0, 0, 0, 0, 0, 0, 0, 0], "stateRewards": ["", 1, 1, 6, -14, -40, 37, 16, -13, 33, -68, 49, 2, 4, 3, 6, 55, 27, 32, 10, -65, 20, -87, 2, 1, -6, -5, -42, 12, 29, -8, 16, 76, -33], "withholdReward": false, "trial_id": "mdp_trial_30", "block": "test", "trialIndex": 33, "score": 14.55, "costs": -6.449999999999999, "simulationMode": [null, null, null, null, null], "rewards": [2, 1, -6, -5, 29], "path": ["0", "0", "23", "24", "25", "26", "29"], "rt": [12567, 123, 65, 27, 360], "actions": ["left", "left", "left", "up", "left"], "actionTimes": [14748, 15375, 15942, 16478, 17352], "queries": {"click": {"state": {"target": ["27", "28", "29"], "time": [5139, 8385, 11662]}, "edge": {"target": [], "time": []}}, "mouseover": {"state": {"target": ["28", "26", "27", "28", "26", "29"], "time": [4485, 4551, 4709, 5481, 8691, 8992]}, "edge": {"target": [], "time": []}}, "mouseout": {"state": {"target": ["15", "18", "28", "26", "27", "28", "26"], "time": [1231, 1302, 4502, 4626, 5420, 8637, 8894]}, "edge": {"target": [], "time": []}}}, "displayed_time": "17.86", "trialTime": 19205, "trial_type": "mouselab-mdp", "trial_index": 44, "time_elapsed": 1174060, "internal_node_id": "0.0-4.0-1.0-29.0"}}, {"uniqueid": "w11930620:a35902061", "current_trial": 45, "dateTime": 1691160388225, "trialdata": {"revealed_states": [], "clicked_states": ["21", "20", "22"], "num_clicks_accrued": [0, 0, 0, 0, 0, 0, 0, 0, 0, 0, 0, 0, 0], "stateRewards": ["", -2, -3, 1, -7, 39, -67, 16, 5, -20, 73, 66, -1, 4, 5, -3, 23, -68, -87, -8, 3, -3, 17, 1, -4, -2, -13, -32, 34, 61, -5, -11, -18, 12], "withholdReward": false, "trial_id": "mdp_trial_31", "block": "test", "trialIndex": 34, "score": 10.55, "costs": -6.449999999999999, "simulationMode": [null, null, null, null, null], "rewards": [-1, 4, 5, -8, 17], "path": ["0", "0", "12", "13", "14", "19", "22"], "rt": [11299, 4, 55, 532, 195], "actions": ["right", "right", "right", "down", "left"], "actionTimes": [12560, 13076, 13657, 14702, 15400], "queries": {"click": {"state": {"target": ["21", "20", "22"], "time": [2202, 5347, 8524]}, "edge": {"target": [], "time": []}}, "mouseover": {"state": {"target": ["12", "22", "21", "21", "20", "19", "22", "14", "17"], "time": [1570, 1624, 1690, 2018, 2529, 5582, 5688, 9883, 10334]}, "edge": {"target": [], "time": []}}, "mouseout": {"state": {"target": ["29", "26", "24", "23", "12", "22", "21", "21", "20", "19", "22", "14"], "time": [161, 350, 521, 572, 1582, 1657, 1761, 2437, 5563, 5618, 9791, 9998]}, "edge": {"target": [], "time": []}}}, "displayed_time": "15.91", "trialTime": 17464, "trial_type": "mouselab-mdp", "trial_index": 45, "time_elapsed": 1192045, "internal_node_id": "0.0-4.0-1.0-30.0"}}, {"uniqueid": "w11930620:a35902061", "current_trial": 46, "dateTime": 1691160408362, "trialdata": {"revealed_states": [], "clicked_states": ["18"], "num_clicks_accrued": [0, 0, 0, 0, 0, 0, 0, 0, 0, 0, 0, 0, 0], "stateRewards": ["", -1, -4, -6, -15, 21, -67, -63, 9, 51, 69, -14, -1, 3, 8, -8, 39, 72, 63, 15, 19, 47, 15, 1, 4, 5, 16, -18, 34, 35, -14, -80, 40, 1], "withholdReward": false, "trial_id": "mdp_trial_32", "block": "test", "trialIndex": 35, "score": 62.85, "costs": -2.15, "simulationMode": [null, null, null, null, null], "rewards": [-1, 3, 8, -8, 63], "path": ["0", "0", "12", "13", "14", "15", "18"], "rt": [5164, 387, 183, 52, 54], "actions": ["right", "right", "right", "up", "left"], "actionTimes": [10095, 10995, 11688, 12243, 12803], "queries": {"click": {"state": {"target": ["18"], "time": [5951]}, "edge": {"target": [], "time": []}}, "mouseover": {"state": {"target": ["0", "12", "18", "16"], "time": [4942, 5436, 5660, 6349]}, "edge": {"target": [], "time": []}}, "mouseout": {"state": {"target": ["17", "17", "1", "0", "0", "12", "18", "16", "18", "13"], "time": [3215, 3846, 4295, 4571, 5413, 5495, 6229, 15142, 15950, 16060]}, "edge": {"target": [], "time": []}}}, "displayed_time": "18.93", "trialTime": 19551, "trial_type": "mouselab-mdp", "trial_index": 46, "time_elapsed": 1212182, "internal_node_id": "0.0-4.0-1.0-31.0"}}, {"uniqueid": "w11930620:a35902061", "current_trial": 47, "dateTime": 1691160425906, "trialdata": {"revealed_states": [], "clicked_states": ["17"], "num_clicks_accrued": [0, 0, 0, 0, 0, 0, 0, 0, 0, 0, 0, 0, 0], "stateRewards": ["", -1, 3, -5, -2, -13, -9, -34, -7, -81, 32, 35, -2, -2, 1, -14, -32, 81, 7, 4, 82, 56, -8, -1, 3, -8, 6, -24, -24, -53, 2, 38, 61, 54], "withholdReward": false, "trial_id": "mdp_trial_33", "block": "test", "trialIndex": 36, "score": 61.85, "costs": -2.15, "simulationMode": [null, null, null, null, null], "rewards": [-2, -2, 1, -14, 81], "path": ["0", "0", "12", "13", "14", "15", "17"], "rt": [4809, 345, 120, 162, 425], "actions": ["right", "right", "right", "up", "right"], "actionTimes": [6290, 7147, 7790, 8460, 9396], "queries": {"click": {"state": {"target": ["17"], "time": [2458]}, "edge": {"target": [], "time": []}}, "mouseover": {"state": {"target": ["12", "13", "15", "17", "20"], "time": [1740, 1779, 1870, 2161, 6027]}, "edge": {"target": [], "time": []}}, "mouseout": {"state": {"target": ["13", "12", "12", "13", "15", "17", "17"], "time": [911, 965, 1762, 1795, 1887, 2493, 2884]}, "edge": {"target": [], "time": []}}}, "displayed_time": "15.48", "trialTime": 17105, "trial_type": "mouselab-mdp", "trial_index": 47, "time_elapsed": 1229726, "internal_node_id": "0.0-4.0-1.0-32.0"}}, {"uniqueid": "w11930620:a35902061", "current_trial": 48, "dateTime": 1691160444462, "trialdata": {"revealed_states": [], "clicked_states": ["18"], "num_clicks_accrued": [0, 0, 0, 0, 0, 0, 0, 0, 0, 0, 0, 0, 0], "stateRewards": ["", 1, -2, -8, -3, 31, -84, -55, -14, 15, -58, 17, -2, -3, 7, 7, -12, 48, 67, 4, -44, -68, 46, 2, 3, -5, -7, 76, 27, 5, 11, 57, 52, 59], "withholdReward": false, "trial_id": "mdp_trial_34", "block": "test", "trialIndex": 37, "score": 73.85, "costs": -2.15, "simulationMode": [null, null, null, null, null], "rewards": [-2, -3, 7, 7, 67], "path": ["0", "0", "12", "13", "14", "15", "18"], "rt": [4991, 28, 109, 1185, 1280], "actions": ["right", "right", "right", "up", "left"], "actionTimes": [7120, 7661, 8291, 9979, 11762], "queries": {"click": {"state": {"target": ["18"], "time": [3203]}, "edge": {"target": [], "time": []}}, "mouseover": {"state": {"target": ["12", "13", "18", "15"], "time": [2534, 2664, 2947, 3662]}, "edge": {"target": [], "time": []}}, "mouseout": {"state": {"target": ["20", "23", "0", "12", "13", "18", "15"], "time": [699, 1349, 2512, 2641, 2835, 3597, 3700]}, "edge": {"target": [], "time": []}}}, "displayed_time": "16.14", "trialTime": 17867, "trial_type": "mouselab-mdp", "trial_index": 48, "time_elapsed": 1248282, "internal_node_id": "0.0-4.0-1.0-33.0"}}, {"uniqueid": "w11930620:a35902061", "current_trial": 49, "dateTime": 1691160463201, "trialdata": {"revealed_states": [], "clicked_states": ["17"], "num_clicks_accrued": [0, 0, 0, 0, 0, 0, 0, 0, 0, 0, 0, 0, 0], "stateRewards": ["", 1, -2, 7, -14, 88, -56, -44, -14, 64, -51, -57, -2, 3, -4, -9, -11, 19, -77, -1, 68, 75, -67, -1, 1, -2, 5, -37, 70, -34, -10, -72, 63, -41], "withholdReward": false, "trial_id": "mdp_trial_35", "block": "test", "trialIndex": 38, "score": 4.85, "costs": -2.15, "simulationMode": [null, null, null, null, null], "rewards": [-2, 3, -4, -9, 19], "path": ["0", "0", "12", "13", "14", "15", "17"], "rt": [4829, 209, 170, 35, 286], "actions": ["right", "right", "right", "up", "right"], "actionTimes": [7562, 8279, 8952, 9496, 10297], "queries": {"click": {"state": {"target": ["17"], "time": [3729]}, "edge": {"target": [], "time": []}}, "mouseover": {"state": {"target": ["12", "13", "14", "17"], "time": [2914, 2947, 2981, 3314]}, "edge": {"target": [], "time": []}}, "mouseout": {"state": {"target": ["15", "14", "13", "0", "12", "13", "14", "17", "18"], "time": [1738, 2023, 2041, 2897, 2939, 2964, 2997, 13257, 13293]}, "edge": {"target": [], "time": []}}}, "displayed_time": "16.74", "trialTime": 18056, "trial_type": "mouselab-mdp", "trial_index": 49, "time_elapsed": 1267021, "internal_node_id": "0.0-4.0-1.0-34.0"}}, {"uniqueid": "w11930620:a35902061", "current_trial": 50, "dateTime": 1691160480532, "trialdata": {"revealed_states": [], "clicked_states": ["31", "32"], "num_clicks_accrued": [0, 0, 0, 0, 0, 0, 0, 0, 0, 0, 0, 0, 0], "stateRewards": ["", 2, -4, -4, 13, -80, 62, 13, -11, 57, -13, -44, 1, 4, 3, -4, -29, -88, 15, 16, -58, 68, -45, -1, -3, -1, -9, -44, -86, -19, -7, -36, 59, 66], "withholdReward": false, "trial_id": "mdp_trial_36", "block": "test", "trialIndex": 39, "score": 42.7, "costs": -4.3, "simulationMode": [null, null, null, null, null], "rewards": [-1, -3, -1, -7, 59], "path": ["0", "0", "23", "24", "25", "30", "32"], "rt": [8413, 307, 58, 170, 245], "actions": ["left", "left", "left", "down", "down"], "actionTimes": [10111, 10929, 11491, 12168, 12925], "queries": {"click": {"state": {"target": ["31", "32"], "time": [2575, 5857]}, "edge": {"target": [], "time": []}}, "mouseover": {"state": {"target": ["23", "24", "30", "30", "31", "32"], "time": [1873, 1931, 1997, 2145, 2283, 2898]}, "edge": {"target": [], "time": []}}, "mouseout": {"state": {"target": ["12", "0", "23", "24", "30", "30", "31", "31", "32"], "time": [824, 1260, 1914, 1964, 2056, 2186, 2602, 2871, 6230]}, "edge": {"target": [], "time": []}}}, "displayed_time": "15.71", "trialTime": 16840, "trial_type": "mouselab-mdp", "trial_index": 50, "time_elapsed": 1284352, "internal_node_id": "0.0-4.0-1.0-35.0"}}, {"uniqueid": "w11930620:a35902061", "current_trial": 51, "dateTime": 1691160503960, "trialdata": {"revealed_states": [], "clicked_states": ["21"], "num_clicks_accrued": [0, 0, 0, 0, 0, 0, 0, 0, 0, 0, 0, 0, 0], "stateRewards": ["", -1, -4, -1, -11, 43, 69, 39, 4, 17, -20, -82, -2, -1, 4, 8, -79, 24, -79, 11, 36, 64, 41, 2, 4, -1, 11, -79, -47, 75, -3, 63, -36, -19], "withholdReward": false, "trial_id": "mdp_trial_37", "block": "test", "trialIndex": 40, "score": 73.85, "costs": -2.15, "simulationMode": [null, null, null, null, null], "rewards": [-2, -1, 4, 11, 64], "path": ["0", "0", "12", "13", "14", "19", "21"], "rt": [4164, 250, 66, 54, 83], "actions": ["right", "right", "right", "down", "down"], "actionTimes": [6097, 6851, 7420, 7982, 8576], "queries": {"click": {"state": {"target": ["21"], "time": [2897]}, "edge": {"target": [], "time": []}}, "mouseover": {"state": {"target": ["12", "19", "20", "21"], "time": [1990, 2083, 2190, 2667]}, "edge": {"target": [], "time": []}}, "mouseout": {"state": {"target": ["31", "22", "19", "20", "24", "25", "24", "23", "12", "19", "20", "21"], "time": [635, 689, 722, 747, 988, 1105, 1258, 1416, 2027, 2115, 2198, 10045]}, "edge": {"target": [], "time": []}}}, "displayed_time": "15.94", "trialTime": 22954, "trial_type": "mouselab-mdp", "trial_index": 51, "time_elapsed": 1307780, "internal_node_id": "0.0-4.0-1.0-36.0"}}, {"uniqueid": "w11930620:a35902061", "current_trial": 52, "dateTime": 1691160520911, "trialdata": {"revealed_states": [], "clicked_states": ["16", "17"], "num_clicks_accrued": [0, 0, 0, 0, 0, 0, 0, 0, 0, 0, 0, 0, 0], "stateRewards": ["", -1, 1, -6, -1, 80, 23, 2, -11, 73, -81, 59, 1, 3, 5, -1, -26, 28, -3, 16, -59, -13, -50, -2, -2, 2, 15, -50, 86, 17, -4, 37, 35, 44], "withholdReward": false, "trial_id": "mdp_trial_38", "block": "test", "trialIndex": 41, "score": 31.7, "costs": -4.3, "simulationMode": [null, null, null, null, null], "rewards": [1, 3, 5, -1, 28], "path": ["0", "0", "12", "13", "14", "15", "17"], "rt": [7810, 419, 260, 171, 469], "actions": ["right", "right", "right", "up", "right"], "actionTimes": [9134, 10057, 10829, 11511, 12491], "queries": {"click": {"state": {"target": ["16", "17"], "time": [2176, 5585]}, "edge": {"target": [], "time": []}}, "mouseover": {"state": {"target": ["16", "17"], "time": [1928, 4543]}, "edge": {"target": [], "time": []}}, "mouseout": {"state": {"target": ["21", "22", "12", "16"], "time": [361, 436, 560, 2783]}, "edge": {"target": [], "time": []}}}, "displayed_time": "15.33", "trialTime": 16094, "trial_type": "mouselab-mdp", "trial_index": 52, "time_elapsed": 1324731, "internal_node_id": "0.0-4.0-1.0-37.0"}}, {"uniqueid": "w11930620:a35902061", "current_trial": 53, "dateTime": 1691160544340, "trialdata": {"revealed_states": [], "clicked_states": ["28", "29", "27", "31"], "num_clicks_accrued": [0, 0, 0, 0, 0, 0, 0, 0, 0, 0, 0, 0, 0], "stateRewards": ["", 1, 1, 5, 6, -29, -7, 3, -16, 9, -46, 65, -1, 4, -1, -16, -63, -77, -87, 8, 80, -50, 43, -1, -1, -5, 5, -38, -71, -62, 9, 81, -50, -52], "withholdReward": false, "trial_id": "mdp_trial_39", "block": "test", "trialIndex": 42, "score": 74.4, "costs": -8.6, "simulationMode": [null, null, null, null, null], "rewards": [-1, -1, -5, 9, 81], "path": ["0", "0", "23", "24", "25", "30", "31"], "rt": [15894, 65, 68, 51, 96], "actions": ["left", "left", "left", "down", "right"], "actionTimes": [17324, 17910, 18487, 19052, 19654], "queries": {"click": {"state": {"target": ["28", "29", "27", "31"], "time": [2879, 6874, 10072, 13369]}, "edge": {"target": [], "time": []}}, "mouseover": {"state": {"target": ["0", "23", "24", "28", "24", "26", "29", "27", "26", "31"], "time": [1827, 1860, 1950, 2603, 5345, 6433, 6662, 8403, 10601, 10840]}, "edge": {"target": [], "time": []}}, "mouseout": {"state": {"target": ["17", "15", "18", "0", "23", "24", "28", "28", "24", "28", "26", "29", "27", "26"], "time": [575, 609, 685, 1836, 1901, 2009, 2940, 5316, 6083, 6175, 6466, 8297, 10589, 10614]}, "edge": {"target": [], "time": []}}}, "displayed_time": "20.17", "trialTime": 22907, "trial_type": "mouselab-mdp", "trial_index": 53, "time_elapsed": 1348160, "internal_node_id": "0.0-4.0-1.0-38.0"}}, {"uniqueid": "w11930620:a35902061", "current_trial": 54, "dateTime": 1691160565216, "trialdata": {"revealed_states": [], "clicked_states": ["20", "21"], "num_clicks_accrued": [0, 0, 0, 0, 0, 0, 0, 0, 0, 0, 0, 0, 0], "stateRewards": ["", 1, -4, -4, 8, 1, -79, 68, -10, -79, 8, -74, -1, -3, -6, 14, 43, 23, 9, 5, -51, 63, 61, -2, 4, 6, -10, 69, -32, 57, 15, -80, -80, -77], "withholdReward": false, "trial_id": "mdp_trial_40", "block": "test", "trialIndex": 43, "score": 53.7, "costs": -4.3, "simulationMode": [null, null, null, null, null], "rewards": [-1, -3, -6, 5, 63], "path": ["0", "0", "12", "13", "14", "19", "21"], "rt": [8247, 5, 141, 49, 4], "actions": ["right", "right", "right", "down", "down"], "actionTimes": [9558, 10082, 10743, 11296, 11807], "queries": {"click": {"state": {"target": ["20", "21"], "time": [2440, 5669]}, "edge": {"target": [], "time": []}}, "mouseover": {"state": {"target": ["12", "19", "20", "20", "21", "22"], "time": [1582, 1676, 1893, 2181, 2860, 6213]}, "edge": {"target": [], "time": []}}, "mouseout": {"state": {"target": ["31", "0", "12", "19", "20", "20", "20", "21", "22"], "time": [605, 889, 1599, 1735, 1910, 2468, 2820, 6001, 9064]}, "edge": {"target": [], "time": []}}}, "displayed_time": "15.32", "trialTime": 20297, "trial_type": "mouselab-mdp", "trial_index": 54, "time_elapsed": 1369037, "internal_node_id": "0.0-4.0-1.0-39.0"}}, {"uniqueid": "w11930620:a35902061", "current_trial": 55, "dateTime": 1691160618145, "trialdata": {"rt": 52922, "response": {"Q0": "$-2 to $2", "Q1": "$-32 to $32", "Q2": "$-88 to $88", "Q3": "The cost for clicking on nodes varied between nodes.", "Q4": "Very motivated"}, "question_order": [0, 1, 2, 3, 4], "trial_id": "final_quiz_control", "trial_type": "survey-multi-choice", "trial_index": 55, "time_elapsed": 1421965, "internal_node_id": "0.0-4.0-2.0"}}, {"uniqueid": "w11930620:a35902061", "current_trial": 56, "dateTime": 1691160733957, "trialdata": {"rt": 115807, "response": {"Q0": "Click on the furthest/outer nodes and see what score is present there.", "Q1": "Yes, at first I was clicking on every node, but as the game went on I was only clicking on the furthest nodes.", "Q2": "It was not too difficult to improve my performance. The only difficult aspect was the cost of nodes."}, "trial_id": "self_report_control", "trial_type": "survey-text", "trial_index": 56, "time_elapsed": 1537778, "internal_node_id": "0.0-4.0-3.0"}}, {"uniqueid": "w11930620:a35902061", "current_trial": 57, "dateTime": 1691160775183, "trialdata": {"rt": 41222, "response": {"Q0": "Disagree", "Q1": "Strongly disagree", "Q2": "Neither disagree nor agree", "Q3": "Disagree", "Q4": "Disagree", "Q5": "Agree", "Q6": "Strongly disagree"}, "question_order": [0, 1, 2, 3, 4, 5, 6], "trial_id": "self_report_2", "trial_type": "survey-multi-choice", "trial_index": 57, "time_elapsed": 1579004, "internal_node_id": "0.0-4.0-4.0"}}, {"uniqueid": "w11930620:a35902061", "current_trial": 58, "dateTime": 1691160796089, "trialdata": {"rt": 20898, "response": {"gender": "male", "age": "25", "colorblind": "0", "effort": "0"}, "trial_type": "survey-html-form", "trial_index": 58, "time_elapsed": 1599910, "internal_node_id": "0.0-4.0-5.0"}}, {"uniqueid": "w11930620:a35902061", "current_trial": 59, "dateTime": 1691160821731, "trialdata": {"rt": 25637, "response": {"Q0": "No", "Q1": "I had not realised anything as such", "Q2": ""}, "trial_type": "survey-text", "trial_index": 59, "time_elapsed": 1625552, "internal_node_id": "0.0-4.0-6.0"}}, {"uniqueid": "w11930620:a35902061", "current_trial": 60, "dateTime": 1691160824998, "trialdata": {"rt": 3263, "stimulus": "Press 'Finish HIT' in order to reach the completion code. Once the data has been saved, you will receive the code either in this window or in the original browser window where you started the experiment.\n", "response": 0, "trial_type": "html-button-response", "trial_index": 60, "time_elapsed": 1628818, "internal_node_id": "0.0-5.0"}}, {"uniqueid": "w11930620:a35902061", "current_trial": 61, "dateTime": 1691160826000, "trialdata": {"success": true, "trial_type": "fullscreen", "trial_index": 61, "time_elapsed": 1629821, "internal_node_id": "0.0-6.0"}}], "questiondata": {"params": {"CODE": "C6DMOQA6", "MIN_TIME": 14, "inspectCost": 1, "startTime": "Fri Aug 04 2023 16:26:24 GMT+0200 (South Africa Standard Time)", "bonusRate": 0.002, "variance": "1_2_4_8_44", "branching": "31123"}, "final_score": 1276.1}, "eventdata": [{"eventtype": "initialized", "value": null, "timestamp": 1691159182720, "interval": 0}, {"eventtype": "window_resize", "value": [1028, 744], "timestamp": 1691159182720, "interval": 0}, {"eventtype": "window_resize", "value": [1028, 744], "timestamp": 1691159183939, "interval": 1219}, {"eventtype": "focus", "value": "off", "timestamp": 1691159247271, "interval": 63332}, {"eventtype": "focus", "value": "on", "timestamp": 1691159249877, "interval": 2606}, {"eventtype": "window_resize", "value": [1536, 864], "timestamp": 1691159250185, "interval": 308}, {"eventtype": "focus", "value": "off", "timestamp": 1691159318393, "interval": 68208}, {"eventtype": "focus", "value": "on", "timestamp": 1691159321261, "interval": 2868}, {"eventtype": "focus", "value": "off", "timestamp": 1691159595645, "interval": 274384}, {"eventtype": "focus", "value": "on", "timestamp": 1691159595646, "interval": 1}, {"eventtype": "window_resize", "value": [1028, 744], "timestamp": 1691159595856, "interval": 210}, {"eventtype": "window_resize", "value": [1536, 758], "timestamp": 1691159597289, "interval": 1433}, {"eventtype": "window_resize", "value": [1536, 864], "timestamp": 1691159598541, "interval": 1252}, {"eventtype": "window_resize", "value": [1536, 758], "timestamp": 1691160825228, "interval": 1226687}], "useragent": "Mozilla/5.0 (Windows NT 10.0; Win64; x64) AppleWebKit/537.36 (KHTML, like Gecko) Chrome/115.0.0.0 Safari/537.36", "mode": "live", "id": "w11930620:a35902061", "status": "user data saved", "Beginhit": "2023-08-04 14:26:13.99566", "Beginexp": "2023-08-04 14:27:28.911138", "Endhit": null, "psiturkStatus": 6, "browser": "<redacted>", "platform": "windows", "language": "en-US"}