{"condition": 0, "counterbalance": 0, "assignmentId": "a79746054", "workerId": "w70864555", "hitId": "h23077453", "currenttrial": 55, "bonus": 0, "data": [{"uniqueid": "w70864555:a79746054", "current_trial": 0, "dateTime": 1693388979059, "trialdata": {"success": true, "trial_type": "fullscreen", "trial_index": 0, "time_elapsed": 27154, "internal_node_id": "0.0-0.0"}}, {"uniqueid": "w70864555:a79746054", "current_trial": 1, "dateTime": 1693389001542, "trialdata": {"view_history": [{"page_index": 0, "viewing_time": 22474}], "rt": 22475, "trial_id": "exp_instructions_control", "trial_type": "instructions", "trial_index": 1, "time_elapsed": 49639, "internal_node_id": "0.0-1.0"}}, {"uniqueid": "w70864555:a79746054", "current_trial": 2, "dateTime": 1693389349659, "trialdata": {"view_history": [{"page_index": 0, "viewing_time": 137162}, {"page_index": 1, "viewing_time": 117138}, {"page_index": 2, "viewing_time": 42887}, {"page_index": 3, "viewing_time": 50926}], "rt": 348114, "trial_id": "mouselab_instructions_1_control", "trial_type": "instructions", "trial_index": 2, "time_elapsed": 397756, "internal_node_id": "0.0-2.0-1.0"}}, {"uniqueid": "w70864555:a79746054", "current_trial": 3, "dateTime": 1693389373279, "trialdata": {"revealed_states": [], "clicked_states": [], "num_clicks_accrued": [0, 0, 0, 0, 0, 0, 0, 0, 0, 0, 0, 0, 0], "stateRewards": ["", -10, 10, 10, 10, -10, 10, -10, -10, 10, 10, -10, 10, -10, -10, -10, -10, -10, 10, -10, 10, -10, -10, -10, 10, 10, -10, -10, -10, 10, 10, 10, 10, 10], "withholdReward": false, "trial_id": "practice_1", "block": "test", "trialIndex": 0, "score": 33.5, "costs": 0, "simulationMode": [null, null, null, null, null], "rewards": [-10, 10, 10, 10, 10], "path": ["0", "0", "23", "24", "25", "30", "32"], "rt": [1272, 1404, 981, 445, 403], "actions": ["left", "left", "left", "down", "down"], "actionTimes": [4996, 6918, 8411, 9373, 10312], "queries": {"click": {"state": {"target": [], "time": []}, "edge": {"target": [], "time": []}}, "mouseover": {"state": {"target": [], "time": []}, "edge": {"target": [], "time": []}}, "mouseout": {"state": {"target": ["0", "0"], "time": [887, 19883]}, "edge": {"target": [], "time": []}}}, "displayed_time": "10.82", "trialTime": 22778, "trial_type": "mouselab-mdp", "trial_index": 3, "time_elapsed": 421375, "internal_node_id": "0.0-2.0-2.0-0.0"}}, {"uniqueid": "w70864555:a79746054", "current_trial": 4, "dateTime": 1693389390134, "trialdata": {"revealed_states": [], "clicked_states": [], "num_clicks_accrued": [0, 0, 0, 0, 0, 0, 0, 0, 0, 0, 0, 0, 0], "stateRewards": ["", -10, 10, -10, -10, -10, 10, -10, 10, -10, -10, 10, 10, 10, 10, 10, -10, -10, 10, 10, 10, 10, 10, -10, -10, -10, 10, -10, -10, 10, -10, 10, 10, 10], "withholdReward": false, "trial_id": "practice_2", "block": "test", "trialIndex": 1, "score": 53.5, "costs": 0, "simulationMode": [null, null, null, null, null], "rewards": [10, 10, 10, 10, 10], "path": ["0", "0", "12", "13", "14", "15", "18"], "rt": [878, 614, 422, 501, 311], "actions": ["right", "right", "right", "up", "left"], "actionTimes": [4963, 6094, 7035, 8048, 8873], "queries": {"click": {"state": {"target": [], "time": []}, "edge": {"target": [], "time": []}}, "mouseover": {"state": {"target": [], "time": []}, "edge": {"target": [], "time": []}}, "mouseout": {"state": {"target": [], "time": []}, "edge": {"target": [], "time": []}}}, "displayed_time": "9.38", "trialTime": 16641, "trial_type": "mouselab-mdp", "trial_index": 4, "time_elapsed": 438231, "internal_node_id": "0.0-2.0-2.0-1.0"}}, {"uniqueid": "w70864555:a79746054", "current_trial": 5, "dateTime": 1693389437479, "trialdata": {"view_history": [{"page_index": 0, "viewing_time": 33400}, {"page_index": 1, "viewing_time": 13942}], "rt": 47343, "trial_id": "mouselab_instructions_2_control", "trial_type": "instructions", "trial_index": 5, "time_elapsed": 485576, "internal_node_id": "0.0-2.0-3.0"}}, {"uniqueid": "w70864555:a79746054", "current_trial": 6, "dateTime": 1693389485770, "trialdata": {"rt": 48287, "response": {"Q0": "The cost for clicking on nodes may vary between nodes.", "Q1": "The better I perform the higher my bonus will be.", "Q2": "No, the amount of cash at each node of the web may be different each time.", "Q3": "To get the highest total score.", "Q4": "Only before moving the spider.", "Q5": "3 seconds"}, "question_order": [0, 1, 2, 3, 4, 5], "correct": {"Q0": "The cost for clicking on nodes may vary between nodes.", "Q1": "The better I perform the higher my bonus will be.", "Q2": "No, the amount of cash at each node of the web may be different each time.", "Q3": "To get the highest total score.", "Q4": "Only before moving the spider.", "Q5": "3 seconds"}, "trial_id": "mouselab_quiz_control", "trial_type": "survey-multi-choice", "trial_index": 6, "time_elapsed": 533867, "internal_node_id": "0.0-2.0-4.0"}}, {"uniqueid": "w70864555:a79746054", "current_trial": 7, "dateTime": 1693389493377, "trialdata": {"rt": 7597, "response": {"Q0": "No"}, "question_order": [0], "trial_id": "repeat_check", "trial_type": "survey-multi-choice", "trial_index": 7, "time_elapsed": 541474, "internal_node_id": "0.0-4.0-0.0"}}, {"uniqueid": "w70864555:a79746054", "current_trial": 8, "dateTime": 1693389512460, "trialdata": {"rt": 19074, "stimulus": "\n<h1> Get ready to start the game! </h1>\n\nThank you for reading the instructions. Get ready start with the 40 rounds of this game.\n<br><br>\nIf you need to take a break, feel free to take one after the end of a round, before continuing to the next one.\n<br><br>\nRemember, the more money the spider gets, the bigger your bonus will be!\n<br><br>\n<div style='text-align: center;'>Press <code>space</code> to begin.</div>\n\n<br><br>\n(If, at any point, the <code>space</code> key does not take you to the next page, click once on the text and try again.)", "response": " ", "trial_id": "mdp_ready", "trial_type": "html-keyboard-response", "trial_index": 8, "time_elapsed": 560556, "internal_node_id": "0.0-6.0-0.0"}}, {"uniqueid": "w70864555:a79746054", "current_trial": 9, "dateTime": 1693389538252, "trialdata": {"revealed_states": [], "clicked_states": ["1"], "num_clicks_accrued": [0, 0, 0, 0, 0, 0, 0, 0, 0, 0, 0, 0, 0], "stateRewards": ["", 1, -4, 6, -3, 40, 76, -51, 5, -24, -63, 44, -2, -2, 8, 1, 76, -85, -58, 10, 59, 20, 11, -2, 3, -3, 3, -82, -10, 54, -7, -57, -6, -32], "withholdReward": false, "trial_id": "mdp_trial_1", "block": "test", "trialIndex": 2, "score": 32.6, "costs": -1.4, "simulationMode": [null, null, null, null, null], "rewards": [-2, -2, 8, 10, 20], "path": ["0", "0", "12", "13", "14", "19", "21"], "rt": [3450, 3580, 842, 590, 2254], "actions": ["right", "right", "right", "down", "down"], "actionTimes": [6164, 10261, 11621, 12717, 15480], "queries": {"click": {"state": {"target": ["1"], "time": [4208]}, "edge": {"target": [], "time": []}}, "mouseover": {"state": {"target": ["1", "1"], "time": [3202, 3855]}, "edge": {"target": [], "time": []}}, "mouseout": {"state": {"target": ["16", "18", "0", "1", "1", "14", "14"], "time": [1139, 1185, 3022, 3618, 4916, 8700, 17339]}, "edge": {"target": [], "time": []}}}, "displayed_time": "16.72", "trialTime": 25579, "trial_type": "mouselab-mdp", "trial_index": 9, "time_elapsed": 586347, "internal_node_id": "0.0-6.0-1.0-0.0"}}, {"uniqueid": "w70864555:a79746054", "current_trial": 10, "dateTime": 1693389559639, "trialdata": {"revealed_states": [], "clicked_states": ["26"], "num_clicks_accrued": [0, 0, 0, 0, 0, 0, 0, 0, 0, 0, 0, 0, 0], "stateRewards": ["", 2, 3, 6, -12, -29, 12, 87, 4, 35, -30, 67, 2, 3, -5, -9, 44, 69, -8, 1, 45, -8, 28, -2, -1, -8, 11, -12, -5, 81, 9, 87, 82, 88], "withholdReward": false, "trial_id": "mdp_trial_2", "block": "test", "trialIndex": 3, "score": -13.4, "costs": -1.4, "simulationMode": [null, null, null, null, null], "rewards": [-2, -1, -8, 11, -12], "path": ["0", "0", "23", "24", "25", "26", "27"], "rt": [3704, 2002, 867, 1182, 1805], "actions": ["left", "left", "left", "up", "up"], "actionTimes": [5751, 8264, 9643, 11340, 13661], "queries": {"click": {"state": {"target": ["26"], "time": [3533]}, "edge": {"target": [], "time": []}}, "mouseover": {"state": {"target": ["23", "28", "26", "28", "1"], "time": [2833, 2912, 3145, 4394, 4427]}, "edge": {"target": [], "time": []}}, "mouseout": {"state": {"target": ["14", "13", "12", "0", "23", "28", "26", "28", "1"], "time": [1146, 1163, 1213, 2784, 2846, 2929, 4360, 4409, 4443]}, "edge": {"target": [], "time": []}}}, "displayed_time": "16.05", "trialTime": 21202, "trial_type": "mouselab-mdp", "trial_index": 10, "time_elapsed": 607734, "internal_node_id": "0.0-6.0-1.0-1.0"}}, {"uniqueid": "w70864555:a79746054", "current_trial": 11, "dateTime": 1693389605881, "trialdata": {"revealed_states": [], "clicked_states": [], "num_clicks_accrued": [0, 0, 0, 0, 0, 0, 0, 0, 0, 0, 0, 0, 0], "stateRewards": ["", 1, 4, 5, -5, 58, -80, 75, 6, 25, -39, 46, 2, -2, 4, 2, 59, 31, -22, -12, -61, 15, 72, 1, -2, -7, 8, 77, 76, -23, -7, 71, -15, -3], "withholdReward": false, "trial_id": "mdp_trial_3", "block": "test", "trialIndex": 4, "score": 80, "costs": 0, "simulationMode": [null, null, null, null, null], "rewards": [1, 4, 5, -5, 75], "path": ["0", "0", "1", "2", "3", "4", "7"], "rt": [13929, 3824, 2149, 934, 485], "actions": ["up", "up", "up", "right", "down"], "actionTimes": [17232, 21569, 24238, 25688, 26688], "queries": {"click": {"state": {"target": [], "time": []}, "edge": {"target": [], "time": []}}, "mouseover": {"state": {"target": ["12", "13", "14", "13", "12", "31", "24", "23", "24", "24", "24", "23", "0"], "time": [4005, 4051, 4065, 4891, 5848, 5960, 6353, 6592, 6737, 7226, 7635, 9084, 13579]}, "edge": {"target": [], "time": []}}, "mouseout": {"state": {"target": ["13", "12", "23", "12", "13", "14", "13", "12", "31", "24", "23", "24", "24", "24", "23", "0", "0", "7", "7"], "time": [1878, 1892, 2194, 4046, 4062, 4073, 5842, 5857, 5974, 6491, 6687, 6859, 7454, 9050, 9150, 14312, 18864, 19296, 39502]}, "edge": {"target": [], "time": []}}}, "displayed_time": "27.20", "trialTime": 46029, "trial_type": "mouselab-mdp", "trial_index": 11, "time_elapsed": 653978, "internal_node_id": "0.0-6.0-1.0-2.0"}}, {"uniqueid": "w70864555:a79746054", "current_trial": 12, "dateTime": 1693389638714, "trialdata": {"revealed_states": [], "clicked_states": ["5", "26", "25"], "num_clicks_accrued": [0, 0, 0, 0, 0, 0, 0, 0, 0, 0, 0, 0, 0], "stateRewards": ["", 2, 3, -3, 12, -43, 81, -82, -15, 58, -7, -75, -1, -1, 3, -5, 50, -25, -8, 4, 66, 65, -66, 2, -4, 2, -1, -10, 10, 37, 11, 88, -37, 8], "withholdReward": false, "trial_id": "mdp_trial_4", "block": "test", "trialIndex": 5, "score": 41.8, "costs": -4.199999999999999, "simulationMode": [null, null, null, null, null, null], "rewards": [-1, -1, 3, -5, 50], "path": ["0", "0", "12", "13", "14", "15", "16"], "rt": [7338, 681, 1902, 791, 972, 1146], "actions": ["right", "right", "right", "right", "up", "up"], "actionTimes": [10715, 11398, 13808, 15111, 16591, 18263], "queries": {"click": {"state": {"target": ["5", "26", "25"], "time": [5173, 7823, 9389]}, "edge": {"target": [], "time": []}}, "mouseover": {"state": {"target": ["1", "2", "4", "5", "3", "10", "26", "25"], "time": [4094, 4127, 4430, 4749, 6608, 6659, 7075, 8740]}, "edge": {"target": [], "time": []}}, "mouseout": {"state": {"target": ["7", "1", "0", "1", "2", "4", "5", "3", "10", "26", "25", "7"], "time": [783, 969, 4061, 4110, 4144, 4581, 6593, 6625, 6675, 8723, 23746, 23875]}, "edge": {"target": [], "time": []}}}, "displayed_time": "18.78", "trialTime": 32577, "trial_type": "mouselab-mdp", "trial_index": 12, "time_elapsed": 686810, "internal_node_id": "0.0-6.0-1.0-3.0"}}, {"uniqueid": "w70864555:a79746054", "current_trial": 13, "dateTime": 1693389670567, "trialdata": {"revealed_states": [], "clicked_states": ["2", "27"], "num_clicks_accrued": [0, 0, 0, 0, 0, 0, 0, 0, 0, 0, 0, 0, 0], "stateRewards": ["", -1, 2, 6, 11, 21, -21, -21, -6, 48, -71, 88, -1, -3, 3, 7, 64, 2, 9, -4, 37, -67, 72, 2, 2, -8, -8, -10, 71, -40, -3, 73, 80, 47], "withholdReward": false, "trial_id": "mdp_trial_5", "block": "test", "trialIndex": 6, "score": 37.2, "costs": -2.8, "simulationMode": [null, null, null, null, null], "rewards": [2, 2, -8, -3, 47], "path": ["0", "0", "23", "24", "25", "30", "33"], "rt": [5610, 1168, 1118, 757, 917], "actions": ["left", "left", "left", "down", "left"], "actionTimes": [9151, 10828, 12459, 13729, 15156], "queries": {"click": {"state": {"target": ["2", "27"], "time": [4752, 6508]}, "edge": {"target": [], "time": []}}, "mouseover": {"state": {"target": ["1", "2", "3", "2", "10", "28", "27", "28", "23"], "time": [3867, 3896, 3946, 4280, 5278, 5361, 5727, 7925, 7959]}, "edge": {"target": [], "time": []}}, "mouseout": {"state": {"target": ["16", "1", "2", "3", "2", "10", "28", "27", "28", "23"], "time": [1552, 3880, 3930, 4217, 5244, 5295, 5428, 7892, 7942, 7976]}, "edge": {"target": [], "time": []}}}, "displayed_time": "17.54", "trialTime": 31649, "trial_type": "mouselab-mdp", "trial_index": 13, "time_elapsed": 718664, "internal_node_id": "0.0-6.0-1.0-4.0"}}, {"uniqueid": "w70864555:a79746054", "current_trial": 14, "dateTime": 1693389695299, "trialdata": {"revealed_states": [], "clicked_states": ["2", "26", "15"], "num_clicks_accrued": [0, 0, 0, 0, 0, 0, 0, 0, 0, 0, 0, 0, 0], "stateRewards": ["", 2, -2, 7, -11, -76, -65, -23, 16, -58, 30, 81, 1, 2, 7, 14, 9, 55, -2, 6, 11, -15, 31, -1, -1, -3, 2, 15, 2, 46, 15, 18, 45, -34], "withholdReward": false, "trial_id": "mdp_trial_6", "block": "test", "trialIndex": 7, "score": 28.8, "costs": -4.199999999999999, "simulationMode": [null, null, null, null, null], "rewards": [1, 2, 7, 14, 9], "path": ["0", "0", "12", "13", "14", "15", "16"], "rt": [8533, 193, 287, 162, 698], "actions": ["right", "right", "right", "up", "up"], "actionTimes": [10448, 11159, 11954, 12627, 13830], "queries": {"click": {"state": {"target": ["2", "26", "15"], "time": [3587, 5649, 7750]}, "edge": {"target": [], "time": []}}, "mouseover": {"state": {"target": ["1", "3", "2", "28", "26", "26", "28", "14", "15", "14", "19", "17", "19"], "time": [2373, 2774, 3008, 4171, 4260, 4554, 6119, 6209, 6606, 8387, 9116, 9201, 9484]}, "edge": {"target": [], "time": []}}, "mouseout": {"state": {"target": ["0", "1", "3", "2", "28", "26", "26", "28", "14", "15", "14", "19", "17", "19"], "time": [2343, 2405, 2883, 4121, 4222, 4404, 6103, 6136, 6222, 8334, 8418, 9133, 9440, 9500]}, "edge": {"target": [], "time": []}}}, "displayed_time": "15.92", "trialTime": 24552, "trial_type": "mouselab-mdp", "trial_index": 14, "time_elapsed": 743395, "internal_node_id": "0.0-6.0-1.0-5.0"}}, {"uniqueid": "w70864555:a79746054", "current_trial": 15, "dateTime": 1693389744606, "trialdata": {"revealed_states": [], "clicked_states": ["25", "2", "14", "30", "19"], "num_clicks_accrued": [0, 0, 0, 0, 0, 0, 0, 0, 0, 0, 0, 0, 0], "stateRewards": ["", 1, -1, 1, 13, 31, -56, 72, 2, 41, 5, 63, -2, -3, -2, 3, -71, -26, 52, 13, -31, 24, -67, 2, -2, 5, 4, 66, 43, 72, 9, 86, -26, 44], "withholdReward": false, "trial_id": "mdp_trial_7", "block": "test", "trialIndex": 8, "score": 23, "costs": -7, "simulationMode": [null, null, null, null, null], "rewards": [-2, -3, -2, 13, 24], "path": ["0", "0", "12", "13", "14", "19", "21"], "rt": [13056, 300, 340, 203, 582], "actions": ["right", "right", "right", "down", "down"], "actionTimes": [23553, 24364, 25220, 25933, 27026], "queries": {"click": {"state": {"target": ["25", "2", "14", "30", "19"], "time": [12839, 14686, 16973, 19076, 21325]}, "edge": {"target": [], "time": []}}, "mouseover": {"state": {"target": ["25", "25", "28", "2", "13", "19", "14", "30", "31", "19"], "time": [11890, 12262, 13539, 14288, 15188, 15320, 15587, 17834, 19533, 19983]}, "edge": {"target": [], "time": []}}, "mouseout": {"state": {"target": ["22", "0", "25", "25", "28", "2", "13", "19", "14", "30", "31", "19"], "time": [6295, 11829, 11906, 13472, 13555, 15123, 15204, 15454, 17418, 19516, 19549, 21930]}, "edge": {"target": [], "time": []}}}, "displayed_time": "27.54", "trialTime": 49095, "trial_type": "mouselab-mdp", "trial_index": 15, "time_elapsed": 792702, "internal_node_id": "0.0-6.0-1.0-6.0"}}, {"uniqueid": "w70864555:a79746054", "current_trial": 16, "dateTime": 1693389777975, "trialdata": {"revealed_states": [], "clicked_states": ["2", "26", "15", "19", "30"], "num_clicks_accrued": [0, 0, 0, 0, 0, 0, 0, 0, 0, 0, 0, 0, 0], "stateRewards": ["", 2, -4, 7, 3, 23, -42, 4, 7, -81, -33, 7, -2, -4, 5, -1, 50, -57, -14, -13, -14, 44, 55, -2, -2, 5, -2, 33, 1, 57, -13, -7, 58, 87], "withholdReward": false, "trial_id": "mdp_trial_8", "block": "test", "trialIndex": 9, "score": -28, "costs": -7, "simulationMode": [null, null, null, null, null], "rewards": [2, -4, 7, 7, -33], "path": ["0", "0", "1", "2", "3", "8", "10"], "rt": [13759, 373, 587, 532, 579], "actions": ["up", "up", "up", "left", "down"], "actionTimes": [15942, 16829, 17926, 18971, 20065], "queries": {"click": {"state": {"target": ["2", "26", "15", "19", "30"], "time": [3382, 6518, 8788, 11188, 13272]}, "edge": {"target": [], "time": []}}, "mouseover": {"state": {"target": ["1", "2", "2", "10", "26", "1", "14", "15", "14", "19", "21", "19", "22", "31", "30", "30"], "time": [2573, 2601, 3018, 3784, 3884, 6930, 6998, 7847, 9278, 9329, 9445, 10227, 11610, 11693, 11742, 12009]}, "edge": {"target": [], "time": []}}, "mouseout": {"state": {"target": ["13", "12", "0", "1", "2", "2", "2", "10", "26", "1", "14", "15", "15", "14", "19", "21", "19", "22", "31", "30", "30"], "time": [985, 1202, 1785, 2587, 2618, 3386, 3751, 3801, 6898, 6947, 7014, 8859, 9245, 9312, 9378, 10062, 11609, 11626, 11726, 11759, 13773]}, "edge": {"target": [], "time": []}}}, "displayed_time": "20.59", "trialTime": 33132, "trial_type": "mouselab-mdp", "trial_index": 16, "time_elapsed": 826072, "internal_node_id": "0.0-6.0-1.0-7.0"}}, {"uniqueid": "w70864555:a79746054", "current_trial": 17, "dateTime": 1693389810409, "trialdata": {"revealed_states": [], "clicked_states": ["26", "8", "4", "15", "19", "30"], "num_clicks_accrued": [0, 0, 0, 0, 0, 0, 0, 0, 0, 0, 0, 0, 0], "stateRewards": ["", 1, 2, -3, 6, -88, 74, -45, 7, -46, 40, -77, 1, -4, 4, 3, 22, -25, -59, 8, -83, 19, -60, -1, -1, -1, -8, 26, -29, 64, -7, -88, -51, -55], "withholdReward": false, "trial_id": "mdp_trial_9", "block": "test", "trialIndex": 10, "score": -47.4, "costs": -8.4, "simulationMode": [null, null, null, null, null], "rewards": [1, 2, -3, 7, -46], "path": ["0", "0", "1", "2", "3", "8", "9"], "rt": [18852, 188, 221, 191, 254], "actions": ["up", "up", "up", "left", "up"], "actionTimes": [20799, 21499, 22233, 22935, 23713], "queries": {"click": {"state": {"target": ["26", "8", "4", "15", "19", "30"], "time": [4277, 7043, 9590, 12952, 15544, 18414]}, "edge": {"target": [], "time": []}}, "mouseover": {"state": {"target": ["23", "24", "25", "26", "25", "30", "32", "32", "30", "25", "30", "30", "24", "5", "5", "8", "3", "4", "16", "15", "14", "19", "19", "22", "31", "30", "31", "0"], "time": [2978, 3028, 3128, 3910, 4860, 4878, 4909, 5159, 5209, 5443, 5493, 5742, 5760, 5792, 6028, 6194, 7979, 8056, 11507, 11972, 13467, 13534, 13900, 17379, 17948, 18080, 19095, 19145]}, "edge": {"target": [], "time": []}}, "mouseout": {"state": {"target": ["0", "23", "24", "25", "26", "25", "30", "32", "32", "30", "25", "30", "30", "24", "5", "5", "8", "3", "4", "16", "15", "14", "19", "19", "22", "31", "30", "31", "0"], "time": [2962, 3011, 3078, 3880, 4859, 4876, 4893, 4926, 5192, 5226, 5459, 5558, 5758, 5775, 5809, 6041, 7939, 8023, 11336, 11521, 13417, 13501, 13567, 17363, 17396, 17997, 19078, 19111, 19428]}, "edge": {"target": [], "time": []}}}, "displayed_time": "24.23", "trialTime": 32222, "trial_type": "mouselab-mdp", "trial_index": 17, "time_elapsed": 858505, "internal_node_id": "0.0-6.0-1.0-8.0"}}, {"uniqueid": "w70864555:a79746054", "current_trial": 18, "dateTime": 1693389845653, "trialdata": {"revealed_states": [], "clicked_states": ["7"], "num_clicks_accrued": [0, 0, 0, 0, 0, 0, 0, 0, 0, 0, 0, 0, 0], "stateRewards": ["", 1, -2, -2, 10, -31, -77, 35, 9, -47, 8, 48, -2, 1, -4, -3, -26, -50, 43, -11, 76, -38, 17, 1, -1, 6, 10, 15, -9, 12, -8, 85, 11, -55], "withholdReward": false, "trial_id": "mdp_trial_10", "block": "test", "trialIndex": 11, "score": 40.6, "costs": -1.4, "simulationMode": [null, null, null, null, null], "rewards": [1, -2, -2, 10, 35], "path": ["0", "0", "1", "2", "3", "4", "7"], "rt": [4257, 320, 632, 531, 638], "actions": ["up", "up", "up", "right", "down"], "actionTimes": [6079, 6913, 8058, 9105, 10260], "queries": {"click": {"state": {"target": ["7"], "time": [3370]}, "edge": {"target": [], "time": []}}, "mouseover": {"state": {"target": ["12", "13", "14", "18", "7"], "time": [2028, 2096, 2113, 2513, 2595]}, "edge": {"target": [], "time": []}}, "mouseout": {"state": {"target": ["0", "12", "13", "14", "18", "7"], "time": [2000, 2082, 2111, 2499, 2545, 3843]}, "edge": {"target": [], "time": []}}}, "displayed_time": "15.83", "trialTime": 35048, "trial_type": "mouselab-mdp", "trial_index": 18, "time_elapsed": 893749, "internal_node_id": "0.0-6.0-1.0-9.0"}}, {"uniqueid": "w70864555:a79746054", "current_trial": 19, "dateTime": 1693389868401, "trialdata": {"revealed_states": [], "clicked_states": ["25", "19"], "num_clicks_accrued": [0, 0, 0, 0, 0, 0, 0, 0, 0, 0, 0, 0, 0], "stateRewards": ["", 2, -4, -4, 13, -80, 62, 13, -11, 57, -13, -44, 1, 4, 3, -4, -29, -88, 15, 16, -58, 68, -45, -1, -3, -1, -9, -44, -86, -19, -7, -36, 59, 66], "withholdReward": false, "trial_id": "mdp_trial_11", "block": "test", "trialIndex": 12, "score": 89.2, "costs": -2.8, "simulationMode": [null, null, null, null, null], "rewards": [1, 4, 3, 16, 68], "path": ["0", "0", "12", "13", "14", "19", "21"], "rt": [6770, 446, 382, 969, 1196], "actions": ["right", "right", "right", "down", "down"], "actionTimes": [8191, 9150, 10051, 11537, 13246], "queries": {"click": {"state": {"target": ["25", "19"], "time": [2880, 4981]}, "edge": {"target": [], "time": []}}, "mouseover": {"state": {"target": ["23", "24", "25", "24", "19", "19", "14", "15"], "time": [2130, 2175, 2226, 3442, 4057, 4626, 5722, 5838]}, "edge": {"target": [], "time": []}}, "mouseout": {"state": {"target": ["23", "24", "25", "24", "19", "19", "14", "15"], "time": [2159, 2208, 3390, 3577, 4074, 5556, 5772, 7707]}, "edge": {"target": [], "time": []}}}, "displayed_time": "15.42", "trialTime": 22478, "trial_type": "mouselab-mdp", "trial_index": 19, "time_elapsed": 916497, "internal_node_id": "0.0-6.0-1.0-10.0"}}, {"uniqueid": "w70864555:a79746054", "current_trial": 20, "dateTime": 1693389887978, "trialdata": {"revealed_states": [], "clicked_states": [], "num_clicks_accrued": [0, 0, 0, 0, 0, 0, 0, 0, 0, 0, 0, 0, 0], "stateRewards": ["", -2, -4, -2, -13, -15, 87, -19, -6, -80, 30, 12, 1, 1, -8, 2, 55, 56, 15, 11, -68, -7, 55, -2, 3, -3, -3, 48, 62, 4, 1, -3, 69, -33], "withholdReward": false, "trial_id": "mdp_trial_12", "block": "test", "trialIndex": 13, "score": -2, "costs": 0, "simulationMode": [null, null, null, null, null], "rewards": [-2, -4, -2, -6, 12], "path": ["0", "0", "1", "2", "3", "8", "11"], "rt": [1574, 1760, 500, 806, 1107], "actions": ["up", "up", "up", "left", "left"], "actionTimes": [5238, 7519, 8539, 9861, 11478], "queries": {"click": {"state": {"target": [], "time": []}, "edge": {"target": [], "time": []}}, "mouseover": {"state": {"target": [], "time": []}, "edge": {"target": [], "time": []}}, "mouseout": {"state": {"target": ["15", "0", "28", "26", "10", "2", "7", "0"], "time": [1211, 6205, 6306, 6475, 6540, 6588, 6711, 17761]}, "edge": {"target": [], "time": []}}}, "displayed_time": "17.67", "trialTime": 19361, "trial_type": "mouselab-mdp", "trial_index": 20, "time_elapsed": 936074, "internal_node_id": "0.0-6.0-1.0-11.0"}}, {"uniqueid": "w70864555:a79746054", "current_trial": 21, "dateTime": 1693389910527, "trialdata": {"revealed_states": [], "clicked_states": ["25", "10", "5"], "num_clicks_accrued": [0, 0, 0, 0, 0, 0, 0, 0, 0, 0, 0, 0, 0], "stateRewards": ["", -2, -3, 1, -14, 48, -49, 67, -1, -35, -48, 3, -2, 1, -4, -5, 86, -84, 39, 1, 48, 41, -42, -1, -4, 2, -7, 18, -86, 17, 7, -9, 57, -69], "withholdReward": false, "trial_id": "mdp_trial_13", "block": "test", "trialIndex": 14, "score": 25.8, "costs": -4.199999999999999, "simulationMode": [null, null, null, null, null], "rewards": [-2, -3, 1, -14, 48], "path": ["0", "0", "1", "2", "3", "4", "5"], "rt": [10613, 36, 219, 254, 565], "actions": ["up", "up", "up", "right", "up"], "actionTimes": [12228, 12775, 13524, 14290, 15367], "queries": {"click": {"state": {"target": ["25", "10", "5"], "time": [3514, 7088, 9860]}, "edge": {"target": [], "time": []}}, "mouseover": {"state": {"target": ["23", "24", "25", "26", "3", "8", "10", "2", "7", "5"], "time": [2630, 2982, 3129, 3928, 4711, 5512, 6395, 7525, 7591, 9173]}, "edge": {"target": [], "time": []}}, "mouseout": {"state": {"target": ["0", "23", "24", "25", "26", "3", "8", "10", "2", "7", "5"], "time": [2136, 2968, 3050, 3556, 3945, 5377, 6381, 7512, 7575, 8675, 10522]}, "edge": {"target": [], "time": []}}}, "displayed_time": "15.88", "trialTime": 22336, "trial_type": "mouselab-mdp", "trial_index": 21, "time_elapsed": 958624, "internal_node_id": "0.0-6.0-1.0-12.0"}}, {"uniqueid": "w70864555:a79746054", "current_trial": 22, "dateTime": 1693389929109, "trialdata": {"revealed_states": [], "clicked_states": ["21"], "num_clicks_accrued": [0, 0, 0, 0, 0, 0, 0, 0, 0, 0, 0, 0, 0], "stateRewards": ["", -2, -3, -7, 7, -54, -69, -4, -14, -77, 22, 40, -2, -1, 5, 6, -35, 50, -60, 10, -28, 75, 57, 1, -4, -2, 2, 68, 34, -18, 12, 3, -21, -43], "withholdReward": false, "trial_id": "mdp_trial_14", "block": "test", "trialIndex": 15, "score": 85.6, "costs": -1.4, "simulationMode": [null, null, null, null, null], "rewards": [-2, -1, 5, 10, 75], "path": ["0", "0", "12", "13", "14", "19", "21"], "rt": [4839, 330, 308, 283, 343], "actions": ["right", "right", "right", "down", "down"], "actionTimes": [6765, 7604, 8431, 9222, 10080], "queries": {"click": {"state": {"target": ["21"], "time": [3903]}, "edge": {"target": [], "time": []}}, "mouseover": {"state": {"target": ["13", "14", "19", "21"], "time": [2464, 2544, 3092, 3480]}, "edge": {"target": [], "time": []}}, "mouseout": {"state": {"target": ["7", "13", "14", "19", "21"], "time": [1062, 2511, 3060, 3374, 4407]}, "edge": {"target": [], "time": []}}}, "displayed_time": "15.93", "trialTime": 18350, "trial_type": "mouselab-mdp", "trial_index": 22, "time_elapsed": 977205, "internal_node_id": "0.0-6.0-1.0-13.0"}}, {"uniqueid": "w70864555:a79746054", "current_trial": 23, "dateTime": 1693389948531, "trialdata": {"revealed_states": [], "clicked_states": ["32"], "num_clicks_accrued": [0, 0, 0, 0, 0, 0, 0, 0, 0, 0, 0, 0, 0], "stateRewards": ["", -2, 3, -1, -9, 44, 48, -37, -3, 71, -39, 87, -1, 3, -4, 4, -21, 59, -15, -8, -1, 28, -38, 2, 4, 4, 8, -85, -72, -63, 14, 58, 63, -46], "withholdReward": false, "trial_id": "mdp_trial_15", "block": "test", "trialIndex": 16, "score": 85.6, "costs": -1.4, "simulationMode": [null, null, null, null, null], "rewards": [2, 4, 4, 14, 63], "path": ["0", "0", "23", "24", "25", "30", "32"], "rt": [4364, 392, 1210, 475, 712], "actions": ["left", "left", "left", "down", "down"], "actionTimes": [6368, 7280, 8997, 9977, 11197], "queries": {"click": {"state": {"target": ["32"], "time": [3726]}, "edge": {"target": [], "time": []}}, "mouseover": {"state": {"target": ["23", "31", "32", "2"], "time": [2476, 2607, 3223, 4288]}, "edge": {"target": [], "time": []}}, "mouseout": {"state": {"target": ["0", "23", "31", "32", "2"], "time": [2460, 2524, 3111, 4155, 4321]}, "edge": {"target": [], "time": []}}}, "displayed_time": "16.00", "trialTime": 19204, "trial_type": "mouselab-mdp", "trial_index": 23, "time_elapsed": 996627, "internal_node_id": "0.0-6.0-1.0-14.0"}}, {"uniqueid": "w70864555:a79746054", "current_trial": 24, "dateTime": 1693389968411, "trialdata": {"revealed_states": [], "clicked_states": ["9"], "num_clicks_accrued": [0, 0, 0, 0, 0, 0, 0, 0, 0, 0, 0, 0, 0], "stateRewards": ["", 1, 2, 8, -2, 23, -69, -18, -16, 54, -21, 71, -1, -4, 7, 11, 43, -6, 88, 6, -55, 72, 43, 1, -3, -2, -1, 68, -31, -54, 4, -8, 25, -2], "withholdReward": false, "trial_id": "mdp_trial_16", "block": "test", "trialIndex": 17, "score": 47.6, "costs": -1.4, "simulationMode": [null, null, null, null, null], "rewards": [1, 2, 8, -16, 54], "path": ["0", "0", "1", "2", "3", "8", "9"], "rt": [5558, 484, 375, 399, 507], "actions": ["up", "up", "up", "left", "up"], "actionTimes": [7653, 8652, 9542, 10449, 11482], "queries": {"click": {"state": {"target": ["9"], "time": [3744]}, "edge": {"target": [], "time": []}}, "mouseover": {"state": {"target": ["1", "2", "3", "9", "8"], "time": [2488, 2506, 2557, 2704, 6001]}, "edge": {"target": [], "time": []}}, "mouseout": {"state": {"target": ["2", "1", "0", "1", "2", "3", "9", "8"], "time": [1325, 1407, 2463, 2505, 2542, 2605, 5952, 6085]}, "edge": {"target": [], "time": []}}}, "displayed_time": "16.10", "trialTime": 19618, "trial_type": "mouselab-mdp", "trial_index": 24, "time_elapsed": 1016507, "internal_node_id": "0.0-6.0-1.0-15.0"}}, {"uniqueid": "w70864555:a79746054", "current_trial": 25, "dateTime": 1693389986476, "trialdata": {"revealed_states": [], "clicked_states": ["17", "29"], "num_clicks_accrued": [0, 0, 0, 0, 0, 0, 0, 0, 0, 0, 0, 0, 0], "stateRewards": ["", -2, -3, 8, 14, -73, 73, 84, -12, -2, -50, -17, 2, 1, -2, -9, -44, -27, -33, 16, -63, -47, -66, -2, 1, 4, -5, -33, -11, 50, 9, 38, -79, 31], "withholdReward": false, "trial_id": "mdp_trial_17", "block": "test", "trialIndex": 18, "score": 45.2, "costs": -2.8, "simulationMode": [null, null, null, null, null], "rewards": [-2, 1, 4, -5, 50], "path": ["0", "0", "23", "24", "25", "26", "29"], "rt": [7114, 289, 295, 295, 382], "actions": ["left", "left", "left", "up", "left"], "actionTimes": [9021, 9826, 10631, 11447, 12350], "queries": {"click": {"state": {"target": ["17", "29"], "time": [3390, 6143]}, "edge": {"target": [], "time": []}}, "mouseover": {"state": {"target": ["18", "17", "1", "26", "29", "28", "1"], "time": [2408, 2759, 4110, 5592, 5676, 6853, 6937]}, "edge": {"target": [], "time": []}}, "mouseout": {"state": {"target": ["10", "1", "0", "18", "17", "1", "26", "29", "28", "1"], "time": [1125, 1209, 2327, 2442, 4058, 4124, 5606, 6821, 6871, 8371]}, "edge": {"target": [], "time": []}}}, "displayed_time": "15.91", "trialTime": 17825, "trial_type": "mouselab-mdp", "trial_index": 25, "time_elapsed": 1034573, "internal_node_id": "0.0-6.0-1.0-16.0"}}, {"uniqueid": "w70864555:a79746054", "current_trial": 26, "dateTime": 1693390007665, "trialdata": {"revealed_states": [], "clicked_states": ["7", "10"], "num_clicks_accrued": [0, 0, 0, 0, 0, 0, 0, 0, 0, 0, 0, 0, 0], "stateRewards": ["", 2, -1, 3, -12, -83, 6, -33, 9, 28, 24, -50, -2, -1, -2, -5, -87, 37, 82, 12, 80, -5, 10, -2, -3, -6, 9, 22, -1, 16, 9, 77, -62, 58], "withholdReward": false, "trial_id": "mdp_trial_18", "block": "test", "trialIndex": 19, "score": 34.2, "costs": -2.8, "simulationMode": [null, null, null, null, null], "rewards": [2, -1, 3, 9, 24], "path": ["0", "0", "1", "2", "3", "8", "10"], "rt": [8208, 279, 361, 294, 305], "actions": ["up", "up", "up", "left", "down"], "actionTimes": [12330, 13130, 14010, 14810, 15621], "queries": {"click": {"state": {"target": ["7", "10"], "time": [6393, 9470]}, "edge": {"target": [], "time": []}}, "mouseover": {"state": {"target": ["7", "4", "7", "10"], "time": [5291, 5589, 5639, 8540]}, "edge": {"target": [], "time": []}}, "mouseout": {"state": {"target": ["0", "7", "4", "7", "10"], "time": [4532, 5307, 5622, 7271, 10218]}, "edge": {"target": [], "time": []}}}, "displayed_time": "18.12", "trialTime": 20999, "trial_type": "mouselab-mdp", "trial_index": 26, "time_elapsed": 1055762, "internal_node_id": "0.0-6.0-1.0-17.0"}}, {"uniqueid": "w70864555:a79746054", "current_trial": 27, "dateTime": 1693390036820, "trialdata": {"revealed_states": [], "clicked_states": [], "num_clicks_accrued": [0, 0, 0, 0, 0, 0, 0, 0, 0, 0, 0, 0, 0], "stateRewards": ["", 1, 1, 6, -14, -40, 37, 16, -13, 33, -68, 49, 2, 4, 3, 6, 55, 27, 32, 10, -65, 20, -87, 2, 1, -6, -5, -42, 12, 29, -8, 16, 76, -33], "withholdReward": false, "trial_id": "mdp_trial_19", "block": "test", "trialIndex": 20, "score": 28, "costs": 0, "simulationMode": [null, null, null, null, null], "rewards": [1, 1, 6, -13, 33], "path": ["0", "0", "1", "2", "3", "8", "9"], "rt": [9164, 841, 327, 604, 752], "actions": ["up", "up", "up", "left", "up"], "actionTimes": [20195, 21553, 22386, 23513, 24825], "queries": {"click": {"state": {"target": [], "time": []}, "edge": {"target": [], "time": []}}, "mouseover": {"state": {"target": [], "time": []}, "edge": {"target": [], "time": []}}, "mouseout": {"state": {"target": ["1"], "time": [9999]}, "edge": {"target": [], "time": []}}}, "displayed_time": "25.36", "trialTime": 28963, "trial_type": "mouselab-mdp", "trial_index": 27, "time_elapsed": 1084915, "internal_node_id": "0.0-6.0-1.0-18.0"}}, {"uniqueid": "w70864555:a79746054", "current_trial": 28, "dateTime": 1693390055059, "trialdata": {"revealed_states": [], "clicked_states": ["14", "33"], "num_clicks_accrued": [0, 0, 0, 0, 0, 0, 0, 0, 0, 0, 0, 0, 0], "stateRewards": ["", 1, -1, 8, 4, 76, -33, -17, -3, -1, -54, -74, -2, 2, -5, 13, -51, 63, 83, 1, 84, 29, -36, 2, -1, 7, -12, -10, -44, -43, -14, 8, -69, 19], "withholdReward": false, "trial_id": "mdp_trial_20", "block": "test", "trialIndex": 21, "score": 10.2, "costs": -2.8, "simulationMode": [null, null, null, null, null], "rewards": [2, -1, 7, -14, 19], "path": ["0", "0", "23", "24", "25", "30", "33"], "rt": [6839, 197, 110, 30, 235], "actions": ["left", "left", "left", "down", "left"], "actionTimes": [8978, 9703, 10349, 10902, 11673], "queries": {"click": {"state": {"target": ["14", "33"], "time": [3959, 6624]}, "edge": {"target": [], "time": []}}, "mouseover": {"state": {"target": ["1", "13", "14", "13", "12", "31", "30", "33"], "time": [2822, 3439, 3522, 4356, 4386, 5263, 5388, 5701]}, "edge": {"target": [], "time": []}}, "mouseout": {"state": {"target": ["0", "0", "1", "13", "14", "13", "12", "31", "30", "33"], "time": [1022, 2273, 2872, 3490, 3975, 4379, 4409, 5285, 5588, 6957]}, "edge": {"target": [], "time": []}}}, "displayed_time": "16.15", "trialTime": 17617, "trial_type": "mouselab-mdp", "trial_index": 28, "time_elapsed": 1103155, "internal_node_id": "0.0-6.0-1.0-19.0"}}, {"uniqueid": "w70864555:a79746054", "current_trial": 29, "dateTime": 1693390075086, "trialdata": {"revealed_states": [], "clicked_states": ["21"], "num_clicks_accrued": [0, 0, 0, 0, 0, 0, 0, 0, 0, 0, 0, 0, 0], "stateRewards": ["", -1, 1, 3, -8, -23, -15, -14, -11, -23, 58, 68, 1, 3, 5, 12, -17, -41, -7, -10, -4, 82, 10, 1, 4, -4, 11, 73, 55, -55, -1, -86, -86, 54], "withholdReward": false, "trial_id": "mdp_trial_21", "block": "test", "trialIndex": 22, "score": 79.6, "costs": -1.4, "simulationMode": [null, null, null, null, null], "rewards": [1, 3, 5, -10, 82], "path": ["0", "0", "12", "13", "14", "19", "21"], "rt": [3923, 238, 273, 212, 331], "actions": ["right", "right", "right", "down", "down"], "actionTimes": [6203, 6970, 7770, 8511, 9362], "queries": {"click": {"state": {"target": ["21"], "time": [3407]}, "edge": {"target": [], "time": []}}, "mouseover": {"state": {"target": ["22", "19", "21", "20"], "time": [2762, 2800, 3027, 3995]}, "edge": {"target": [], "time": []}}, "mouseout": {"state": {"target": ["23", "22", "19", "21"], "time": [1328, 2778, 2817, 3422]}, "edge": {"target": [], "time": []}}}, "displayed_time": "16.29", "trialTime": 19217, "trial_type": "mouselab-mdp", "trial_index": 29, "time_elapsed": 1123182, "internal_node_id": "0.0-6.0-1.0-20.0"}}, {"uniqueid": "w70864555:a79746054", "current_trial": 30, "dateTime": 1693390093739, "trialdata": {"revealed_states": [], "clicked_states": ["6"], "num_clicks_accrued": [0, 0, 0, 0, 0, 0, 0, 0, 0, 0, 0, 0, 0], "stateRewards": ["", -2, -1, -4, -15, -14, -67, 32, -3, -59, 63, 31, 2, -1, -7, -15, 71, -66, -27, -3, -54, -39, 72, 2, 1, 1, -13, 77, -40, 35, -9, 35, 75, 57], "withholdReward": false, "trial_id": "mdp_trial_22", "block": "test", "trialIndex": 23, "score": 48.6, "costs": -1.4, "simulationMode": [null, null, null, null, null], "rewards": [2, -1, -7, -15, 71], "path": ["0", "0", "12", "13", "14", "15", "16"], "rt": [7817, 347, 273, 172, 481], "actions": ["right", "right", "right", "up", "up"], "actionTimes": [9455, 10326, 11118, 11818, 12826], "queries": {"click": {"state": {"target": ["6"], "time": [2921]}, "edge": {"target": [], "time": []}}, "mouseover": {"state": {"target": ["6", "11", "26", "29", "26", "28", "1", "15", "17"], "time": [2231, 5097, 5828, 6161, 6677, 6701, 6731, 6793, 7159]}, "edge": {"target": [], "time": []}}, "mouseout": {"state": {"target": ["20", "19", "0", "0", "6", "11", "26", "29", "26", "28", "1", "15"], "time": [514, 532, 614, 931, 3385, 5762, 5875, 6644, 6694, 6717, 6746, 6810]}, "edge": {"target": [], "time": []}}}, "displayed_time": "15.65", "trialTime": 17892, "trial_type": "mouselab-mdp", "trial_index": 30, "time_elapsed": 1141834, "internal_node_id": "0.0-6.0-1.0-21.0"}}, {"uniqueid": "w70864555:a79746054", "current_trial": 31, "dateTime": 1693390116627, "trialdata": {"revealed_states": [], "clicked_states": ["29", "17", "7"], "num_clicks_accrued": [0, 0, 0, 0, 0, 0, 0, 0, 0, 0, 0, 0, 0], "stateRewards": ["", 2, -1, 5, 6, 10, 86, 55, 10, -45, 63, -71, 1, -2, 5, -8, -50, -72, 36, 15, 61, 12, 33, -1, -4, 6, 5, 79, -56, -21, -16, -87, 60, -81], "withholdReward": false, "trial_id": "mdp_trial_23", "block": "test", "trialIndex": 24, "score": 62.8, "costs": -4.199999999999999, "simulationMode": [null, null, null, null, null], "rewards": [2, -1, 5, 6, 55], "path": ["0", "0", "1", "2", "3", "4", "7"], "rt": [9699, 291, 377, 351, 262], "actions": ["up", "up", "up", "right", "down"], "actionTimes": [12830, 13641, 14561, 15440, 16243], "queries": {"click": {"state": {"target": ["29", "17", "7"], "time": [4804, 7730, 10247]}, "edge": {"target": [], "time": []}}, "mouseover": {"state": {"target": ["28", "26", "29", "26", "28", "12", "13", "14", "17", "17", "13", "13", "7", "7", "2", "2"], "time": [4091, 4115, 4476, 5333, 5375, 5451, 6131, 6162, 6207, 6607, 8431, 9470, 9569, 9952, 12051, 12317]}, "edge": {"target": [], "time": []}}, "mouseout": {"state": {"target": ["17", "13", "12", "0", "28", "26", "29", "26", "28", "12", "13", "14", "17", "17", "13", "13", "7", "7", "7", "2", "2", "7", "16"], "time": [343, 1576, 1659, 3659, 4109, 4130, 5312, 5354, 5407, 5475, 6155, 6184, 6230, 8372, 8484, 9503, 9604, 10838, 12002, 12118, 12351, 12368, 20525]}, "edge": {"target": [], "time": []}}}, "displayed_time": "17.14", "trialTime": 22094, "trial_type": "mouselab-mdp", "trial_index": 31, "time_elapsed": 1164723, "internal_node_id": "0.0-6.0-1.0-22.0"}}, {"uniqueid": "w70864555:a79746054", "current_trial": 32, "dateTime": 1693390137379, "trialdata": {"revealed_states": [], "clicked_states": [], "num_clicks_accrued": [0, 0, 0, 0, 0, 0, 0, 0, 0, 0, 0, 0, 0], "stateRewards": ["", -2, -3, -6, -7, 9, 16, 65, 5, -41, 20, -25, -1, -4, 1, -11, -49, -4, 71, 1, 39, -62, 52, -2, -3, 7, -9, -28, -70, 84, 8, 24, -58, 82], "withholdReward": false, "trial_id": "mdp_trial_24", "block": "test", "trialIndex": 25, "score": 92, "costs": 0, "simulationMode": [null, null, null, null, null], "rewards": [-2, -3, 7, 8, 82], "path": ["0", "0", "23", "24", "25", "30", "33"], "rt": [1153, 519, 531, 190, 297], "actions": ["left", "left", "left", "down", "left"], "actionTimes": [3844, 4890, 5949, 6657, 7480], "queries": {"click": {"state": {"target": [], "time": []}, "edge": {"target": [], "time": []}}, "mouseover": {"state": {"target": ["12"], "time": [2897]}, "edge": {"target": [], "time": []}}, "mouseout": {"state": {"target": ["15", "13", "12", "0", "12", "13", "14"], "time": [1364, 1397, 1530, 2848, 2964, 8825, 8858]}, "edge": {"target": [], "time": []}}}, "displayed_time": "16.70", "trialTime": 20156, "trial_type": "mouselab-mdp", "trial_index": 32, "time_elapsed": 1185474, "internal_node_id": "0.0-6.0-1.0-23.0"}}, {"uniqueid": "w70864555:a79746054", "current_trial": 33, "dateTime": 1693390156009, "trialdata": {"revealed_states": [], "clicked_states": ["10", "27"], "num_clicks_accrued": [0, 0, 0, 0, 0, 0, 0, 0, 0, 0, 0, 0, 0], "stateRewards": ["", -1, 1, 6, -6, 70, 66, 67, -16, -75, -35, 37, -1, 4, 4, -6, 47, -9, 63, 15, 21, -63, 13, 1, 3, -6, 10, 79, -29, 18, -15, 9, -67, -19], "withholdReward": false, "trial_id": "mdp_trial_25", "block": "test", "trialIndex": 26, "score": 84.2, "costs": -2.8, "simulationMode": [null, null, null, null, null], "rewards": [1, 3, -6, 10, 79], "path": ["0", "0", "23", "24", "25", "26", "27"], "rt": [6144, 99, 109, 268, 289], "actions": ["left", "left", "left", "up", "up"], "actionTimes": [8231, 8844, 9472, 10251, 11068], "queries": {"click": {"state": {"target": ["10", "27"], "time": [3932, 5939]}, "edge": {"target": [], "time": []}}, "mouseover": {"state": {"target": ["3", "8", "10", "27"], "time": [2546, 3145, 3611, 4704]}, "edge": {"target": [], "time": []}}, "mouseout": {"state": {"target": ["0", "0", "3", "8", "10", "10", "27"], "time": [1094, 2480, 2579, 3481, 3944, 4301, 6276]}, "edge": {"target": [], "time": []}}}, "displayed_time": "16.09", "trialTime": 18004, "trial_type": "mouselab-mdp", "trial_index": 33, "time_elapsed": 1204105, "internal_node_id": "0.0-6.0-1.0-24.0"}}, {"uniqueid": "w70864555:a79746054", "current_trial": 34, "dateTime": 1693390174392, "trialdata": {"revealed_states": [], "clicked_states": ["7"], "num_clicks_accrued": [0, 0, 0, 0, 0, 0, 0, 0, 0, 0, 0, 0, 0], "stateRewards": ["", 2, 3, -2, -8, -8, -41, 74, 15, -23, -80, 1, 1, 3, 3, -15, -63, -78, 67, 13, 75, -41, 86, 2, -2, 6, -3, -8, -49, 50, -6, 83, 74, 80], "withholdReward": false, "trial_id": "mdp_trial_26", "block": "test", "trialIndex": 27, "score": 67.6, "costs": -1.4, "simulationMode": [null, null, null, null, null], "rewards": [2, 3, -2, -8, 74], "path": ["0", "0", "1", "2", "3", "4", "7"], "rt": [4411, 364, 295, 328, 370], "actions": ["up", "up", "up", "right", "down"], "actionTimes": [6981, 7872, 8687, 9536, 10431], "queries": {"click": {"state": {"target": ["7"], "time": [4340]}, "edge": {"target": [], "time": []}}, "mouseover": {"state": {"target": ["7", "23"], "time": [3756, 5258]}, "edge": {"target": [], "time": []}}, "mouseout": {"state": {"target": ["13", "12", "0", "7", "23"], "time": [990, 1058, 2889, 5189, 6236]}, "edge": {"target": [], "time": []}}}, "displayed_time": "16.57", "trialTime": 17816, "trial_type": "mouselab-mdp", "trial_index": 34, "time_elapsed": 1222488, "internal_node_id": "0.0-6.0-1.0-25.0"}}, {"uniqueid": "w70864555:a79746054", "current_trial": 35, "dateTime": 1693390192642, "trialdata": {"revealed_states": [], "clicked_states": ["10", "32", "16"], "num_clicks_accrued": [0, 0, 0, 0, 0, 0, 0, 0, 0, 0, 0, 0, 0], "stateRewards": ["", 1, -4, -4, 8, 1, -79, 68, -10, -79, 8, -74, -1, -3, -6, 14, 43, 23, 9, 5, -51, 63, 61, -2, 4, 6, -10, 69, -32, 57, 15, -80, -80, -77], "withholdReward": false, "trial_id": "mdp_trial_27", "block": "test", "trialIndex": 28, "score": 42.8, "costs": -4.199999999999999, "simulationMode": [null, null, null, null, null], "rewards": [-1, -3, -6, 14, 43], "path": ["0", "0", "12", "13", "14", "15", "16"], "rt": [7985, 420, 330, 207, 251], "actions": ["right", "right", "right", "up", "up"], "actionTimes": [9596, 10554, 11425, 12158, 12935], "queries": {"click": {"state": {"target": ["10", "32", "16"], "time": [2426, 5003, 7648]}, "edge": {"target": [], "time": []}}, "mouseover": {"state": {"target": ["10", "31", "32", "31", "12", "13", "14", "15", "16"], "time": [2020, 3787, 4671, 5305, 5381, 5425, 5886, 6483, 7113]}, "edge": {"target": [], "time": []}}, "mouseout": {"state": {"target": ["10", "10", "31", "32", "31", "12", "13", "14", "15", "16"], "time": [2436, 2896, 4617, 5015, 5336, 5402, 5809, 6400, 6704, 8232]}, "edge": {"target": [], "time": []}}}, "displayed_time": "15.62", "trialTime": 17579, "trial_type": "mouselab-mdp", "trial_index": 35, "time_elapsed": 1240738, "internal_node_id": "0.0-6.0-1.0-26.0"}}, {"uniqueid": "w70864555:a79746054", "current_trial": 36, "dateTime": 1693390213850, "trialdata": {"revealed_states": [], "clicked_states": ["9", "5", "29", "21"], "num_clicks_accrued": [0, 0, 0, 0, 0, 0, 0, 0, 0, 0, 0, 0, 0], "stateRewards": ["", -1, 3, 8, 9, -53, 20, -84, 2, -28, -62, -31, -1, -2, -7, 2, 51, 58, 45, -4, -17, -41, 36, 2, -2, -7, -15, 29, -54, -37, -16, -43, 65, -17], "withholdReward": false, "trial_id": "mdp_trial_28", "block": "test", "trialIndex": 29, "score": -45.6, "costs": -5.6, "simulationMode": [null, null, null, null, null], "rewards": [2, -2, -7, -16, -17], "path": ["0", "0", "23", "24", "25", "30", "33"], "rt": [13756, 160, 164, 153, 197], "actions": ["left", "left", "left", "down", "left"], "actionTimes": [15587, 16302, 16988, 17660, 18403], "queries": {"click": {"state": {"target": ["9", "5", "29", "21"], "time": [3801, 6028, 8302, 12225]}, "edge": {"target": [], "time": []}}, "mouseover": {"state": {"target": ["1", "2", "3", "9", "5", "27", "29", "26", "28", "0", "12", "13", "14", "19", "21"], "time": [2583, 2865, 2965, 3514, 4382, 7294, 7459, 8777, 8806, 10891, 11091, 11130, 11176, 11556, 11773]}, "edge": {"target": [], "time": []}}, "mouseout": {"state": {"target": ["1", "2", "3", "9", "5", "27", "29", "26", "28", "0", "12", "13", "14", "19", "21"], "time": [2648, 2932, 2982, 4260, 6414, 7385, 8755, 8800, 8829, 11074, 11124, 11157, 11207, 11674, 12595]}, "edge": {"target": [], "time": []}}}, "displayed_time": "18.93", "trialTime": 20585, "trial_type": "mouselab-mdp", "trial_index": 36, "time_elapsed": 1261946, "internal_node_id": "0.0-6.0-1.0-27.0"}}, {"uniqueid": "w70864555:a79746054", "current_trial": 37, "dateTime": 1693390232134, "trialdata": {"revealed_states": [], "clicked_states": ["9"], "num_clicks_accrued": [0, 0, 0, 0, 0, 0, 0, 0, 0, 0, 0, 0, 0], "stateRewards": ["", -1, 2, -7, -12, -62, 12, -13, 5, 77, -71, 83, 1, -4, 7, 15, -42, -87, -4, 5, -25, 44, 88, -1, 4, -5, -8, 14, 51, 8, -5, 83, -24, -19], "withholdReward": false, "trial_id": "mdp_trial_29", "block": "test", "trialIndex": 30, "score": 74.6, "costs": -1.4, "simulationMode": [null, null, null, null, null], "rewards": [-1, 2, -7, 5, 77], "path": ["0", "0", "1", "2", "3", "8", "9"], "rt": [3988, 335, 205, 325, 352], "actions": ["up", "up", "up", "left", "up"], "actionTimes": [5971, 6824, 7544, 8390, 9275], "queries": {"click": {"state": {"target": ["9"], "time": [3132]}, "edge": {"target": [], "time": []}}, "mouseover": {"state": {"target": ["1", "4", "3", "9", "5", "5"], "time": [2039, 2142, 2554, 2786, 3614, 4784]}, "edge": {"target": [], "time": []}}, "mouseout": {"state": {"target": ["12", "1", "4", "3", "9", "5", "5"], "time": [924, 2058, 2503, 2603, 3494, 3685, 5369]}, "edge": {"target": [], "time": []}}}, "displayed_time": "15.98", "trialTime": 17715, "trial_type": "mouselab-mdp", "trial_index": 37, "time_elapsed": 1280229, "internal_node_id": "0.0-6.0-1.0-28.0"}}, {"uniqueid": "w70864555:a79746054", "current_trial": 38, "dateTime": 1693390251025, "trialdata": {"revealed_states": [], "clicked_states": ["32", "21", "17"], "num_clicks_accrued": [0, 0, 0, 0, 0, 0, 0, 0, 0, 0, 0, 0, 0], "stateRewards": ["", -1, -3, -3, 1, -38, 2, -53, -2, -1, -81, 70, -1, 1, -5, -9, 46, 15, 35, -1, -22, 38, 59, -2, 4, -8, 13, 1, -83, -43, 4, 76, 13, 48], "withholdReward": false, "trial_id": "mdp_trial_30", "block": "test", "trialIndex": 31, "score": 27.8, "costs": -4.199999999999999, "simulationMode": [null, null, null, null, null], "rewards": [-1, 1, -5, -1, 38], "path": ["0", "0", "12", "13", "14", "19", "21"], "rt": [8011, 569, 417, 245, 235], "actions": ["right", "right", "right", "down", "down"], "actionTimes": [10225, 11313, 12250, 13024, 13781], "queries": {"click": {"state": {"target": ["32", "21", "17"], "time": [3525, 5752, 8222]}, "edge": {"target": [], "time": []}}, "mouseover": {"state": {"target": ["0", "32", "21", "21", "19", "14", "15", "16", "17", "17"], "time": [2500, 3049, 4650, 5215, 6322, 6353, 6390, 6423, 7038, 7945]}, "edge": {"target": [], "time": []}}, "mouseout": {"state": {"target": ["0", "0", "0", "32", "21", "21", "19", "14", "15", "16", "17", "17"], "time": [1233, 1549, 2583, 4016, 4700, 6299, 6347, 6382, 6415, 7016, 7082, 9050]}, "edge": {"target": [], "time": []}}}, "displayed_time": "16.22", "trialTime": 18105, "trial_type": "mouselab-mdp", "trial_index": 38, "time_elapsed": 1299121, "internal_node_id": "0.0-6.0-1.0-29.0"}}, {"uniqueid": "w70864555:a79746054", "current_trial": 39, "dateTime": 1693390271406, "trialdata": {"revealed_states": [], "clicked_states": ["9", "5", "29"], "num_clicks_accrued": [0, 0, 0, 0, 0, 0, 0, 0, 0, 0, 0, 0, 0], "stateRewards": ["", -1, -2, 8, -6, -79, -6, 87, 9, -5, -66, -38, 2, 2, 5, -6, -82, 74, 85, -8, 67, -30, -15, 1, -2, -2, -2, 87, 64, 49, 7, 2, -38, -9], "withholdReward": false, "trial_id": "mdp_trial_31", "block": "test", "trialIndex": 32, "score": 39.8, "costs": -4.199999999999999, "simulationMode": [null, null, null, null, null], "rewards": [1, -2, -2, -2, 49], "path": ["0", "0", "23", "24", "25", "26", "29"], "rt": [8195, 227, 286, 165, 193], "actions": ["left", "left", "left", "up", "left"], "actionTimes": [11540, 12294, 13104, 13792, 14510], "queries": {"click": {"state": {"target": ["9", "5", "29"], "time": [4879, 6810, 8754]}, "edge": {"target": [], "time": []}}, "mouseover": {"state": {"target": ["1", "2", "3", "9", "5", "27", "29", "13", "14", "17", "15", "18"], "time": [3866, 3900, 4299, 4565, 5859, 7374, 7602, 9382, 9968, 10659, 10860, 10910]}, "edge": {"target": [], "time": []}}, "mouseout": {"state": {"target": ["12", "0", "1", "2", "3", "9", "5", "27", "29", "13", "14", "17", "15", "18", "13"], "time": [2316, 3818, 3883, 3932, 4382, 5723, 7223, 7557, 9229, 9413, 10051, 10827, 10893, 15673, 15791]}, "edge": {"target": [], "time": []}}}, "displayed_time": "17.35", "trialTime": 19924, "trial_type": "mouselab-mdp", "trial_index": 39, "time_elapsed": 1319502, "internal_node_id": "0.0-6.0-1.0-30.0"}}, {"uniqueid": "w70864555:a79746054", "current_trial": 40, "dateTime": 1693390290232, "trialdata": {"revealed_states": [], "clicked_states": ["33", "20"], "num_clicks_accrued": [0, 0, 0, 0, 0, 0, 0, 0, 0, 0, 0, 0, 0], "stateRewards": ["", 1, -4, -6, -1, -21, 17, -72, 10, 77, 67, -46, -1, 4, -2, 14, -66, -49, -45, -15, -52, 23, -67, 2, -2, -2, 15, -3, 45, -64, 5, -44, 83, 61], "withholdReward": false, "trial_id": "mdp_trial_32", "block": "test", "trialIndex": 33, "score": 61.2, "costs": -2.8, "simulationMode": [null, null, null, null, null], "rewards": [2, -2, -2, 5, 61], "path": ["0", "0", "23", "24", "25", "30", "33"], "rt": [6384, 437, 337, 301, 348], "actions": ["left", "left", "left", "down", "left"], "actionTimes": [8266, 9218, 10070, 10887, 11744], "queries": {"click": {"state": {"target": ["33", "20"], "time": [4122, 5923]}, "edge": {"target": [], "time": []}}, "mouseover": {"state": {"target": ["23", "24", "30", "33", "22", "19", "20"], "time": [2417, 2817, 3251, 3799, 4586, 4610, 4659]}, "edge": {"target": [], "time": []}}, "mouseout": {"state": {"target": ["13", "15", "18", "12", "0", "23", "24", "30", "33", "22", "19", "20"], "time": [451, 502, 834, 1183, 2385, 2501, 3122, 3400, 4501, 4605, 4641, 6400]}, "edge": {"target": [], "time": []}}}, "displayed_time": "15.88", "trialTime": 18001, "trial_type": "mouselab-mdp", "trial_index": 40, "time_elapsed": 1338328, "internal_node_id": "0.0-6.0-1.0-31.0"}}, {"uniqueid": "w70864555:a79746054", "current_trial": 41, "dateTime": 1693390308385, "trialdata": {"revealed_states": [], "clicked_states": ["9", "5"], "num_clicks_accrued": [0, 0, 0, 0, 0, 0, 0, 0, 0, 0, 0, 0, 0], "stateRewards": ["", -2, -3, 1, -7, 39, -67, 16, 5, -20, 73, 66, -1, 4, 5, -3, 23, -68, -87, -8, 3, -3, 17, 1, -4, -2, -13, -32, 34, 61, -5, -11, -18, 12], "withholdReward": false, "trial_id": "mdp_trial_33", "block": "test", "trialIndex": 34, "score": 25.2, "costs": -2.8, "simulationMode": [null, null, null, null, null], "rewards": [-2, -3, 1, -7, 39], "path": ["0", "0", "1", "2", "3", "4", "5"], "rt": [5940, 390, 412, 258, 142], "actions": ["up", "up", "up", "right", "up"], "actionTimes": [7838, 8759, 9698, 10493, 11180], "queries": {"click": {"state": {"target": ["9", "5"], "time": [2957, 4908]}, "edge": {"target": [], "time": []}}, "mouseover": {"state": {"target": ["9", "5", "3", "10", "10", "6"], "time": [2468, 3424, 5436, 5504, 5847, 7263]}, "edge": {"target": [], "time": []}}, "mouseout": {"state": {"target": ["17", "15", "12", "0", "9", "5", "3", "10", "10", "6"], "time": [836, 854, 969, 1916, 3305, 5387, 5462, 5557, 7231, 7281]}, "edge": {"target": [], "time": []}}}, "displayed_time": "15.91", "trialTime": 17553, "trial_type": "mouselab-mdp", "trial_index": 41, "time_elapsed": 1356480, "internal_node_id": "0.0-6.0-1.0-32.0"}}, {"uniqueid": "w70864555:a79746054", "current_trial": 42, "dateTime": 1693390341013, "trialdata": {"revealed_states": [], "clicked_states": ["17"], "num_clicks_accrued": [0, 0, 0, 0, 0, 0, 0, 0, 0, 0, 0, 0, 0], "stateRewards": ["", -2, 1, -7, 9, 8, 25, 61, -7, -17, 69, -81, 1, 4, -4, -11, 16, 67, 44, 3, 6, -45, -54, -2, 3, 6, -11, -15, 32, -47, 3, -39, -6, -88], "withholdReward": false, "trial_id": "mdp_trial_34", "block": "test", "trialIndex": 35, "score": 55.6, "costs": -1.4, "simulationMode": [null, null, null, null, null], "rewards": [1, 4, -4, -11, 67], "path": ["0", "0", "12", "13", "14", "15", "17"], "rt": [3674, 294, 370, 307, 221], "actions": ["right", "right", "right", "up", "right"], "actionTimes": [5920, 6739, 7624, 8446, 9198], "queries": {"click": {"state": {"target": ["17"], "time": [3129]}, "edge": {"target": [], "time": []}}, "mouseover": {"state": {"target": ["18", "15", "17", "15", "18", "10", "2", "7"], "time": [2641, 2685, 2741, 3424, 3453, 4087, 5488, 5571]}, "edge": {"target": [], "time": []}}, "mouseout": {"state": {"target": ["0", "18", "15", "17", "15", "18", "10", "2", "7", "2", "24", "25"], "time": [2557, 2662, 2703, 3405, 3446, 3474, 5455, 5539, 12399, 12432, 12482, 12532]}, "edge": {"target": [], "time": []}}}, "displayed_time": "16.25", "trialTime": 31772, "trial_type": "mouselab-mdp", "trial_index": 42, "time_elapsed": 1389109, "internal_node_id": "0.0-6.0-1.0-33.0"}}, {"uniqueid": "w70864555:a79746054", "current_trial": 43, "dateTime": 1693390362640, "trialdata": {"revealed_states": [], "clicked_states": ["29", "17", "32"], "num_clicks_accrued": [0, 0, 0, 0, 0, 0, 0, 0, 0, 0, 0, 0, 0], "stateRewards": ["", -2, 2, 8, -6, -25, 3, 87, 2, -62, -2, 74, -2, -1, 2, -1, 79, 49, -37, -14, 5, 67, -9, -1, 2, -2, 5, 15, 38, 32, -14, -38, -38, 30], "withholdReward": false, "trial_id": "mdp_trial_35", "block": "test", "trialIndex": 36, "score": 42.8, "costs": -4.199999999999999, "simulationMode": [null, null, null, null, null], "rewards": [-2, -1, 2, -1, 49], "path": ["0", "0", "12", "13", "14", "15", "17"], "rt": [8618, 59, 104, 527, 458], "actions": ["right", "right", "right", "up", "right"], "actionTimes": [13548, 14138, 14750, 15801, 16780], "queries": {"click": {"state": {"target": ["29", "17", "32"], "time": [6309, 8738, 11317]}, "edge": {"target": [], "time": []}}, "mouseover": {"state": {"target": ["23", "26", "29", "28", "15", "17", "32", "22", "19"], "time": [5548, 5631, 6031, 6765, 6890, 7012, 10826, 11829, 11869]}, "edge": {"target": [], "time": []}}, "mouseout": {"state": {"target": ["0", "23", "26", "29", "28", "15", "17", "32", "22", "19"], "time": [3814, 5567, 5672, 6730, 6790, 6942, 9367, 11740, 11860, 11892]}, "edge": {"target": [], "time": []}}}, "displayed_time": "18.94", "trialTime": 21022, "trial_type": "mouselab-mdp", "trial_index": 43, "time_elapsed": 1410735, "internal_node_id": "0.0-6.0-1.0-34.0"}}, {"uniqueid": "w70864555:a79746054", "current_trial": 44, "dateTime": 1693390380467, "trialdata": {"revealed_states": [], "clicked_states": ["9", "7"], "num_clicks_accrued": [0, 0, 0, 0, 0, 0, 0, 0, 0, 0, 0, 0, 0], "stateRewards": ["", -2, 3, 3, -14, 62, 36, 49, 16, 11, 17, -84, 2, -1, 6, 2, -82, -73, 49, -6, -87, 48, 50, -1, -2, -1, -16, -11, 37, -44, 4, 55, 73, -10], "withholdReward": false, "trial_id": "mdp_trial_36", "block": "test", "trialIndex": 37, "score": 36.2, "costs": -2.8, "simulationMode": [null, null, null, null, null], "rewards": [-2, 3, 3, -14, 49], "path": ["0", "0", "1", "2", "3", "4", "7"], "rt": [6014, 240, 170, 29, 333], "actions": ["up", "up", "up", "right", "down"], "actionTimes": [8045, 8799, 9506, 10048, 10906], "queries": {"click": {"state": {"target": ["9", "7"], "time": [3248, 5334]}, "edge": {"target": [], "time": []}}, "mouseover": {"state": {"target": ["1", "2", "3", "9", "4", "7", "4", "5", "5", "4"], "time": [2443, 2468, 2506, 2942, 3883, 4941, 6076, 6142, 6494, 7422]}, "edge": {"target": [], "time": []}}, "mouseout": {"state": {"target": ["0", "23", "23", "1", "2", "3", "9", "9", "4", "7", "4", "5", "5", "4"], "time": [842, 910, 1142, 2462, 2487, 2523, 3260, 3748, 4841, 6050, 6101, 6175, 7404, 7447]}, "edge": {"target": [], "time": []}}}, "displayed_time": "16.04", "trialTime": 17328, "trial_type": "mouselab-mdp", "trial_index": 44, "time_elapsed": 1428562, "internal_node_id": "0.0-6.0-1.0-35.0"}}, {"uniqueid": "w70864555:a79746054", "current_trial": 45, "dateTime": 1693390399351, "trialdata": {"revealed_states": [], "clicked_states": ["29", "17", "32"], "num_clicks_accrued": [0, 0, 0, 0, 0, 0, 0, 0, 0, 0, 0, 0, 0], "stateRewards": ["", -2, 3, 8, -9, 59, 41, -50, -1, 82, 66, 33, 2, -2, 7, 8, 1, -38, 12, -16, 24, -37, 67, 1, 4, -2, 5, 35, -83, 28, 8, -27, 69, -64], "withholdReward": false, "trial_id": "mdp_trial_37", "block": "test", "trialIndex": 38, "score": 75.8, "costs": -4.199999999999999, "simulationMode": [null, null, null, null, null], "rewards": [1, 4, -2, 8, 69], "path": ["0", "0", "23", "24", "25", "30", "32"], "rt": [9174, 182, 156, 9, 154], "actions": ["left", "left", "left", "down", "down"], "actionTimes": [11050, 11778, 12465, 13011, 13700], "queries": {"click": {"state": {"target": ["29", "17", "32"], "time": [2836, 5776, 8388]}, "edge": {"target": [], "time": []}}, "mouseover": {"state": {"target": ["28", "26", "29", "26", "1", "28", "1", "18", "17", "17", "16", "32", "21"], "time": [2214, 2250, 2297, 3294, 3863, 4178, 4698, 4745, 5194, 5495, 6238, 8125, 9894]}, "edge": {"target": [], "time": []}}, "mouseout": {"state": {"target": ["7", "2", "1", "0", "0", "28", "26", "29", "26", "1", "28", "1", "18", "17", "17", "16", "32"], "time": [564, 947, 1014, 1080, 2148, 2231, 2268, 3277, 3314, 3898, 4679, 4717, 4770, 5245, 6135, 6865, 8735]}, "edge": {"target": [], "time": []}}}, "displayed_time": "15.88", "trialTime": 18201, "trial_type": "mouselab-mdp", "trial_index": 45, "time_elapsed": 1447447, "internal_node_id": "0.0-6.0-1.0-36.0"}}, {"uniqueid": "w70864555:a79746054", "current_trial": 46, "dateTime": 1693390418194, "trialdata": {"revealed_states": [], "clicked_states": ["11", "6"], "num_clicks_accrued": [0, 0, 0, 0, 0, 0, 0, 0, 0, 0, 0, 0, 0], "stateRewards": ["", -2, 2, -5, 1, 42, -63, -58, -6, 2, 16, 81, -2, 4, 7, -10, 33, 3, -33, -2, -52, -84, -27, 2, -3, -3, 15, -74, -14, -5, -5, -84, 79, -31], "withholdReward": false, "trial_id": "mdp_trial_38", "block": "test", "trialIndex": 39, "score": 67.2, "costs": -2.8, "simulationMode": [null, null, null, null, null], "rewards": [-2, 2, -5, -6, 81], "path": ["0", "0", "1", "2", "3", "8", "11"], "rt": [5880, 360, 268, 190, 312], "actions": ["up", "up", "up", "left", "left"], "actionTimes": [7842, 8740, 9544, 10258, 11090], "queries": {"click": {"state": {"target": ["11", "6"], "time": [3640, 6019]}, "edge": {"target": [], "time": []}}, "mouseover": {"state": {"target": ["1", "8", "9", "9", "11", "8", "6", "6"], "time": [2569, 2618, 2656, 2950, 3334, 4021, 4103, 4583]}, "edge": {"target": [], "time": []}}, "mouseout": {"state": {"target": ["21", "0", "0", "1", "8", "9", "9", "11", "8", "6", "6"], "time": [534, 650, 2067, 2600, 2637, 2677, 3251, 3655, 4049, 4163, 12692]}, "edge": {"target": [], "time": []}}}, "displayed_time": "15.97", "trialTime": 18116, "trial_type": "mouselab-mdp", "trial_index": 46, "time_elapsed": 1466289, "internal_node_id": "0.0-6.0-1.0-37.0"}}, {"uniqueid": "w70864555:a79746054", "current_trial": 47, "dateTime": 1693390444725, "trialdata": {"revealed_states": [], "clicked_states": ["9", "1", "29", "28", "31", "33"], "num_clicks_accrued": [0, 0, 0, 0, 0, 0, 0, 0, 0, 0, 0, 0, 0], "stateRewards": ["", 2, 3, -1, 16, -78, -11, 46, 2, -20, 79, -67, 2, 3, 2, 11, -83, -42, -58, -11, -67, -22, 55, 2, -1, -1, -16, -83, -82, 23, -11, -29, 13, 13], "withholdReward": false, "trial_id": "mdp_trial_39", "block": "test", "trialIndex": 40, "score": -1.3999999999999986, "costs": -8.4, "simulationMode": [null, null, null, null, null], "rewards": [2, -1, -1, -16, 23], "path": ["0", "0", "23", "24", "25", "26", "29"], "rt": [16037, 243, 191, 70, 142], "actions": ["left", "left", "left", "up", "left"], "actionTimes": [18366, 19128, 19860, 20455, 21133], "queries": {"click": {"state": {"target": ["9", "1", "29", "28", "31", "33"], "time": [4715, 7097, 9208, 11568, 14006, 16492]}, "edge": {"target": [], "time": []}}, "mouseover": {"state": {"target": ["1", "1", "10", "9", "3", "2", "1", "28", "26", "29", "26", "28", "24", "31", "31", "30", "33"], "time": [3126, 3627, 3876, 4395, 5380, 5412, 6458, 7711, 8154, 8660, 9726, 10535, 12072, 12104, 12318, 14522, 16181]}, "edge": {"target": [], "time": []}}, "mouseout": {"state": {"target": ["1", "0", "1", "1", "10", "9", "3", "2", "1", "28", "26", "29", "26", "28", "24", "31", "31", "30", "33", "30"], "time": [844, 3093, 3145, 3677, 3896, 5330, 5407, 5438, 7619, 8089, 8203, 9698, 9754, 12046, 12098, 12151, 14493, 14685, 22846, 22892]}, "edge": {"target": [], "time": []}}}, "displayed_time": "21.68", "trialTime": 25859, "trial_type": "mouselab-mdp", "trial_index": 47, "time_elapsed": 1492820, "internal_node_id": "0.0-6.0-1.0-38.0"}}, {"uniqueid": "w70864555:a79746054", "current_trial": 48, "dateTime": 1693390465575, "trialdata": {"revealed_states": [], "clicked_states": ["17", "9", "7"], "num_clicks_accrued": [0, 0, 0, 0, 0, 0, 0, 0, 0, 0, 0, 0, 0], "stateRewards": ["", -2, -3, 7, -13, 60, 9, 37, -6, 37, 20, 1, 2, -2, -8, 6, -80, -31, -10, -7, 70, -65, -44, -1, 1, 7, 6, -11, 73, -85, 16, -21, 47, 34], "withholdReward": false, "trial_id": "mdp_trial_40", "block": "test", "trialIndex": 41, "score": 21.8, "costs": -4.199999999999999, "simulationMode": [null, null, null, null, null], "rewards": [-2, -3, 7, -13, 37], "path": ["0", "0", "1", "2", "3", "4", "7"], "rt": [8596, 482, 475, 384, 299], "actions": ["up", "up", "up", "right", "down"], "actionTimes": [10014, 11009, 12000, 12908, 13726], "queries": {"click": {"state": {"target": ["17", "9", "7"], "time": [2481, 4792, 7992]}, "edge": {"target": [], "time": []}}, "mouseover": {"state": {"target": ["17", "15", "7", "3", "8", "9", "3", "5", "4", "7"], "time": [2112, 2887, 3408, 3432, 3463, 4091, 6923, 7010, 7473, 7707]}, "edge": {"target": [], "time": []}}, "mouseout": {"state": {"target": ["0", "17", "15", "7", "3", "8", "9", "3", "5", "4", "7", "14"], "time": [794, 2853, 2943, 3420, 3447, 3481, 5290, 6957, 7440, 7542, 8487, 19393]}, "edge": {"target": [], "time": []}}}, "displayed_time": "15.42", "trialTime": 19886, "trial_type": "mouselab-mdp", "trial_index": 48, "time_elapsed": 1513671, "internal_node_id": "0.0-6.0-1.0-39.0"}}, {"uniqueid": "w70864555:a79746054", "current_trial": 49, "dateTime": 1693390517591, "trialdata": {"rt": 52009, "response": {"Q0": "$-2 to $2", "Q1": "$-16 to $16", "Q2": "$-88 to $88", "Q3": "The cost was always $1.4.", "Q4": "Neither motivated nor unmotivated"}, "question_order": [0, 1, 2, 3, 4], "trial_id": "final_quiz_control", "trial_type": "survey-multi-choice", "trial_index": 49, "time_elapsed": 1565687, "internal_node_id": "0.0-6.0-2.0"}}, {"uniqueid": "w70864555:a79746054", "current_trial": 50, "dateTime": 1693390695283, "trialdata": {"rt": 177677, "response": {"Q0": "I would just click on the outer nodes and choose the one with the highest payoff or lowest penalty to be the path for the spider. Each round I would try to click on outer nodes I hadn't done before.", "Q1": "I focused on the outer nodes' values more than the path to get to them. I found it best to only reveal three nodes and then make a choice to minimize the penalties from revealing nodes.", "Q2": "It was not very difficult, it was more about making a decision as quickly as possible with the greatest rewards out of the known options."}, "trial_id": "self_report_control", "trial_type": "survey-text", "trial_index": 50, "time_elapsed": 1743379, "internal_node_id": "0.0-6.0-3.0"}}, {"uniqueid": "w70864555:a79746054", "current_trial": 51, "dateTime": 1693390730778, "trialdata": {"rt": 35487, "response": {"gender": "female", "age": "22", "colorblind": "0", "effort": "0"}, "trial_type": "survey-html-form", "trial_index": 51, "time_elapsed": 1778874, "internal_node_id": "0.0-6.0-4.0"}}, {"uniqueid": "w70864555:a79746054", "current_trial": 52, "dateTime": 1693390774204, "trialdata": {"rt": 43421, "response": {"Q0": "No. The game was well explained and user-friendly.", "Q1": "No.", "Q2": "It was well-organized and easy to complete."}, "trial_type": "survey-text", "trial_index": 52, "time_elapsed": 1822300, "internal_node_id": "0.0-6.0-5.0"}}, {"uniqueid": "w70864555:a79746054", "current_trial": 53, "dateTime": 1693390816981, "trialdata": {"rt": 42771, "stimulus": "<h1>Completion Code Instructions (1/2)</h1>\n<br><br><br><br>\nYou have reached the end of the experiment! The completion code consists of two parts: (1) a code with 2 characters (2) a code with 6 characters. On this page, you will receive the second part of the code. The first part of the completion code will be on the next page.\n<br><br>\nThe second part of your completion code is: <b>EWEK22</b>\n<br><br>\nPlease note this down. Then, press 'Finish HIT' in order to find the first part of your completion code. Once the data has been saved, you will receive this code either in this window or in the original browser window where you started the experiment.\n", "response": 0, "trial_type": "html-button-response", "trial_index": 53, "time_elapsed": 1865078, "internal_node_id": "0.0-6.0-6.0"}}, {"uniqueid": "w70864555:a79746054", "current_trial": 54, "dateTime": 1693390817996, "trialdata": {"success": true, "trial_type": "fullscreen", "trial_index": 54, "time_elapsed": 1866093, "internal_node_id": "0.0-7.0"}}], "questiondata": {"params": {"CODE": "C6DMOQA6", "MIN_TIME": 14, "inspectCost": 1, "startTime": "Wed Aug 30 2023 11:49:10 GMT+0200 (South Africa Standard Time)", "bonusRate": 0.002, "variance": "1_2_4_8_44", "branching": "31123"}, "final_score": 1603.2}, "eventdata": [{"eventtype": "initialized", "value": null, "timestamp": 1693388949664, "interval": 0}, {"eventtype": "window_resize", "value": [1366, 708], "timestamp": 1693388949664, "interval": 0}, {"eventtype": "window_resize", "value": [1366, 708], "timestamp": 1693388950087, "interval": 423}, {"eventtype": "window_resize", "value": [1366, 768], "timestamp": 1693388978306, "interval": 28219}, {"eventtype": "window_resize", "value": [1366, 708], "timestamp": 1693390817232, "interval": 1838926}], "useragent": "Mozilla/5.0 (Windows NT 10.0; Win64; x64) AppleWebKit/537.36 (KHTML, like Gecko) Chrome/116.0.0.0 Safari/537.36", "mode": "live", "id": "w70864555:a79746054", "status": "user data saved", "Beginhit": "2023-08-30 09:49:08.461371", "Beginexp": "2023-08-30 09:49:40.556202", "Endhit": "2023-08-30 10:20:20.20315", "psiturkStatus": 3, "browser": "<redacted>", "platform": "windows", "language": "en-US"}