{"condition": 1, "counterbalance": 0, "assignmentId": "a86329196", "workerId": "w24301762", "hitId": "h14779054", "currenttrial": 24, "bonus": 0, "data": [{"uniqueid": "w24301762:a86329196", "current_trial": 0, "dateTime": 1693565614079, "trialdata": {"success": true, "trial_type": "fullscreen", "trial_index": 0, "time_elapsed": 6190, "internal_node_id": "0.0-0.0"}}, {"uniqueid": "w24301762:a86329196", "current_trial": 1, "dateTime": 1693565620459, "trialdata": {"view_history": [{"page_index": 0, "viewing_time": 6376}], "rt": 6376, "trial_id": "exp_instructions_misaligned", "trial_type": "instructions", "trial_index": 1, "time_elapsed": 12570, "internal_node_id": "0.0-1.0"}}, {"uniqueid": "w24301762:a86329196", "current_trial": 2, "dateTime": 1693565765450, "trialdata": {"view_history": [{"page_index": 0, "viewing_time": 37838}, {"page_index": 1, "viewing_time": 49815}, {"page_index": 0, "viewing_time": 6217}, {"page_index": 1, "viewing_time": 16868}, {"page_index": 0, "viewing_time": 15373}, {"page_index": 1, "viewing_time": 6065}, {"page_index": 2, "viewing_time": 6872}, {"page_index": 3, "viewing_time": 5942}], "rt": 144991, "trial_id": "mouselab_instructions_1_misaligned", "trial_type": "instructions", "trial_index": 2, "time_elapsed": 157561, "internal_node_id": "0.0-2.0-1.0"}}, {"uniqueid": "w24301762:a86329196", "current_trial": 3, "dateTime": 1693565790456, "trialdata": {"revealed_states": [], "clicked_states": ["25", "14", "23"], "num_clicks_accrued": [0, 0, 0, 0, 0, 0, 0, 0, 0, 0, 0, 0, 0], "stateRewards": ["", 10, 10, 10, -10, -10, -10, 10, -10, 10, 10, 10, 10, 10, -10, 10, 10, 10, -10, 10, -10, -10, -10, 10, -10, 10, -10, 10, -10, -10, 10, 10, 10, 10], "withholdReward": false, "trial_id": "practice_1", "block": "test", "trialIndex": 0, "score": 32, "costs": -1.5, "simulationMode": [null, null, null, null, null], "rewards": [10, -10, 10, 10, 10], "path": ["0", "0", "23", "24", "25", "30", "32"], "rt": [11986, 1041, 1199, 1031, 551], "actions": ["left", "left", "left", "down", "down"], "actionTimes": [15301, 16851, 18558, 20105, 21174], "queries": {"click": {"state": {"target": ["25", "14", "23"], "time": [6365, 9381, 12118]}, "edge": {"target": [], "time": []}}, "mouseover": {"state": {"target": ["23", "24", "25", "24", "23", "12", "14", "13", "12", "0", "23", "0", "0", "0"], "time": [5481, 5499, 5548, 7396, 7446, 7613, 8179, 10477, 10694, 10910, 11527, 13693, 14142, 14176]}, "edge": {"target": [], "time": []}}, "mouseout": {"state": {"target": ["12", "0", "23", "24", "25", "24", "23", "12", "14", "13", "12", "0", "23", "23", "0", "23", "0", "0", "12", "13"], "time": [1117, 5464, 5498, 5531, 7379, 7430, 7464, 7629, 10045, 10627, 10877, 11327, 12427, 13009, 13709, 14125, 14159, 23371, 23419, 23469]}, "edge": {"target": [], "time": []}}}, "displayed_time": "21.69", "trialTime": 24705, "trial_type": "mouselab-mdp", "trial_index": 3, "time_elapsed": 182566, "internal_node_id": "0.0-2.0-2.0-0.0"}}, {"uniqueid": "w24301762:a86329196", "current_trial": 4, "dateTime": 1693565810147, "trialdata": {"revealed_states": [], "clicked_states": ["14", "3"], "num_clicks_accrued": [0, 0, 0, 0, 0, 0, 0, 0, 0, 0, 0, 0, 0], "stateRewards": ["", -10, 10, -10, -10, 10, 10, 10, -10, -10, 10, 10, -10, -10, -10, -10, 10, 10, 10, -10, 10, -10, -10, 10, -10, 10, -10, 10, -10, -10, 10, -10, -10, 10], "withholdReward": false, "trial_id": "practice_2", "block": "test", "trialIndex": 1, "score": 12.5, "costs": -1, "simulationMode": [null, null, null, null, null], "rewards": [10, -10, 10, 10, -10], "path": ["0", "0", "23", "24", "25", "30", "32"], "rt": [9102, 789, 868, 458, 569], "actions": ["left", "left", "left", "down", "down"], "actionTimes": [12017, 13315, 14693, 15665, 16742], "queries": {"click": {"state": {"target": ["14", "3"], "time": [4771, 8870]}, "edge": {"target": [], "time": []}}, "mouseover": {"state": {"target": ["14", "13", "13", "22", "12", "2", "2", "3", "2", "1", "0"], "time": [3996, 5414, 5695, 6045, 7461, 7727, 8177, 8546, 9293, 10509, 10608]}, "edge": {"target": [], "time": []}}, "mouseout": {"state": {"target": ["0", "14", "13", "13", "22", "12", "2", "2", "3", "2", "1", "0", "12", "0"], "time": [3097, 5329, 5463, 5978, 7327, 7511, 7911, 8427, 9209, 10255, 10559, 10642, 19186, 19369]}, "edge": {"target": [], "time": []}}}, "displayed_time": "17.26", "trialTime": 19544, "trial_type": "mouselab-mdp", "trial_index": 4, "time_elapsed": 202257, "internal_node_id": "0.0-2.0-2.0-1.0"}}, {"uniqueid": "w24301762:a86329196", "current_trial": 5, "dateTime": 1693565831292, "trialdata": {"view_history": [{"page_index": 0, "viewing_time": 18121}, {"page_index": 1, "viewing_time": 3022}], "rt": 21143, "trial_id": "mouselab_instructions_2_misaligned", "trial_type": "instructions", "trial_index": 5, "time_elapsed": 223403, "internal_node_id": "0.0-2.0-3.0"}}, {"uniqueid": "w24301762:a86329196", "current_trial": 6, "dateTime": 1693565868859, "trialdata": {"rt": 37566, "response": {"Q0": "The cost for clicking on nodes may vary between nodes.", "Q1": "The better I perform the higher my bonus will be.", "Q2": "No, the amount of cash at each node of the web may be different each time.", "Q3": "To get the highest total score.", "Q4": "Only before moving the spider.", "Q5": "3 seconds"}, "question_order": [0, 1, 2, 3, 4, 5], "correct": {"Q0": "The cost for clicking on nodes may vary between nodes.", "Q1": "The better I perform the higher my bonus will be.", "Q2": "No, the amount of cash at each node of the web may be different each time.", "Q3": "To get the highest total score.", "Q4": "Only before moving the spider.", "Q5": "3 seconds"}, "trial_id": "mouselab_quiz_misaligned", "trial_type": "survey-multi-choice", "trial_index": 6, "time_elapsed": 260970, "internal_node_id": "0.0-2.0-4.0"}}, {"uniqueid": "w24301762:a86329196", "current_trial": 7, "dateTime": 1693565873001, "trialdata": {"rt": 4135, "response": {"Q0": "No"}, "question_order": [0], "trial_id": "repeat_check", "trial_type": "survey-multi-choice", "trial_index": 7, "time_elapsed": 265111, "internal_node_id": "0.0-4.0-0.0"}}, {"uniqueid": "w24301762:a86329196", "current_trial": 8, "dateTime": 1693565877504, "trialdata": {"rt": 4497, "stimulus": "\n<h1> Get ready to start the game! </h1>\n\nThank you for reading the instructions. Get ready start with the 40 rounds of this game.\n<br><br>\nIf you need to take a break, feel free to take one after the end of a round, before continuing to the next one.\n<br><br>\nRemember, the more money the spider gets, the bigger your bonus will be!\n<br><br>\n<div style='text-align: center;'>Press <code>space</code> to begin.</div>\n\n<br><br>\n(If, at any point, the <code>space</code> key does not take you to the next page, click once on the text and try again.)", "response": " ", "trial_id": "mdp_ready", "trial_type": "html-keyboard-response", "trial_index": 8, "time_elapsed": 269615, "internal_node_id": "0.0-6.0-0.0"}}, {"uniqueid": "w24301762:a86329196", "current_trial": 9, "dateTime": 1693565897208, "trialdata": {"revealed_states": [], "clicked_states": ["14"], "num_clicks_accrued": [0, 0, 0, 0, 0, 0, 0, 0, 0, 0, 0, 0, 0], "stateRewards": ["", 2, 3, -1, 6, 44, -4, -59, -14, -3, 64, 16, 1, -3, 3, 6, 3, 49, 19, 3, -49, -14, -86, 1, 2, -3, -8, -33, 14, 32, -13, -77, -47, -67], "withholdReward": false, "trial_id": "mdp_trial_1", "block": "test", "trialIndex": 2, "score": 5.050000000000001, "costs": -0.95, "simulationMode": [null, null, null, null, null], "rewards": [1, 2, -3, -8, 14], "path": ["0", "0", "23", "24", "25", "26", "28"], "rt": [4270, 420, 523, 837, 457], "actions": ["left", "left", "left", "up", "right"], "actionTimes": [6240, 7171, 8207, 9553, 10521], "queries": {"click": {"state": {"target": ["14"], "time": [3507]}, "edge": {"target": [], "time": []}}, "mouseover": {"state": {"target": ["0", "12", "13", "14"], "time": [2219, 2519, 2552, 2801]}, "edge": {"target": [], "time": []}}, "mouseout": {"state": {"target": ["3", "2", "1", "0", "23", "24", "0", "0", "12", "13", "14"], "time": [120, 220, 570, 853, 1119, 1203, 1536, 2486, 2535, 2569, 3869]}, "edge": {"target": [], "time": []}}}, "displayed_time": "15.97", "trialTime": 19540, "trial_type": "mouselab-mdp", "trial_index": 9, "time_elapsed": 289319, "internal_node_id": "0.0-6.0-1.0-0.0"}}, {"uniqueid": "w24301762:a86329196", "current_trial": 10, "dateTime": 1693565918348, "trialdata": {"revealed_states": [], "clicked_states": [], "num_clicks_accrued": [0, 0, 0, 0, 0, 0, 0, 0, 0, 0, 0, 0, 0], "stateRewards": ["", -2, -3, 8, 14, -73, 73, 84, -12, -2, -50, -17, 2, 1, -2, -9, -44, -27, -33, 16, -63, -47, -66, -2, 1, 4, -5, -33, -11, 50, 9, 38, -79, 31], "withholdReward": false, "trial_id": "mdp_trial_2", "block": "test", "trialIndex": 3, "score": 50, "costs": 0, "simulationMode": [null, null, null, null, null], "rewards": [-2, 1, 4, 9, 38], "path": ["0", "0", "23", "24", "25", "30", "31"], "rt": [8074, 4191, 333, 270, 379], "actions": ["left", "left", "left", "down", "right"], "actionTimes": [9308, 14017, 14857, 15642, 16535], "queries": {"click": {"state": {"target": [], "time": []}, "edge": {"target": [], "time": []}}, "mouseover": {"state": {"target": ["0", "1", "2", "3", "8", "3", "7", "13", "22"], "time": [1730, 2147, 2397, 3196, 3413, 3746, 7393, 7744, 7810]}, "edge": {"target": [], "time": []}}, "mouseout": {"state": {"target": ["0", "0", "1", "2", "3", "8", "3", "7", "13", "22", "1", "10", "28", "24", "25", "24"], "time": [964, 1797, 2214, 2963, 3363, 3469, 7360, 7427, 7776, 7843, 11124, 11241, 11391, 11540, 12557, 12606]}, "edge": {"target": [], "time": []}}}, "displayed_time": "17.05", "trialTime": 20969, "trial_type": "mouselab-mdp", "trial_index": 10, "time_elapsed": 310458, "internal_node_id": "0.0-6.0-1.0-1.0"}}, {"uniqueid": "w24301762:a86329196", "current_trial": 11, "dateTime": 1693565936302, "trialdata": {"revealed_states": [], "clicked_states": [], "num_clicks_accrued": [0, 0, 0, 0, 0, 0, 0, 0, 0, 0, 0, 0, 0], "stateRewards": ["", 1, 1, -2, 7, -31, -6, 76, 1, -36, -16, -53, 2, 1, 7, 13, -47, -10, 47, -7, 72, 46, -56, -2, -2, -2, 11, -80, 44, 38, 16, 67, 85, -78], "withholdReward": false, "trial_id": "mdp_trial_3", "block": "test", "trialIndex": 4, "score": -53, "costs": 0, "simulationMode": [null, null, null, null, null], "rewards": [2, 1, 7, -7, -56], "path": ["0", "0", "12", "13", "14", "19", "22"], "rt": [1425, 18, 135, 160, 465], "actions": ["right", "right", "right", "down", "left"], "actionTimes": [3165, 3697, 4348, 5023, 5995], "queries": {"click": {"state": {"target": [], "time": []}, "edge": {"target": [], "time": []}}, "mouseover": {"state": {"target": [], "time": []}, "edge": {"target": [], "time": []}}, "mouseout": {"state": {"target": ["0"], "time": [1863]}, "edge": {"target": [], "time": []}}}, "displayed_time": "15.75", "trialTime": 17788, "trial_type": "mouselab-mdp", "trial_index": 11, "time_elapsed": 328413, "internal_node_id": "0.0-6.0-1.0-2.0"}}, {"uniqueid": "w24301762:a86329196", "current_trial": 12, "dateTime": 1693565953540, "trialdata": {"revealed_states": [], "clicked_states": ["15", "26"], "num_clicks_accrued": [0, 0, 0, 0, 0, 0, 0, 0, 0, 0, 0, 0, 0], "stateRewards": ["", 1, 4, -8, -5, -15, -7, 21, 13, -30, 40, -65, 1, 1, 5, -14, 35, 27, -38, -11, 36, -58, -47, -2, 4, -3, 13, -16, -49, 22, 15, -56, -44, -10], "withholdReward": false, "trial_id": "mdp_trial_4", "block": "test", "trialIndex": 5, "score": 30.9, "costs": -3.1, "simulationMode": [null, null, null, null, null], "rewards": [-2, 4, -3, 13, 22], "path": ["0", "0", "23", "24", "25", "26", "29"], "rt": [5191, 21, 289, 883, 466], "actions": ["left", "left", "left", "up", "left"], "actionTimes": [6412, 6950, 7751, 9144, 10127], "queries": {"click": {"state": {"target": ["15", "26"], "time": [2551, 4527]}, "edge": {"target": [], "time": []}}, "mouseover": {"state": {"target": ["18", "15", "15", "18", "26", "22"], "time": [1897, 1947, 2330, 3596, 4196, 5595]}, "edge": {"target": [], "time": []}}, "mouseout": {"state": {"target": ["0", "18", "15", "15", "18", "26", "22"], "time": [1732, 1914, 1981, 3546, 3613, 5029, 5612]}, "edge": {"target": [], "time": []}}}, "displayed_time": "15.23", "trialTime": 17056, "trial_type": "mouselab-mdp", "trial_index": 12, "time_elapsed": 345651, "internal_node_id": "0.0-6.0-1.0-3.0"}}, {"uniqueid": "w24301762:a86329196", "current_trial": 13, "dateTime": 1693565973376, "trialdata": {"revealed_states": [], "clicked_states": ["14", "19", "30", "4"], "num_clicks_accrued": [0, 0, 0, 0, 0, 0, 0, 0, 0, 0, 0, 0, 0], "stateRewards": ["", -1, 1, 8, -3, -24, 11, -65, -6, -77, 48, 44, -2, 1, -2, -7, -55, -35, 33, 8, -28, 19, -53, -1, -1, -5, -5, -70, 10, 44, 8, -58, -70, 51], "withholdReward": false, "trial_id": "mdp_trial_5", "block": "test", "trialIndex": 6, "score": 44.4, "costs": -5.6, "simulationMode": [null, null, null, null, null], "rewards": [-1, 1, 8, -6, 48], "path": ["0", "0", "1", "2", "3", "8", "10"], "rt": [9994, 791, 621, 419, 1110], "actions": ["up", "up", "up", "left", "down"], "actionTimes": [11176, 12480, 13610, 14540, 16164], "queries": {"click": {"state": {"target": ["14", "19", "30", "4"], "time": [2607, 4559, 6737, 8559]}, "edge": {"target": [], "time": []}}, "mouseover": {"state": {"target": ["0", "19", "14", "19", "21", "21", "24", "25", "25", "30", "24", "2", "4", "7", "12", "22"], "time": [1188, 1845, 2328, 3260, 4993, 5642, 5909, 5943, 6275, 6408, 7608, 7758, 8074, 8857, 9523, 9573]}, "edge": {"target": [], "time": []}}, "mouseout": {"state": {"target": ["0", "0", "19", "14", "19", "21", "21", "24", "25", "25", "30", "24", "2", "4", "7", "12", "22"], "time": [961, 1512, 2145, 3211, 4944, 5027, 5693, 5926, 5959, 6359, 7575, 7641, 7991, 8790, 8974, 9540, 9606]}, "edge": {"target": [], "time": []}}}, "displayed_time": "16.67", "trialTime": 19634, "trial_type": "mouselab-mdp", "trial_index": 13, "time_elapsed": 365486, "internal_node_id": "0.0-6.0-1.0-4.0"}}, {"uniqueid": "w24301762:a86329196", "current_trial": 14, "dateTime": 1693565992653, "trialdata": {"revealed_states": [], "clicked_states": ["24", "2"], "num_clicks_accrued": [0, 0, 0, 0, 0, 0, 0, 0, 0, 0, 0, 0, 0], "stateRewards": ["", 2, 4, 4, 9, -88, -10, 44, 16, -54, 64, 78, 1, 2, 5, 16, 80, 36, 7, -4, 9, -47, -70, -1, -3, 6, -16, 11, 80, 28, 8, -1, 34, -17], "withholdReward": false, "trial_id": "mdp_trial_6", "block": "test", "trialIndex": 7, "score": -66.7, "costs": -0.7, "simulationMode": [null, null, null, null, null], "rewards": [1, 2, 5, -4, -70], "path": ["0", "0", "12", "13", "14", "19", "22"], "rt": [6826, 60, 430, 243, 437], "actions": ["right", "right", "right", "down", "left"], "actionTimes": [9850, 10435, 11373, 12135, 13079], "queries": {"click": {"state": {"target": ["24", "2"], "time": [4344, 6778]}, "edge": {"target": [], "time": []}}, "mouseover": {"state": {"target": ["24", "28", "2", "7", "2", "1", "12"], "time": [3896, 5844, 5944, 5963, 6378, 7344, 7444]}, "edge": {"target": [], "time": []}}, "mouseout": {"state": {"target": ["0", "0", "24", "24", "28", "2", "7", "2", "1", "12"], "time": [2463, 3396, 4486, 5694, 5878, 5961, 6244, 7260, 7361, 7660]}, "edge": {"target": [], "time": []}}}, "displayed_time": "17.03", "trialTime": 19077, "trial_type": "mouselab-mdp", "trial_index": 14, "time_elapsed": 384763, "internal_node_id": "0.0-6.0-1.0-5.0"}}, {"uniqueid": "w24301762:a86329196", "current_trial": 15, "dateTime": 1693566011874, "trialdata": {"revealed_states": [], "clicked_states": ["25", "15", "4"], "num_clicks_accrued": [0, 0, 0, 0, 0, 0, 0, 0, 0, 0, 0, 0, 0], "stateRewards": ["", 2, -1, 5, 6, 10, 86, 55, 10, -45, 63, -71, 1, -2, 5, -8, -50, -72, 36, 15, 61, 12, 33, -1, -4, 6, 5, 79, -56, -21, -16, -87, 60, -81], "withholdReward": false, "trial_id": "mdp_trial_7", "block": "test", "trialIndex": 8, "score": -33.05, "costs": -4.05, "simulationMode": [null, null, null, null, null], "rewards": [2, -1, 5, 10, -45], "path": ["0", "0", "1", "2", "3", "8", "9"], "rt": [8110, 429, 336, 327, 294], "actions": ["up", "up", "up", "left", "up"], "actionTimes": [10646, 11583, 12439, 13279, 14081], "queries": {"click": {"state": {"target": ["25", "15", "4"], "time": [4786, 6444, 8590]}, "edge": {"target": [], "time": []}}, "mouseover": {"state": {"target": ["0", "23", "24", "25", "31", "14", "15", "4", "7", "12", "22"], "time": [4124, 4157, 4257, 4457, 5174, 5423, 5724, 8354, 9003, 9436, 9470]}, "edge": {"target": [], "time": []}}, "mouseout": {"state": {"target": ["0", "0", "0", "23", "24", "25", "25", "31", "14", "15", "4", "7", "12", "22"], "time": [2141, 3008, 4141, 4207, 4423, 4793, 5107, 5224, 5540, 6839, 8904, 9254, 9455, 9503]}, "edge": {"target": [], "time": []}}}, "displayed_time": "16.54", "trialTime": 19024, "trial_type": "mouselab-mdp", "trial_index": 15, "time_elapsed": 403985, "internal_node_id": "0.0-6.0-1.0-6.0"}}, {"uniqueid": "w24301762:a86329196", "current_trial": 16, "dateTime": 1693566029036, "trialdata": {"revealed_states": [], "clicked_states": [], "num_clicks_accrued": [0, 0, 0, 0, 0, 0, 0, 0, 0, 0, 0, 0, 0], "stateRewards": ["", 2, -1, 8, -2, -16, 69, -39, -7, -13, -27, -86, 2, -2, 2, 13, -34, -16, -20, -5, 19, 81, 32, -2, -1, 2, -14, 20, 80, 58, 4, 70, 12, 73], "withholdReward": false, "trial_id": "mdp_trial_8", "block": "test", "trialIndex": 9, "score": 73, "costs": 0, "simulationMode": [null, null, null, null, null], "rewards": [-2, -1, 2, 4, 70], "path": ["0", "0", "23", "24", "25", "30", "31"], "rt": [1332, 50, 237, 184, 313], "actions": ["left", "left", "left", "down", "right"], "actionTimes": [2717, 3273, 4042, 4739, 5565], "queries": {"click": {"state": {"target": [], "time": []}, "edge": {"target": [], "time": []}}, "mouseover": {"state": {"target": [], "time": []}, "edge": {"target": [], "time": []}}, "mouseout": {"state": {"target": ["0"], "time": [1440]}, "edge": {"target": [], "time": []}}}, "displayed_time": "15.39", "trialTime": 16962, "trial_type": "mouselab-mdp", "trial_index": 16, "time_elapsed": 421146, "internal_node_id": "0.0-6.0-1.0-7.0"}}, {"uniqueid": "w24301762:a86329196", "current_trial": 17, "dateTime": 1693566046930, "trialdata": {"revealed_states": [], "clicked_states": [], "num_clicks_accrued": [0, 0, 0, 0, 0, 0, 0, 0, 0, 0, 0, 0, 0], "stateRewards": ["", -2, -3, -3, 9, 79, 67, 22, -15, -56, 27, -85, -2, 4, -4, -15, -20, -32, 60, 15, 71, 57, 17, 1, 2, -8, 15, -37, -81, 82, 15, 21, -3, 2], "withholdReward": false, "trial_id": "mdp_trial_9", "block": "test", "trialIndex": 10, "score": 31, "costs": 0, "simulationMode": [null, null, null, null, null], "rewards": [1, 2, -8, 15, 21], "path": ["0", "0", "23", "24", "25", "30", "31"], "rt": [1325, 753, 458, 406, 325], "actions": ["left", "left", "left", "down", "right"], "actionTimes": [3163, 4428, 5399, 6314, 7148], "queries": {"click": {"state": {"target": [], "time": []}, "edge": {"target": [], "time": []}}, "mouseover": {"state": {"target": ["12"], "time": [2208]}, "edge": {"target": [], "time": []}}, "mouseout": {"state": {"target": ["12", "0"], "time": [1141, 1558]}, "edge": {"target": [], "time": []}}}, "displayed_time": "15.85", "trialTime": 17673, "trial_type": "mouselab-mdp", "trial_index": 17, "time_elapsed": 439040, "internal_node_id": "0.0-6.0-1.0-8.0"}}, {"uniqueid": "w24301762:a86329196", "current_trial": 18, "dateTime": 1693566065217, "trialdata": {"revealed_states": [], "clicked_states": [], "num_clicks_accrued": [0, 0, 0, 0, 0, 0, 0, 0, 0, 0, 0, 0, 0], "stateRewards": ["", 2, 3, 8, 14, 69, -27, 17, 2, -71, -65, -10, 2, -3, 7, 8, 65, -10, 65, -12, 73, -12, 13, -2, -2, 6, 10, -79, -69, -18, 10, -85, 67, 74], "withholdReward": false, "trial_id": "mdp_trial_10", "block": "test", "trialIndex": 11, "score": -57, "costs": 0, "simulationMode": [null, null, null, null, null], "rewards": [-2, -2, 6, 10, -69], "path": ["0", "0", "23", "24", "25", "26", "28"], "rt": [1467, 83, 161, 1244, 106], "actions": ["left", "left", "left", "up", "right"], "actionTimes": [3938, 4528, 5205, 6955, 7566], "queries": {"click": {"state": {"target": [], "time": []}, "edge": {"target": [], "time": []}}, "mouseover": {"state": {"target": ["0"], "time": [2577]}, "edge": {"target": [], "time": []}}, "mouseout": {"state": {"target": ["12", "13", "13", "1", "0", "0"], "time": [1258, 1295, 1544, 1611, 2227, 2661]}, "edge": {"target": [], "time": []}}}, "displayed_time": "16.47", "trialTime": 18059, "trial_type": "mouselab-mdp", "trial_index": 18, "time_elapsed": 457327, "internal_node_id": "0.0-6.0-1.0-9.0"}}, {"uniqueid": "w24301762:a86329196", "current_trial": 19, "dateTime": 1693566084566, "trialdata": {"revealed_states": [], "clicked_states": [], "num_clicks_accrued": [0, 0, 0, 0, 0, 0, 0, 0, 0, 0, 0, 0, 0], "stateRewards": ["", 1, 3, 3, -10, 52, 68, 59, 12, 7, 49, 21, -2, -3, -4, -2, -2, 63, 63, -4, 44, 43, -76, -2, -3, -6, 13, 48, 36, 12, -5, -36, -33, -11], "withholdReward": false, "trial_id": "mdp_trial_11", "block": "test", "trialIndex": 12, "score": -52, "costs": 0, "simulationMode": [null, null, null, null, null], "rewards": [-2, -3, -6, -5, -36], "path": ["0", "0", "23", "24", "25", "30", "31"], "rt": [1165, 95, 240, 254, 292], "actions": ["left", "left", "left", "down", "right"], "actionTimes": [3232, 3835, 4596, 5359, 6163], "queries": {"click": {"state": {"target": [], "time": []}, "edge": {"target": [], "time": []}}, "mouseover": {"state": {"target": ["0"], "time": [2139]}, "edge": {"target": [], "time": []}}, "mouseout": {"state": {"target": ["1", "0", "0"], "time": [1539, 1755, 2172]}, "edge": {"target": [], "time": []}}}, "displayed_time": "16.07", "trialTime": 19115, "trial_type": "mouselab-mdp", "trial_index": 19, "time_elapsed": 476676, "internal_node_id": "0.0-6.0-1.0-10.0"}}, {"uniqueid": "w24301762:a86329196", "current_trial": 20, "dateTime": 1693566102109, "trialdata": {"revealed_states": [], "clicked_states": [], "num_clicks_accrued": [0, 0, 0, 0, 0, 0, 0, 0, 0, 0, 0, 0, 0], "stateRewards": ["", 1, -3, -2, 14, 49, -40, -39, 2, 26, -61, 73, 1, -4, -8, 12, 79, 29, -65, -13, 55, -26, 27, -1, 3, 3, 9, -17, -60, -18, -8, 35, -88, 69], "withholdReward": false, "trial_id": "mdp_trial_12", "block": "test", "trialIndex": 13, "score": 3, "costs": 0, "simulationMode": [null, null, null, null, null], "rewards": [1, -4, -8, -13, 27], "path": ["0", "0", "12", "13", "14", "19", "22"], "rt": [1866, 20, 242, 287, 311], "actions": ["right", "right", "right", "down", "left"], "actionTimes": [3277, 3816, 4571, 5367, 6189], "queries": {"click": {"state": {"target": [], "time": []}, "edge": {"target": [], "time": []}}, "mouseover": {"state": {"target": ["0"], "time": [1420]}, "edge": {"target": [], "time": []}}, "mouseout": {"state": {"target": ["0", "0", "31", "31", "0"], "time": [1062, 1496, 9057, 9361, 9691]}, "edge": {"target": [], "time": []}}}, "displayed_time": "15.42", "trialTime": 17293, "trial_type": "mouselab-mdp", "trial_index": 20, "time_elapsed": 494220, "internal_node_id": "0.0-6.0-1.0-11.0"}}, {"uniqueid": "w24301762:a86329196", "current_trial": 21, "dateTime": 1693566125260, "trialdata": {"revealed_states": [], "clicked_states": ["26", "15", "18", "19", "30", "31"], "num_clicks_accrued": [0, 0, 0, 0, 0, 0, 0, 0, 0, 0, 0, 0, 0], "stateRewards": ["", -2, 4, 3, 5, -61, 4, 30, 1, -47, 83, 10, 1, 4, 7, -14, 19, -74, -83, 6, -2, -2, -65, -1, -2, 4, -11, 12, -1, -68, 11, -38, -28, 66], "withholdReward": false, "trial_id": "mdp_trial_13", "block": "test", "trialIndex": 14, "score": 67.5, "costs": -10.5, "simulationMode": [null, null, null, null, null], "rewards": [-1, -2, 4, 11, 66], "path": ["0", "0", "23", "24", "25", "30", "33"], "rt": [14739, 218, 536, 626, 330], "actions": ["left", "left", "left", "down", "left"], "actionTimes": [15938, 16670, 17721, 18858, 19697], "queries": {"click": {"state": {"target": ["26", "15", "18", "19", "30", "31"], "time": [2092, 3966, 4981, 8518, 10473, 11932]}, "edge": {"target": [], "time": []}}, "mouseover": {"state": {"target": ["28", "26", "18", "15", "15", "18", "17", "19", "14", "17", "17", "19", "19", "21", "32", "30", "30", "31"], "time": [1627, 1727, 3243, 3326, 3642, 4543, 5641, 5874, 6224, 6340, 7573, 7972, 8255, 9472, 9871, 10154, 10287, 11020]}, "edge": {"target": [], "time": []}}, "mouseout": {"state": {"target": ["0", "1", "0", "28", "26", "18", "15", "15", "15", "18", "15", "17", "19", "14", "17", "17", "19", "19", "21", "32", "30", "30", "31"], "time": [273, 727, 1360, 1661, 2843, 3292, 3376, 4047, 4392, 5309, 5508, 5774, 6024, 6241, 7240, 7805, 8089, 8906, 9754, 10054, 10171, 10954, 12270]}, "edge": {"target": [], "time": []}}}, "displayed_time": "20.21", "trialTime": 22903, "trial_type": "mouselab-mdp", "trial_index": 21, "time_elapsed": 517370, "internal_node_id": "0.0-6.0-1.0-12.0"}}, {"uniqueid": "w24301762:a86329196", "current_trial": 22, "dateTime": 1693566143519, "trialdata": {"revealed_states": [], "clicked_states": ["25", "33", "26"], "num_clicks_accrued": [0, 0, 0, 0, 0, 0, 0, 0, 0, 0, 0, 0, 0], "stateRewards": ["", -1, -4, -1, -11, 43, 69, 39, 4, 17, -20, -82, -2, -1, 4, 8, -79, 24, -79, 11, 36, 64, 41, 2, 4, -1, 11, -79, -47, 75, -3, 63, -36, -19], "withholdReward": false, "trial_id": "mdp_trial_14", "block": "test", "trialIndex": 15, "score": 86.35, "costs": -4.6499999999999995, "simulationMode": [null, null, null, null, null], "rewards": [2, 4, -1, 11, 75], "path": ["0", "0", "23", "24", "25", "26", "29"], "rt": [9380, 344, 180, 363, 448], "actions": ["left", "left", "left", "up", "left"], "actionTimes": [10690, 11543, 12260, 13141, 14108], "queries": {"click": {"state": {"target": ["25", "33", "26"], "time": [2249, 4233, 7568]}, "edge": {"target": [], "time": []}}, "mouseover": {"state": {"target": ["23", "24", "25", "30", "30", "33", "30", "29", "26", "31"], "time": [1720, 1786, 1836, 2703, 3485, 3701, 5000, 5488, 6633, 8148]}, "edge": {"target": [], "time": []}}, "mouseout": {"state": {"target": ["0", "0", "23", "24", "25", "30", "30", "33", "30", "29", "26", "31"], "time": [870, 1687, 1753, 1820, 2636, 3002, 3552, 4601, 5085, 6567, 8032, 8215]}, "edge": {"target": [], "time": []}}}, "displayed_time": "15.31", "trialTime": 18022, "trial_type": "mouselab-mdp", "trial_index": 22, "time_elapsed": 535630, "internal_node_id": "0.0-6.0-1.0-13.0"}}, {"uniqueid": "w24301762:a86329196", "current_trial": 23, "dateTime": 1693566163093, "trialdata": {"revealed_states": [], "clicked_states": ["15", "17", "19"], "num_clicks_accrued": [0, 0, 0, 0, 0, 0, 0, 0, 0, 0, 0, 0, 0], "stateRewards": ["", -1, 1, 8, -8, -49, 62, -78, 16, 28, -81, 78, -2, -3, -1, -4, 67, 49, -2, -13, -16, -39, 83, 1, -4, 4, -5, -20, 7, 84, 7, -32, -59, 19], "withholdReward": false, "trial_id": "mdp_trial_15", "block": "test", "trialIndex": 16, "score": -29.25, "costs": -5.25, "simulationMode": [null, null, null, null, null], "rewards": [1, -4, 4, 7, -32], "path": ["0", "0", "23", "24", "25", "30", "31"], "rt": [8147, 103, 254, 227, 359], "actions": ["left", "left", "left", "down", "right"], "actionTimes": [10155, 10769, 11536, 12276, 13141], "queries": {"click": {"state": {"target": ["15", "17", "19"], "time": [3927, 4810, 7615]}, "edge": {"target": [], "time": []}}, "mouseover": {"state": {"target": ["12", "0", "12", "13", "14", "14", "14", "15", "17", "14", "19", "13", "12"], "time": [2471, 2854, 3070, 3104, 3121, 3337, 3487, 3636, 4452, 5152, 6534, 8517, 8583]}, "edge": {"target": [], "time": []}}, "mouseout": {"state": {"target": ["0", "12", "0", "12", "13", "14", "14", "14", "15", "17", "14", "19", "13", "12"], "time": [1832, 2487, 2870, 3087, 3120, 3136, 3370, 3503, 4258, 5035, 6085, 8268, 8550, 8850]}, "edge": {"target": [], "time": []}}}, "displayed_time": "16.01", "trialTime": 19346, "trial_type": "mouselab-mdp", "trial_index": 23, "time_elapsed": 555204, "internal_node_id": "0.0-6.0-1.0-14.0"}}], "questiondata": {"params": {"CODE": "C6DMOQA6", "MIN_TIME": 14, "inspectCost": 1, "startTime": "Fri Sep 01 2023 11:53:27 GMT+0100 (British Summer Time)", "bonusRate": 0.002, "variance": "1_2_4_8_44", "branching": "31123"}}, "eventdata": [{"eventtype": "initialized", "value": null, "timestamp": 1693565606704, "interval": 0}, {"eventtype": "window_resize", "value": [1286, 950], "timestamp": 1693565606704, "interval": 0}, {"eventtype": "window_resize", "value": [1286, 950], "timestamp": 1693565607078, "interval": 374}, {"eventtype": "window_resize", "value": [1844, 1038], "timestamp": 1693565613307, "interval": 6229}, {"eventtype": "window_resize", "value": [1286, 950], "timestamp": 1693566167840, "interval": 554533}], "useragent": "Mozilla/5.0 (Windows NT 10.0; Win64; x64) AppleWebKit/537.36 (KHTML, like Gecko) Chrome/115.0.0.0 Safari/537.36", "mode": "live", "id": "w24301762:a86329196", "status": "user data saved", "Beginhit": "2023-09-01 10:53:24.837661", "Beginexp": "2023-09-01 10:53:34.304133", "Endhit": null, "psiturkStatus": 6, "browser": "<redacted>", "platform": "windows", "language": "en", "excludeReason": "dataincomplete"}