{"condition": 0, "counterbalance": 0, "assignmentId": "a68459852", "workerId": "w31856307", "hitId": "h42610561", "currenttrial": 55, "bonus": 0, "data": [{"uniqueid": "w31856307:a68459852", "current_trial": 0, "dateTime": 1691159317893, "trialdata": {"success": true, "trial_type": "fullscreen", "trial_index": 0, "time_elapsed": 3904, "internal_node_id": "0.0-0.0"}}, {"uniqueid": "w31856307:a68459852", "current_trial": 1, "dateTime": 1691159343797, "trialdata": {"view_history": [{"page_index": 0, "viewing_time": 25887}], "rt": 25891, "trial_id": "exp_instructions_control", "trial_type": "instructions", "trial_index": 1, "time_elapsed": 29810, "internal_node_id": "0.0-1.0"}}, {"uniqueid": "w31856307:a68459852", "current_trial": 2, "dateTime": 1691159349941, "trialdata": {"success": true, "trial_type": "fullscreen", "trial_index": 2, "time_elapsed": 35953, "internal_node_id": "0.0-2.0-0.0"}}, {"uniqueid": "w31856307:a68459852", "current_trial": 3, "dateTime": 1691159600796, "trialdata": {"view_history": [{"page_index": 0, "viewing_time": 85369}, {"page_index": 1, "viewing_time": 95570}, {"page_index": 2, "viewing_time": 26672}, {"page_index": 3, "viewing_time": 43231}], "rt": 250844, "trial_id": "mouselab_instructions_1_control", "trial_type": "instructions", "trial_index": 3, "time_elapsed": 286809, "internal_node_id": "0.0-2.0-1.0"}}, {"uniqueid": "w31856307:a68459852", "current_trial": 4, "dateTime": 1691159713715, "trialdata": {"revealed_states": [], "clicked_states": ["3", "6", "4", "5", "7", "1", "23", "24", "25", "30", "32", "9"], "num_clicks_accrued": [0, 0, 0, 0, 0, 0, 0, 0, 0, 0, 0, 0, 0], "stateRewards": ["", 10, -10, -10, 10, 10, 10, 10, -10, -10, -10, 10, -10, 10, -10, 10, 10, -10, 10, 10, 10, 10, 10, -10, -10, 10, 10, -10, 10, 10, -10, 10, 10, 10], "withholdReward": false, "trial_id": "practice_1", "block": "test", "trialIndex": 0, "score": 7.5, "costs": -6, "simulationMode": [null, null, null, null, null], "rewards": [-10, 10, -10, 10, 10], "path": ["0", "0", "12", "13", "14", "15", "16"], "rt": [47698, 8404, 34601, 1318, 704], "actions": ["right", "right", "right", "up", "up"], "actionTimes": [54692, 63663, 98781, 100613, 101878], "queries": {"click": {"state": {"target": ["3", "6", "4", "5", "7", "1", "23", "24", "25", "30", "32", "9"], "time": [12391, 18748, 22580, 23867, 29413, 32830, 36236, 38418, 39999, 41722, 46266, 52581]}, "edge": {"target": [], "time": []}}, "mouseover": {"state": {"target": ["2", "3", "3", "3", "4", "6", "6", "7", "4", "5", "4", "5", "3", "4", "7", "18", "1", "1", "0", "12", "0", "23", "24", "24", "25", "30", "32", "22", "21", "12", "0", "10", "8", "9"], "time": [11037, 11407, 11841, 17755, 17855, 17950, 18408, 20403, 21658, 21792, 22077, 23263, 25763, 28745, 28915, 30672, 31274, 32079, 34123, 35465, 35715, 35815, 37802, 38345, 39364, 41092, 45802, 48300, 49875, 50979, 51272, 51358, 51582, 51854]}, "edge": {"target": [], "time": []}}, "mouseout": {"state": {"target": ["0", "1", "2", "1", "0", "0", "1", "2", "0", "2", "3", "3", "3", "4", "6", "6", "7", "4", "5", "4", "5", "4", "3", "4", "7", "18", "1", "1", "0", "12", "0", "23", "23", "24", "24", "25", "30", "30", "30", "32", "22", "21", "12", "0", "10", "8", "9", "13", "13", "14", "15", "14", "19", "22", "21", "4", "9", "3", "5", "5", "4", "7", "12", "18", "7", "13", "13"], "time": [2090, 2174, 2592, 2643, 2944, 3261, 3764, 3931, 4485, 11058, 11456, 17688, 17805, 17907, 18056, 19594, 21357, 21709, 22009, 23195, 24705, 25714, 27388, 28829, 30606, 31175, 31694, 33917, 35397, 35665, 35728, 36365, 37776, 37909, 39279, 40955, 41836, 44546, 45098, 46381, 48332, 50778, 51264, 51292, 51467, 51834, 59193, 64550, 65724, 71503, 73139, 73867, 74535, 75825, 77534, 78104, 84129, 88856, 89044, 90368, 90468, 90568, 93417, 94437, 96097, 96634, 97957]}, "edge": {"target": [], "time": []}}}, "displayed_time": "102.39", "trialTime": 111579, "trial_type": "mouselab-mdp", "trial_index": 4, "time_elapsed": 399726, "internal_node_id": "0.0-2.0-2.0-0.0"}}, {"uniqueid": "w31856307:a68459852", "current_trial": 5, "dateTime": 1691159740508, "trialdata": {"revealed_states": [], "clicked_states": [], "num_clicks_accrued": [0, 0, 0, 0, 0, 0, 0, 0, 0, 0, 0, 0, 0], "stateRewards": ["", 10, -10, -10, -10, -10, -10, -10, -10, 10, -10, 10, -10, 10, 10, 10, 10, 10, -10, 10, 10, 10, 10, 10, 10, 10, 10, -10, 10, 10, 10, -10, -10, 10], "withholdReward": false, "trial_id": "practice_2", "block": "test", "trialIndex": 1, "score": 13.5, "costs": 0, "simulationMode": [null, null, null, null, null], "rewards": [-10, 10, 10, 10, -10], "path": ["0", "0", "12", "13", "14", "15", "18"], "rt": [1365, 1403, 1350, 939, 924], "actions": ["right", "right", "right", "up", "left"], "actionTimes": [7522, 9464, 11325, 12789, 14232], "queries": {"click": {"state": {"target": [], "time": []}, "edge": {"target": [], "time": []}}, "mouseover": {"state": {"target": [], "time": []}, "edge": {"target": [], "time": []}}, "mouseout": {"state": {"target": ["19", "13"], "time": [2468, 3418]}, "edge": {"target": [], "time": []}}}, "displayed_time": "14.75", "trialTime": 26131, "trial_type": "mouselab-mdp", "trial_index": 5, "time_elapsed": 426521, "internal_node_id": "0.0-2.0-2.0-1.0"}}, {"uniqueid": "w31856307:a68459852", "current_trial": 6, "dateTime": 1691159768006, "trialdata": {"view_history": [{"page_index": 0, "viewing_time": 13720}, {"page_index": 1, "viewing_time": 13766}], "rt": 27487, "trial_id": "mouselab_instructions_2_control", "trial_type": "instructions", "trial_index": 6, "time_elapsed": 454019, "internal_node_id": "0.0-2.0-3.0"}}, {"uniqueid": "w31856307:a68459852", "current_trial": 7, "dateTime": 1691159827737, "trialdata": {"rt": 59718, "response": {"Q0": "The cost for clicking on nodes may vary between nodes.", "Q1": "The better I perform the higher my bonus will be.", "Q2": "No, the amount of cash at each node of the web may be different each time.", "Q3": "To get the highest total score.", "Q4": "Only before moving the spider.", "Q5": "3 seconds"}, "question_order": [0, 1, 2, 3, 4, 5], "correct": {"Q0": "The cost for clicking on nodes may vary between nodes.", "Q1": "The better I perform the higher my bonus will be.", "Q2": "No, the amount of cash at each node of the web may be different each time.", "Q3": "To get the highest total score.", "Q4": "Only before moving the spider.", "Q5": "3 seconds"}, "trial_id": "mouselab_quiz_control", "trial_type": "survey-multi-choice", "trial_index": 7, "time_elapsed": 513750, "internal_node_id": "0.0-2.0-4.0"}}, {"uniqueid": "w31856307:a68459852", "current_trial": 8, "dateTime": 1691159836769, "trialdata": {"rt": 9020, "stimulus": "\n<h1> Get ready to start the game! </h1>\n\nThank you for reading the instructions. Get ready start with the 40 rounds of this game.\n<br><br>\nIf you need to take a break, feel free to take one after the end of a round, before continuing to the next one.\n<br><br>\nRemember, the more money the spider gets, the bigger your bonus will be!\n<br><br>\n<div style='text-align: center;'>Press <code>space</code> to begin.</div>\n\n<br><br>\n(If, at any point, the <code>space</code> key does not take you to the next page, click once on the text and try again.)", "response": " ", "trial_id": "mdp_ready", "trial_type": "html-keyboard-response", "trial_index": 8, "time_elapsed": 522782, "internal_node_id": "0.0-4.0-0.0"}}, {"uniqueid": "w31856307:a68459852", "current_trial": 9, "dateTime": 1691159861630, "trialdata": {"revealed_states": [], "clicked_states": [], "num_clicks_accrued": [0, 0, 0, 0, 0, 0, 0, 0, 0, 0, 0, 0, 0], "stateRewards": ["", -1, 4, -8, 12, 14, 69, -8, 5, -72, -14, 56, -1, -1, -1, 9, 67, 19, 11, -9, -88, -58, 3, 2, -4, -8, 4, 62, 77, -74, 5, -31, 65, 88], "withholdReward": false, "trial_id": "mdp_trial_1", "block": "test", "trialIndex": 2, "score": 56, "costs": 0, "simulationMode": [null, null, null, null, null], "rewards": [-1, 4, -8, 5, 56], "path": ["0", "0", "1", "2", "3", "8", "11"], "rt": [2015, 820, 743, 2773, 716], "actions": ["up", "up", "up", "left", "left"], "actionTimes": [6070, 7408, 8673, 11970, 13206], "queries": {"click": {"state": {"target": [], "time": []}, "edge": {"target": [], "time": []}}, "mouseover": {"state": {"target": [], "time": []}, "edge": {"target": [], "time": []}}, "mouseout": {"state": {"target": ["21", "19", "14", "13", "12", "0", "0", "13", "14", "12", "0", "23", "23"], "time": [2801, 2834, 2968, 3018, 3085, 3268, 16172, 16223, 16286, 16643, 22840, 22901, 23209]}, "edge": {"target": [], "time": []}}}, "displayed_time": "18.06", "trialTime": 24170, "trial_type": "mouselab-mdp", "trial_index": 9, "time_elapsed": 547641, "internal_node_id": "0.0-4.0-1.0-0.0"}}, {"uniqueid": "w31856307:a68459852", "current_trial": 10, "dateTime": 1691159884010, "trialdata": {"revealed_states": [], "clicked_states": [], "num_clicks_accrued": [0, 0, 0, 0, 0, 0, 0, 0, 0, 0, 0, 0, 0], "stateRewards": ["", 1, 2, 2, -15, -84, 28, -26, 13, 31, 86, 30, -2, 1, -1, -8, 66, -40, -1, -10, -32, 57, -17, 1, 2, -2, 9, -23, 77, 85, 12, -32, -62, -35], "withholdReward": false, "trial_id": "mdp_trial_2", "block": "test", "trialIndex": 3, "score": 45, "costs": 0, "simulationMode": [null, null, null, null, null], "rewards": [-2, 1, -1, -10, 57], "path": ["0", "0", "12", "13", "14", "19", "21"], "rt": [1846, 649, 614, 511, 514], "actions": ["right", "right", "right", "down", "down"], "actionTimes": [4919, 6095, 7221, 8256, 9282], "queries": {"click": {"state": {"target": [], "time": []}, "edge": {"target": [], "time": []}}, "mouseover": {"state": {"target": [], "time": []}, "edge": {"target": [], "time": []}}, "mouseout": {"state": {"target": ["0", "0", "0", "0", "12", "13", "14"], "time": [976, 15906, 16308, 18571, 18620, 18641, 18665]}, "edge": {"target": [], "time": []}}}, "displayed_time": "17.08", "trialTime": 21623, "trial_type": "mouselab-mdp", "trial_index": 10, "time_elapsed": 570022, "internal_node_id": "0.0-4.0-1.0-1.0"}}, {"uniqueid": "w31856307:a68459852", "current_trial": 11, "dateTime": 1691159904910, "trialdata": {"revealed_states": [], "clicked_states": [], "num_clicks_accrued": [0, 0, 0, 0, 0, 0, 0, 0, 0, 0, 0, 0, 0], "stateRewards": ["", 1, -1, 4, -2, -75, -75, 84, -9, -60, -79, 59, 2, -4, 8, 9, -17, -82, 80, 14, -4, 49, 49, -1, 3, 6, -11, -33, 34, 55, 9, -57, 5, 59], "withholdReward": false, "trial_id": "mdp_trial_3", "block": "test", "trialIndex": 4, "score": 54, "costs": 0, "simulationMode": [null, null, null, null, null], "rewards": [1, -1, 4, -9, 59], "path": ["0", "0", "1", "2", "3", "8", "11"], "rt": [3031, 404, 480, 1155, 496], "actions": ["up", "up", "up", "left", "left"], "actionTimes": [5727, 6643, 7650, 9332, 10338], "queries": {"click": {"state": {"target": [], "time": []}, "edge": {"target": [], "time": []}}, "mouseover": {"state": {"target": [], "time": []}, "edge": {"target": [], "time": []}}, "mouseout": {"state": {"target": ["16", "1", "0", "12", "21"], "time": [1240, 1312, 15338, 15406, 15501]}, "edge": {"target": [], "time": []}}}, "displayed_time": "16.70", "trialTime": 20190, "trial_type": "mouselab-mdp", "trial_index": 11, "time_elapsed": 590922, "internal_node_id": "0.0-4.0-1.0-2.0"}}, {"uniqueid": "w31856307:a68459852", "current_trial": 12, "dateTime": 1691159927630, "trialdata": {"revealed_states": [], "clicked_states": [], "num_clicks_accrued": [0, 0, 0, 0, 0, 0, 0, 0, 0, 0, 0, 0, 0], "stateRewards": ["", -2, 2, 3, -7, 76, 63, 21, 15, 35, -8, -44, 1, 1, -2, -12, 23, 24, 76, -9, 46, 66, -49, -2, -1, 7, 12, 40, -71, -45, -6, 38, -49, 46], "withholdReward": false, "trial_id": "mdp_trial_4", "block": "test", "trialIndex": 5, "score": 44, "costs": 0, "simulationMode": [null, null, null, null, null], "rewards": [-2, -1, 7, -6, 46], "path": ["0", "0", "23", "24", "25", "30", "33"], "rt": [2004, 514, 459, 1790, 2127], "actions": ["left", "left", "left", "down", "left"], "actionTimes": [8463, 9489, 10475, 12775, 15426], "queries": {"click": {"state": {"target": [], "time": []}, "edge": {"target": [], "time": []}}, "mouseover": {"state": {"target": [], "time": []}, "edge": {"target": [], "time": []}}, "mouseout": {"state": {"target": ["21", "0", "22", "19", "21"], "time": [2170, 17320, 17470, 17638, 17689]}, "edge": {"target": [], "time": []}}}, "displayed_time": "20.47", "trialTime": 22040, "trial_type": "mouselab-mdp", "trial_index": 12, "time_elapsed": 613642, "internal_node_id": "0.0-4.0-1.0-3.0"}}, {"uniqueid": "w31856307:a68459852", "current_trial": 13, "dateTime": 1691159945940, "trialdata": {"revealed_states": [], "clicked_states": [], "num_clicks_accrued": [0, 0, 0, 0, 0, 0, 0, 0, 0, 0, 0, 0, 0], "stateRewards": ["", 2, -4, 4, 9, 69, 9, -75, 12, -86, 66, 25, -1, 3, 2, -13, -88, -3, 1, 4, -69, 49, -84, 2, -1, 4, 2, -18, -81, -52, -15, -69, -54, 25], "withholdReward": false, "trial_id": "mdp_trial_5", "block": "test", "trialIndex": 6, "score": -45, "costs": 0, "simulationMode": [null, null, null, null, null], "rewards": [2, -1, 4, 2, -52], "path": ["0", "0", "23", "24", "25", "26", "29"], "rt": [5191, 257, 323, 1441, 1271], "actions": ["left", "left", "left", "up", "left"], "actionTimes": [7255, 8021, 8859, 10830, 12623], "queries": {"click": {"state": {"target": [], "time": []}, "edge": {"target": [], "time": []}}, "mouseover": {"state": {"target": ["1", "0"], "time": [2891, 4467]}, "edge": {"target": [], "time": []}}, "mouseout": {"state": {"target": ["0", "1", "0", "13", "20"], "time": [2807, 3186, 14099, 14133, 14161]}, "edge": {"target": [], "time": []}}}, "displayed_time": "16.07", "trialTime": 17375, "trial_type": "mouselab-mdp", "trial_index": 13, "time_elapsed": 631951, "internal_node_id": "0.0-4.0-1.0-4.0"}}, {"uniqueid": "w31856307:a68459852", "current_trial": 14, "dateTime": 1691159966852, "trialdata": {"revealed_states": [], "clicked_states": [], "num_clicks_accrued": [0, 0, 0, 0, 0, 0, 0, 0, 0, 0, 0, 0, 0], "stateRewards": ["", -1, 2, 6, 11, 21, -21, -21, -6, 48, -71, 88, -1, -3, 3, 7, 64, 2, 9, -4, 37, -67, 72, 2, 2, -8, -8, -10, 71, -40, -3, 73, 80, 47], "withholdReward": false, "trial_id": "mdp_trial_6", "block": "test", "trialIndex": 7, "score": 39, "costs": 0, "simulationMode": [null, null, null, null, null], "rewards": [-1, 2, 6, 11, 21], "path": ["0", "0", "1", "2", "3", "4", "5"], "rt": [1662, 426, 402, 948, 2499], "actions": ["up", "up", "up", "right", "up"], "actionTimes": [5899, 6856, 7782, 9276, 12297], "queries": {"click": {"state": {"target": [], "time": []}, "edge": {"target": [], "time": []}}, "mouseover": {"state": {"target": [], "time": []}, "edge": {"target": [], "time": []}}, "mouseout": {"state": {"target": ["13", "12", "0", "0", "19", "20"], "time": [2829, 3196, 3364, 13570, 13754, 14092]}, "edge": {"target": [], "time": []}}}, "displayed_time": "18.25", "trialTime": 20214, "trial_type": "mouselab-mdp", "trial_index": 14, "time_elapsed": 652864, "internal_node_id": "0.0-4.0-1.0-5.0"}}, {"uniqueid": "w31856307:a68459852", "current_trial": 15, "dateTime": 1691159989100, "trialdata": {"revealed_states": [], "clicked_states": [], "num_clicks_accrued": [0, 0, 0, 0, 0, 0, 0, 0, 0, 0, 0, 0, 0], "stateRewards": ["", 2, 3, -2, -8, -8, -41, 74, 15, -23, -80, 1, 1, 3, 3, -15, -63, -78, 67, 13, 75, -41, 86, 2, -2, 6, -3, -8, -49, 50, -6, 83, 74, 80], "withholdReward": false, "trial_id": "mdp_trial_7", "block": "test", "trialIndex": 8, "score": -62, "costs": 0, "simulationMode": [null, null, null, null, null], "rewards": [2, 3, -2, 15, -80], "path": ["0", "0", "1", "2", "3", "8", "10"], "rt": [1300, 371, 470, 1093, 1122], "actions": ["up", "up", "up", "left", "down"], "actionTimes": [5740, 6637, 7623, 9248, 10890], "queries": {"click": {"state": {"target": [], "time": []}, "edge": {"target": [], "time": []}}, "mouseover": {"state": {"target": [], "time": []}, "edge": {"target": [], "time": []}}, "mouseout": {"state": {"target": ["17", "15", "0", "0", "13"], "time": [2796, 2815, 3633, 12550, 12584]}, "edge": {"target": [], "time": []}}}, "displayed_time": "18.44", "trialTime": 21571, "trial_type": "mouselab-mdp", "trial_index": 15, "time_elapsed": 675111, "internal_node_id": "0.0-4.0-1.0-6.0"}}, {"uniqueid": "w31856307:a68459852", "current_trial": 16, "dateTime": 1691160009296, "trialdata": {"revealed_states": [], "clicked_states": [], "num_clicks_accrued": [0, 0, 0, 0, 0, 0, 0, 0, 0, 0, 0, 0, 0], "stateRewards": ["", 2, -2, 7, -11, -76, -65, -23, 16, -58, 30, 81, 1, 2, 7, 14, 9, 55, -2, 6, 11, -15, 31, -1, -1, -3, 2, 15, 2, 46, 15, 18, 45, -34], "withholdReward": false, "trial_id": "mdp_trial_8", "block": "test", "trialIndex": 9, "score": -80, "costs": 0, "simulationMode": [null, null, null, null, null], "rewards": [2, -2, 7, -11, -76], "path": ["0", "0", "1", "2", "3", "4", "5"], "rt": [2800, 874, 381, 811, 554], "actions": ["up", "up", "up", "right", "up"], "actionTimes": [6811, 8205, 9102, 10438, 11504], "queries": {"click": {"state": {"target": [], "time": []}, "edge": {"target": [], "time": []}}, "mouseover": {"state": {"target": ["0"], "time": [5975]}, "edge": {"target": [], "time": []}}, "mouseout": {"state": {"target": ["21", "13", "0", "0", "0", "0", "12", "13", "14"], "time": [2522, 2906, 2974, 5473, 5994, 12862, 12882, 12902, 12922]}, "edge": {"target": [], "time": []}}}, "displayed_time": "18.02", "trialTime": 19495, "trial_type": "mouselab-mdp", "trial_index": 16, "time_elapsed": 695307, "internal_node_id": "0.0-4.0-1.0-7.0"}}, {"uniqueid": "w31856307:a68459852", "current_trial": 17, "dateTime": 1691160029241, "trialdata": {"revealed_states": [], "clicked_states": [], "num_clicks_accrued": [0, 0, 0, 0, 0, 0, 0, 0, 0, 0, 0, 0, 0], "stateRewards": ["", 1, 1, 4, 11, 83, -66, 18, -16, -23, 5, 25, 1, -3, 1, -12, 18, 24, -86, -11, -64, 36, 40, 2, 1, -6, 13, 55, 29, 72, -2, 81, -72, -41], "withholdReward": false, "trial_id": "mdp_trial_9", "block": "test", "trialIndex": 10, "score": 24, "costs": 0, "simulationMode": [null, null, null, null, null], "rewards": [1, -3, 1, -11, 36], "path": ["0", "0", "12", "13", "14", "19", "21"], "rt": [2495, 723, 880, 516, 451], "actions": ["right", "right", "right", "down", "down"], "actionTimes": [6045, 7290, 8704, 9731, 10707], "queries": {"click": {"state": {"target": [], "time": []}, "edge": {"target": [], "time": []}}, "mouseover": {"state": {"target": [], "time": []}, "edge": {"target": [], "time": []}}, "mouseout": {"state": {"target": ["13", "15", "0", "23", "0", "18", "15", "17"], "time": [1811, 2043, 2093, 2428, 12251, 12300, 12384, 12468]}, "edge": {"target": [], "time": []}}}, "displayed_time": "17.55", "trialTime": 19325, "trial_type": "mouselab-mdp", "trial_index": 17, "time_elapsed": 715253, "internal_node_id": "0.0-4.0-1.0-8.0"}}, {"uniqueid": "w31856307:a68459852", "current_trial": 18, "dateTime": 1691160048669, "trialdata": {"revealed_states": [], "clicked_states": [], "num_clicks_accrued": [0, 0, 0, 0, 0, 0, 0, 0, 0, 0, 0, 0, 0], "stateRewards": ["", 1, 4, -8, -5, -15, -7, 21, 13, -30, 40, -65, 1, 1, 5, -14, 35, 27, -38, -11, 36, -58, -47, -2, 4, -3, 13, -16, -49, 22, 15, -56, -44, -10], "withholdReward": false, "trial_id": "mdp_trial_10", "block": "test", "trialIndex": 11, "score": 28, "costs": 0, "simulationMode": [null, null, null, null, null], "rewards": [1, 1, 5, -14, 35], "path": ["0", "0", "12", "13", "14", "15", "16"], "rt": [2987, 556, 653, 772, 469], "actions": ["right", "right", "right", "up", "up"], "actionTimes": [6096, 7172, 8348, 9633, 10619], "queries": {"click": {"state": {"target": [], "time": []}, "edge": {"target": [], "time": []}}, "mouseover": {"state": {"target": [], "time": []}, "edge": {"target": [], "time": []}}, "mouseout": {"state": {"target": ["0", "0"], "time": [2359, 11811]}, "edge": {"target": [], "time": []}}}, "displayed_time": "17.11", "trialTime": 18730, "trial_type": "mouselab-mdp", "trial_index": 18, "time_elapsed": 734681, "internal_node_id": "0.0-4.0-1.0-9.0"}}, {"uniqueid": "w31856307:a68459852", "current_trial": 19, "dateTime": 1691160066324, "trialdata": {"revealed_states": [], "clicked_states": [], "num_clicks_accrued": [0, 0, 0, 0, 0, 0, 0, 0, 0, 0, 0, 0, 0], "stateRewards": ["", -1, -4, -3, 1, -45, -67, -24, 14, 32, 22, 22, -1, 1, -5, -7, 72, 84, -79, -5, 19, -40, -2, -1, -2, 8, -3, 84, -25, -28, 11, 64, -66, 77], "withholdReward": false, "trial_id": "mdp_trial_11", "block": "test", "trialIndex": 12, "score": -50, "costs": 0, "simulationMode": [null, null, null, null, null], "rewards": [-1, -2, 8, 11, -66], "path": ["0", "0", "23", "24", "25", "30", "32"], "rt": [2555, 415, 471, 811, 382], "actions": ["left", "left", "left", "down", "down"], "actionTimes": [4430, 5357, 6353, 7679, 8575], "queries": {"click": {"state": {"target": [], "time": []}, "edge": {"target": [], "time": []}}, "mouseover": {"state": {"target": [], "time": []}, "edge": {"target": [], "time": []}}, "mouseout": {"state": {"target": ["20", "19", "12", "0", "0"], "time": [517, 870, 936, 970, 10036]}, "edge": {"target": [], "time": []}}}, "displayed_time": "15.88", "trialTime": 16934, "trial_type": "mouselab-mdp", "trial_index": 19, "time_elapsed": 752336, "internal_node_id": "0.0-4.0-1.0-10.0"}}, {"uniqueid": "w31856307:a68459852", "current_trial": 20, "dateTime": 1691160089820, "trialdata": {"revealed_states": [], "clicked_states": [], "num_clicks_accrued": [0, 0, 0, 0, 0, 0, 0, 0, 0, 0, 0, 0, 0], "stateRewards": ["", 2, 4, 7, -6, -76, -81, 2, 5, -66, -3, 36, -2, -4, 6, -2, -69, 4, -49, -6, 67, 38, -67, 2, 1, 1, 6, -68, -21, 52, -16, -16, 6, -70], "withholdReward": false, "trial_id": "mdp_trial_12", "block": "test", "trialIndex": 13, "score": -74, "costs": 0, "simulationMode": [null, null, null, null, null], "rewards": [2, 4, 7, -6, -81], "path": ["0", "0", "1", "2", "3", "4", "6"], "rt": [1738, 356, 298, 509, 250], "actions": ["up", "up", "up", "right", "right"], "actionTimes": [7352, 8219, 9035, 10063, 10840], "queries": {"click": {"state": {"target": [], "time": []}, "edge": {"target": [], "time": []}}, "mouseover": {"state": {"target": [], "time": []}, "edge": {"target": [], "time": []}}, "mouseout": {"state": {"target": ["7", "0", "0", "15", "17"], "time": [3908, 4679, 12270, 12320, 12354]}, "edge": {"target": [], "time": []}}}, "displayed_time": "19.62", "trialTime": 22776, "trial_type": "mouselab-mdp", "trial_index": 20, "time_elapsed": 775832, "internal_node_id": "0.0-4.0-1.0-11.0"}}, {"uniqueid": "w31856307:a68459852", "current_trial": 21, "dateTime": 1691160109361, "trialdata": {"revealed_states": [], "clicked_states": [], "num_clicks_accrued": [0, 0, 0, 0, 0, 0, 0, 0, 0, 0, 0, 0, 0], "stateRewards": ["", 1, -4, 6, -3, 40, 76, -51, 5, -24, -63, 44, -2, -2, 8, 1, 76, -85, -58, 10, 59, 20, 11, -2, 3, -3, 3, -82, -10, 54, -7, -57, -6, -32], "withholdReward": false, "trial_id": "mdp_trial_13", "block": "test", "trialIndex": 14, "score": 76, "costs": 0, "simulationMode": [null, null, null, null, null], "rewards": [1, -4, 6, -3, 76], "path": ["0", "0", "1", "2", "3", "4", "6"], "rt": [3281, 843, 363, 498, 228], "actions": ["up", "up", "up", "right", "right"], "actionTimes": [5519, 6875, 7751, 8787, 9525], "queries": {"click": {"state": {"target": [], "time": []}, "edge": {"target": [], "time": []}}, "mouseover": {"state": {"target": [], "time": []}, "edge": {"target": [], "time": []}}, "mouseout": {"state": {"target": ["0", "12"], "time": [11879, 11914]}, "edge": {"target": [], "time": []}}}, "displayed_time": "16.24", "trialTime": 18822, "trial_type": "mouselab-mdp", "trial_index": 21, "time_elapsed": 795373, "internal_node_id": "0.0-4.0-1.0-12.0"}}, {"uniqueid": "w31856307:a68459852", "current_trial": 22, "dateTime": 1691160128863, "trialdata": {"revealed_states": [], "clicked_states": [], "num_clicks_accrued": [0, 0, 0, 0, 0, 0, 0, 0, 0, 0, 0, 0, 0], "stateRewards": ["", -1, 1, 8, -3, -24, 11, -65, -6, -77, 48, 44, -2, 1, -2, -7, -55, -35, 33, 8, -28, 19, -53, -1, -1, -5, -5, -70, 10, 44, 8, -58, -70, 51], "withholdReward": false, "trial_id": "mdp_trial_14", "block": "test", "trialIndex": 15, "score": 50, "costs": 0, "simulationMode": [null, null, null, null, null], "rewards": [-1, 1, 8, -6, 48], "path": ["0", "0", "1", "2", "3", "8", "10"], "rt": [2206, 375, 312, 830, 770], "actions": ["up", "up", "up", "left", "down"], "actionTimes": [5347, 6244, 7070, 8426, 9722], "queries": {"click": {"state": {"target": [], "time": []}, "edge": {"target": [], "time": []}}, "mouseover": {"state": {"target": ["1", "0"], "time": [4413, 4581]}, "edge": {"target": [], "time": []}}, "mouseout": {"state": {"target": ["0", "1", "0"], "time": [1914, 4529, 4592]}, "edge": {"target": [], "time": []}}}, "displayed_time": "17.15", "trialTime": 18761, "trial_type": "mouselab-mdp", "trial_index": 22, "time_elapsed": 814875, "internal_node_id": "0.0-4.0-1.0-13.0"}}, {"uniqueid": "w31856307:a68459852", "current_trial": 23, "dateTime": 1691160148187, "trialdata": {"revealed_states": [], "clicked_states": [], "num_clicks_accrued": [0, 0, 0, 0, 0, 0, 0, 0, 0, 0, 0, 0, 0], "stateRewards": ["", 1, -3, -4, -11, -56, 61, -47, -16, -28, -9, 69, -2, -3, -4, -8, 40, -86, 59, -4, 80, 27, 54, -1, 3, -1, 8, 67, 23, 50, 6, 83, -43, -29], "withholdReward": false, "trial_id": "mdp_trial_15", "block": "test", "trialIndex": 16, "score": 76, "costs": 0, "simulationMode": [null, null, null, null, null], "rewards": [-1, 3, -1, 8, 67], "path": ["0", "0", "23", "24", "25", "26", "27"], "rt": [3798, 158, 314, 338, 35], "actions": ["left", "left", "left", "up", "up"], "actionTimes": [6992, 7670, 8516, 9374, 9951], "queries": {"click": {"state": {"target": [], "time": []}, "edge": {"target": [], "time": []}}, "mouseover": {"state": {"target": [], "time": []}, "edge": {"target": [], "time": []}}, "mouseout": {"state": {"target": ["22", "12", "0", "0"], "time": [2333, 2416, 2450, 11299]}, "edge": {"target": [], "time": []}}}, "displayed_time": "17.20", "trialTime": 18632, "trial_type": "mouselab-mdp", "trial_index": 23, "time_elapsed": 834199, "internal_node_id": "0.0-4.0-1.0-14.0"}}, {"uniqueid": "w31856307:a68459852", "current_trial": 24, "dateTime": 1691160167890, "trialdata": {"revealed_states": [], "clicked_states": [], "num_clicks_accrued": [0, 0, 0, 0, 0, 0, 0, 0, 0, 0, 0, 0, 0], "stateRewards": ["", -1, 2, -7, -12, -62, 12, -13, 5, 77, -71, 83, 1, -4, 7, 15, -42, -87, -4, 5, -25, 44, 88, -1, 4, -5, -8, 14, 51, 8, -5, 83, -24, -19], "withholdReward": false, "trial_id": "mdp_trial_16", "block": "test", "trialIndex": 17, "score": 82, "costs": 0, "simulationMode": [null, null, null, null, null], "rewards": [-1, 2, -7, 5, 83], "path": ["0", "0", "1", "2", "3", "8", "11"], "rt": [1290, 473, 251, 665, 1026], "actions": ["up", "up", "up", "left", "left"], "actionTimes": [5283, 6270, 7068, 8254, 9789], "queries": {"click": {"state": {"target": [], "time": []}, "edge": {"target": [], "time": []}}, "mouseover": {"state": {"target": [], "time": []}, "edge": {"target": [], "time": []}}, "mouseout": {"state": {"target": ["6", "27", "26", "24", "12", "0"], "time": [2329, 2645, 2697, 2731, 3064, 10925]}, "edge": {"target": [], "time": []}}}, "displayed_time": "18.00", "trialTime": 19046, "trial_type": "mouselab-mdp", "trial_index": 24, "time_elapsed": 853902, "internal_node_id": "0.0-4.0-1.0-15.0"}}, {"uniqueid": "w31856307:a68459852", "current_trial": 25, "dateTime": 1691160189745, "trialdata": {"revealed_states": [], "clicked_states": [], "num_clicks_accrued": [0, 0, 0, 0, 0, 0, 0, 0, 0, 0, 0, 0, 0], "stateRewards": ["", -2, -3, 7, -13, 60, 9, 37, -6, 37, 20, 1, 2, -2, -8, 6, -80, -31, -10, -7, 70, -65, -44, -1, 1, 7, 6, -11, 73, -85, 16, -21, 47, 34], "withholdReward": false, "trial_id": "mdp_trial_17", "block": "test", "trialIndex": 18, "score": -80, "costs": 0, "simulationMode": [null, null, null, null, null], "rewards": [2, -2, -8, -7, -65], "path": ["0", "0", "12", "13", "14", "19", "21"], "rt": [1613, 427, 355, 388, 337], "actions": ["right", "right", "right", "down", "down"], "actionTimes": [6232, 7179, 8046, 8962, 9820], "queries": {"click": {"state": {"target": [], "time": []}, "edge": {"target": [], "time": []}}, "mouseover": {"state": {"target": [], "time": []}, "edge": {"target": [], "time": []}}, "mouseout": {"state": {"target": ["15", "31", "23", "0", "18"], "time": [3234, 3434, 3702, 11379, 11413]}, "edge": {"target": [], "time": []}}}, "displayed_time": "18.63", "trialTime": 21082, "trial_type": "mouselab-mdp", "trial_index": 25, "time_elapsed": 875757, "internal_node_id": "0.0-4.0-1.0-16.0"}}, {"uniqueid": "w31856307:a68459852", "current_trial": 26, "dateTime": 1691160208414, "trialdata": {"revealed_states": [], "clicked_states": [], "num_clicks_accrued": [0, 0, 0, 0, 0, 0, 0, 0, 0, 0, 0, 0, 0], "stateRewards": ["", 2, 3, -1, 6, 44, -4, -59, -14, -3, 64, 16, 1, -3, 3, 6, 3, 49, 19, 3, -49, -14, -86, 1, 2, -3, -8, -33, 14, 32, -13, -77, -47, -67], "withholdReward": false, "trial_id": "mdp_trial_18", "block": "test", "trialIndex": 19, "score": 6, "costs": 0, "simulationMode": [null, null, null, null, null], "rewards": [2, 3, -1, 6, -4], "path": ["0", "0", "1", "2", "3", "4", "6"], "rt": [1107, 627, 335, 1502, 154], "actions": ["up", "up", "up", "right", "right"], "actionTimes": [3506, 4652, 5499, 7522, 8200], "queries": {"click": {"state": {"target": [], "time": []}, "edge": {"target": [], "time": []}}, "mouseover": {"state": {"target": [], "time": []}, "edge": {"target": [], "time": []}}, "mouseout": {"state": {"target": ["21", "23", "0", "22", "14"], "time": [707, 823, 9606, 9740, 10074]}, "edge": {"target": [], "time": []}}}, "displayed_time": "16.41", "trialTime": 17939, "trial_type": "mouselab-mdp", "trial_index": 26, "time_elapsed": 894426, "internal_node_id": "0.0-4.0-1.0-17.0"}}, {"uniqueid": "w31856307:a68459852", "current_trial": 27, "dateTime": 1691160228061, "trialdata": {"revealed_states": [], "clicked_states": [], "num_clicks_accrued": [0, 0, 0, 0, 0, 0, 0, 0, 0, 0, 0, 0, 0], "stateRewards": ["", 1, 1, -7, -9, -44, 24, -83, -15, 44, -24, 72, -2, -3, 4, -5, 57, 55, 29, -11, 22, 12, -25, -1, 2, 7, 12, 33, -8, 47, -4, 8, 50, -4], "withholdReward": false, "trial_id": "mdp_trial_19", "block": "test", "trialIndex": 20, "score": 10, "costs": 0, "simulationMode": [null, null, null, null, null], "rewards": [1, 1, -7, -9, 24], "path": ["0", "0", "1", "2", "3", "4", "6"], "rt": [1405, 156, 353, 410, 252], "actions": ["up", "up", "up", "right", "right"], "actionTimes": [4162, 4830, 5697, 6625, 7401], "queries": {"click": {"state": {"target": [], "time": []}, "edge": {"target": [], "time": []}}, "mouseover": {"state": {"target": [], "time": []}, "edge": {"target": [], "time": []}}, "mouseout": {"state": {"target": ["31", "24", "23", "0", "12", "0", "22", "19", "20"], "time": [1284, 1473, 1506, 1553, 1808, 8831, 8964, 8998, 9319]}, "edge": {"target": [], "time": []}}}, "displayed_time": "16.76", "trialTime": 18984, "trial_type": "mouselab-mdp", "trial_index": 27, "time_elapsed": 914073, "internal_node_id": "0.0-4.0-1.0-18.0"}}, {"uniqueid": "w31856307:a68459852", "current_trial": 28, "dateTime": 1691160248574, "trialdata": {"revealed_states": [], "clicked_states": [], "num_clicks_accrued": [0, 0, 0, 0, 0, 0, 0, 0, 0, 0, 0, 0, 0], "stateRewards": ["", 1, -1, 8, -3, 38, 85, -20, -4, 8, 23, 73, 2, -4, 6, -13, 44, 7, -28, -11, -77, 45, -69, 1, -1, -7, -11, 75, -51, -87, 7, 36, -53, -26], "withholdReward": false, "trial_id": "mdp_trial_20", "block": "test", "trialIndex": 21, "score": 90, "costs": 0, "simulationMode": [null, null, null, null, null], "rewards": [1, -1, 8, -3, 85], "path": ["0", "0", "1", "2", "3", "4", "6"], "rt": [1200, 903, 306, 272, 223], "actions": ["up", "up", "up", "right", "right"], "actionTimes": [5262, 6678, 7505, 8292, 9030], "queries": {"click": {"state": {"target": [], "time": []}, "edge": {"target": [], "time": []}}, "mouseover": {"state": {"target": [], "time": []}, "edge": {"target": [], "time": []}}, "mouseout": {"state": {"target": ["7", "5", "2", "0", "19", "20"], "time": [2674, 2859, 2925, 10166, 10317, 10345]}, "edge": {"target": [], "time": []}}}, "displayed_time": "18.06", "trialTime": 19709, "trial_type": "mouselab-mdp", "trial_index": 28, "time_elapsed": 934586, "internal_node_id": "0.0-4.0-1.0-19.0"}}, {"uniqueid": "w31856307:a68459852", "current_trial": 29, "dateTime": 1691160269168, "trialdata": {"revealed_states": [], "clicked_states": [], "num_clicks_accrued": [0, 0, 0, 0, 0, 0, 0, 0, 0, 0, 0, 0, 0], "stateRewards": ["", -1, 2, 7, 8, 75, 67, -11, 6, 52, -17, 38, -1, 4, -8, 14, 74, -37, -17, -12, 52, 55, 71, -2, -1, -5, 2, 21, 6, -88, -14, 64, -61, -47], "withholdReward": false, "trial_id": "mdp_trial_21", "block": "test", "trialIndex": 22, "score": 83, "costs": 0, "simulationMode": [null, null, null, null, null], "rewards": [-1, 2, 7, 8, 67], "path": ["0", "0", "1", "2", "3", "4", "6"], "rt": [1379, 122, 190, 505, 179], "actions": ["up", "up", "up", "right", "right"], "actionTimes": [5215, 5863, 6571, 7587, 8295], "queries": {"click": {"state": {"target": [], "time": []}, "edge": {"target": [], "time": []}}, "mouseover": {"state": {"target": [], "time": []}, "edge": {"target": [], "time": []}}, "mouseout": {"state": {"target": ["14", "24", "23", "12", "0", "14"], "time": [2154, 2456, 2506, 2740, 9846, 9908]}, "edge": {"target": [], "time": []}}}, "displayed_time": "17.84", "trialTime": 19928, "trial_type": "mouselab-mdp", "trial_index": 29, "time_elapsed": 955181, "internal_node_id": "0.0-4.0-1.0-20.0"}}, {"uniqueid": "w31856307:a68459852", "current_trial": 30, "dateTime": 1691160287688, "trialdata": {"revealed_states": [], "clicked_states": [], "num_clicks_accrued": [0, 0, 0, 0, 0, 0, 0, 0, 0, 0, 0, 0, 0], "stateRewards": ["", -2, -4, -6, 12, -58, -70, -80, 2, 16, -88, -62, 1, 2, -5, 11, 77, -35, -44, -5, 18, -83, 87, 1, -3, -5, 13, -44, -21, -86, 10, -52, 8, 29], "withholdReward": false, "trial_id": "mdp_trial_22", "block": "test", "trialIndex": 23, "score": -70, "costs": 0, "simulationMode": [null, null, null, null, null], "rewards": [-2, -4, -6, 12, -70], "path": ["0", "0", "1", "2", "3", "4", "6"], "rt": [1106, 21, 274, 1569, 64], "actions": ["up", "up", "up", "right", "right"], "actionTimes": [3213, 3760, 4549, 6632, 7221], "queries": {"click": {"state": {"target": [], "time": []}, "edge": {"target": [], "time": []}}, "mouseover": {"state": {"target": [], "time": []}, "edge": {"target": [], "time": []}}, "mouseout": {"state": {"target": ["12", "2", "1", "0", "17"], "time": [1007, 1225, 1320, 8364, 8465]}, "edge": {"target": [], "time": []}}}, "displayed_time": "16.11", "trialTime": 17866, "trial_type": "mouselab-mdp", "trial_index": 30, "time_elapsed": 973700, "internal_node_id": "0.0-4.0-1.0-21.0"}}, {"uniqueid": "w31856307:a68459852", "current_trial": 31, "dateTime": 1691160307503, "trialdata": {"revealed_states": [], "clicked_states": [], "num_clicks_accrued": [0, 0, 0, 0, 0, 0, 0, 0, 0, 0, 0, 0, 0], "stateRewards": ["", 1, -2, 4, 7, -43, -83, -60, -5, -86, -80, 83, -1, -2, 6, 11, -15, 21, 13, 9, 29, -49, 11, -1, 4, -6, -11, 87, 40, 63, -8, -39, -11, 62], "withholdReward": false, "trial_id": "mdp_trial_23", "block": "test", "trialIndex": 24, "score": -73, "costs": 0, "simulationMode": [null, null, null, null, null], "rewards": [1, -2, 4, 7, -83], "path": ["0", "0", "1", "2", "3", "4", "6"], "rt": [1907, 74, 206, 1164, 88], "actions": ["up", "up", "up", "right", "right"], "actionTimes": [4301, 4889, 5607, 7312, 7919], "queries": {"click": {"state": {"target": [], "time": []}, "edge": {"target": [], "time": []}}, "mouseover": {"state": {"target": ["1", "1"], "time": [3342, 3659]}, "edge": {"target": [], "time": []}}, "mouseout": {"state": {"target": ["0", "1", "1", "13"], "time": [1363, 3370, 3711, 9071]}, "edge": {"target": [], "time": []}}}, "displayed_time": "16.40", "trialTime": 19067, "trial_type": "mouselab-mdp", "trial_index": 31, "time_elapsed": 993514, "internal_node_id": "0.0-4.0-1.0-22.0"}}, {"uniqueid": "w31856307:a68459852", "current_trial": 32, "dateTime": 1691160325636, "trialdata": {"revealed_states": [], "clicked_states": [], "num_clicks_accrued": [0, 0, 0, 0, 0, 0, 0, 0, 0, 0, 0, 0, 0], "stateRewards": ["", -1, 1, 8, -8, -49, 62, -78, 16, 28, -81, 78, -2, -3, -1, -4, 67, 49, -2, -13, -16, -39, 83, 1, -4, 4, -5, -20, 7, 84, 7, -32, -59, 19], "withholdReward": false, "trial_id": "mdp_trial_24", "block": "test", "trialIndex": 25, "score": 62, "costs": 0, "simulationMode": [null, null, null, null, null], "rewards": [-1, 1, 8, -8, 62], "path": ["0", "0", "1", "2", "3", "4", "6"], "rt": [1336, 714, 208, 444, 174], "actions": ["up", "up", "up", "right", "right"], "actionTimes": [3047, 4282, 5000, 5957, 6645], "queries": {"click": {"state": {"target": [], "time": []}, "edge": {"target": [], "time": []}}, "mouseover": {"state": {"target": [], "time": []}, "edge": {"target": [], "time": []}}, "mouseout": {"state": {"target": ["0", "22"], "time": [8126, 8263]}, "edge": {"target": [], "time": []}}}, "displayed_time": "15.71", "trialTime": 17444, "trial_type": "mouselab-mdp", "trial_index": 32, "time_elapsed": 1011649, "internal_node_id": "0.0-4.0-1.0-23.0"}}, {"uniqueid": "w31856307:a68459852", "current_trial": 33, "dateTime": 1691160344258, "trialdata": {"revealed_states": [], "clicked_states": [], "num_clicks_accrued": [0, 0, 0, 0, 0, 0, 0, 0, 0, 0, 0, 0, 0], "stateRewards": ["", -1, -3, -5, -14, -13, -47, 79, 8, -60, -64, 41, -1, 2, 3, 13, -46, 61, -79, -11, -64, -65, 23, 1, -2, 6, -14, 46, 32, 21, 7, 75, -66, 15], "withholdReward": false, "trial_id": "mdp_trial_25", "block": "test", "trialIndex": 26, "score": -29, "costs": 0, "simulationMode": [null, null, null, null, null], "rewards": [-1, 2, 3, 13, -46], "path": ["0", "0", "12", "13", "14", "15", "16"], "rt": [1175, 325, 534, 664, 12], "actions": ["right", "right", "right", "up", "up"], "actionTimes": [3386, 4234, 5281, 6467, 7006], "queries": {"click": {"state": {"target": [], "time": []}, "edge": {"target": [], "time": []}}, "mouseover": {"state": {"target": [], "time": []}, "edge": {"target": [], "time": []}}, "mouseout": {"state": {"target": ["12", "0", "0", "15", "17"], "time": [1428, 1495, 8382, 8446, 8462]}, "edge": {"target": [], "time": []}}}, "displayed_time": "16.22", "trialTime": 17893, "trial_type": "mouselab-mdp", "trial_index": 33, "time_elapsed": 1030271, "internal_node_id": "0.0-4.0-1.0-24.0"}}, {"uniqueid": "w31856307:a68459852", "current_trial": 34, "dateTime": 1691160363436, "trialdata": {"revealed_states": [], "clicked_states": [], "num_clicks_accrued": [0, 0, 0, 0, 0, 0, 0, 0, 0, 0, 0, 0, 0], "stateRewards": ["", 2, 1, -3, 7, 46, 11, -36, 16, 71, 5, 1, 2, -2, -8, -3, -4, 6, 55, 7, 68, -54, 2, 1, 1, 6, -6, 42, -4, -84, -11, -65, 63, 25], "withholdReward": false, "trial_id": "mdp_trial_26", "block": "test", "trialIndex": 27, "score": -15, "costs": 0, "simulationMode": [null, null, null, null, null], "rewards": [2, -2, -8, -3, -4], "path": ["0", "0", "12", "13", "14", "15", "16"], "rt": [1318, 484, 187, 451, 16], "actions": ["right", "right", "right", "up", "up"], "actionTimes": [3943, 4950, 5658, 6626, 7163], "queries": {"click": {"state": {"target": [], "time": []}, "edge": {"target": [], "time": []}}, "mouseover": {"state": {"target": [], "time": []}, "edge": {"target": [], "time": []}}, "mouseout": {"state": {"target": ["0", "0", "13", "14", "20"], "time": [1449, 9327, 9409, 9929, 10316]}, "edge": {"target": [], "time": []}}}, "displayed_time": "16.64", "trialTime": 18441, "trial_type": "mouselab-mdp", "trial_index": 34, "time_elapsed": 1049448, "internal_node_id": "0.0-4.0-1.0-25.0"}}, {"uniqueid": "w31856307:a68459852", "current_trial": 35, "dateTime": 1691160382178, "trialdata": {"revealed_states": [], "clicked_states": [], "num_clicks_accrued": [0, 0, 0, 0, 0, 0, 0, 0, 0, 0, 0, 0, 0], "stateRewards": ["", -1, -3, -7, -4, -85, -70, 79, 8, 84, -66, 42, 2, -2, -3, -16, -54, -66, 68, -3, 21, -14, 7, -2, -1, -3, -8, 75, 80, 86, -7, -84, 73, -16], "withholdReward": false, "trial_id": "mdp_trial_27", "block": "test", "trialIndex": 28, "score": -73, "costs": 0, "simulationMode": [null, null, null, null, null], "rewards": [2, -2, -3, -16, -54], "path": ["0", "0", "12", "13", "14", "15", "16"], "rt": [1805, 364, 273, 413, 99], "actions": ["right", "right", "right", "up", "up"], "actionTimes": [4383, 5270, 6068, 6996, 7625], "queries": {"click": {"state": {"target": [], "time": []}, "edge": {"target": [], "time": []}}, "mouseover": {"state": {"target": ["12"], "time": [3468]}, "edge": {"target": [], "time": []}}, "mouseout": {"state": {"target": ["21", "19", "22", "0", "12", "19", "20"], "time": [1000, 1218, 1237, 1654, 3529, 9197, 9264]}, "edge": {"target": [], "time": []}}}, "displayed_time": "16.59", "trialTime": 18036, "trial_type": "mouselab-mdp", "trial_index": 35, "time_elapsed": 1068189, "internal_node_id": "0.0-4.0-1.0-26.0"}}, {"uniqueid": "w31856307:a68459852", "current_trial": 36, "dateTime": 1691160400389, "trialdata": {"revealed_states": [], "clicked_states": [], "num_clicks_accrued": [0, 0, 0, 0, 0, 0, 0, 0, 0, 0, 0, 0, 0], "stateRewards": ["", 1, -3, -6, -5, 47, 80, -29, 11, -71, 10, -29, -2, 3, -6, 12, 2, -78, -6, 8, 34, -16, -5, -1, 3, 3, -13, 84, -36, -62, -3, -27, 66, 15], "withholdReward": false, "trial_id": "mdp_trial_28", "block": "test", "trialIndex": 29, "score": -13, "costs": 0, "simulationMode": [null, null, null, null, null], "rewards": [-2, 3, -6, 8, -16], "path": ["0", "0", "12", "13", "14", "19", "21"], "rt": [2030, 27, 394, 643, 544], "actions": ["right", "right", "right", "down", "down"], "actionTimes": [3883, 4430, 5350, 6506, 7563], "queries": {"click": {"state": {"target": [], "time": []}, "edge": {"target": [], "time": []}}, "mouseover": {"state": {"target": ["12", "13"], "time": [2864, 2900]}, "edge": {"target": [], "time": []}}, "mouseout": {"state": {"target": ["22", "0", "12", "13"], "time": [717, 1153, 2891, 2920]}, "edge": {"target": [], "time": []}}}, "displayed_time": "15.86", "trialTime": 17416, "trial_type": "mouselab-mdp", "trial_index": 36, "time_elapsed": 1086401, "internal_node_id": "0.0-4.0-1.0-27.0"}}, {"uniqueid": "w31856307:a68459852", "current_trial": 37, "dateTime": 1691160424146, "trialdata": {"revealed_states": [], "clicked_states": [], "num_clicks_accrued": [0, 0, 0, 0, 0, 0, 0, 0, 0, 0, 0, 0, 0], "stateRewards": ["", 1, 1, -3, 7, 49, 78, 26, -5, 26, 48, -43, -1, -3, 2, -5, 4, -1, -60, 10, -35, 51, 81, -2, 1, -7, -5, -39, -86, -54, 4, -3, 74, 77], "withholdReward": false, "trial_id": "mdp_trial_29", "block": "test", "trialIndex": 30, "score": -52, "costs": 0, "simulationMode": [null, null, null, null, null], "rewards": [-2, 1, -7, -5, -39], "path": ["0", "0", "23", "24", "25", "26", "27"], "rt": [1079, 7, 262, 691, 94], "actions": ["left", "left", "left", "up", "up"], "actionTimes": [5840, 6386, 7197, 8414, 9022], "queries": {"click": {"state": {"target": [], "time": []}, "edge": {"target": [], "time": []}}, "mouseover": {"state": {"target": [], "time": []}, "edge": {"target": [], "time": []}}, "mouseout": {"state": {"target": ["16", "1", "1", "0", "12", "17", "21"], "time": [3200, 3244, 3714, 18916, 18946, 18993, 21830]}, "edge": {"target": [], "time": []}}}, "displayed_time": "18.77", "trialTime": 22945, "trial_type": "mouselab-mdp", "trial_index": 37, "time_elapsed": 1110157, "internal_node_id": "0.0-4.0-1.0-28.0"}}, {"uniqueid": "w31856307:a68459852", "current_trial": 38, "dateTime": 1691160443674, "trialdata": {"revealed_states": [], "clicked_states": [], "num_clicks_accrued": [0, 0, 0, 0, 0, 0, 0, 0, 0, 0, 0, 0, 0], "stateRewards": ["", -2, 1, -3, -16, -39, -52, 30, -7, -41, -59, 11, 2, 1, 8, 2, -11, -26, -42, -13, 87, -59, -48, -1, -1, -1, 16, -79, 31, 50, -1, -84, 34, -82], "withholdReward": false, "trial_id": "mdp_trial_30", "block": "test", "trialIndex": 31, "score": 30, "costs": 0, "simulationMode": [null, null, null, null, null], "rewards": [-1, -1, -1, -1, 34], "path": ["0", "0", "23", "24", "25", "30", "32"], "rt": [1237, 43, 63, 314, 812], "actions": ["left", "left", "left", "down", "down"], "actionTimes": [3197, 3755, 4343, 5182, 6519], "queries": {"click": {"state": {"target": [], "time": []}, "edge": {"target": [], "time": []}}, "mouseover": {"state": {"target": [], "time": []}, "edge": {"target": [], "time": []}}, "mouseout": {"state": {"target": ["23", "28"], "time": [743, 961]}, "edge": {"target": [], "time": []}}}, "displayed_time": "15.97", "trialTime": 18776, "trial_type": "mouselab-mdp", "trial_index": 38, "time_elapsed": 1129686, "internal_node_id": "0.0-4.0-1.0-29.0"}}, {"uniqueid": "w31856307:a68459852", "current_trial": 39, "dateTime": 1691160465101, "trialdata": {"revealed_states": [], "clicked_states": [], "num_clicks_accrued": [0, 0, 0, 0, 0, 0, 0, 0, 0, 0, 0, 0, 0], "stateRewards": ["", 2, -3, 5, -14, -63, -9, -24, -11, -54, -43, 68, 2, -2, -4, 7, -64, 30, 47, 12, -74, 11, 86, 1, -3, 3, 10, -71, -42, -52, -1, -29, -16, 69], "withholdReward": false, "trial_id": "mdp_trial_31", "block": "test", "trialIndex": 32, "score": 61, "costs": 0, "simulationMode": [null, null, null, null, null], "rewards": [2, -3, 5, -11, 68], "path": ["0", "0", "1", "2", "3", "8", "11"], "rt": [1525, 242, 115, 580, 62], "actions": ["up", "up", "up", "left", "left"], "actionTimes": [6642, 7409, 8057, 9155, 9742], "queries": {"click": {"state": {"target": [], "time": []}, "edge": {"target": [], "time": []}}, "mouseover": {"state": {"target": [], "time": []}, "edge": {"target": [], "time": []}}, "mouseout": {"state": {"target": ["0"], "time": [4050]}, "edge": {"target": [], "time": []}}}, "displayed_time": "19.12", "trialTime": 20692, "trial_type": "mouselab-mdp", "trial_index": 39, "time_elapsed": 1151114, "internal_node_id": "0.0-4.0-1.0-30.0"}}, {"uniqueid": "w31856307:a68459852", "current_trial": 40, "dateTime": 1691160484090, "trialdata": {"revealed_states": [], "clicked_states": [], "num_clicks_accrued": [0, 0, 0, 0, 0, 0, 0, 0, 0, 0, 0, 0, 0], "stateRewards": ["", -2, 2, -5, 1, 42, -63, -58, -6, 2, 16, 81, -2, 4, 7, -10, 33, 3, -33, -2, -52, -84, -27, 2, -3, -3, 15, -74, -14, -5, -5, -84, 79, -31], "withholdReward": false, "trial_id": "mdp_trial_32", "block": "test", "trialIndex": 33, "score": -67, "costs": 0, "simulationMode": [null, null, null, null, null], "rewards": [-2, 2, -5, 1, -63], "path": ["0", "0", "1", "2", "3", "4", "6"], "rt": [1607, 14, 247, 586, 115], "actions": ["up", "up", "up", "right", "right"], "actionTimes": [4092, 4630, 5399, 6516, 7144], "queries": {"click": {"state": {"target": [], "time": []}, "edge": {"target": [], "time": []}}, "mouseover": {"state": {"target": [], "time": []}, "edge": {"target": [], "time": []}}, "mouseout": {"state": {"target": ["0"], "time": [945]}, "edge": {"target": [], "time": []}}}, "displayed_time": "16.49", "trialTime": 18263, "trial_type": "mouselab-mdp", "trial_index": 40, "time_elapsed": 1170102, "internal_node_id": "0.0-4.0-1.0-31.0"}}, {"uniqueid": "w31856307:a68459852", "current_trial": 41, "dateTime": 1691160503948, "trialdata": {"revealed_states": [], "clicked_states": [], "num_clicks_accrued": [0, 0, 0, 0, 0, 0, 0, 0, 0, 0, 0, 0, 0], "stateRewards": ["", -2, 2, 5, -14, -56, 64, 84, -5, 52, 39, 85, -2, 1, 7, 8, 21, 29, -78, -9, -10, -69, 10, -2, -1, -7, 15, 72, 20, 41, -2, 52, 80, 22], "withholdReward": false, "trial_id": "mdp_trial_33", "block": "test", "trialIndex": 34, "score": 35, "costs": 0, "simulationMode": [null, null, null, null, null], "rewards": [-2, 1, 7, 8, 21], "path": ["0", "0", "12", "13", "14", "15", "16"], "rt": [1241, 104, 431, 237, 544], "actions": ["right", "right", "right", "up", "up"], "actionTimes": [4663, 5281, 6229, 7036, 8105], "queries": {"click": {"state": {"target": [], "time": []}, "edge": {"target": [], "time": []}}, "mouseover": {"state": {"target": [], "time": []}, "edge": {"target": [], "time": []}}, "mouseout": {"state": {"target": ["0"], "time": [2298]}, "edge": {"target": [], "time": []}}}, "displayed_time": "17.43", "trialTime": 19114, "trial_type": "mouselab-mdp", "trial_index": 41, "time_elapsed": 1189960, "internal_node_id": "0.0-4.0-1.0-32.0"}}, {"uniqueid": "w31856307:a68459852", "current_trial": 42, "dateTime": 1691160522390, "trialdata": {"revealed_states": [], "clicked_states": [], "num_clicks_accrued": [0, 0, 0, 0, 0, 0, 0, 0, 0, 0, 0, 0, 0], "stateRewards": ["", -1, -3, -7, -7, -76, 30, -49, 11, -70, 56, 2, 1, 4, -3, -14, -59, -83, -25, -9, -21, -67, -73, -2, 4, 4, -9, -11, -32, 60, 9, -87, 22, -64], "withholdReward": false, "trial_id": "mdp_trial_34", "block": "test", "trialIndex": 35, "score": 12, "costs": 0, "simulationMode": [null, null, null, null, null], "rewards": [-1, -3, -7, -7, 30], "path": ["0", "0", "1", "2", "3", "4", "6"], "rt": [1390, 304, 141, 506, 106], "actions": ["up", "up", "up", "right", "right"], "actionTimes": [3028, 3847, 4505, 5523, 6150], "queries": {"click": {"state": {"target": [], "time": []}, "edge": {"target": [], "time": []}}, "mouseover": {"state": {"target": [], "time": []}, "edge": {"target": [], "time": []}}, "mouseout": {"state": {"target": ["0"], "time": [458]}, "edge": {"target": [], "time": []}}}, "displayed_time": "15.64", "trialTime": 17690, "trial_type": "mouselab-mdp", "trial_index": 42, "time_elapsed": 1208402, "internal_node_id": "0.0-4.0-1.0-33.0"}}, {"uniqueid": "w31856307:a68459852", "current_trial": 43, "dateTime": 1691160541270, "trialdata": {"revealed_states": [], "clicked_states": [], "num_clicks_accrued": [0, 0, 0, 0, 0, 0, 0, 0, 0, 0, 0, 0, 0], "stateRewards": ["", -1, 4, -6, -5, -22, -38, -38, -2, -56, 88, 14, -1, -1, -7, -6, 61, -60, 21, 11, 57, 31, -30, -2, -2, 6, -9, -44, -70, -44, -15, 34, 16, -78], "withholdReward": false, "trial_id": "mdp_trial_35", "block": "test", "trialIndex": 36, "score": 9, "costs": 0, "simulationMode": [null, null, null, null, null], "rewards": [-1, 4, -6, -2, 14], "path": ["0", "0", "1", "2", "3", "8", "11"], "rt": [1309, 295, 129, 656, 261], "actions": ["up", "up", "up", "left", "left"], "actionTimes": [3336, 4153, 4811, 5989, 6766], "queries": {"click": {"state": {"target": [], "time": []}, "edge": {"target": [], "time": []}}, "mouseover": {"state": {"target": [], "time": []}, "edge": {"target": [], "time": []}}, "mouseout": {"state": {"target": ["0", "0", "23"], "time": [625, 8284, 8345]}, "edge": {"target": [], "time": []}}}, "displayed_time": "16.03", "trialTime": 18157, "trial_type": "mouselab-mdp", "trial_index": 43, "time_elapsed": 1227283, "internal_node_id": "0.0-4.0-1.0-34.0"}}, {"uniqueid": "w31856307:a68459852", "current_trial": 44, "dateTime": 1691160563406, "trialdata": {"revealed_states": [], "clicked_states": [], "num_clicks_accrued": [0, 0, 0, 0, 0, 0, 0, 0, 0, 0, 0, 0, 0], "stateRewards": ["", -2, -3, 8, 14, -73, 73, 84, -12, -2, -50, -17, 2, 1, -2, -9, -44, -27, -33, 16, -63, -47, -66, -2, 1, 4, -5, -33, -11, 50, 9, 38, -79, 31], "withholdReward": false, "trial_id": "mdp_trial_36", "block": "test", "trialIndex": 37, "score": 90, "costs": 0, "simulationMode": [null, null, null, null, null], "rewards": [-2, -3, 8, 14, 73], "path": ["0", "0", "1", "2", "3", "4", "6"], "rt": [6237, 358, 266, 976, 769], "actions": ["up", "up", "up", "right", "right"], "actionTimes": [8329, 9207, 9986, 11484, 12768], "queries": {"click": {"state": {"target": [], "time": []}, "edge": {"target": [], "time": []}}, "mouseover": {"state": {"target": [], "time": []}, "edge": {"target": [], "time": []}}, "mouseout": {"state": {"target": ["11", "2", "1", "0"], "time": [22, 419, 955, 19273]}, "edge": {"target": [], "time": []}}}, "displayed_time": "16.09", "trialTime": 21406, "trial_type": "mouselab-mdp", "trial_index": 44, "time_elapsed": 1249419, "internal_node_id": "0.0-4.0-1.0-35.0"}}, {"uniqueid": "w31856307:a68459852", "current_trial": 45, "dateTime": 1691160583510, "trialdata": {"revealed_states": [], "clicked_states": [], "num_clicks_accrued": [0, 0, 0, 0, 0, 0, 0, 0, 0, 0, 0, 0, 0], "stateRewards": ["", 1, -2, 7, -14, 88, -56, -44, -14, 64, -51, -57, -2, 3, -4, -9, -11, 19, -77, -1, 68, 75, -67, -1, 1, -2, 5, -37, 70, -34, -10, -72, 63, -41], "withholdReward": false, "trial_id": "mdp_trial_37", "block": "test", "trialIndex": 38, "score": -65, "costs": 0, "simulationMode": [null, null, null, null, null], "rewards": [1, -2, 7, -14, -57], "path": ["0", "0", "1", "2", "3", "8", "11"], "rt": [5745, 162, 163, 623, 182], "actions": ["up", "up", "up", "left", "left"], "actionTimes": [8494, 9173, 9862, 11009, 11707], "queries": {"click": {"state": {"target": [], "time": []}, "edge": {"target": [], "time": []}}, "mouseover": {"state": {"target": ["1", "0"], "time": [5276, 7087]}, "edge": {"target": [], "time": []}}, "mouseout": {"state": {"target": ["0", "1", "0", "22", "22"], "time": [1908, 7037, 7110, 18228, 18390]}, "edge": {"target": [], "time": []}}}, "displayed_time": "16.75", "trialTime": 19338, "trial_type": "mouselab-mdp", "trial_index": 45, "time_elapsed": 1269521, "internal_node_id": "0.0-4.0-1.0-36.0"}}, {"uniqueid": "w31856307:a68459852", "current_trial": 46, "dateTime": 1691160601772, "trialdata": {"revealed_states": [], "clicked_states": [], "num_clicks_accrued": [0, 0, 0, 0, 0, 0, 0, 0, 0, 0, 0, 0, 0], "stateRewards": ["", 2, 3, -1, 16, -78, -11, 46, 2, -20, 79, -67, 2, 3, 2, 11, -83, -42, -58, -11, -67, -22, 55, 2, -1, -1, -16, -83, -82, 23, -11, -29, 13, 13], "withholdReward": false, "trial_id": "mdp_trial_38", "block": "test", "trialIndex": 39, "score": -26, "costs": 0, "simulationMode": [null, null, null, null, null], "rewards": [2, 3, 2, -11, -22], "path": ["0", "0", "12", "13", "14", "19", "21"], "rt": [1396, 254, 292, 226, 326], "actions": ["right", "right", "right", "down", "down"], "actionTimes": [3638, 4416, 5224, 5962, 6800], "queries": {"click": {"state": {"target": [], "time": []}, "edge": {"target": [], "time": []}}, "mouseover": {"state": {"target": [], "time": []}, "edge": {"target": [], "time": []}}, "mouseout": {"state": {"target": ["0", "12"], "time": [9072, 9098]}, "edge": {"target": [], "time": []}}}, "displayed_time": "16.25", "trialTime": 17574, "trial_type": "mouselab-mdp", "trial_index": 46, "time_elapsed": 1287785, "internal_node_id": "0.0-4.0-1.0-37.0"}}, {"uniqueid": "w31856307:a68459852", "current_trial": 47, "dateTime": 1691160623672, "trialdata": {"revealed_states": [], "clicked_states": [], "num_clicks_accrued": [0, 0, 0, 0, 0, 0, 0, 0, 0, 0, 0, 0, 0], "stateRewards": ["", -2, -3, -5, 8, 27, 11, 43, -6, -24, -87, 69, -2, 1, 1, 9, 19, 48, -37, 9, -14, 45, 62, 1, 2, 1, 16, -81, -41, 22, 4, -6, -63, 47], "withholdReward": false, "trial_id": "mdp_trial_39", "block": "test", "trialIndex": 40, "score": -61, "costs": 0, "simulationMode": [null, null, null, null, null], "rewards": [1, 2, 1, 16, -81], "path": ["0", "0", "23", "24", "25", "26", "27"], "rt": [2103, 135, 221, 298, 145], "actions": ["left", "left", "left", "up", "up"], "actionTimes": [7417, 8065, 8804, 9622, 10290], "queries": {"click": {"state": {"target": [], "time": []}, "edge": {"target": [], "time": []}}, "mouseover": {"state": {"target": [], "time": []}, "edge": {"target": [], "time": []}}, "mouseout": {"state": {"target": ["19", "18", "6", "4", "0"], "time": [3553, 3604, 4022, 4049, 4628]}, "edge": {"target": [], "time": []}}}, "displayed_time": "19.32", "trialTime": 21093, "trial_type": "mouselab-mdp", "trial_index": 47, "time_elapsed": 1309685, "internal_node_id": "0.0-4.0-1.0-38.0"}}, {"uniqueid": "w31856307:a68459852", "current_trial": 48, "dateTime": 1691160646829, "trialdata": {"revealed_states": [], "clicked_states": [], "num_clicks_accrued": [0, 0, 0, 0, 0, 0, 0, 0, 0, 0, 0, 0, 0], "stateRewards": ["", -1, -3, 3, 5, 56, 39, 50, -1, -80, 33, -46, 1, -2, -6, -8, 87, 48, 54, -11, -20, -64, -54, -2, 3, -7, -3, 12, 88, 35, -16, -46, -70, -3], "withholdReward": false, "trial_id": "mdp_trial_40", "block": "test", "trialIndex": 41, "score": -82, "costs": 0, "simulationMode": [null, null, null, null, null], "rewards": [1, -2, -6, -11, -64], "path": ["0", "0", "12", "13", "14", "19", "21"], "rt": [2535, 5, 133, 1036, 127], "actions": ["right", "right", "right", "down", "down"], "actionTimes": [5121, 5652, 6299, 7856, 8504], "queries": {"click": {"state": {"target": [], "time": []}, "edge": {"target": [], "time": []}}, "mouseover": {"state": {"target": [], "time": []}, "edge": {"target": [], "time": []}}, "mouseout": {"state": {"target": ["0", "0"], "time": [804, 19637]}, "edge": {"target": [], "time": []}}}, "displayed_time": "16.59", "trialTime": 22431, "trial_type": "mouselab-mdp", "trial_index": 48, "time_elapsed": 1332842, "internal_node_id": "0.0-4.0-1.0-39.0"}}, {"uniqueid": "w31856307:a68459852", "current_trial": 49, "dateTime": 1691160723808, "trialdata": {"rt": 76964, "response": {"Q0": "$-16 to 16", "Q1": "$-16 to $16", "Q2": "$-88 to $88", "Q3": "There was no cost for clicking on nodes.", "Q4": "Very motivated"}, "question_order": [0, 1, 2, 3, 4], "trial_id": "final_quiz_control", "trial_type": "survey-multi-choice", "trial_index": 49, "time_elapsed": 1409820, "internal_node_id": "0.0-4.0-2.0"}}, {"uniqueid": "w31856307:a68459852", "current_trial": 50, "dateTime": 1691160831567, "trialdata": {"rt": 107706, "response": {"Q0": "Followed the path where there was a positive score ", "Q1": "I tried but the strategy did not work ", "Q2": "It was difficult s the amount changes every round"}, "trial_id": "self_report_control", "trial_type": "survey-text", "trial_index": 50, "time_elapsed": 1517580, "internal_node_id": "0.0-4.0-3.0"}}, {"uniqueid": "w31856307:a68459852", "current_trial": 51, "dateTime": 1691160869672, "trialdata": {"rt": 38032, "response": {"gender": "female", "age": "49", "colorblind": "1", "effort": "0"}, "trial_type": "survey-html-form", "trial_index": 51, "time_elapsed": 1555685, "internal_node_id": "0.0-4.0-4.0"}}, {"uniqueid": "w31856307:a68459852", "current_trial": 52, "dateTime": 1691160903372, "trialdata": {"rt": 33681, "response": {"Q0": "No", "Q1": "NA", "Q2": "NA"}, "trial_type": "survey-text", "trial_index": 52, "time_elapsed": 1589384, "internal_node_id": "0.0-4.0-5.0"}}, {"uniqueid": "w31856307:a68459852", "current_trial": 53, "dateTime": 1691160906220, "trialdata": {"rt": 2836, "stimulus": "Press 'Finish HIT' in order to reach the completion code. Once the data has been saved, you will receive the code either in this window or in the original browser window where you started the experiment.\n", "response": 0, "trial_type": "html-button-response", "trial_index": 53, "time_elapsed": 1592233, "internal_node_id": "0.0-5.0"}}, {"uniqueid": "w31856307:a68459852", "current_trial": 54, "dateTime": 1691160907257, "trialdata": {"success": true, "trial_type": "fullscreen", "trial_index": 54, "time_elapsed": 1593270, "internal_node_id": "0.0-6.0"}}], "questiondata": {"params": {"CODE": "C6DMOQA6", "MIN_TIME": 14, "inspectCost": 1, "startTime": "Fri Aug 04 2023 16:28:08 GMT+0200 (South Africa Standard Time)", "bonusRate": 0.002, "variance": "1_2_4_8_44", "branching": "31123"}}, "eventdata": [{"eventtype": "initialized", "value": null, "timestamp": 1691159286861, "interval": 0}, {"eventtype": "window_resize", "value": [1024, 661], "timestamp": 1691159286861, "interval": 0}, {"eventtype": "window_resize", "value": [1024, 661], "timestamp": 1691159287761, "interval": 900}, {"eventtype": "window_resize", "value": [1366, 768], "timestamp": 1691159317154, "interval": 29393}, {"eventtype": "window_resize", "value": [1024, 661], "timestamp": 1691160906531, "interval": 1589377}], "useragent": "Mozilla/5.0 (Windows NT 10.0; Win64; x64) AppleWebKit/537.36 (KHTML, like Gecko) Chrome/109.0.0.0 Safari/537.36", "mode": "live", "id": "w31856307:a68459852", "status": "user data saved", "Beginhit": "2023-08-04 14:27:43.364415", "Beginexp": "2023-08-04 14:28:37.713754", "Endhit": "2023-08-04 14:55:08.71902", "psiturkStatus": 3, "browser": "<redacted>", "platform": "windows", "language": "en-ZA"}