{"condition": 0, "counterbalance": 0, "assignmentId": "a38217372", "workerId": "w67871132", "hitId": "h90003269", "currenttrial": 9, "bonus": 0, "data": [{"uniqueid": "w67871132:a38217372", "current_trial": 0, "dateTime": 1691158637778, "trialdata": {"success": true, "trial_type": "fullscreen", "trial_index": 0, "time_elapsed": 1776, "internal_node_id": "0.0-0.0"}}, {"uniqueid": "w67871132:a38217372", "current_trial": 1, "dateTime": 1691158638394, "trialdata": {"view_history": [{"page_index": 0, "viewing_time": 612}], "rt": 612, "trial_id": "exp_instructions_control", "trial_type": "instructions", "trial_index": 1, "time_elapsed": 2392, "internal_node_id": "0.0-1.0"}}, {"uniqueid": "w67871132:a38217372", "current_trial": 2, "dateTime": 1691158640634, "trialdata": {"success": true, "trial_type": "fullscreen", "trial_index": 2, "time_elapsed": 4632, "internal_node_id": "0.0-2.0-0.0"}}, {"uniqueid": "w67871132:a38217372", "current_trial": 3, "dateTime": 1691158647302, "trialdata": {"view_history": [{"page_index": 0, "viewing_time": 1698}, {"page_index": 1, "viewing_time": 1762}, {"page_index": 2, "viewing_time": 1370}, {"page_index": 3, "viewing_time": 1837}], "rt": 6667, "trial_id": "mouselab_instructions_1_control", "trial_type": "instructions", "trial_index": 3, "time_elapsed": 11300, "internal_node_id": "0.0-2.0-1.0"}}, {"uniqueid": "w67871132:a38217372", "current_trial": 4, "dateTime": 1691158654898, "trialdata": {"revealed_states": [], "clicked_states": ["12", "18", "14"], "num_clicks_accrued": [0, 0, 0, 0, 0, 0, 0, 0, 0, 0, 0, 0, 0], "stateRewards": ["", -10, 10, 10, -10, 10, -10, -10, -10, -10, -10, 10, -10, 10, 10, -10, 10, -10, 10, 10, -10, 10, 10, -10, 10, 10, -10, 10, 10, -10, 10, -10, 10, 10], "withholdReward": false, "trial_id": "practice_1", "block": "test", "trialIndex": 0, "score": 12, "costs": -1.5, "simulationMode": [null, null, null, null, null, null], "rewards": [-10, 10, 10, -10, 10], "path": ["0", "0", "12", "13", "14", "15", "16"], "rt": [3298, 174, 72, 115, 138, 112], "actions": ["right", "right", "right", "right", "up", "up"], "actionTimes": [3922, 4097, 4705, 5329, 5984, 6609], "queries": {"click": {"state": {"target": ["12", "18", "14"], "time": [1015, 2057, 3149]}, "edge": {"target": [], "time": []}}, "mouseover": {"state": {"target": ["12", "13", "18", "14", "14"], "time": [915, 1254, 1535, 2330, 2580]}, "edge": {"target": [], "time": []}}, "mouseout": {"state": {"target": ["0", "12", "13", "18", "18", "14", "14"], "time": [885, 1238, 1502, 2115, 2299, 2365, 3413]}, "edge": {"target": [], "time": []}}}, "displayed_time": "7.13", "trialTime": 7151, "trial_type": "mouselab-mdp", "trial_index": 4, "time_elapsed": 18896, "internal_node_id": "0.0-2.0-2.0-0.0"}}, {"uniqueid": "w67871132:a38217372", "current_trial": 5, "dateTime": 1691158659803, "trialdata": {"revealed_states": [], "clicked_states": [], "num_clicks_accrued": [0, 0, 0, 0, 0, 0, 0, 0, 0, 0, 0, 0, 0], "stateRewards": ["", -10, 10, 10, -10, -10, -10, 10, 10, 10, 10, 10, -10, -10, -10, 10, -10, 10, -10, 10, 10, -10, -10, 10, 10, -10, -10, -10, -10, 10, -10, 10, -10, -10], "withholdReward": false, "trial_id": "practice_2", "block": "test", "trialIndex": 1, "score": -26.5, "costs": 0, "simulationMode": [null, null, null, null, null], "rewards": [-10, -10, -10, 10, -10], "path": ["0", "0", "12", "13", "14", "19", "21"], "rt": [880, 129, 119, 6, 147], "actions": ["right", "right", "right", "down", "down"], "actionTimes": [1587, 2234, 2874, 3394, 4066], "queries": {"click": {"state": {"target": [], "time": []}, "edge": {"target": [], "time": []}}, "mouseover": {"state": {"target": [], "time": []}, "edge": {"target": [], "time": []}}, "mouseout": {"state": {"target": ["14", "13", "12"], "time": [320, 371, 472]}, "edge": {"target": [], "time": []}}}, "displayed_time": "4.58", "trialTime": 4667, "trial_type": "mouselab-mdp", "trial_index": 5, "time_elapsed": 23801, "internal_node_id": "0.0-2.0-2.0-1.0"}}, {"uniqueid": "w67871132:a38217372", "current_trial": 6, "dateTime": 1691158662650, "trialdata": {"view_history": [{"page_index": 0, "viewing_time": 1957}, {"page_index": 1, "viewing_time": 888}], "rt": 2845, "trial_id": "mouselab_instructions_2_control", "trial_type": "instructions", "trial_index": 6, "time_elapsed": 26648, "internal_node_id": "0.0-2.0-3.0"}}, {"uniqueid": "w67871132:a38217372", "current_trial": 7, "dateTime": 1691158669296, "trialdata": {"rt": 6643, "response": {"Q0": "The cost for clicking on nodes may vary between nodes.", "Q1": "The better I perform the higher my bonus will be.", "Q2": "No, the amount of cash at each node of the web may be different each time.", "Q3": "To get the highest total score.", "Q4": "Only before moving the spider.", "Q5": "3 seconds"}, "question_order": [0, 1, 2, 3, 4, 5], "correct": {"Q0": "The cost for clicking on nodes may vary between nodes.", "Q1": "The better I perform the higher my bonus will be.", "Q2": "No, the amount of cash at each node of the web may be different each time.", "Q3": "To get the highest total score.", "Q4": "Only before moving the spider.", "Q5": "3 seconds"}, "trial_id": "mouselab_quiz_control", "trial_type": "survey-multi-choice", "trial_index": 7, "time_elapsed": 33294, "internal_node_id": "0.0-2.0-4.0"}}, {"uniqueid": "w67871132:a38217372", "current_trial": 8, "dateTime": 1691158677098, "trialdata": {"rt": 7794, "stimulus": "\n<h1> Get ready to start the game! </h1>\n\nThank you for reading the instructions. Get ready start with the 40 rounds of this game.\n<br><br>\nIf you need to take a break, feel free to take one after the end of a round, before continuing to the next one.\n<br><br>\nRemember, the more money the spider gets, the bigger your bonus will be!\n<br><br>\n<div style='text-align: center;'>Press <code>space</code> to begin.</div>\n\n<br><br>\n(If, at any point, the <code>space</code> key does not take you to the next page, click once on the text and try again.)", "response": " ", "trial_id": "mdp_ready", "trial_type": "html-keyboard-response", "trial_index": 8, "time_elapsed": 41096, "internal_node_id": "0.0-4.0-0.0"}}], "questiondata": {"params": {"CODE": "C6DMOQA6", "MIN_TIME": 14, "inspectCost": 1, "startTime": "Fri Aug 04 2023 16:17:15 GMT+0200 (Central European Summer Time)", "bonusRate": 0.002, "variance": "1_2_4_8_44", "branching": "31123"}}, "eventdata": [{"eventtype": "initialized", "value": null, "timestamp": 1691158634817, "interval": 0}, {"eventtype": "window_resize", "value": [1024, 742], "timestamp": 1691158634817, "interval": 0}, {"eventtype": "window_resize", "value": [1024, 742], "timestamp": 1691158635136, "interval": 319}, {"eventtype": "window_resize", "value": [1440, 900], "timestamp": 1691158637024, "interval": 1888}], "useragent": "Mozilla/5.0 (Macintosh; Intel Mac OS X 10_15_7) AppleWebKit/537.36 (KHTML, like Gecko) Chrome/115.0.0.0 Safari/537.36", "mode": "debug", "id": "w67871132:a38217372", "status": "user data saved", "Beginhit": "2023-08-04 14:17:13.817565", "Beginexp": "2023-08-04 14:17:17.918641", "Endhit": null, "psiturkStatus": 2, "browser": "<redacted>", "platform": "macos", "language": "en-US", "excludeReason": "quizfail"}