{"condition": 0, "counterbalance": 0, "assignmentId": "a44967910", "workerId": "w27226158", "hitId": "h79700148", "currenttrial": 56, "bonus": 0, "data": [{"uniqueid": "w27226158:a44967910", "current_trial": 0, "dateTime": 1693834776870, "trialdata": {"success": true, "trial_type": "fullscreen", "trial_index": 0, "time_elapsed": 8271, "internal_node_id": "0.0-0.0"}}, {"uniqueid": "w27226158:a44967910", "current_trial": 1, "dateTime": 1693834803641, "trialdata": {"view_history": [{"page_index": 0, "viewing_time": 26769}], "rt": 26771, "trial_id": "exp_instructions_misaligned", "trial_type": "instructions", "trial_index": 1, "time_elapsed": 35042, "internal_node_id": "0.0-1.0"}}, {"uniqueid": "w27226158:a44967910", "current_trial": 2, "dateTime": 1693835075496, "trialdata": {"view_history": [{"page_index": 0, "viewing_time": 68635}, {"page_index": 1, "viewing_time": 112296}, {"page_index": 2, "viewing_time": 33008}, {"page_index": 3, "viewing_time": 57912}], "rt": 271851, "trial_id": "mouselab_instructions_1_misaligned", "trial_type": "instructions", "trial_index": 2, "time_elapsed": 306897, "internal_node_id": "0.0-2.0-1.0"}}, {"uniqueid": "w27226158:a44967910", "current_trial": 3, "dateTime": 1693835145904, "trialdata": {"revealed_states": [], "clicked_states": ["19", "15", "26", "30", "10", "5", "9", "17", "16", "31", "22", "12", "13", "2", "4", "8", "3", "6"], "num_clicks_accrued": [0, 0, 0, 0, 0, 0, 0, 0, 0, 0, 0, 0, 0], "stateRewards": ["", -10, 10, 10, 10, 10, 10, -10, -10, -10, 10, -10, -10, -10, 10, 10, -10, -10, 10, -10, 10, -10, -10, -10, -10, -10, -10, 10, 10, 10, -10, -10, 10, -10], "withholdReward": false, "trial_id": "practice_1", "block": "test", "trialIndex": 0, "score": 24.5, "costs": -9, "simulationMode": [null, null, null, null, null], "rewards": [-10, 10, 10, 10, 10], "path": ["0", "0", "1", "2", "3", "4", "6"], "rt": [55001, 523, 330, 63, 111], "actions": ["up", "up", "up", "right", "right"], "actionTimes": [58987, 60057, 60913, 61497, 62145], "queries": {"click": {"state": {"target": ["19", "15", "26", "30", "10", "5", "9", "17", "16", "31", "22", "12", "13", "2", "4", "8", "3", "6"], "time": [10708, 12164, 13668, 15660, 17643, 22005, 23045, 24580, 25933, 32508, 33883, 35596, 36979, 38596, 39746, 45883, 47948, 53668]}, "edge": {"target": [], "time": []}}, "mouseover": {"state": {"target": ["12", "13", "14", "19", "14", "15", "28", "26", "25", "30", "10", "2", "10", "3", "4", "5", "4", "4", "2", "3", "5", "9", "8", "10", "1", "12", "22", "14", "17", "16", "16", "1", "23", "24", "25", "24", "28", "24", "23", "24", "24", "25", "24", "30", "32", "31", "30", "33", "22", "12", "13", "7", "2", "4", "3", "10", "8", "8", "3", "2", "7", "6", "1", "1", "2", "3", "4", "18", "12", "0"], "time": [5294, 5660, 6210, 6510, 11737, 11927, 12960, 13226, 14660, 14993, 16199, 16623, 17409, 18293, 19027, 19293, 19700, 20343, 21360, 21576, 21826, 22722, 23489, 23606, 23710, 23890, 24038, 24260, 24393, 24971, 25743, 26740, 27193, 27643, 27743, 28709, 28943, 29676, 29776, 30014, 30693, 31193, 31427, 31676, 31843, 32243, 33068, 33253, 33518, 35275, 36235, 37601, 38276, 39584, 40184, 42926, 44659, 45692, 47409, 50675, 53142, 53442, 56125, 56442, 56709, 56975, 57208, 57857, 58074, 58185]}, "edge": {"target": [], "time": []}}, "mouseout": {"state": {"target": ["0", "12", "13", "14", "19", "14", "15", "28", "26", "25", "30", "10", "2", "10", "3", "4", "5", "4", "4", "2", "3", "5", "9", "8", "10", "1", "12", "22", "14", "17", "16", "16", "1", "23", "24", "25", "24", "28", "24", "23", "24", "24", "25", "24", "30", "32", "31", "30", "33", "22", "12", "13", "7", "2", "4", "3", "2", "10", "8", "8", "3", "2", "7", "6", "1", "1", "2", "3", "4", "6", "18", "12", "0"], "time": [5260, 5460, 5977, 6410, 11710, 11827, 12741, 13093, 14557, 14943, 16089, 16240, 16992, 18093, 18827, 19110, 19477, 19977, 20843, 21460, 21726, 22438, 23256, 23539, 23645, 23779, 23955, 24076, 24326, 24921, 25338, 26454, 26887, 27476, 27693, 28653, 28776, 29593, 29726, 29966, 30443, 31043, 31376, 31559, 31743, 32059, 33018, 33152, 33385, 35192, 35968, 37385, 38052, 39468, 40151, 41710, 42842, 43959, 45409, 46281, 49375, 50709, 53242, 55492, 56163, 56692, 56779, 57192, 57442, 57691, 57957, 58141, 58197]}, "edge": {"target": [], "time": []}}}, "displayed_time": "62.66", "trialTime": 69033, "trial_type": "mouselab-mdp", "trial_index": 3, "time_elapsed": 377304, "internal_node_id": "0.0-2.0-2.0-0.0"}}, {"uniqueid": "w27226158:a44967910", "current_trial": 4, "dateTime": 1693835176423, "trialdata": {"revealed_states": [], "clicked_states": ["30", "26", "15", "19", "22"], "num_clicks_accrued": [0, 0, 0, 0, 0, 0, 0, 0, 0, 0, 0, 0, 0], "stateRewards": ["", -10, 10, 10, -10, 10, -10, 10, 10, 10, -10, 10, 10, 10, 10, -10, 10, -10, -10, 10, 10, -10, 10, 10, 10, 10, -10, 10, 10, -10, 10, 10, -10, -10], "withholdReward": false, "trial_id": "practice_2", "block": "test", "trialIndex": 1, "score": 51, "costs": -2.5, "simulationMode": [null, null, null, null, null], "rewards": [10, 10, 10, 10, 10], "path": ["0", "0", "12", "13", "14", "19", "22"], "rt": [19988, 251, 128, 3, 156], "actions": ["right", "right", "right", "down", "left"], "actionTimes": [22963, 23753, 24409, 24969, 25689], "queries": {"click": {"state": {"target": ["30", "26", "15", "19", "22"], "time": [6268, 8419, 11452, 13459, 19579]}, "edge": {"target": [], "time": []}}, "mouseover": {"state": {"target": ["0", "23", "24", "25", "30", "30", "25", "26", "12", "19", "14", "15", "14", "19", "22"], "time": [3619, 3947, 4397, 4531, 5015, 6097, 7781, 7847, 10483, 10947, 11014, 11264, 12964, 13114, 19030]}, "edge": {"target": [], "time": []}}, "mouseout": {"state": {"target": ["0", "0", "23", "24", "25", "30", "30", "25", "26", "12", "19", "14", "15", "14", "19", "22", "22"], "time": [1912, 3681, 4347, 4481, 4964, 5747, 7714, 7814, 9914, 10579, 10980, 11164, 12897, 13047, 15314, 20143, 21097]}, "edge": {"target": [], "time": []}}}, "displayed_time": "26.23", "trialTime": 29977, "trial_type": "mouselab-mdp", "trial_index": 4, "time_elapsed": 407823, "internal_node_id": "0.0-2.0-2.0-1.0"}}, {"uniqueid": "w27226158:a44967910", "current_trial": 5, "dateTime": 1693835254161, "trialdata": {"view_history": [{"page_index": 0, "viewing_time": 63883}, {"page_index": 1, "viewing_time": 13847}], "rt": 77731, "trial_id": "mouselab_instructions_2_misaligned", "trial_type": "instructions", "trial_index": 5, "time_elapsed": 485562, "internal_node_id": "0.0-2.0-3.0"}}, {"uniqueid": "w27226158:a44967910", "current_trial": 6, "dateTime": 1693835306242, "trialdata": {"rt": 52074, "response": {"Q0": "The cost for clicking on nodes may vary between nodes.", "Q1": "The better I perform the higher my bonus will be.", "Q2": "No, the amount of cash at each node of the web may be different each time.", "Q3": "To get the highest total score.", "Q4": "Only before moving the spider.", "Q5": "3 seconds"}, "question_order": [0, 1, 2, 3, 4, 5], "correct": {"Q0": "The cost for clicking on nodes may vary between nodes.", "Q1": "The better I perform the higher my bonus will be.", "Q2": "No, the amount of cash at each node of the web may be different each time.", "Q3": "To get the highest total score.", "Q4": "Only before moving the spider.", "Q5": "3 seconds"}, "trial_id": "mouselab_quiz_misaligned", "trial_type": "survey-multi-choice", "trial_index": 6, "time_elapsed": 537642, "internal_node_id": "0.0-2.0-4.0"}}, {"uniqueid": "w27226158:a44967910", "current_trial": 7, "dateTime": 1693835317416, "trialdata": {"rt": 11163, "response": {"Q0": "No"}, "question_order": [0], "trial_id": "repeat_check", "trial_type": "survey-multi-choice", "trial_index": 7, "time_elapsed": 548816, "internal_node_id": "0.0-4.0-0.0"}}, {"uniqueid": "w27226158:a44967910", "current_trial": 8, "dateTime": 1693835339839, "trialdata": {"rt": 22414, "stimulus": "\n<h1> Get ready to start the game! </h1>\n\nThank you for reading the instructions. Get ready start with the 40 rounds of this game.\n<br><br>\nIf you need to take a break, feel free to take one after the end of a round, before continuing to the next one.\n<br><br>\nRemember, the more money the spider gets, the bigger your bonus will be!\n<br><br>\n<div style='text-align: center;'>Press <code>space</code> to begin.</div>\n\n<br><br>\n(If, at any point, the <code>space</code> key does not take you to the next page, click once on the text and try again.)", "response": " ", "trial_id": "mdp_ready", "trial_type": "html-keyboard-response", "trial_index": 8, "time_elapsed": 571240, "internal_node_id": "0.0-6.0-0.0"}}, {"uniqueid": "w27226158:a44967910", "current_trial": 9, "dateTime": 1693835364456, "trialdata": {"revealed_states": [], "clicked_states": ["29"], "num_clicks_accrued": [0, 0, 0, 0, 0, 0, 0, 0, 0, 0, 0, 0, 0], "stateRewards": ["", 1, -4, -4, 8, 1, -79, 68, -10, -79, 8, -74, -1, -3, -6, 14, 43, 23, 9, 5, -51, 63, 61, -2, 4, 6, -10, 69, -32, 57, 15, -80, -80, -77], "withholdReward": false, "trial_id": "mdp_trial_1", "block": "test", "trialIndex": 2, "score": 52.85, "costs": -2.15, "simulationMode": [null, null, null, null, null], "rewards": [-2, 4, 6, -10, 57], "path": ["0", "0", "23", "24", "25", "26", "29"], "rt": [10500, 783, 728, 245, 352], "actions": ["left", "left", "left", "up", "left"], "actionTimes": [15555, 16857, 18105, 18873, 19745], "queries": {"click": {"state": {"target": ["29"], "time": [6588]}, "edge": {"target": [], "time": []}}, "mouseover": {"state": {"target": ["23", "24", "29", "26", "28", "26", "26", "25", "33"], "time": [5686, 5786, 6354, 10037, 10450, 10736, 11037, 12114, 12653]}, "edge": {"target": [], "time": []}}, "mouseout": {"state": {"target": ["0", "23", "24", "29", "26", "28", "26", "26", "25", "33"], "time": [5637, 5753, 5987, 9937, 10203, 10578, 10836, 11587, 12553, 12769]}, "edge": {"target": [], "time": []}}}, "displayed_time": "20.29", "trialTime": 24073, "trial_type": "mouselab-mdp", "trial_index": 9, "time_elapsed": 595856, "internal_node_id": "0.0-6.0-1.0-0.0"}}, {"uniqueid": "w27226158:a44967910", "current_trial": 10, "dateTime": 1693835409568, "trialdata": {"revealed_states": [], "clicked_states": ["22", "16", "18", "17", "20", "6", "7", "5"], "num_clicks_accrued": [0, 0, 0, 0, 0, 0, 0, 0, 0, 0, 0, 0, 0], "stateRewards": ["", 2, -4, 4, 9, 69, 9, -75, 12, -86, 66, 25, -1, 3, 2, -13, -88, -3, 1, 4, -69, 49, -84, 2, -1, 4, 2, -18, -81, -52, -15, -69, -54, 25], "withholdReward": false, "trial_id": "mdp_trial_2", "block": "test", "trialIndex": 3, "score": 62.8, "costs": -17.2, "simulationMode": [null, null, null, null, null], "rewards": [2, -4, 4, 9, 69], "path": ["0", "0", "1", "2", "3", "4", "5"], "rt": [34790, 143, 132, 91, 146], "actions": ["up", "up", "up", "right", "up"], "actionTimes": [37497, 38183, 38839, 39463, 40151], "queries": {"click": {"state": {"target": ["22", "16", "18", "17", "20", "6", "7", "5"], "time": [5331, 9674, 13650, 17537, 21962, 26049, 29618, 33385]}, "edge": {"target": [], "time": []}}, "mouseover": {"state": {"target": ["12", "13", "14", "17", "19", "22", "15", "16", "18", "15", "17", "14", "13", "22", "22", "19", "20", "14", "15", "6", "7", "4", "5"], "time": [3528, 3561, 3612, 3962, 4511, 5145, 8977, 9377, 13395, 17173, 17361, 20944, 21010, 21194, 21461, 21661, 21712, 25543, 25576, 25893, 29261, 33019, 33127]}, "edge": {"target": [], "time": []}}, "mouseout": {"state": {"target": ["25", "25", "24", "23", "0", "12", "13", "14", "17", "19", "22", "15", "16", "18", "15", "17", "14", "13", "22", "22", "19", "20", "14", "15", "6", "7", "7", "4", "5"], "time": [1243, 1426, 1510, 1726, 3512, 3545, 3577, 3694, 4162, 4611, 8710, 9227, 13061, 17127, 17277, 20894, 20978, 21029, 21211, 21544, 21705, 25510, 25560, 25593, 29027, 31240, 32977, 33077, 36577]}, "edge": {"target": [], "time": []}}}, "displayed_time": "40.67", "trialTime": 44543, "trial_type": "mouselab-mdp", "trial_index": 10, "time_elapsed": 640967, "internal_node_id": "0.0-6.0-1.0-1.0"}}, {"uniqueid": "w27226158:a44967910", "current_trial": 11, "dateTime": 1693835462712, "trialdata": {"revealed_states": [], "clicked_states": ["10", "7", "18", "28", "31", "22", "20", "21", "32", "29", "33"], "num_clicks_accrued": [0, 0, 0, 0, 0, 0, 0, 0, 0, 0, 0, 0, 0], "stateRewards": ["", -2, -4, -8, 8, 63, -50, -19, -7, -17, -31, 31, 1, 3, -5, 12, -35, -63, -29, -4, -17, -75, -79, -2, -3, -2, 8, -3, -85, 10, -2, -82, -82, 56], "withholdReward": false, "trial_id": "mdp_trial_3", "block": "test", "trialIndex": 4, "score": 23.35000000000001, "costs": -23.649999999999995, "simulationMode": [null, null, null, null, null], "rewards": [-2, -3, -2, -2, 56], "path": ["0", "0", "23", "24", "25", "30", "33"], "rt": [42590, 55, 105, 72, 88], "actions": ["left", "left", "left", "down", "left"], "actionTimes": [45069, 45676, 46339, 46939, 47572], "queries": {"click": {"state": {"target": ["10", "7", "18", "28", "31", "22", "20", "21", "32", "29", "33"], "time": [4431, 8206, 12158, 15517, 19214, 22558, 26518, 30230, 33645, 37262, 41014]}, "edge": {"target": [], "time": []}}, "mouseover": {"state": {"target": ["10", "10", "2", "7", "18", "1", "28", "24", "31", "22", "19", "20", "21", "32", "33", "29", "33"], "time": [3253, 3752, 5290, 8002, 11719, 12471, 12607, 18832, 18968, 19586, 25985, 26167, 28084, 31001, 35350, 37051, 40701]}, "edge": {"target": [], "time": []}}, "mouseout": {"state": {"target": ["4", "2", "1", "0", "10", "10", "2", "7", "18", "1", "28", "24", "31", "22", "19", "20", "21", "32", "33", "29", "33", "33"], "time": [1551, 1634, 1701, 3003, 3369, 5192, 7852, 11569, 12404, 12507, 18785, 18901, 19470, 25968, 26102, 28002, 30485, 35184, 36868, 37618, 41094, 51733]}, "edge": {"target": [], "time": []}}}, "displayed_time": "48.10", "trialTime": 52564, "trial_type": "mouselab-mdp", "trial_index": 11, "time_elapsed": 694112, "internal_node_id": "0.0-6.0-1.0-2.0"}}, {"uniqueid": "w27226158:a44967910", "current_trial": 12, "dateTime": 1693835481064, "trialdata": {"revealed_states": [], "clicked_states": ["28", "29"], "num_clicks_accrued": [0, 0, 0, 0, 0, 0, 0, 0, 0, 0, 0, 0, 0], "stateRewards": ["", 1, 2, -3, -5, 66, -50, -47, -5, 1, 28, -27, 1, 1, -1, -6, 37, -25, 56, 1, -82, -66, -40, -1, -4, -7, 15, -61, -23, 26, 10, 14, -56, 29], "withholdReward": false, "trial_id": "mdp_trial_4", "block": "test", "trialIndex": 5, "score": 24.7, "costs": -4.3, "simulationMode": [null, null, null, null, null], "rewards": [-1, -4, -7, 15, 26], "path": ["0", "0", "23", "24", "25", "26", "29"], "rt": [9495, 25, 94, 98, 73], "actions": ["left", "left", "left", "up", "left"], "actionTimes": [11271, 11838, 12461, 13109, 13717], "queries": {"click": {"state": {"target": ["28", "29"], "time": [2584, 6347]}, "edge": {"target": [], "time": []}}, "mouseover": {"state": {"target": ["23", "28", "26", "29", "24", "0", "12", "13", "22", "22"], "time": [2216, 2416, 5950, 6166, 6906, 6958, 6996, 7141, 7311, 7541]}, "edge": {"target": [], "time": []}}, "mouseout": {"state": {"target": ["32", "0", "23", "28", "26", "29", "24", "0", "12", "13", "22"], "time": [415, 631, 2300, 5916, 6050, 6846, 6925, 6977, 7032, 7291, 7374]}, "edge": {"target": [], "time": []}}}, "displayed_time": "15.78", "trialTime": 17782, "trial_type": "mouselab-mdp", "trial_index": 12, "time_elapsed": 712464, "internal_node_id": "0.0-6.0-1.0-3.0"}}, {"uniqueid": "w27226158:a44967910", "current_trial": 13, "dateTime": 1693835513408, "trialdata": {"revealed_states": [], "clicked_states": ["22", "33", "10", "7", "11"], "num_clicks_accrued": [0, 0, 0, 0, 0, 0, 0, 0, 0, 0, 0, 0, 0], "stateRewards": ["", 1, 1, -7, -9, -44, 24, -83, -15, 44, -24, 72, -2, -3, 4, -5, 57, 55, 29, -11, 22, 12, -25, -1, 2, 7, 12, 33, -8, 47, -4, 8, 50, -4], "withholdReward": false, "trial_id": "mdp_trial_5", "block": "test", "trialIndex": 6, "score": 41.25, "costs": -10.75, "simulationMode": [null, null, null, null, null], "rewards": [1, 1, -7, -15, 72], "path": ["0", "0", "1", "2", "3", "8", "11"], "rt": [20895, 80, 689, 89, 63], "actions": ["up", "up", "up", "left", "left"], "actionTimes": [23706, 24328, 25552, 26168, 26775], "queries": {"click": {"state": {"target": ["22", "33", "10", "7", "11"], "time": [3817, 8594, 12177, 15666, 19570]}, "edge": {"target": [], "time": []}}, "mouseover": {"state": {"target": ["22", "31", "19", "20", "19", "30", "33", "25", "28", "10", "2", "7", "12", "10", "11", "23"], "time": [3640, 4694, 7246, 7440, 7646, 7906, 8223, 11723, 11772, 12005, 14726, 15190, 16061, 19224, 19357, 22924]}, "edge": {"target": [], "time": []}}, "mouseout": {"state": {"target": ["22", "13", "12", "0", "22", "31", "22", "19", "20", "19", "22", "30", "33", "25", "28", "10", "2", "7", "12", "10", "11", "23"], "time": [555, 1355, 1905, 3357, 4095, 7173, 7240, 7390, 7640, 7662, 7694, 8040, 10161, 11739, 11840, 12492, 14892, 15944, 17244, 19240, 19794, 22957]}, "edge": {"target": [], "time": []}}}, "displayed_time": "27.31", "trialTime": 31767, "trial_type": "mouselab-mdp", "trial_index": 13, "time_elapsed": 744808, "internal_node_id": "0.0-6.0-1.0-4.0"}}, {"uniqueid": "w27226158:a44967910", "current_trial": 14, "dateTime": 1693835532065, "trialdata": {"revealed_states": [], "clicked_states": ["10"], "num_clicks_accrued": [0, 0, 0, 0, 0, 0, 0, 0, 0, 0, 0, 0, 0], "stateRewards": ["", 2, 4, 4, 9, -88, -10, 44, 16, -54, 64, 78, 1, 2, 5, 16, 80, 36, 7, -4, 9, -47, -70, -1, -3, 6, -16, 11, 80, 28, 8, -1, 34, -17], "withholdReward": false, "trial_id": "mdp_trial_6", "block": "test", "trialIndex": 7, "score": 87.85, "costs": -2.15, "simulationMode": [null, null, null, null, null], "rewards": [2, 4, 4, 16, 64], "path": ["0", "0", "1", "2", "3", "8", "10"], "rt": [4812, 180, 80, 7, 51], "actions": ["up", "up", "up", "left", "down"], "actionTimes": [6576, 7287, 7903, 8463, 9095], "queries": {"click": {"state": {"target": ["10"], "time": [2754]}, "edge": {"target": [], "time": []}}, "mouseover": {"state": {"target": ["1", "2", "10", "2", "7"], "time": [2153, 2371, 2521, 2954, 3121]}, "edge": {"target": [], "time": []}}, "mouseout": {"state": {"target": ["33", "30", "23", "0", "1", "2", "10", "2"], "time": [535, 785, 885, 2121, 2286, 2420, 2918, 3069]}, "edge": {"target": [], "time": []}}}, "displayed_time": "15.77", "trialTime": 18055, "trial_type": "mouselab-mdp", "trial_index": 14, "time_elapsed": 763465, "internal_node_id": "0.0-6.0-1.0-5.0"}}, {"uniqueid": "w27226158:a44967910", "current_trial": 15, "dateTime": 1693835563415, "trialdata": {"revealed_states": [], "clicked_states": ["18", "22", "17", "20", "21", "16"], "num_clicks_accrued": [0, 0, 0, 0, 0, 0, 0, 0, 0, 0, 0, 0, 0], "stateRewards": ["", -1, -4, 8, 8, -68, 47, 24, -7, -61, 49, -69, -1, -1, 8, -7, 42, 1, -45, -11, 10, -63, -6, 1, 4, 6, -16, 79, -37, -58, -12, 81, 18, -53], "withholdReward": false, "trial_id": "mdp_trial_7", "block": "test", "trialIndex": 8, "score": 28.1, "costs": -12.9, "simulationMode": [null, null, null, null, null], "rewards": [-1, -1, 8, -7, 42], "path": ["0", "0", "12", "13", "14", "15", "16"], "rt": [24510, 93, 237, 46, 75], "actions": ["right", "right", "right", "up", "up"], "actionTimes": [25803, 26426, 27186, 27762, 28377], "queries": {"click": {"state": {"target": ["18", "22", "17", "20", "21", "16"], "time": [2782, 6117, 10181, 13604, 18229, 21917]}, "edge": {"target": [], "time": []}}, "mouseover": {"state": {"target": ["12", "18", "13", "22", "14", "17", "20", "19", "31", "31", "21", "19", "14", "15", "16", "1", "26"], "time": [2179, 2429, 4059, 4343, 9436, 9695, 10802, 13858, 14226, 14401, 14618, 21462, 21491, 21534, 21761, 22869, 23136]}, "edge": {"target": [], "time": []}}, "mouseout": {"state": {"target": ["7", "1", "0", "12", "18", "13", "22", "14", "17", "20", "19", "31", "31", "21", "19", "14", "15", "16", "1"], "time": [260, 410, 2079, 2279, 4038, 4121, 9395, 9485, 10619, 13851, 13878, 14258, 14421, 21445, 21483, 21514, 21644, 22255, 22932]}, "edge": {"target": [], "time": []}}}, "displayed_time": "28.92", "trialTime": 30697, "trial_type": "mouselab-mdp", "trial_index": 15, "time_elapsed": 794815, "internal_node_id": "0.0-6.0-1.0-6.0"}}, {"uniqueid": "w27226158:a44967910", "current_trial": 16, "dateTime": 1693835583887, "trialdata": {"revealed_states": [], "clicked_states": ["9", "5", "6"], "num_clicks_accrued": [0, 0, 0, 0, 0, 0, 0, 0, 0, 0, 0, 0, 0], "stateRewards": ["", 2, -3, 5, 11, -79, 54, 11, -9, -78, 33, 22, -2, -1, 2, 14, 43, 34, 1, 10, 49, -65, 39, -1, 1, -1, 3, -16, -2, 11, 2, 12, 48, -65], "withholdReward": false, "trial_id": "mdp_trial_8", "block": "test", "trialIndex": 9, "score": 62.55, "costs": -6.449999999999999, "simulationMode": [null, null, null, null, null], "rewards": [2, -3, 5, 11, 54], "path": ["0", "0", "1", "2", "3", "4", "6"], "rt": [12577, 632, 274, 122, 79], "actions": ["up", "up", "up", "right", "right"], "actionTimes": [14238, 15388, 16180, 16844, 17468], "queries": {"click": {"state": {"target": ["9", "5", "6"], "time": [2478, 6799, 10183]}, "edge": {"target": [], "time": []}}, "mouseover": {"state": {"target": ["1", "8", "9", "5", "6", "5", "4", "6", "2", "10", "10"], "time": [2069, 2120, 2199, 2839, 6085, 6485, 7436, 7619, 10518, 10637, 11734]}, "edge": {"target": [], "time": []}}, "mouseout": {"state": {"target": ["26", "25", "24", "23", "0", "1", "8", "9", "5", "6", "5", "4", "6", "2", "10"], "time": [133, 549, 599, 747, 2053, 2084, 2166, 2654, 5868, 6301, 7386, 7554, 10402, 10569, 10722]}, "edge": {"target": [], "time": []}}}, "displayed_time": "17.99", "trialTime": 19844, "trial_type": "mouselab-mdp", "trial_index": 16, "time_elapsed": 815287, "internal_node_id": "0.0-6.0-1.0-7.0"}}, {"uniqueid": "w27226158:a44967910", "current_trial": 17, "dateTime": 1693835603512, "trialdata": {"revealed_states": [], "clicked_states": ["17", "22"], "num_clicks_accrued": [0, 0, 0, 0, 0, 0, 0, 0, 0, 0, 0, 0, 0], "stateRewards": ["", 1, 1, 5, 6, -29, -7, 3, -16, 9, -46, 65, -1, 4, -1, -16, -63, -77, -87, 8, 80, -50, 43, -1, -1, -5, 5, -38, -71, -62, 9, 81, -50, -52], "withholdReward": false, "trial_id": "mdp_trial_9", "block": "test", "trialIndex": 10, "score": 48.7, "costs": -4.3, "simulationMode": [null, null, null, null, null], "rewards": [-1, 4, -1, 8, 43], "path": ["0", "0", "12", "13", "14", "19", "22"], "rt": [9966, 194, 85, 275, 129], "actions": ["right", "right", "right", "down", "left"], "actionTimes": [12251, 12977, 13601, 14426, 15113], "queries": {"click": {"state": {"target": ["17", "22"], "time": [4141, 8020]}, "edge": {"target": [], "time": []}}, "mouseover": {"state": {"target": ["12", "13", "17", "22", "22", "19", "20", "19"], "time": [3499, 3583, 3867, 7500, 7800, 8402, 8779, 9850]}, "edge": {"target": [], "time": []}}, "mouseout": {"state": {"target": ["10", "28", "23", "0", "12", "13", "17", "22", "22", "19", "20", "19", "22", "33"], "time": [382, 481, 647, 3467, 3547, 3667, 7317, 7550, 8376, 8437, 9795, 9921, 9951, 17916]}, "edge": {"target": [], "time": []}}}, "displayed_time": "16.29", "trialTime": 19002, "trial_type": "mouselab-mdp", "trial_index": 17, "time_elapsed": 834912, "internal_node_id": "0.0-6.0-1.0-8.0"}}, {"uniqueid": "w27226158:a44967910", "current_trial": 18, "dateTime": 1693835622497, "trialdata": {"revealed_states": [], "clicked_states": ["27", "32"], "num_clicks_accrued": [0, 0, 0, 0, 0, 0, 0, 0, 0, 0, 0, 0, 0], "stateRewards": ["", 1, 1, 1, 15, -76, 52, -32, 14, -57, 37, 49, 1, -4, -3, 6, 83, -76, 25, 9, 36, -1, -17, -1, 4, 4, -2, -22, -21, 58, -15, -57, 49, -24], "withholdReward": false, "trial_id": "mdp_trial_10", "block": "test", "trialIndex": 11, "score": 36.7, "costs": -4.3, "simulationMode": [null, null, null, null, null], "rewards": [-1, 4, 4, -15, 49], "path": ["0", "0", "23", "24", "25", "30", "32"], "rt": [9277, 96, 77, 92, 125], "actions": ["left", "left", "left", "down", "down"], "actionTimes": [10985, 11607, 12223, 12863, 13543], "queries": {"click": {"state": {"target": ["27", "32"], "time": [3481, 6705]}, "edge": {"target": [], "time": []}}, "mouseover": {"state": {"target": ["23", "24", "25", "29", "27", "26", "25", "30", "32", "31", "31"], "time": [2306, 2422, 2489, 2656, 3306, 3776, 3813, 3871, 4105, 7114, 7957]}, "edge": {"target": [], "time": []}}, "mouseout": {"state": {"target": ["25", "24", "23", "0", "23", "24", "25", "29", "27", "26", "25", "30", "32", "31", "31", "32"], "time": [687, 837, 953, 2289, 2356, 2456, 2556, 3106, 3756, 3804, 3841, 3956, 7031, 7181, 10155, 17206]}, "edge": {"target": [], "time": []}}}, "displayed_time": "15.71", "trialTime": 18360, "trial_type": "mouselab-mdp", "trial_index": 18, "time_elapsed": 853897, "internal_node_id": "0.0-6.0-1.0-9.0"}}, {"uniqueid": "w27226158:a44967910", "current_trial": 19, "dateTime": 1693835656161, "trialdata": {"revealed_states": [], "clicked_states": ["10", "7", "9", "5", "11", "6"], "num_clicks_accrued": [0, 0, 0, 0, 0, 0, 0, 0, 0, 0, 0, 0, 0], "stateRewards": ["", 1, -3, 4, 13, -72, 52, 5, 5, -58, 5, 14, 2, 1, 3, -14, -86, -4, 73, 6, -58, -50, 49, 2, -3, -4, 2, 33, -41, 42, -11, 81, 45, 53], "withholdReward": false, "trial_id": "mdp_trial_11", "block": "test", "trialIndex": 12, "score": 54.1, "costs": -12.9, "simulationMode": [null, null, null, null, null], "rewards": [1, -3, 4, 13, 52], "path": ["0", "0", "1", "2", "3", "4", "6"], "rt": [23103, 115, 34, 77, 6], "actions": ["up", "up", "up", "right", "right"], "actionTimes": [27548, 28178, 28730, 29322, 29885], "queries": {"click": {"state": {"target": ["10", "7", "9", "5", "11", "6"], "time": [6189, 9725, 13432, 16789, 20206, 23501]}, "edge": {"target": [], "time": []}}, "mouseover": {"state": {"target": ["10", "2", "7", "3", "9", "5", "3", "8", "11", "8", "3", "4", "6"], "time": [5676, 6397, 6468, 13023, 13258, 14062, 17862, 17899, 17961, 20432, 20465, 20546, 20776]}, "edge": {"target": [], "time": []}}, "mouseout": {"state": {"target": ["33", "23", "0", "10", "2", "7", "3", "9", "5", "5", "3", "8", "11", "8", "3", "4"], "time": [3457, 3757, 4828, 6269, 6430, 12991, 13141, 13762, 16862, 17279, 17893, 17929, 20409, 20457, 20492, 20680]}, "edge": {"target": [], "time": []}}}, "displayed_time": "30.43", "trialTime": 33027, "trial_type": "mouselab-mdp", "trial_index": 19, "time_elapsed": 887561, "internal_node_id": "0.0-6.0-1.0-10.0"}}, {"uniqueid": "w27226158:a44967910", "current_trial": 20, "dateTime": 1693835676888, "trialdata": {"revealed_states": [], "clicked_states": ["9", "5"], "num_clicks_accrued": [0, 0, 0, 0, 0, 0, 0, 0, 0, 0, 0, 0, 0], "stateRewards": ["", -1, 1, -2, 5, 73, 15, 61, 8, 7, 38, 76, 2, 2, -4, -6, -6, -26, 43, -5, -45, -85, -35, -2, 1, -4, 15, -10, 69, 72, -11, 84, -49, -38], "withholdReward": false, "trial_id": "mdp_trial_12", "block": "test", "trialIndex": 13, "score": 71.7, "costs": -4.3, "simulationMode": [null, null, null, null, null], "rewards": [-1, 1, -2, 5, 73], "path": ["0", "0", "1", "2", "3", "4", "5"], "rt": [9242, 134, 40, 11, 85], "actions": ["up", "up", "up", "right", "up"], "actionTimes": [11944, 12637, 13221, 13757, 14381], "queries": {"click": {"state": {"target": ["9", "5"], "time": [4184, 7432]}, "edge": {"target": [], "time": []}}, "mouseover": {"state": {"target": ["10", "8", "9", "5", "4", "7", "1"], "time": [3547, 3715, 4014, 4671, 7797, 8143, 10813]}, "edge": {"target": [], "time": []}}, "mouseout": {"state": {"target": ["6", "7", "0", "10", "8", "9", "5", "4", "7", "1", "26"], "time": [445, 595, 3281, 3664, 3814, 4381, 7743, 7943, 10780, 11047, 17463]}, "edge": {"target": [], "time": []}}}, "displayed_time": "16.70", "trialTime": 20077, "trial_type": "mouselab-mdp", "trial_index": 20, "time_elapsed": 908288, "internal_node_id": "0.0-6.0-1.0-11.0"}}, {"uniqueid": "w27226158:a44967910", "current_trial": 21, "dateTime": 1693835695235, "trialdata": {"revealed_states": [], "clicked_states": ["9", "5"], "num_clicks_accrued": [0, 0, 0, 0, 0, 0, 0, 0, 0, 0, 0, 0, 0], "stateRewards": ["", 1, 1, -3, 7, 49, 78, 26, -5, 26, 48, -43, -1, -3, 2, -5, 4, -1, -60, 10, -35, 51, 81, -2, 1, -7, -5, -39, -86, -54, 4, -3, 74, 77], "withholdReward": false, "trial_id": "mdp_trial_13", "block": "test", "trialIndex": 14, "score": 50.7, "costs": -4.3, "simulationMode": [null, null, null, null, null], "rewards": [1, 1, -3, 7, 49], "path": ["0", "0", "1", "2", "3", "4", "5"], "rt": [8428, 97, 45, 45, 46], "actions": ["up", "up", "up", "right", "up"], "actionTimes": [10325, 10963, 11540, 12140, 12724], "queries": {"click": {"state": {"target": ["9", "5"], "time": [2965, 6382]}, "edge": {"target": [], "time": []}}, "mouseover": {"state": {"target": ["23", "10", "8", "9", "5", "4"], "time": [2366, 2433, 2469, 2732, 3408, 9466]}, "edge": {"target": [], "time": []}}, "mouseout": {"state": {"target": ["23", "0", "23", "10", "8", "9", "5", "4", "2", "28"], "time": [998, 1924, 2399, 2451, 2515, 3209, 9432, 9566, 14215, 14265]}, "edge": {"target": [], "time": []}}}, "displayed_time": "15.90", "trialTime": 17709, "trial_type": "mouselab-mdp", "trial_index": 21, "time_elapsed": 926634, "internal_node_id": "0.0-6.0-1.0-12.0"}}, {"uniqueid": "w27226158:a44967910", "current_trial": 22, "dateTime": 1693835717719, "trialdata": {"revealed_states": [], "clicked_states": ["10", "7", "27"], "num_clicks_accrued": [0, 0, 0, 0, 0, 0, 0, 0, 0, 0, 0, 0, 0], "stateRewards": ["", 1, -2, -3, 14, -42, -87, -37, -11, -50, 33, -44, -2, 4, -7, 13, 48, -75, -66, 12, 23, -2, 82, 1, -4, 3, 12, 51, -15, -26, -11, -52, -29, 82], "withholdReward": false, "trial_id": "mdp_trial_14", "block": "test", "trialIndex": 15, "score": 56.55, "costs": -6.449999999999999, "simulationMode": [null, null, null, null, null], "rewards": [1, -4, 3, 12, 51], "path": ["0", "0", "23", "24", "25", "26", "27"], "rt": [14339, 42, 615, 76, 86], "actions": ["left", "left", "left", "up", "up"], "actionTimes": [16002, 16577, 17753, 18345, 18977], "queries": {"click": {"state": {"target": ["10", "7", "27"], "time": [2660, 6132, 11895]}, "edge": {"target": [], "time": []}}, "mouseover": {"state": {"target": ["10", "2", "7", "2", "8", "26", "26", "27", "16"], "time": [2479, 2904, 3088, 10594, 10744, 11162, 11445, 11695, 12581]}, "edge": {"target": [], "time": []}}, "mouseout": {"state": {"target": ["23", "0", "10", "2", "7", "2", "8", "26", "26", "27"], "time": [794, 2155, 2867, 2986, 7434, 10627, 10827, 11217, 11512, 12133]}, "edge": {"target": [], "time": []}}}, "displayed_time": "19.50", "trialTime": 21792, "trial_type": "mouselab-mdp", "trial_index": 22, "time_elapsed": 949119, "internal_node_id": "0.0-6.0-1.0-13.0"}}, {"uniqueid": "w27226158:a44967910", "current_trial": 23, "dateTime": 1693835743937, "trialdata": {"revealed_states": [], "clicked_states": ["17", "20", "33", "29"], "num_clicks_accrued": [0, 0, 0, 0, 0, 0, 0, 0, 0, 0, 0, 0, 0], "stateRewards": ["", -2, -3, 1, -7, 39, -67, 16, 5, -20, 73, 66, -1, 4, 5, -3, 23, -68, -87, -8, 3, -3, 17, 1, -4, -2, -13, -32, 34, 61, -5, -11, -18, 12], "withholdReward": false, "trial_id": "mdp_trial_15", "block": "test", "trialIndex": 16, "score": 34.4, "costs": -8.6, "simulationMode": [null, null, null, null, null], "rewards": [1, -4, -2, -13, 61], "path": ["0", "0", "23", "24", "25", "26", "29"], "rt": [16690, 121, 109, 16, 64], "actions": ["left", "left", "left", "up", "left"], "actionTimes": [19673, 20351, 20975, 21543, 22143], "queries": {"click": {"state": {"target": ["17", "20", "33", "29"], "time": [4153, 8417, 12009, 15569]}, "edge": {"target": [], "time": []}}, "mouseover": {"state": {"target": ["12", "13", "14", "17", "20", "31", "30", "33", "29", "24", "28"], "time": [3343, 3476, 3710, 3959, 4576, 9344, 9626, 9827, 12662, 16073, 16489]}, "edge": {"target": [], "time": []}}, "mouseout": {"state": {"target": ["16", "0", "12", "13", "14", "17", "20", "31", "30", "33", "29", "24", "28", "26"], "time": [692, 3243, 3410, 3610, 3792, 4387, 9078, 9380, 9661, 12227, 16025, 16096, 24144, 24211]}, "edge": {"target": [], "time": []}}}, "displayed_time": "22.68", "trialTime": 25576, "trial_type": "mouselab-mdp", "trial_index": 23, "time_elapsed": 975337, "internal_node_id": "0.0-6.0-1.0-14.0"}}, {"uniqueid": "w27226158:a44967910", "current_trial": 24, "dateTime": 1693835765097, "trialdata": {"revealed_states": [], "clicked_states": ["18"], "num_clicks_accrued": [0, 0, 0, 0, 0, 0, 0, 0, 0, 0, 0, 0, 0], "stateRewards": ["", -1, -2, 8, -6, -79, -6, 87, 9, -5, -66, -38, 2, 2, 5, -6, -82, 74, 85, -8, 67, -30, -15, 1, -2, -2, -2, 87, 64, 49, 7, 2, -38, -9], "withholdReward": false, "trial_id": "mdp_trial_16", "block": "test", "trialIndex": 17, "score": 85.85, "costs": -2.15, "simulationMode": [null, null, null, null, null], "rewards": [2, 2, 5, -6, 85], "path": ["0", "0", "12", "13", "14", "15", "18"], "rt": [6201, 55, 86, 63, 63], "actions": ["right", "right", "right", "up", "left"], "actionTimes": [8427, 9018, 9649, 10274, 10873], "queries": {"click": {"state": {"target": ["18"], "time": [4341]}, "edge": {"target": [], "time": []}}, "mouseover": {"state": {"target": ["12", "13", "15", "17", "15", "18", "22"], "time": [2679, 2829, 3014, 3214, 3929, 4163, 4773]}, "edge": {"target": [], "time": []}}, "mouseout": {"state": {"target": ["24", "23", "0", "12", "13", "15", "17", "15", "18", "22", "31", "25"], "time": [595, 645, 2647, 2763, 2913, 3063, 3880, 4064, 4506, 12180, 12347, 12397]}, "edge": {"target": [], "time": []}}}, "displayed_time": "16.23", "trialTime": 20506, "trial_type": "mouselab-mdp", "trial_index": 24, "time_elapsed": 996497, "internal_node_id": "0.0-6.0-1.0-15.0"}}, {"uniqueid": "w27226158:a44967910", "current_trial": 25, "dateTime": 1693835786105, "trialdata": {"revealed_states": [], "clicked_states": ["21", "16"], "num_clicks_accrued": [0, 0, 0, 0, 0, 0, 0, 0, 0, 0, 0, 0, 0], "stateRewards": ["", -1, -3, 3, 5, 56, 39, 50, -1, -80, 33, -46, 1, -2, -6, -8, 87, 48, 54, -11, -20, -64, -54, -2, 3, -7, -3, 12, 88, 35, -16, -46, -70, -3], "withholdReward": false, "trial_id": "mdp_trial_17", "block": "test", "trialIndex": 18, "score": 67.7, "costs": -4.3, "simulationMode": [null, null, null, null, null], "rewards": [1, -2, -6, -8, 87], "path": ["0", "0", "12", "13", "14", "15", "16"], "rt": [10659, 117, 6, 85, 64], "actions": ["right", "right", "right", "up", "up"], "actionTimes": [12501, 13147, 13690, 14315, 14915], "queries": {"click": {"state": {"target": ["21", "16"], "time": [3334, 7740]}, "edge": {"target": [], "time": []}}, "mouseover": {"state": {"target": ["12", "19", "21", "22", "13", "15", "16", "18", "12"], "time": [2256, 2356, 2789, 6922, 7056, 7171, 7321, 7993, 8194]}, "edge": {"target": [], "time": []}}, "mouseout": {"state": {"target": ["29", "26", "28", "0", "12", "19", "21", "22", "13", "15", "16", "18", "12"], "time": [354, 470, 621, 1869, 2289, 2438, 4677, 7038, 7073, 7205, 7943, 8049, 8260]}, "edge": {"target": [], "time": []}}}, "displayed_time": "15.84", "trialTime": 20307, "trial_type": "mouselab-mdp", "trial_index": 25, "time_elapsed": 1017505, "internal_node_id": "0.0-6.0-1.0-16.0"}}, {"uniqueid": "w27226158:a44967910", "current_trial": 26, "dateTime": 1693835805592, "trialdata": {"revealed_states": [], "clicked_states": ["28"], "num_clicks_accrued": [0, 0, 0, 0, 0, 0, 0, 0, 0, 0, 0, 0, 0], "stateRewards": ["", -1, 3, 2, 9, 41, 4, -46, -12, -54, -87, -25, 2, 3, -1, 11, -77, 12, -33, -9, -32, 35, 72, 1, 3, -7, 4, 37, 65, -73, 6, 77, -43, 8], "withholdReward": false, "trial_id": "mdp_trial_18", "block": "test", "trialIndex": 19, "score": 63.85, "costs": -2.15, "simulationMode": [null, null, null, null, null], "rewards": [1, 3, -7, 4, 65], "path": ["0", "0", "23", "24", "25", "26", "28"], "rt": [5933, 187, 527, 234, 246], "actions": ["left", "left", "left", "up", "right"], "actionTimes": [9424, 10126, 11197, 11973, 12733], "queries": {"click": {"state": {"target": ["28"], "time": [5199]}, "edge": {"target": [], "time": []}}, "mouseover": {"state": {"target": ["23", "28"], "time": [4149, 4532]}, "edge": {"target": [], "time": []}}, "mouseout": {"state": {"target": ["25", "24", "23", "0", "23", "28"], "time": [1147, 1165, 2614, 2730, 4182, 8487]}, "edge": {"target": [], "time": []}}}, "displayed_time": "17.49", "trialTime": 18789, "trial_type": "mouselab-mdp", "trial_index": 26, "time_elapsed": 1036992, "internal_node_id": "0.0-6.0-1.0-17.0"}}, {"uniqueid": "w27226158:a44967910", "current_trial": 27, "dateTime": 1693835840271, "trialdata": {"revealed_states": [], "clicked_states": ["11", "6", "10", "7", "28", "18"], "num_clicks_accrued": [0, 0, 0, 0, 0, 0, 0, 0, 0, 0, 0, 0, 0], "stateRewards": ["", 2, -3, -5, 5, 11, -9, -33, 6, 67, 6, -30, -1, -2, -6, 13, 55, 13, 72, -14, 75, 21, -66, -2, -4, 6, 15, -1, -35, 60, 2, 51, -73, 12], "withholdReward": false, "trial_id": "mdp_trial_19", "block": "test", "trialIndex": 20, "score": 63.1, "costs": -12.9, "simulationMode": [null, null, null, null, null], "rewards": [-1, -2, -6, 13, 72], "path": ["0", "0", "12", "13", "14", "15", "18"], "rt": [25400, 118, 574, 104, 200], "actions": ["right", "right", "right", "up", "left"], "actionTimes": [28432, 29070, 30182, 30830, 31558], "queries": {"click": {"state": {"target": ["11", "6", "10", "7", "28", "18"], "time": [4984, 8288, 12848, 16216, 21087, 24585]}, "edge": {"target": [], "time": []}}, "mouseover": {"state": {"target": ["10", "8", "9", "11", "4", "6", "7", "1", "10", "2", "7", "1", "24", "28", "18"], "time": [3895, 3995, 4094, 4678, 5240, 5306, 8827, 11962, 12679, 13198, 13339, 19962, 20529, 20861, 21757]}, "edge": {"target": [], "time": []}}, "mouseout": {"state": {"target": ["25", "24", "23", "0", "10", "8", "9", "11", "4", "6", "7", "1", "10", "2", "7", "1", "24", "28", "18"], "time": [1894, 1994, 2127, 3562, 3944, 4062, 4562, 5177, 5264, 8792, 9108, 12078, 13192, 13256, 18555, 20195, 20562, 21471, 27446]}, "edge": {"target": [], "time": []}}}, "displayed_time": "32.09", "trialTime": 33950, "trial_type": "mouselab-mdp", "trial_index": 27, "time_elapsed": 1071671, "internal_node_id": "0.0-6.0-1.0-18.0"}}, {"uniqueid": "w27226158:a44967910", "current_trial": 28, "dateTime": 1693835876656, "trialdata": {"revealed_states": [], "clicked_states": ["16", "17", "18", "22", "20", "21", "32"], "num_clicks_accrued": [0, 0, 0, 0, 0, 0, 0, 0, 0, 0, 0, 0, 0], "stateRewards": ["", -2, 2, -1, -6, 22, 6, 6, -5, 70, -42, 65, 1, 3, 5, -6, -67, -9, 3, 14, 7, -62, -13, -2, 4, 1, 16, 42, -21, -52, -8, 32, 53, 81], "withholdReward": false, "trial_id": "mdp_trial_20", "block": "test", "trialIndex": 21, "score": 32.95, "costs": -15.05, "simulationMode": [null, null, null, null, null], "rewards": [-2, 4, 1, -8, 53], "path": ["0", "0", "23", "24", "25", "30", "32"], "rt": [28115, 171, 55, 153, 85], "actions": ["left", "left", "left", "down", "down"], "actionTimes": [29878, 30565, 31149, 31830, 32445], "queries": {"click": {"state": {"target": ["16", "17", "18", "22", "20", "21", "32"], "time": [4278, 7590, 11238, 15646, 18951, 22239, 25984]}, "edge": {"target": [], "time": []}}, "mouseover": {"state": {"target": ["23", "24", "28", "1", "16", "18", "15", "17", "15", "18", "13", "22", "20", "21", "32"], "time": [2755, 2988, 3253, 3754, 4087, 4608, 5360, 5628, 7928, 8341, 14654, 14953, 15975, 19605, 25738]}, "edge": {"target": [], "time": []}}, "mouseout": {"state": {"target": ["12", "0", "23", "24", "28", "1", "16", "18", "15", "17", "15", "18", "13", "22", "20", "21", "32", "32"], "time": [653, 1920, 2871, 3020, 3637, 3774, 4525, 5325, 5391, 7893, 8094, 13256, 14804, 15905, 19435, 22522, 26255, 34971]}, "edge": {"target": [], "time": []}}}, "displayed_time": "32.98", "trialTime": 35644, "trial_type": "mouselab-mdp", "trial_index": 28, "time_elapsed": 1108056, "internal_node_id": "0.0-6.0-1.0-19.0"}}, {"uniqueid": "w27226158:a44967910", "current_trial": 29, "dateTime": 1693835896169, "trialdata": {"revealed_states": [], "clicked_states": ["7"], "num_clicks_accrued": [0, 0, 0, 0, 0, 0, 0, 0, 0, 0, 0, 0, 0], "stateRewards": ["", -1, -3, -6, 14, 41, 18, 63, -14, 80, 21, 17, -2, -4, -2, -5, 13, 70, 8, -4, -64, -10, -20, 2, -1, 4, -1, -17, -55, 42, -7, 47, 54, 15], "withholdReward": false, "trial_id": "mdp_trial_21", "block": "test", "trialIndex": 22, "score": 64.85, "costs": -2.15, "simulationMode": [null, null, null, null, null], "rewards": [-1, -3, -6, 14, 63], "path": ["0", "0", "1", "2", "3", "4", "7"], "rt": [4827, 212, 31, 270, 103], "actions": ["up", "up", "up", "right", "down"], "actionTimes": [7006, 7756, 8324, 9164, 9796], "queries": {"click": {"state": {"target": ["7"], "time": [3140]}, "edge": {"target": [], "time": []}}, "mouseover": {"state": {"target": ["1", "7", "2", "10", "10"], "time": [2726, 2959, 3343, 3390, 3743]}, "edge": {"target": [], "time": []}}, "mouseout": {"state": {"target": ["33", "30", "0", "1", "7", "2", "10"], "time": [642, 859, 1091, 2842, 3184, 3367, 3534]}, "edge": {"target": [], "time": []}}}, "displayed_time": "16.18", "trialTime": 18780, "trial_type": "mouselab-mdp", "trial_index": 29, "time_elapsed": 1127569, "internal_node_id": "0.0-6.0-1.0-20.0"}}, {"uniqueid": "w27226158:a44967910", "current_trial": 30, "dateTime": 1693835913984, "trialdata": {"revealed_states": [], "clicked_states": ["11"], "num_clicks_accrued": [0, 0, 0, 0, 0, 0, 0, 0, 0, 0, 0, 0, 0], "stateRewards": ["", -1, -3, -6, -2, -7, 80, -45, -3, -38, -72, 76, 2, 1, 7, 4, -62, 14, -74, 14, -87, -21, -88, -2, 1, -7, -10, 66, 56, -76, 10, -29, -72, -70], "withholdReward": false, "trial_id": "mdp_trial_22", "block": "test", "trialIndex": 23, "score": 60.85, "costs": -2.15, "simulationMode": [null, null, null, null, null], "rewards": [-1, -3, -6, -3, 76], "path": ["0", "0", "1", "2", "3", "8", "11"], "rt": [6512, 203, 118, 67, 84], "actions": ["up", "up", "up", "left", "left"], "actionTimes": [8256, 8982, 9630, 10230, 10846], "queries": {"click": {"state": {"target": ["11"], "time": [3993]}, "edge": {"target": [], "time": []}}, "mouseover": {"state": {"target": ["1", "10", "11", "8", "3", "4", "6", "7"], "time": [2434, 3118, 3484, 4182, 4231, 4296, 4543, 7451]}, "edge": {"target": [], "time": []}}, "mouseout": {"state": {"target": ["10", "1", "10", "11", "8", "3", "4", "6", "7"], "time": [681, 2468, 3218, 4158, 4206, 4255, 4376, 7418, 7484]}, "edge": {"target": [], "time": []}}}, "displayed_time": "15.74", "trialTime": 17053, "trial_type": "mouselab-mdp", "trial_index": 30, "time_elapsed": 1145384, "internal_node_id": "0.0-6.0-1.0-21.0"}}, {"uniqueid": "w27226158:a44967910", "current_trial": 31, "dateTime": 1693835938048, "trialdata": {"revealed_states": [], "clicked_states": ["7", "5", "6"], "num_clicks_accrued": [0, 0, 0, 0, 0, 0, 0, 0, 0, 0, 0, 0, 0], "stateRewards": ["", 2, -1, 3, -12, -83, 6, -33, 9, 28, 24, -50, -2, -1, -2, -5, -87, 37, 82, 12, 80, -5, 10, -2, -3, -6, 9, 22, -1, 16, 9, 77, -62, 58], "withholdReward": false, "trial_id": "mdp_trial_23", "block": "test", "trialIndex": 24, "score": 30.55, "costs": -6.449999999999999, "simulationMode": [null, null, null, null, null], "rewards": [2, -1, 3, 9, 24], "path": ["0", "0", "1", "2", "3", "8", "10"], "rt": [15289, 161, 184, 64, 140], "actions": ["up", "up", "up", "left", "down"], "actionTimes": [17571, 18265, 18985, 19586, 20258], "queries": {"click": {"state": {"target": ["7", "5", "6"], "time": [3357, 6564, 10028]}, "edge": {"target": [], "time": []}}, "mouseover": {"state": {"target": ["7", "4", "5", "6", "10", "28", "26", "27", "11", "11"], "time": [3180, 3571, 3866, 7183, 10669, 10857, 13947, 14198, 14529, 15047]}, "edge": {"target": [], "time": []}}, "mouseout": {"state": {"target": ["0", "7", "4", "5", "6", "10", "28", "26", "27", "11", "11"], "time": [2798, 3546, 3614, 6917, 10075, 10693, 10882, 14146, 14396, 14612, 16863]}, "edge": {"target": [], "time": []}}}, "displayed_time": "20.79", "trialTime": 23298, "trial_type": "mouselab-mdp", "trial_index": 31, "time_elapsed": 1169448, "internal_node_id": "0.0-6.0-1.0-22.0"}}, {"uniqueid": "w27226158:a44967910", "current_trial": 32, "dateTime": 1693835970216, "trialdata": {"revealed_states": [], "clicked_states": ["10", "7", "5", "9", "11", "6"], "num_clicks_accrued": [0, 0, 0, 0, 0, 0, 0, 0, 0, 0, 0, 0, 0], "stateRewards": ["", 2, 4, 7, -6, -76, -81, 2, 5, -66, -3, 36, -2, -4, 6, -2, -69, 4, -49, -6, 67, 38, -67, 2, 1, 1, 6, -68, -21, 52, -16, -16, 6, -70], "withholdReward": false, "trial_id": "mdp_trial_24", "block": "test", "trialIndex": 25, "score": 41.1, "costs": -12.9, "simulationMode": [null, null, null, null, null], "rewards": [2, 4, 7, 5, 36], "path": ["0", "0", "1", "2", "3", "8", "11"], "rt": [22199, 8, 114, 64, 96], "actions": ["up", "up", "up", "left", "left"], "actionTimes": [25143, 25677, 26349, 26965, 27613], "queries": {"click": {"state": {"target": ["10", "7", "5", "9", "11", "6"], "time": [3896, 7071, 10607, 13945, 17470, 20984]}, "edge": {"target": [], "time": []}}, "mouseover": {"state": {"target": ["1", "10", "2", "7", "5", "9", "3", "8", "11", "3", "4", "6", "27"], "time": [3521, 3755, 4265, 4425, 10471, 11067, 15138, 15274, 17270, 17701, 17734, 17986, 21441]}, "edge": {"target": [], "time": []}}, "mouseout": {"state": {"target": ["29", "26", "28", "24", "23", "0", "1", "10", "2", "7", "5", "9", "3", "8", "11", "3", "4", "6", "27"], "time": [719, 785, 1019, 1103, 1403, 1586, 3655, 4240, 4308, 8586, 10867, 14322, 15181, 15552, 17647, 17728, 17777, 21322, 21466]}, "edge": {"target": [], "time": []}}}, "displayed_time": "28.17", "trialTime": 31358, "trial_type": "mouselab-mdp", "trial_index": 32, "time_elapsed": 1201616, "internal_node_id": "0.0-6.0-1.0-23.0"}}, {"uniqueid": "w27226158:a44967910", "current_trial": 33, "dateTime": 1693835988696, "trialdata": {"revealed_states": [], "clicked_states": ["28", "18"], "num_clicks_accrued": [0, 0, 0, 0, 0, 0, 0, 0, 0, 0, 0, 0, 0], "stateRewards": ["", -1, -2, -1, -10, -57, 73, -72, -16, 75, -14, -46, -2, -3, -7, -1, -61, -60, 76, -4, 50, 4, 14, 2, 2, -7, 12, -65, -32, 15, -8, -76, -25, -61], "withholdReward": false, "trial_id": "mdp_trial_25", "block": "test", "trialIndex": 26, "score": 58.7, "costs": -4.3, "simulationMode": [null, null, null, null, null], "rewards": [-2, -3, -7, -1, 76], "path": ["0", "0", "12", "13", "14", "15", "18"], "rt": [9213, 121, 146, 87, 65], "actions": ["right", "right", "right", "up", "left"], "actionTimes": [11275, 11945, 12618, 13209, 13810], "queries": {"click": {"state": {"target": ["28", "18"], "time": [3429, 6836]}, "edge": {"target": [], "time": []}}, "mouseover": {"state": {"target": ["23", "28", "1", "18"], "time": [3014, 3278, 3803, 4136]}, "edge": {"target": [], "time": []}}, "mouseout": {"state": {"target": ["29", "24", "23", "0", "23", "28", "1", "18"], "time": [593, 727, 1094, 2929, 3095, 3772, 3837, 8921]}, "edge": {"target": [], "time": []}}}, "displayed_time": "16.07", "trialTime": 17714, "trial_type": "mouselab-mdp", "trial_index": 33, "time_elapsed": 1220096, "internal_node_id": "0.0-6.0-1.0-24.0"}}, {"uniqueid": "w27226158:a44967910", "current_trial": 34, "dateTime": 1693836010200, "trialdata": {"revealed_states": [], "clicked_states": ["18", "28"], "num_clicks_accrued": [0, 0, 0, 0, 0, 0, 0, 0, 0, 0, 0, 0, 0], "stateRewards": ["", 2, 3, 8, 11, 25, -80, 6, -4, -56, 84, -23, -2, -4, -3, 4, -51, -9, -61, -15, -64, 67, -35, 1, -1, -7, -6, 83, 59, -15, 12, -79, 56, 41], "withholdReward": false, "trial_id": "mdp_trial_26", "block": "test", "trialIndex": 27, "score": 41.7, "costs": -4.3, "simulationMode": [null, null, null, null, null], "rewards": [1, -1, -7, -6, 59], "path": ["0", "0", "23", "24", "25", "26", "28"], "rt": [8205, 195, 143, 82, 155], "actions": ["left", "left", "left", "up", "right"], "actionTimes": [10912, 11646, 12310, 12934, 13622], "queries": {"click": {"state": {"target": ["18", "28"], "time": [3528, 6865]}, "edge": {"target": [], "time": []}}, "mouseover": {"state": {"target": ["12", "18", "12", "0", "23", "28", "12", "22"], "time": [3145, 3395, 3732, 3848, 3899, 4024, 7181, 7468]}, "edge": {"target": [], "time": []}}, "mouseout": {"state": {"target": ["12", "0", "12", "18", "12", "0", "23", "28", "12", "22", "30", "33", "30", "32"], "time": [710, 3112, 3178, 3702, 3820, 3874, 3998, 7083, 7355, 15495, 17612, 17645, 19378, 20027]}, "edge": {"target": [], "time": []}}}, "displayed_time": "16.71", "trialTime": 20735, "trial_type": "mouselab-mdp", "trial_index": 34, "time_elapsed": 1241600, "internal_node_id": "0.0-6.0-1.0-25.0"}}, {"uniqueid": "w27226158:a44967910", "current_trial": 35, "dateTime": 1693836027959, "trialdata": {"revealed_states": [], "clicked_states": ["32", "21"], "num_clicks_accrued": [0, 0, 0, 0, 0, 0, 0, 0, 0, 0, 0, 0, 0], "stateRewards": ["", 1, 2, 7, 13, 88, -71, 27, 3, 60, 5, -53, -2, 2, -6, -1, -30, 79, 47, -4, -14, 46, 68, 1, 1, 8, 10, -14, 86, 48, -11, -67, -44, 5], "withholdReward": false, "trial_id": "mdp_trial_27", "block": "test", "trialIndex": 28, "score": 31.7, "costs": -4.3, "simulationMode": [null, null, null, null, null], "rewards": [-2, 2, -6, -4, 46], "path": ["0", "0", "12", "13", "14", "19", "21"], "rt": [8468, 187, 135, 421, 135], "actions": ["right", "right", "right", "down", "down"], "actionTimes": [10328, 11063, 11727, 12679, 13343], "queries": {"click": {"state": {"target": ["32", "21"], "time": [2809, 6064]}, "edge": {"target": [], "time": []}}, "mouseover": {"state": {"target": ["32", "21", "31"], "time": [2274, 3516, 7120]}, "edge": {"target": [], "time": []}}, "mouseout": {"state": {"target": ["33", "30", "31", "23", "0", "32", "21"], "time": [672, 706, 756, 939, 1898, 3047, 6454]}, "edge": {"target": [], "time": []}}}, "displayed_time": "15.86", "trialTime": 16991, "trial_type": "mouselab-mdp", "trial_index": 35, "time_elapsed": 1259359, "internal_node_id": "0.0-6.0-1.0-26.0"}}, {"uniqueid": "w27226158:a44967910", "current_trial": 36, "dateTime": 1693836061353, "trialdata": {"revealed_states": [], "clicked_states": ["20", "21", "22", "28", "29"], "num_clicks_accrued": [0, 0, 0, 0, 0, 0, 0, 0, 0, 0, 0, 0, 0], "stateRewards": ["", -2, 2, 5, -14, -56, 64, 84, -5, 52, 39, 85, -2, 1, 7, 8, 21, 29, -78, -9, -10, -69, 10, -2, -1, -7, 15, 72, 20, 41, -2, 52, 80, 22], "withholdReward": false, "trial_id": "mdp_trial_28", "block": "test", "trialIndex": 29, "score": 35.25, "costs": -10.75, "simulationMode": [null, null, null, null, null], "rewards": [-2, -1, -7, 15, 41], "path": ["0", "0", "23", "24", "25", "26", "29"], "rt": [21699, 208, 51, 113, 40], "actions": ["left", "left", "left", "up", "left"], "actionTimes": [24469, 25203, 25779, 26435, 26995], "queries": {"click": {"state": {"target": ["20", "21", "22", "28", "29"], "time": [3791, 7780, 11287, 16342, 20181]}, "edge": {"target": [], "time": []}}, "mouseover": {"state": {"target": ["22", "19", "20", "21", "22", "23", "28", "25", "25", "29", "26", "27"], "time": [3268, 3468, 3600, 4200, 8237, 15969, 16152, 17175, 17642, 19967, 20741, 21241]}, "edge": {"target": [], "time": []}}, "mouseout": {"state": {"target": ["31", "23", "0", "22", "19", "20", "21", "22", "22", "23", "28", "25", "25", "29", "26", "27"], "time": [1716, 1916, 2808, 3351, 3550, 4034, 8073, 11336, 14552, 16052, 16969, 17525, 19834, 20393, 20775, 23818]}, "edge": {"target": [], "time": []}}}, "displayed_time": "27.54", "trialTime": 32612, "trial_type": "mouselab-mdp", "trial_index": 36, "time_elapsed": 1292753, "internal_node_id": "0.0-6.0-1.0-27.0"}}, {"uniqueid": "w27226158:a44967910", "current_trial": 37, "dateTime": 1693836086696, "trialdata": {"revealed_states": [], "clicked_states": ["15", "19", "18", "17", "16"], "num_clicks_accrued": [0, 0, 0, 0, 0, 0, 0, 0, 0, 0, 0, 0, 0], "stateRewards": ["", -1, -2, -8, 8, -27, -82, 19, -14, -62, 4, 1, -2, 2, 6, 10, 73, -51, -2, 2, 73, -48, 54, -1, 2, -4, 11, -25, 47, 86, 15, 33, 43, -42], "withholdReward": false, "trial_id": "mdp_trial_29", "block": "test", "trialIndex": 30, "score": 79.45, "costs": -9.55, "simulationMode": [null, null, null, null, null], "rewards": [-2, 2, 6, 10, 73], "path": ["0", "0", "12", "13", "14", "15", "16"], "rt": [15473, 138, 47, 112, 46], "actions": ["right", "right", "right", "up", "up"], "actionTimes": [19425, 20080, 20656, 21304, 21872], "queries": {"click": {"state": {"target": ["15", "19", "18", "17", "16"], "time": [5499, 6817, 8626, 12043, 15338]}, "edge": {"target": [], "time": []}}, "mouseover": {"state": {"target": ["12", "13", "15", "14", "19", "20", "14", "18", "15", "17", "16", "18"], "time": [4456, 4536, 4853, 5804, 6028, 7172, 7903, 8087, 8896, 9221, 12687, 15739]}, "edge": {"target": [], "time": []}}, "mouseout": {"state": {"target": ["33", "30", "23", "0", "12", "13", "15", "14", "19", "20", "14", "18", "15", "17", "16", "18", "1", "28", "26", "29"], "time": [569, 635, 885, 4436, 4503, 4636, 5777, 5896, 7140, 7620, 7969, 8867, 8981, 12404, 15652, 15787, 23503, 23603, 23720, 23771]}, "edge": {"target": [], "time": []}}}, "displayed_time": "22.43", "trialTime": 24591, "trial_type": "mouselab-mdp", "trial_index": 37, "time_elapsed": 1318096, "internal_node_id": "0.0-6.0-1.0-28.0"}}, {"uniqueid": "w27226158:a44967910", "current_trial": 38, "dateTime": 1693836106344, "trialdata": {"revealed_states": [], "clicked_states": ["26", "30", "33"], "num_clicks_accrued": [0, 0, 0, 0, 0, 0, 0, 0, 0, 0, 0, 0, 0], "stateRewards": ["", -1, -4, -3, 1, -45, -67, -24, 14, 32, 22, 22, -1, 1, -5, -7, 72, 84, -79, -5, 19, -40, -2, -1, -2, 8, -3, 84, -25, -28, 11, 64, -66, 77], "withholdReward": false, "trial_id": "mdp_trial_30", "block": "test", "trialIndex": 31, "score": 87.75, "costs": -5.25, "simulationMode": [null, null, null, null, null], "rewards": [-1, -2, 8, 11, 77], "path": ["0", "0", "23", "24", "25", "30", "33"], "rt": [10350, 157, 21, 29, 152], "actions": ["left", "left", "left", "down", "left"], "actionTimes": [13232, 13917, 14477, 15053, 15741], "queries": {"click": {"state": {"target": ["26", "30", "33"], "time": [5299, 6585, 8555]}, "edge": {"target": [], "time": []}}, "mouseover": {"state": {"target": ["24", "25", "26", "25", "30", "30", "33", "32", "31", "23"], "time": [4592, 4792, 5125, 5796, 6029, 6391, 8392, 9120, 11256, 12424]}, "edge": {"target": [], "time": []}}, "mouseout": {"state": {"target": ["29", "24", "23", "0", "24", "25", "26", "25", "30", "30", "33", "32", "31", "23", "30"], "time": [624, 707, 857, 3325, 4626, 5091, 5578, 5902, 6177, 6954, 8772, 11169, 12391, 12591, 18090]}, "edge": {"target": [], "time": []}}}, "displayed_time": "16.89", "trialTime": 18862, "trial_type": "mouselab-mdp", "trial_index": 38, "time_elapsed": 1337744, "internal_node_id": "0.0-6.0-1.0-29.0"}}, {"uniqueid": "w27226158:a44967910", "current_trial": 39, "dateTime": 1693836130103, "trialdata": {"revealed_states": [], "clicked_states": ["8", "4", "26", "30", "33", "32"], "num_clicks_accrued": [0, 0, 0, 0, 0, 0, 0, 0, 0, 0, 0, 0, 0], "stateRewards": ["", -2, 3, -1, -9, 44, 48, -37, -3, 71, -39, 87, -1, 3, -4, 4, -21, 59, -15, -8, -1, 28, -38, 2, 4, 4, 8, -85, -72, -63, 14, 58, 63, -46], "withholdReward": false, "trial_id": "mdp_trial_31", "block": "test", "trialIndex": 32, "score": 76.5, "costs": -10.5, "simulationMode": [null, null, null, null, null], "rewards": [2, 4, 4, 14, 63], "path": ["0", "0", "23", "24", "25", "30", "32"], "rt": [15109, 157, 137, 95, 95], "actions": ["left", "left", "left", "down", "down"], "actionTimes": [17840, 18526, 19190, 19830, 20446], "queries": {"click": {"state": {"target": ["8", "4", "26", "30", "33", "32"], "time": [3865, 4815, 6472, 8497, 10031, 13456]}, "edge": {"target": [], "time": []}}, "mouseover": {"state": {"target": ["1", "2", "3", "8", "3", "4", "2", "28", "26", "25", "30", "33", "32", "31"], "time": [2776, 3259, 3524, 3641, 4118, 4193, 5148, 5653, 6041, 6699, 7249, 9607, 10781, 13797]}, "edge": {"target": [], "time": []}}, "mouseout": {"state": {"target": ["25", "24", "23", "0", "1", "2", "3", "8", "3", "4", "2", "28", "26", "25", "30", "33", "32", "31"], "time": [590, 673, 873, 2770, 2992, 3375, 3574, 4092, 4153, 5019, 5208, 5754, 6633, 6936, 8689, 10250, 13603, 16874]}, "edge": {"target": [], "time": []}}}, "displayed_time": "20.97", "trialTime": 22990, "trial_type": "mouselab-mdp", "trial_index": 39, "time_elapsed": 1361504, "internal_node_id": "0.0-6.0-1.0-30.0"}}, {"uniqueid": "w27226158:a44967910", "current_trial": 40, "dateTime": 1693836160969, "trialdata": {"revealed_states": [], "clicked_states": ["8", "4", "15", "19", "26", "30", "33", "31", "32"], "num_clicks_accrued": [0, 0, 0, 0, 0, 0, 0, 0, 0, 0, 0, 0, 0], "stateRewards": ["", 1, -1, 8, -3, 38, 85, -20, -4, 8, 23, 73, 2, -4, 6, -13, 44, 7, -28, -11, -77, 45, -69, 1, -1, -7, -11, 75, -51, -87, 7, 36, -53, -26], "withholdReward": false, "trial_id": "mdp_trial_32", "block": "test", "trialIndex": 33, "score": 20.25, "costs": -15.750000000000002, "simulationMode": [null, null, null, null, null], "rewards": [1, -1, -7, 7, 36], "path": ["0", "0", "23", "24", "25", "30", "31"], "rt": [20939, 128, 50, 94, 87], "actions": ["left", "left", "left", "down", "right"], "actionTimes": [23913, 24583, 25176, 25783, 26407], "queries": {"click": {"state": {"target": ["8", "4", "15", "19", "26", "30", "33", "31", "32"], "time": [4275, 5348, 7889, 8840, 10514, 11352, 13122, 16874, 20594]}, "edge": {"target": [], "time": []}}, "mouseover": {"state": {"target": ["1", "2", "8", "3", "4", "2", "18", "15", "14", "19", "31", "25", "26", "25", "30", "32", "33", "32", "31", "32"], "time": [3026, 3235, 3568, 4506, 4848, 6536, 6768, 6985, 8204, 8529, 9612, 9749, 10018, 10843, 11020, 12404, 12734, 13769, 16689, 17252]}, "edge": {"target": [], "time": []}}, "mouseout": {"state": {"target": ["29", "26", "23", "0", "0", "1", "2", "8", "3", "4", "2", "18", "15", "14", "19", "31", "25", "26", "25", "30", "32", "33", "33", "32", "31", "32"], "time": [1534, 1599, 1766, 1866, 3016, 3168, 3385, 4460, 4615, 5741, 6601, 6789, 8134, 8457, 9052, 9661, 9812, 10754, 10927, 11560, 12468, 13170, 13294, 16402, 17044, 20823]}, "edge": {"target": [], "time": []}}}, "displayed_time": "26.94", "trialTime": 30034, "trial_type": "mouselab-mdp", "trial_index": 40, "time_elapsed": 1392369, "internal_node_id": "0.0-6.0-1.0-31.0"}}, {"uniqueid": "w27226158:a44967910", "current_trial": 41, "dateTime": 1693836179896, "trialdata": {"revealed_states": [], "clicked_states": ["8", "4", "26", "27"], "num_clicks_accrued": [0, 0, 0, 0, 0, 0, 0, 0, 0, 0, 0, 0, 0], "stateRewards": ["", -1, 1, 6, -6, 70, 66, 67, -16, -75, -35, 37, -1, 4, 4, -6, 47, -9, 63, 15, 21, -63, 13, 1, 3, -6, 10, 79, -29, 18, -15, 9, -67, -19], "withholdReward": false, "trial_id": "mdp_trial_33", "block": "test", "trialIndex": 34, "score": 80.2, "costs": -6.800000000000001, "simulationMode": [null, null, null, null, null], "rewards": [1, 3, -6, 10, 79], "path": ["0", "0", "23", "24", "25", "26", "27"], "rt": [10793, 74, 41, 27, 140], "actions": ["left", "left", "left", "up", "up"], "actionTimes": [12803, 13416, 14001, 14569, 15249], "queries": {"click": {"state": {"target": ["8", "4", "26", "27"], "time": [3076, 3880, 5761, 8618]}, "edge": {"target": [], "time": []}}, "mouseover": {"state": {"target": ["10", "8", "3", "4", "1", "26", "25", "25", "29", "27", "29"], "time": [2576, 2910, 3273, 3549, 4466, 5060, 6077, 6826, 6960, 8361, 8986]}, "edge": {"target": [], "time": []}}, "mouseout": {"state": {"target": ["29", "23", "0", "10", "8", "3", "4", "1", "26", "25", "25", "29", "27", "29"], "time": [459, 626, 2344, 2643, 3246, 3411, 4046, 4646, 5887, 6673, 6860, 8127, 8959, 12058]}, "edge": {"target": [], "time": []}}}, "displayed_time": "16.01", "trialTime": 18153, "trial_type": "mouselab-mdp", "trial_index": 41, "time_elapsed": 1411297, "internal_node_id": "0.0-6.0-1.0-32.0"}}, {"uniqueid": "w27226158:a44967910", "current_trial": 42, "dateTime": 1693836199585, "trialdata": {"revealed_states": [], "clicked_states": ["8", "4", "11"], "num_clicks_accrued": [0, 0, 0, 0, 0, 0, 0, 0, 0, 0, 0, 0, 0], "stateRewards": ["", 2, 4, 4, -8, -36, -33, 38, 16, -51, 57, 57, 1, 3, 4, -6, 45, 68, 87, 1, 63, 24, -55, -2, 2, -6, -13, -63, -50, 8, 2, 80, 6, 60], "withholdReward": false, "trial_id": "mdp_trial_34", "block": "test", "trialIndex": 35, "score": 77.75, "costs": -5.25, "simulationMode": [null, null, null, null, null], "rewards": [2, 4, 4, 16, 57], "path": ["0", "0", "1", "2", "3", "8", "11"], "rt": [8527, 121, 125, 107, 138], "actions": ["up", "up", "up", "left", "left"], "actionTimes": [11266, 11928, 12593, 13225, 13889], "queries": {"click": {"state": {"target": ["8", "4", "11"], "time": [5180, 5906, 6963]}, "edge": {"target": [], "time": []}}, "mouseover": {"state": {"target": ["13", "14", "13", "12", "26", "8", "3", "4", "2", "10", "11", "9"], "time": [2852, 3346, 3540, 3583, 3991, 4610, 5333, 5656, 6431, 6513, 6747, 7816]}, "edge": {"target": [], "time": []}}, "mouseout": {"state": {"target": ["29", "26", "24", "23", "0", "13", "14", "13", "12", "26", "8", "3", "4", "2", "10", "11", "9"], "time": [522, 554, 638, 889, 2797, 2890, 3507, 3562, 3607, 4056, 5304, 5491, 6066, 6481, 6649, 7639, 10372]}, "edge": {"target": [], "time": []}}}, "displayed_time": "16.75", "trialTime": 18905, "trial_type": "mouselab-mdp", "trial_index": 42, "time_elapsed": 1430985, "internal_node_id": "0.0-6.0-1.0-33.0"}}, {"uniqueid": "w27226158:a44967910", "current_trial": 43, "dateTime": 1693836228880, "trialdata": {"revealed_states": [], "clicked_states": ["15", "19", "26", "30", "4", "8", "5", "6", "7"], "num_clicks_accrued": [0, 0, 0, 0, 0, 0, 0, 0, 0, 0, 0, 0, 0], "stateRewards": ["", -2, -1, -5, 10, -36, -70, 68, -9, 86, 71, -10, 2, -4, 7, -7, 66, 44, -66, -13, -69, 43, 15, -2, 2, 6, -13, 62, 57, 50, -10, -69, 42, -72], "withholdReward": false, "trial_id": "mdp_trial_35", "block": "test", "trialIndex": 36, "score": 54.25, "costs": -15.750000000000002, "simulationMode": [null, null, null, null, null], "rewards": [-2, -1, -5, 10, 68], "path": ["0", "0", "1", "2", "3", "4", "7"], "rt": [19179, 148, 11, 21, 70], "actions": ["up", "up", "up", "right", "down"], "actionTimes": [22974, 23659, 24195, 24755, 25356], "queries": {"click": {"state": {"target": ["15", "19", "26", "30", "4", "8", "5", "6", "7"], "time": [5392, 6057, 7982, 8797, 9893, 10902, 12055, 15584, 18782]}, "edge": {"target": [], "time": []}}, "mouseover": {"state": {"target": ["12", "13", "15", "14", "19", "21", "31", "24", "26", "25", "30", "31", "24", "2", "4", "3", "8", "10", "2", "5", "6", "4", "6", "7"], "time": [4472, 4597, 4947, 5589, 5808, 6372, 6850, 6983, 7330, 8354, 8599, 9218, 9259, 9435, 9616, 10394, 10568, 11099, 11633, 11940, 13032, 14282, 15281, 15984]}, "edge": {"target": [], "time": []}}, "mouseout": {"state": {"target": ["11", "0", "12", "13", "15", "14", "19", "21", "31", "24", "26", "25", "30", "31", "24", "2", "4", "3", "8", "10", "2", "4", "5", "4", "6", "4", "6", "7", "27"], "time": [2346, 4448, 4564, 4680, 5558, 5702, 6233, 6469, 6885, 7072, 8125, 8495, 8923, 9253, 9287, 9466, 10236, 10505, 11050, 11605, 11661, 11778, 12207, 12618, 14159, 14859, 15758, 19081, 27228]}, "edge": {"target": [], "time": []}}}, "displayed_time": "25.90", "trialTime": 28508, "trial_type": "mouselab-mdp", "trial_index": 43, "time_elapsed": 1460280, "internal_node_id": "0.0-6.0-1.0-34.0"}}, {"uniqueid": "w27226158:a44967910", "current_trial": 44, "dateTime": 1693836247296, "trialdata": {"revealed_states": [], "clicked_states": ["26", "30", "4", "7"], "num_clicks_accrued": [0, 0, 0, 0, 0, 0, 0, 0, 0, 0, 0, 0, 0], "stateRewards": ["", -2, -4, 2, 10, -17, 18, 73, 11, -32, 23, -13, -2, -4, 7, 12, -25, 66, -23, 15, 40, -76, -9, 1, 2, -7, -5, -20, 24, 3, -5, 16, -73, 70], "withholdReward": false, "trial_id": "mdp_trial_36", "block": "test", "trialIndex": 37, "score": 72.2, "costs": -6.800000000000001, "simulationMode": [null, null, null, null, null], "rewards": [-2, -4, 2, 10, 73], "path": ["0", "0", "1", "2", "3", "4", "7"], "rt": [8579, 89, 41, 34, 76], "actions": ["up", "up", "up", "right", "down"], "actionTimes": [10709, 11330, 11899, 12458, 13066], "queries": {"click": {"state": {"target": ["26", "30", "4", "7"], "time": [3382, 4261, 5421, 6507]}, "edge": {"target": [], "time": []}}, "mouseover": {"state": {"target": ["23", "24", "26", "25", "30", "31", "2", "4", "7"], "time": [2715, 2762, 3090, 3665, 3766, 4771, 4945, 5188, 6255]}, "edge": {"target": [], "time": []}}, "mouseout": {"state": {"target": ["26", "23", "0", "23", "24", "26", "25", "30", "31", "2", "4", "7", "2"], "time": [839, 973, 2691, 2740, 2840, 3548, 3738, 4391, 4801, 5018, 5569, 6794, 16841]}, "edge": {"target": [], "time": []}}}, "displayed_time": "16.13", "trialTime": 17603, "trial_type": "mouselab-mdp", "trial_index": 44, "time_elapsed": 1478696, "internal_node_id": "0.0-6.0-1.0-35.0"}}, {"uniqueid": "w27226158:a44967910", "current_trial": 45, "dateTime": 1693836266240, "trialdata": {"revealed_states": [], "clicked_states": ["26", "30", "32"], "num_clicks_accrued": [0, 0, 0, 0, 0, 0, 0, 0, 0, 0, 0, 0, 0], "stateRewards": ["", -2, 2, -2, -7, -50, -62, -45, 7, 36, -24, -72, -1, -1, 8, -1, -67, 20, -52, 2, 35, -50, 80, -1, 1, 6, -6, -70, 6, 88, 8, -47, 74, -19], "withholdReward": false, "trial_id": "mdp_trial_37", "block": "test", "trialIndex": 38, "score": 82.75, "costs": -5.25, "simulationMode": [null, null, null, null, null], "rewards": [-1, 1, 6, 8, 74], "path": ["0", "0", "23", "24", "25", "30", "32"], "rt": [8269, 84, 73, 25, 645], "actions": ["left", "left", "left", "down", "down"], "actionTimes": [11182, 11801, 12419, 12987, 14211], "queries": {"click": {"state": {"target": ["26", "30", "32"], "time": [4471, 5311, 7118]}, "edge": {"target": [], "time": []}}, "mouseover": {"state": {"target": ["12", "23", "24", "26", "26", "25", "30", "32", "31"], "time": [3300, 3367, 3411, 3517, 3800, 4826, 5052, 6901, 8061]}, "edge": {"target": [], "time": []}}, "mouseout": {"state": {"target": ["28", "28", "0", "12", "23", "24", "26", "26", "25", "30", "32", "31"], "time": [1232, 1866, 2974, 3323, 3390, 3458, 3600, 4620, 4909, 5436, 7618, 10433]}, "edge": {"target": [], "time": []}}}, "displayed_time": "16.92", "trialTime": 18124, "trial_type": "mouselab-mdp", "trial_index": 45, "time_elapsed": 1497640, "internal_node_id": "0.0-6.0-1.0-36.0"}}, {"uniqueid": "w27226158:a44967910", "current_trial": 46, "dateTime": 1693836287217, "trialdata": {"revealed_states": [], "clicked_states": ["15", "19", "30", "26", "4", "8", "10"], "num_clicks_accrued": [0, 0, 0, 0, 0, 0, 0, 0, 0, 0, 0, 0, 0], "stateRewards": ["", -2, -3, 8, -4, -30, 31, 69, 9, 66, 87, 64, -2, 2, 8, 5, 47, 16, -39, -8, -54, 51, -19, 1, -2, -2, -11, -25, -26, 43, -9, 19, -84, 86], "withholdReward": false, "trial_id": "mdp_trial_38", "block": "test", "trialIndex": 39, "score": 87.55, "costs": -11.450000000000001, "simulationMode": [null, null, null, null, null], "rewards": [-2, -3, 8, 9, 87], "path": ["0", "0", "1", "2", "3", "8", "10"], "rt": [11653, 152, 36, 31, 128], "actions": ["up", "up", "up", "left", "down"], "actionTimes": [13817, 14495, 15079, 15655, 16319], "queries": {"click": {"state": {"target": ["15", "19", "30", "26", "4", "8", "10"], "time": [3857, 4761, 6127, 7045, 8110, 8934, 9876]}, "edge": {"target": [], "time": []}}, "mouseover": {"state": {"target": ["12", "13", "15", "19", "31", "30", "25", "26", "2", "4", "8", "10"], "time": [2750, 2905, 3249, 4577, 5554, 5828, 6612, 6853, 7725, 7931, 8719, 9611]}, "edge": {"target": [], "time": []}}, "mouseout": {"state": {"target": ["25", "23", "0", "12", "13", "15", "19", "31", "30", "25", "26", "2", "4", "8", "10", "27"], "time": [698, 813, 2683, 2849, 2982, 4029, 4960, 5654, 6577, 6786, 7147, 7817, 8315, 9375, 10268, 18417]}, "edge": {"target": [], "time": []}}}, "displayed_time": "16.86", "trialTime": 20167, "trial_type": "mouselab-mdp", "trial_index": 46, "time_elapsed": 1518617, "internal_node_id": "0.0-6.0-1.0-37.0"}}, {"uniqueid": "w27226158:a44967910", "current_trial": 47, "dateTime": 1693836306113, "trialdata": {"revealed_states": [], "clicked_states": ["15", "16"], "num_clicks_accrued": [0, 0, 0, 0, 0, 0, 0, 0, 0, 0, 0, 0, 0], "stateRewards": ["", -1, 4, -8, 12, 14, 69, -8, 5, -72, -14, 56, -1, -1, -1, 9, 67, 19, 11, -9, -88, -58, 3, 2, -4, -8, 4, 62, 77, -74, 5, -31, 65, 88], "withholdReward": false, "trial_id": "mdp_trial_39", "block": "test", "trialIndex": 40, "score": 69.3, "costs": -3.7, "simulationMode": [null, null, null, null, null], "rewards": [-1, -1, -1, 9, 67], "path": ["0", "0", "12", "13", "14", "15", "16"], "rt": [7363, 105, 64, 96, 74], "actions": ["right", "right", "right", "up", "up"], "actionTimes": [9284, 9915, 10507, 11139, 11755], "queries": {"click": {"state": {"target": ["15", "16"], "time": [2894, 4533]}, "edge": {"target": [], "time": []}}, "mouseover": {"state": {"target": ["14", "15", "18", "16", "18"], "time": [2422, 2688, 3826, 4187, 4855]}, "edge": {"target": [], "time": []}}, "mouseout": {"state": {"target": ["26", "28", "23", "0", "0", "14", "15", "15", "18", "16", "18", "27"], "time": [353, 436, 519, 1002, 1965, 2447, 3468, 3728, 4005, 4709, 8037, 17440]}, "edge": {"target": [], "time": []}}}, "displayed_time": "15.92", "trialTime": 18035, "trial_type": "mouselab-mdp", "trial_index": 47, "time_elapsed": 1537513, "internal_node_id": "0.0-6.0-1.0-38.0"}}, {"uniqueid": "w27226158:a44967910", "current_trial": 48, "dateTime": 1693836361927, "trialdata": {"revealed_states": [], "clicked_states": ["26", "27", "28", "29", "30", "8", "11", "10", "9", "5", "4", "7", "6", "16"], "num_clicks_accrued": [0, 0, 0, 0, 0, 0, 0, 0, 0, 0, 0, 0, 0], "stateRewards": ["", 1, -1, 4, 5, -32, 18, 20, 6, -88, -74, 9, -2, 1, -2, -14, 34, -77, -38, -1, 80, -36, 73, 2, 3, -8, 10, -48, -73, -71, -11, -22, 20, 54], "withholdReward": false, "trial_id": "mdp_trial_40", "block": "test", "trialIndex": 41, "score": -10.699999999999996, "costs": -27.699999999999996, "simulationMode": [null, null, null, null, null], "rewards": [-2, 1, -2, -14, 34], "path": ["0", "0", "12", "13", "14", "15", "16"], "rt": [46964, 53, 68, 11, 476], "actions": ["right", "right", "right", "up", "up"], "actionTimes": [49133, 49731, 50331, 50889, 51923], "queries": {"click": {"state": {"target": ["26", "27", "28", "29", "30", "8", "11", "10", "9", "5", "4", "7", "6", "16"], "time": [3086, 4286, 7549, 10902, 14726, 16742, 18749, 22310, 25502, 29141, 32421, 35092, 38805, 43668]}, "edge": {"target": [], "time": []}}, "mouseover": {"state": {"target": ["23", "26", "27", "28", "26", "29", "24", "30", "24", "10", "8", "3", "4", "3", "11", "10", "8", "9", "3", "4", "5", "4", "7", "6", "16", "16", "15", "15", "16", "18"], "time": [2652, 2840, 4092, 4721, 7803, 8000, 11375, 11841, 15709, 15873, 16056, 17080, 17699, 18165, 18490, 19228, 22781, 22956, 25848, 25977, 28906, 29483, 32999, 35979, 39796, 40215, 42654, 43305, 43488, 43975]}, "edge": {"target": [], "time": []}}, "mouseout": {"state": {"target": ["29", "26", "23", "0", "12", "0", "23", "26", "26", "27", "28", "26", "29", "24", "30", "24", "10", "8", "8", "3", "4", "3", "8", "11", "10", "8", "9", "3", "4", "5", "4", "7", "6", "16", "16", "15", "15", "16"], "time": [889, 910, 965, 1019, 1223, 2625, 2685, 3386, 3926, 4541, 7775, 7880, 11137, 11759, 15633, 15738, 15973, 16779, 16997, 17551, 18107, 18241, 18323, 18927, 22723, 22810, 25788, 25901, 28807, 29429, 32677, 35449, 39235, 40125, 42404, 43071, 43389, 43855]}, "edge": {"target": [], "time": []}}}, "displayed_time": "52.44", "trialTime": 54987, "trial_type": "mouselab-mdp", "trial_index": 48, "time_elapsed": 1593327, "internal_node_id": "0.0-6.0-1.0-39.0"}}, {"uniqueid": "w27226158:a44967910", "current_trial": 49, "dateTime": 1693836435115, "trialdata": {"rt": 73177, "response": {"Q0": "$-2 to $2", "Q1": "$-16 to $16", "Q2": "$-88 to $88", "Q3": "The cost for clicking on nodes varied between nodes.", "Q4": "Very motivated"}, "question_order": [0, 1, 2, 3, 4], "trial_id": "final_quiz_control", "trial_type": "survey-multi-choice", "trial_index": 49, "time_elapsed": 1666515, "internal_node_id": "0.0-6.0-2.0"}}, {"uniqueid": "w27226158:a44967910", "current_trial": 50, "dateTime": 1693836711472, "trialdata": {"rt": 276344, "response": {"Q0": "My strategy was to find the highest paying node at the end of the line. ", "Q1": "Yes. I started viewing the value of the nodes after the first option to turn direction. I that node had a value of 10 or higher I would look for the node with the highest value at that end.", "Q2": "It was quite difficult for the reason that I want to view as few nodes as possible before moving the spider."}, "trial_id": "self_report_control", "trial_type": "survey-text", "trial_index": 50, "time_elapsed": 1942873, "internal_node_id": "0.0-6.0-3.0"}}, {"uniqueid": "w27226158:a44967910", "current_trial": 51, "dateTime": 1693836843283, "trialdata": {"rt": 131800, "response": {"Q0": "Strongly disagree", "Q1": "Neither disagree nor agree", "Q2": "Neither disagree nor agree", "Q3": "Neither disagree nor agree", "Q4": "Neither disagree nor agree", "Q5": "Neither disagree nor agree", "Q6": "Neither disagree nor agree"}, "question_order": [0, 1, 2, 3, 4, 5, 6], "trial_id": "self_report_2", "trial_type": "survey-multi-choice", "trial_index": 51, "time_elapsed": 2074684, "internal_node_id": "0.0-6.0-4.0"}}, {"uniqueid": "w27226158:a44967910", "current_trial": 52, "dateTime": 1693836888648, "trialdata": {"rt": 45355, "response": {"gender": "male", "age": "40", "colorblind": "0", "effort": "0"}, "trial_type": "survey-html-form", "trial_index": 52, "time_elapsed": 2120049, "internal_node_id": "0.0-6.0-5.0"}}, {"uniqueid": "w27226158:a44967910", "current_trial": 53, "dateTime": 1693836923977, "trialdata": {"rt": 35318, "response": {"Q0": "No.", "Q1": "No.", "Q2": "None."}, "trial_type": "survey-text", "trial_index": 53, "time_elapsed": 2155378, "internal_node_id": "0.0-6.0-6.0"}}, {"uniqueid": "w27226158:a44967910", "current_trial": 54, "dateTime": 1693836998435, "trialdata": {"rt": 74448, "stimulus": "<h1>Completion Code Instructions (1/2)</h1>\n<br><br><br><br>\nYou have reached the end of the experiment! The completion code consists of two parts: (1) a code with 2 characters (2) a code with 6 characters. On this page, you will receive the second part of the code. The first part of the completion code will be on the next page.\n<br><br>\nThe second part of your completion code is: <b>EWEK22</b>\n<br><br>\nPlease note this down. Then, press 'Next' in order to find the first part of your completion code. Once the data has been saved, you will receive this code either in this window or in the original browser window where you started the experiment.\n <br><br>\n<h2 style='color: red;'>Note: this is <strong>NOT</strong> the full completion code. Copy this down and click 'Next' to get the full completion code on the next page.</h2>", "response": 0, "trial_type": "html-button-response", "trial_index": 54, "time_elapsed": 2229835, "internal_node_id": "0.0-6.0-7.0"}}, {"uniqueid": "w27226158:a44967910", "current_trial": 55, "dateTime": 1693836999447, "trialdata": {"success": true, "trial_type": "fullscreen", "trial_index": 55, "time_elapsed": 2230848, "internal_node_id": "0.0-7.0"}}], "questiondata": {"params": {"CODE": "C6DMOQA6", "MIN_TIME": 14, "inspectCost": 1, "startTime": "Mon Sep 04 2023 15:39:21 GMT+0200 (South Africa Standard Time)", "bonusRate": 0.002, "variance": "1_2_4_8_44", "branching": "31123"}, "final_score": 2191.7}, "eventdata": [{"eventtype": "initialized", "value": null, "timestamp": 1693834760574, "interval": 0}, {"eventtype": "window_resize", "value": [1024, 767], "timestamp": 1693834760574, "interval": 0}, {"eventtype": "window_resize", "value": [1024, 767], "timestamp": 1693834761067, "interval": 493}, {"eventtype": "window_resize", "value": [1280, 1024], "timestamp": 1693834776078, "interval": 15011}, {"eventtype": "window_resize", "value": [1024, 767], "timestamp": 1693836998679, "interval": 2222601}], "useragent": "Mozilla/5.0 (Windows NT 6.1; Win64; x64) AppleWebKit/537.36 (KHTML, like Gecko) Chrome/109.0.0.0 Safari/537.36", "mode": "live", "id": "w27226158:a44967910", "status": "user data saved", "Beginhit": "2023-09-04 13:39:16.016005", "Beginexp": "2023-09-04 13:39:39.357279", "Endhit": "2023-09-04 14:16:44.357816", "psiturkStatus": 3, "browser": "<redacted>", "platform": "windows", "language": "en-US"}