{"condition": 1, "counterbalance": 0, "assignmentId": "a95795747", "workerId": "w29508735", "hitId": "h40268338", "currenttrial": 56, "bonus": 0, "data": [{"uniqueid": "w29508735:a95795747", "current_trial": 0, "dateTime": 1691160597978, "trialdata": {"success": true, "trial_type": "fullscreen", "trial_index": 0, "time_elapsed": 8704, "internal_node_id": "0.0-0.0"}}, {"uniqueid": "w29508735:a95795747", "current_trial": 1, "dateTime": 1691160624997, "trialdata": {"view_history": [{"page_index": 0, "viewing_time": 27002}], "rt": 27006, "trial_id": "exp_instructions_misaligned", "trial_type": "instructions", "trial_index": 1, "time_elapsed": 35724, "internal_node_id": "0.0-1.0"}}, {"uniqueid": "w29508735:a95795747", "current_trial": 2, "dateTime": 1691160628721, "trialdata": {"success": true, "trial_type": "fullscreen", "trial_index": 2, "time_elapsed": 39448, "internal_node_id": "0.0-2.0-0.0"}}, {"uniqueid": "w29508735:a95795747", "current_trial": 3, "dateTime": 1691160826274, "trialdata": {"view_history": [{"page_index": 0, "viewing_time": 69343}, {"page_index": 1, "viewing_time": 57113}, {"page_index": 2, "viewing_time": 38510}, {"page_index": 3, "viewing_time": 32581}], "rt": 197547, "trial_id": "mouselab_instructions_1_misaligned", "trial_type": "instructions", "trial_index": 3, "time_elapsed": 237001, "internal_node_id": "0.0-2.0-1.0"}}, {"uniqueid": "w29508735:a95795747", "current_trial": 4, "dateTime": 1691160953526, "trialdata": {"revealed_states": [], "clicked_states": ["2", "1", "12", "23", "24", "25", "26", "29", "27", "30", "31", "32", "33", "28", "3", "8", "11", "13", "14", "15", "16", "17", "18", "19", "21", "20", "22", "10", "9", "5", "4", "7", "6"], "num_clicks_accrued": [0, 0, 0, 0, 0, 0, 0, 0, 0, 0, 0, 0, 0], "stateRewards": ["", -10, -10, 10, 10, 10, 10, -10, 10, -10, -10, -10, -10, -10, 10, 10, -10, 10, 10, -10, -10, -10, 10, -10, 10, -10, 10, -10, -10, 10, -10, -10, -10, -10], "withholdReward": false, "trial_id": "practice_1", "block": "test", "trialIndex": 0, "score": -3, "costs": -16.5, "simulationMode": [null, null, null, null, null], "rewards": [-10, -10, 10, 10, 10], "path": ["0", "0", "1", "2", "3", "4", "5"], "rt": [104785, 945, 1490, 651, 1533], "actions": ["up", "up", "up", "right", "up"], "actionTimes": [110582, 112089, 114185, 115458, 117622], "queries": {"click": {"state": {"target": ["2", "1", "12", "23", "24", "25", "26", "29", "27", "30", "31", "32", "33", "28", "3", "8", "11", "13", "14", "15", "16", "17", "18", "19", "21", "20", "22", "10", "9", "5", "4", "7", "6"], "time": [9391, 12074, 14381, 16886, 19265, 23162, 25988, 27798, 32436, 35197, 37520, 40006, 41418, 43170, 45773, 48164, 52984, 56438, 59517, 62781, 65298, 67146, 69747, 71498, 73598, 76078, 78260, 80301, 82970, 85339, 89127, 91624, 93808]}, "edge": {"target": [], "time": []}}, "mouseover": {"state": {"target": ["2", "1", "12", "23", "24", "25", "26", "28", "26", "29", "27", "25", "30", "31", "32", "33", "28", "1", "2", "2", "3", "8", "11", "9", "11", "3", "4", "7", "13", "14", "15", "16", "15", "18", "16", "17", "15", "18", "13", "19", "21", "20", "19", "22", "10", "9", "9", "5", "4", "7", "6", "0", "0", "23", "23", "0"], "time": [8632, 10926, 14102, 16427, 18484, 22425, 24274, 25056, 25574, 27228, 31721, 33812, 34276, 36768, 39238, 40920, 42666, 44417, 44750, 45024, 45249, 46898, 51488, 51964, 52474, 54213, 54400, 55421, 55905, 58694, 61321, 61505, 62337, 64229, 64615, 66542, 68081, 68565, 70627, 71028, 72887, 75817, 77148, 77449, 79614, 82367, 82601, 84577, 87045, 90074, 92914, 96080, 96449, 96818, 101937, 102466]}, "edge": {"target": [], "time": []}}, "mouseout": {"state": {"target": ["23", "23", "0", "2", "1", "1", "12", "23", "24", "25", "26", "28", "26", "26", "29", "27", "25", "30", "31", "32", "33", "28", "1", "2", "2", "3", "8", "11", "9", "11", "3", "4", "7", "13", "14", "15", "16", "15", "18", "16", "16", "17", "15", "18", "13", "19", "21", "20", "19", "22", "10", "9", "9", "9", "5", "4", "7", "6", "0", "0", "23", "23"], "time": [null, null, 2793, 10724, 12150, 13797, 14598, 18227, 20993, 24129, 24858, 25337, 26218, 27016, 30519, 33689, 33952, 36557, 39125, 40168, 41749, 44302, 44549, 44797, 45055, 46770, 51354, 51807, 52455, 54096, 54256, 55386, 55496, 58371, 61220, 61414, 62227, 62989, 64451, 65495, 66339, 67985, 68230, 70535, 70749, 72648, 75424, 76299, 77433, 79046, 81813, 82428, 83266, 84318, 86617, 90013, 92448, 95200, 96188, 96721, 98397, 102237]}, "edge": {"target": [], "time": []}}}, "displayed_time": "118.19", "trialTime": 122306, "trial_type": "mouselab-mdp", "trial_index": 4, "time_elapsed": 364252, "internal_node_id": "0.0-2.0-2.0-0.0"}}, {"uniqueid": "w29508735:a95795747", "current_trial": 5, "dateTime": 1691160988113, "trialdata": {"revealed_states": [], "clicked_states": [], "num_clicks_accrued": [0, 0, 0, 0, 0, 0, 0, 0, 0, 0, 0, 0, 0], "stateRewards": ["", 10, -10, 10, 10, 10, 10, 10, -10, -10, -10, 10, -10, -10, -10, 10, 10, -10, -10, 10, 10, 10, -10, -10, 10, 10, 10, -10, 10, 10, -10, 10, -10, 10], "withholdReward": false, "trial_id": "practice_2", "block": "test", "trialIndex": 1, "score": 33.5, "costs": 0, "simulationMode": [null, null, null, null, null], "rewards": [10, -10, 10, 10, 10], "path": ["0", "0", "1", "2", "3", "4", "6"], "rt": [2058, 7746, 1471, 943, 1497], "actions": ["up", "up", "up", "right", "right"], "actionTimes": [8661, 16984, 18997, 20569, 22662], "queries": {"click": {"state": {"target": [], "time": []}, "edge": {"target": [], "time": []}}, "mouseover": {"state": {"target": [], "time": []}, "edge": {"target": [], "time": []}}, "mouseout": {"state": {"target": ["0", "1", "2"], "time": [6722, 11530, 11913]}, "edge": {"target": [], "time": []}}}, "displayed_time": "23.29", "trialTime": 32613, "trial_type": "mouselab-mdp", "trial_index": 5, "time_elapsed": 398839, "internal_node_id": "0.0-2.0-2.0-1.0"}}, {"uniqueid": "w29508735:a95795747", "current_trial": 6, "dateTime": 1691161105413, "trialdata": {"view_history": [{"page_index": 0, "viewing_time": 27833}, {"page_index": 1, "viewing_time": 12605}, {"page_index": 0, "viewing_time": 69293}, {"page_index": 1, "viewing_time": 7560}], "rt": 117292, "trial_id": "mouselab_instructions_2_misaligned", "trial_type": "instructions", "trial_index": 6, "time_elapsed": 516140, "internal_node_id": "0.0-2.0-3.0"}}, {"uniqueid": "w29508735:a95795747", "current_trial": 7, "dateTime": 1691161162730, "trialdata": {"rt": 57305, "response": {"Q0": "The cost for clicking on nodes may vary between nodes.", "Q1": "The better I perform the higher my bonus will be.", "Q2": "No, the amount of cash at each node of the web may be different each time.", "Q3": "To get the highest total score.", "Q4": "Only before moving the spider.", "Q5": "3 seconds"}, "question_order": [0, 1, 2, 3, 4, 5], "correct": {"Q0": "The cost for clicking on nodes may vary between nodes.", "Q1": "The better I perform the higher my bonus will be.", "Q2": "No, the amount of cash at each node of the web may be different each time.", "Q3": "To get the highest total score.", "Q4": "Only before moving the spider.", "Q5": "3 seconds"}, "trial_id": "mouselab_quiz_misaligned", "trial_type": "survey-multi-choice", "trial_index": 7, "time_elapsed": 573457, "internal_node_id": "0.0-2.0-4.0"}}, {"uniqueid": "w29508735:a95795747", "current_trial": 8, "dateTime": 1691161169540, "trialdata": {"rt": 6674, "stimulus": "\n<h1> Get ready to start the game! </h1>\n\nThank you for reading the instructions. Get ready start with the 40 rounds of this game.\n<br><br>\nIf you need to take a break, feel free to take one after the end of a round, before continuing to the next one.\n<br><br>\nRemember, the more money the spider gets, the bigger your bonus will be!\n<br><br>\n<div style='text-align: center;'>Press <code>space</code> to begin.</div>\n\n<br><br>\n(If, at any point, the <code>space</code> key does not take you to the next page, click once on the text and try again.)", "response": " ", "trial_id": "mdp_ready", "trial_type": "html-keyboard-response", "trial_index": 8, "time_elapsed": 580267, "internal_node_id": "0.0-4.0-0.0"}}, {"uniqueid": "w29508735:a95795747", "current_trial": 9, "dateTime": 1691161200365, "trialdata": {"revealed_states": [], "clicked_states": [], "num_clicks_accrued": [0, 0, 0, 0, 0, 0, 0, 0, 0, 0, 0, 0, 0], "stateRewards": ["", 2, -1, 3, -12, -83, 6, -33, 9, 28, 24, -50, -2, -1, -2, -5, -87, 37, 82, 12, 80, -5, 10, -2, -3, -6, 9, 22, -1, 16, 9, 77, -62, 58], "withholdReward": false, "trial_id": "mdp_trial_1", "block": "test", "trialIndex": 2, "score": -2, "costs": 0, "simulationMode": [null, null, null, null, null], "rewards": [2, -1, 3, -12, 6], "path": ["0", "0", "1", "2", "3", "4", "6"], "rt": [5322, 1469, 1340, 822, 792], "actions": ["up", "up", "up", "right", "right"], "actionTimes": [10639, 12752, 14739, 16241, 17643], "queries": {"click": {"state": {"target": [], "time": []}, "edge": {"target": [], "time": []}}, "mouseover": {"state": {"target": ["1", "7"], "time": [8543, 8940]}, "edge": {"target": [], "time": []}}, "mouseout": {"state": {"target": ["3", "2", "1", "1"], "time": [2363, 2474, 2689, 8661]}, "edge": {"target": [], "time": []}}}, "displayed_time": "19.32", "trialTime": 27821, "trial_type": "mouselab-mdp", "trial_index": 9, "time_elapsed": 611091, "internal_node_id": "0.0-4.0-1.0-0.0"}}, {"uniqueid": "w29508735:a95795747", "current_trial": 10, "dateTime": 1691161231728, "trialdata": {"revealed_states": [], "clicked_states": ["25", "28", "4", "15"], "num_clicks_accrued": [0, 0, 0, 0, 0, 0, 0, 0, 0, 0, 0, 0, 0], "stateRewards": ["", 1, -2, -8, -3, 31, -84, -55, -14, 15, -58, 17, -2, -3, 7, 7, -12, 48, 67, 4, -44, -68, 46, 2, 3, -5, -7, 76, 27, 5, 11, 57, 52, 59], "withholdReward": false, "trial_id": "mdp_trial_2", "block": "test", "trialIndex": 3, "score": 69.8, "costs": -6.199999999999999, "simulationMode": [null, null, null, null, null], "rewards": [-2, -3, 7, 7, 67], "path": ["0", "0", "12", "13", "14", "15", "18"], "rt": [13069, 418, 343, 363, 660], "actions": ["right", "right", "right", "up", "left"], "actionTimes": [18425, 19469, 20371, 21356, 22589], "queries": {"click": {"state": {"target": ["25", "28", "4", "15"], "time": [7307, 9003, 12151, 14027]}, "edge": {"target": [], "time": []}}, "mouseover": {"state": {"target": ["0", "23", "24", "25", "28", "2", "7", "4", "15", "14"], "time": [6296, 6420, 6520, 6800, 8744, 9845, 10815, 11688, 13293, 15453]}, "edge": {"target": [], "time": []}}, "mouseout": {"state": {"target": ["0", "0", "23", "24", "25", "28", "2", "7", "4", "15", "14"], "time": [2014, 6329, 6456, 6564, 8673, 9709, 10803, 11658, 12913, 15369, 16107]}, "edge": {"target": [], "time": []}}}, "displayed_time": "23.15", "trialTime": 27190, "trial_type": "mouselab-mdp", "trial_index": 10, "time_elapsed": 642454, "internal_node_id": "0.0-4.0-1.0-1.0"}}, {"uniqueid": "w29508735:a95795747", "current_trial": 11, "dateTime": 1691161268247, "trialdata": {"revealed_states": [], "clicked_states": ["28", "3", "15", "1"], "num_clicks_accrued": [0, 0, 0, 0, 0, 0, 0, 0, 0, 0, 0, 0, 0], "stateRewards": ["", 2, -4, 4, 9, 69, 9, -75, 12, -86, 66, 25, -1, 3, 2, -13, -88, -3, 1, 4, -69, 49, -84, 2, -1, 4, 2, -18, -81, -52, -15, -69, -54, 25], "withholdReward": false, "trial_id": "mdp_trial_3", "block": "test", "trialIndex": 4, "score": 34.6, "costs": -4.3999999999999995, "simulationMode": [null, null, null, null, null], "rewards": [2, -4, 4, 12, 25], "path": ["0", "0", "1", "2", "3", "8", "11"], "rt": [13899, 1359, 1256, 4090, 1527], "actions": ["up", "up", "up", "left", "left"], "actionTimes": [18639, 20595, 22539, 27306, 29498], "queries": {"click": {"state": {"target": ["28", "3", "15", "1"], "time": [6229, 9311, 11764, 13749]}, "edge": {"target": [], "time": []}}, "mouseover": {"state": {"target": ["0", "0", "28", "10", "2", "3", "15", "1", "0", "23"], "time": [4890, 5584, 5772, 6987, 7428, 8880, 10669, 12823, 16240, 16573]}, "edge": {"target": [], "time": []}}, "mouseout": {"state": {"target": ["13", "0", "0", "28", "10", "2", "3", "15", "1", "0", "23"], "time": [1603, 5026, 5615, 6892, 7219, 8858, 10231, 11991, 15048, 16553, 17539]}, "edge": {"target": [], "time": []}}}, "displayed_time": "30.16", "trialTime": 33660, "trial_type": "mouselab-mdp", "trial_index": 11, "time_elapsed": 678973, "internal_node_id": "0.0-4.0-1.0-2.0"}}, {"uniqueid": "w29508735:a95795747", "current_trial": 12, "dateTime": 1691161300889, "trialdata": {"revealed_states": [], "clicked_states": ["14", "13", "22"], "num_clicks_accrued": [0, 0, 0, 0, 0, 0, 0, 0, 0, 0, 0, 0, 0], "stateRewards": ["", 2, 2, 3, -15, 23, -14, 73, -7, -32, -20, -6, 1, 1, -5, -12, 73, 6, -84, 11, -81, -57, 13, -2, -1, -4, -8, -52, -58, 49, 13, 5, -41, -41], "withholdReward": false, "trial_id": "mdp_trial_4", "block": "test", "trialIndex": 5, "score": 17.55, "costs": -3.4499999999999997, "simulationMode": [null, null, null, null, null], "rewards": [1, 1, -5, 11, 13], "path": ["0", "0", "12", "13", "14", "19", "22"], "rt": [12060, 1191, 863, 727, 675], "actions": ["right", "right", "right", "down", "left"], "actionTimes": [16905, 18788, 20209, 21555, 22817], "queries": {"click": {"state": {"target": ["14", "13", "22"], "time": [7359, 8726, 10079]}, "edge": {"target": [], "time": []}}, "mouseover": {"state": {"target": ["1", "4", "13", "13", "14", "13", "22", "19", "19", "12"], "time": [5718, 5937, 6500, 6779, 6926, 8288, 9412, 10755, 13744, 13989]}, "edge": {"target": [], "time": []}}, "mouseout": {"state": {"target": ["0", "1", "4", "13", "13", "14", "13", "22", "19", "19", "12"], "time": [4989, 5757, 6345, 6619, 6826, 8206, 9398, 10673, 13253, 13848, 14859]}, "edge": {"target": [], "time": []}}}, "displayed_time": "23.43", "trialTime": 29360, "trial_type": "mouselab-mdp", "trial_index": 12, "time_elapsed": 711615, "internal_node_id": "0.0-4.0-1.0-3.0"}}, {"uniqueid": "w29508735:a95795747", "current_trial": 13, "dateTime": 1691161334305, "trialdata": {"revealed_states": [], "clicked_states": ["24", "23", "25"], "num_clicks_accrued": [0, 0, 0, 0, 0, 0, 0, 0, 0, 0, 0, 0, 0], "stateRewards": ["", 1, 2, -8, 9, 18, -83, -11, 6, -64, -48, 17, -2, -2, -5, -3, -24, -3, -86, -2, 48, -41, -22, -2, 4, 7, 8, 81, 13, -48, 10, 61, 19, 57], "withholdReward": false, "trial_id": "mdp_trial_5", "block": "test", "trialIndex": 6, "score": 74.95, "costs": -1.0499999999999998, "simulationMode": [null, null, null, null, null], "rewards": [-2, 4, 7, 10, 57], "path": ["0", "0", "23", "24", "25", "30", "33"], "rt": [10207, 2146, 1291, 1048, 1147], "actions": ["left", "left", "left", "down", "left"], "actionTimes": [16400, 19208, 21123, 22812, 24751], "queries": {"click": {"state": {"target": ["24", "23", "25"], "time": [8883, 10093, 11801]}, "edge": {"target": [], "time": []}}, "mouseover": {"state": {"target": ["12", "13", "12", "24", "23", "25", "23", "23", "23"], "time": [7045, 7263, 7870, 8446, 9761, 11458, 13370, 13945, 15269]}, "edge": {"target": [], "time": []}}, "mouseout": {"state": {"target": ["0", "0", "12", "13", "12", "24", "23", "24", "25", "23", "23", "23"], "time": [3177, 6860, 7104, 7775, 7948, 9065, 10305, 11327, 13181, 13531, 14928, 15519]}, "edge": {"target": [], "time": []}}}, "displayed_time": "25.41", "trialTime": 30184, "trial_type": "mouselab-mdp", "trial_index": 13, "time_elapsed": 745031, "internal_node_id": "0.0-4.0-1.0-4.0"}}, {"uniqueid": "w29508735:a95795747", "current_trial": 14, "dateTime": 1691161373167, "trialdata": {"revealed_states": [], "clicked_states": ["2", "3", "8", "11", "10"], "num_clicks_accrued": [0, 0, 0, 0, 0, 0, 0, 0, 0, 0, 0, 0, 0], "stateRewards": ["", 1, -1, 8, 4, 76, -33, -17, -3, -1, -54, -74, -2, 2, -5, 13, -51, 63, 83, 1, 84, 29, -36, 2, -1, 7, -12, -10, -44, -43, -14, 8, -69, 19], "withholdReward": false, "trial_id": "mdp_trial_6", "block": "test", "trialIndex": 7, "score": -76.15, "costs": -7.15, "simulationMode": [null, null, null, null, null, null], "rewards": [1, -1, 8, -3, -74], "path": ["0", "0", "1", "2", "3", "8", "11"], "rt": [12567, 4157, 621, 530, 813, 984], "actions": ["up", "up", "up", "up", "left", "left"], "actionTimes": [19265, 23439, 24777, 26035, 27612, 29274], "queries": {"click": {"state": {"target": ["2", "3", "8", "11", "10"], "time": [8395, 9435, 10809, 12340, 17238]}, "edge": {"target": [], "time": []}}, "mouseover": {"state": {"target": ["1", "2", "3", "8", "8", "11", "23", "10", "0"], "time": [7552, 7990, 9066, 10010, 10437, 11900, 16464, 16646, 22673]}, "edge": {"target": [], "time": []}}, "mouseout": {"state": {"target": ["1", "2", "3", "8", "8", "11", "23", "10", "0"], "time": [7749, 8879, 9990, 10217, 11588, 12465, 16629, 22315, 22729]}, "edge": {"target": [], "time": []}}}, "displayed_time": "29.89", "trialTime": 35219, "trial_type": "mouselab-mdp", "trial_index": 14, "time_elapsed": 783893, "internal_node_id": "0.0-4.0-1.0-5.0"}}, {"uniqueid": "w29508735:a95795747", "current_trial": 15, "dateTime": 1691161496838, "trialdata": {"revealed_states": [], "clicked_states": ["14", "13", "22", "23", "25", "31", "32", "26", "27"], "num_clicks_accrued": [0, 0, 0, 0, 0, 0, 0, 0, 0, 0, 0, 0, 0], "stateRewards": ["", -1, 4, -5, 9, 29, -75, -42, -16, 24, -28, -41, 2, -3, 1, 10, 60, 47, 55, -1, -53, 22, -40, 2, -3, -6, 4, -26, 44, 54, 15, -76, 42, 14], "withholdReward": false, "trial_id": "mdp_trial_7", "block": "test", "trialIndex": 8, "score": 28.85, "costs": -12.15, "simulationMode": [null, null, null, null, null], "rewards": [2, -3, -6, 4, 44], "path": ["0", "0", "23", "24", "25", "26", "28"], "rt": [26735, 310, 187, 118, 66], "actions": ["left", "left", "left", "up", "right"], "actionTimes": [112198, 113153, 114049, 114922, 115640], "queries": {"click": {"state": {"target": ["14", "13", "22", "23", "25", "31", "32", "26", "27"], "time": [87215, 88989, 90263, 93875, 95734, 96847, 99942, 103783, 105048]}, "edge": {"target": [], "time": []}}, "mouseover": {"state": {"target": ["13", "14", "13", "13", "22", "24", "23", "24", "25", "30", "31", "32", "27", "26", "27", "27"], "time": [86573, 86865, 88039, 88735, 89923, 91661, 93541, 95043, 95369, 96254, 96489, 98299, 101763, 103469, 104243, 104639]}, "edge": {"target": [], "time": []}}, "mouseout": {"state": {"target": ["0", "13", "14", "13", "13", "22", "24", "23", "24", "25", "30", "31", "32", "27", "26", "27", "27"], "time": [86303, 86769, 87913, 88146, 89485, 90422, 93512, 95002, 95232, 96143, 96473, 98055, 100089, 103337, 104214, 104372, 105333]}, "edge": {"target": [], "time": []}}}, "displayed_time": "116.24", "trialTime": 120074, "trial_type": "mouselab-mdp", "trial_index": 15, "time_elapsed": 907564, "internal_node_id": "0.0-4.0-1.0-6.0"}}, {"uniqueid": "w29508735:a95795747", "current_trial": 16, "dateTime": 1691161533237, "trialdata": {"revealed_states": [], "clicked_states": ["22"], "num_clicks_accrued": [0, 0, 0, 0, 0, 0, 0, 0, 0, 0, 0, 0, 0], "stateRewards": ["", -2, 2, 5, -14, -56, 64, 84, -5, 52, 39, 85, -2, 1, 7, 8, 21, 29, -78, -9, -10, -69, 10, -2, -1, -7, 15, 72, 20, 41, -2, 52, 80, 22], "withholdReward": false, "trial_id": "mdp_trial_8", "block": "test", "trialIndex": 9, "score": 4.85, "costs": -2.15, "simulationMode": [null, null, null, null, null], "rewards": [-2, 1, 7, -9, 10], "path": ["0", "0", "12", "13", "14", "19", "22"], "rt": [9174, 99, 609, 61, 326], "actions": ["right", "right", "right", "down", "left"], "actionTimes": [23041, 23806, 25164, 26007, 27059], "queries": {"click": {"state": {"target": ["22"], "time": [16215]}, "edge": {"target": [], "time": []}}, "mouseover": {"state": {"target": ["0", "13", "22", "19", "20", "19"], "time": [14611, 14943, 15635, 17619, 18284, 20291]}, "edge": {"target": [], "time": []}}, "mouseout": {"state": {"target": ["0", "0", "13", "22", "19", "20", "19"], "time": [11340, 14651, 15400, 17154, 18233, 20151, 20416]}, "edge": {"target": [], "time": []}}}, "displayed_time": "27.95", "trialTime": 31905, "trial_type": "mouselab-mdp", "trial_index": 16, "time_elapsed": 943963, "internal_node_id": "0.0-4.0-1.0-7.0"}}, {"uniqueid": "w29508735:a95795747", "current_trial": 17, "dateTime": 1691161561830, "trialdata": {"revealed_states": [], "clicked_states": ["6"], "num_clicks_accrued": [0, 0, 0, 0, 0, 0, 0, 0, 0, 0, 0, 0, 0], "stateRewards": ["", 1, 1, -5, 8, -6, 45, 16, -6, -7, -22, -38, -1, -4, 8, -11, -16, 21, -45, -15, -59, -32, 42, -1, 3, 6, 11, -7, 34, -27, -8, 85, 43, -9], "withholdReward": false, "trial_id": "mdp_trial_9", "block": "test", "trialIndex": 10, "score": 47.85, "costs": -2.15, "simulationMode": [null, null, null, null, null], "rewards": [1, 1, -5, 8, 45], "path": ["0", "0", "1", "2", "3", "4", "6"], "rt": [9191, 149, 236, 306, 136], "actions": ["up", "up", "up", "right", "right"], "actionTimes": [13715, 14539, 15370, 16454, 17223], "queries": {"click": {"state": {"target": ["6"], "time": [7005]}, "edge": {"target": [], "time": []}}, "mouseover": {"state": {"target": ["0", "6", "5", "4", "1"], "time": [5560, 6491, 8388, 10958, 11714]}, "edge": {"target": [], "time": []}}, "mouseout": {"state": {"target": ["0", "0", "6", "5", "4"], "time": [1947, 5735, 7881, 10932, 11106]}, "edge": {"target": [], "time": []}}}, "displayed_time": "18.52", "trialTime": 24461, "trial_type": "mouselab-mdp", "trial_index": 17, "time_elapsed": 972555, "internal_node_id": "0.0-4.0-1.0-8.0"}}, {"uniqueid": "w29508735:a95795747", "current_trial": 18, "dateTime": 1691161594494, "trialdata": {"revealed_states": [], "clicked_states": ["33", "31"], "num_clicks_accrued": [0, 0, 0, 0, 0, 0, 0, 0, 0, 0, 0, 0, 0], "stateRewards": ["", -2, 4, -5, -12, 85, -24, -18, -15, -78, -22, 26, -1, -1, 2, 14, -45, 52, -23, 7, -33, 24, -6, -2, -4, 5, -7, -16, 36, -39, 5, 71, -87, -23], "withholdReward": false, "trial_id": "mdp_trial_10", "block": "test", "trialIndex": 11, "score": 70.7, "costs": -4.3, "simulationMode": [null, null, null, null, null], "rewards": [-2, -4, 5, 5, 71], "path": ["0", "0", "23", "24", "25", "30", "31"], "rt": [12726, 389, 89, 119, 366], "actions": ["left", "left", "left", "down", "right"], "actionTimes": [18578, 19630, 20400, 21133, 22105], "queries": {"click": {"state": {"target": ["33", "31"], "time": [8509, 11593]}, "edge": {"target": [], "time": []}}, "mouseover": {"state": {"target": ["30", "33", "30", "31", "25", "27", "29"], "time": [7912, 8097, 9505, 9812, 12630, 13100, 13546]}, "edge": {"target": [], "time": []}}, "mouseout": {"state": {"target": ["1", "0", "30", "33", "30", "31", "25", "27", "29"], "time": [2377, 7180, 7967, 9485, 9687, 11932, 12877, 13410, 15641]}, "edge": {"target": [], "time": []}}}, "displayed_time": "22.85", "trialTime": 28518, "trial_type": "mouselab-mdp", "trial_index": 18, "time_elapsed": 1005220, "internal_node_id": "0.0-4.0-1.0-9.0"}}, {"uniqueid": "w29508735:a95795747", "current_trial": 19, "dateTime": 1691161619895, "trialdata": {"revealed_states": [], "clicked_states": ["5"], "num_clicks_accrued": [0, 0, 0, 0, 0, 0, 0, 0, 0, 0, 0, 0, 0], "stateRewards": ["", 2, 3, 8, 14, 69, -27, 17, 2, -71, -65, -10, 2, -3, 7, 8, 65, -10, 65, -12, 73, -12, 13, -2, -2, 6, 10, -79, -69, -18, 10, -85, 67, 74], "withholdReward": false, "trial_id": "mdp_trial_11", "block": "test", "trialIndex": 12, "score": 93.85, "costs": -2.15, "simulationMode": [null, null, null, null, null], "rewards": [2, 3, 8, 14, 69], "path": ["0", "0", "1", "2", "3", "4", "5"], "rt": [8227, 373, 119, 158, 23], "actions": ["up", "up", "up", "right", "up"], "actionTimes": [13228, 14237, 15009, 15732, 16487], "queries": {"click": {"state": {"target": ["5"], "time": [6945]}, "edge": {"target": [], "time": []}}, "mouseover": {"state": {"target": ["2", "5", "9", "9", "9", "2"], "time": [6090, 6478, 7829, 8298, 8695, 10802]}, "edge": {"target": [], "time": []}}, "mouseout": {"state": {"target": ["31", "0", "2", "5", "5", "9", "9", "9"], "time": [1080, 5932, 6201, 7301, 7772, 8056, 8503, 10584]}, "edge": {"target": [], "time": []}}}, "displayed_time": "19.01", "trialTime": 21369, "trial_type": "mouselab-mdp", "trial_index": 19, "time_elapsed": 1030621, "internal_node_id": "0.0-4.0-1.0-10.0"}}, {"uniqueid": "w29508735:a95795747", "current_trial": 20, "dateTime": 1691161667336, "trialdata": {"revealed_states": [], "clicked_states": ["32", "21", "16"], "num_clicks_accrued": [0, 0, 0, 0, 0, 0, 0, 0, 0, 0, 0, 0, 0], "stateRewards": ["", 1, 1, 7, -11, 80, -20, -53, -14, 3, 31, 27, 2, -1, -8, -10, 33, 41, 86, 9, 78, -37, -13, -1, -2, -6, -8, -80, 75, 4, -16, -49, -74, 24], "withholdReward": false, "trial_id": "mdp_trial_12", "block": "test", "trialIndex": 13, "score": 9.55, "costs": -6.449999999999999, "simulationMode": [null, null, null, null, null], "rewards": [2, -1, -8, -10, 33], "path": ["0", "0", "12", "13", "14", "15", "16"], "rt": [17923, 95, 1855, 2066, 38], "actions": ["right", "right", "right", "up", "up"], "actionTimes": [23218, 23890, 26537, 29287, 29928], "queries": {"click": {"state": {"target": ["32", "21", "16"], "time": [8218, 11858, 16738]}, "edge": {"target": [], "time": []}}, "mouseover": {"state": {"target": ["32", "32", "21", "20", "17", "16", "18", "13", "12", "13"], "time": [6854, 7304, 9694, 12968, 13462, 15941, 18210, 20895, 21308, 21537]}, "edge": {"target": [], "time": []}}, "mouseout": {"state": {"target": ["2", "1", "32", "32", "21", "20", "17", "16", "18", "13", "12"], "time": [1546, 1706, 7006, 9194, 12119, 13164, 15787, 17940, 20865, 21027, 21508]}, "edge": {"target": [], "time": []}}}, "displayed_time": "30.66", "trialTime": 43135, "trial_type": "mouselab-mdp", "trial_index": 20, "time_elapsed": 1078062, "internal_node_id": "0.0-4.0-1.0-11.0"}}, {"uniqueid": "w29508735:a95795747", "current_trial": 21, "dateTime": 1691161690845, "trialdata": {"revealed_states": [], "clicked_states": ["9"], "num_clicks_accrued": [0, 0, 0, 0, 0, 0, 0, 0, 0, 0, 0, 0, 0], "stateRewards": ["", -1, 2, 7, 8, 75, 67, -11, 6, 52, -17, 38, -1, 4, -8, 14, 74, -37, -17, -12, 52, 55, 71, -2, -1, -5, 2, 21, 6, -88, -14, 64, -61, -47], "withholdReward": false, "trial_id": "mdp_trial_13", "block": "test", "trialIndex": 14, "score": 63.85, "costs": -2.15, "simulationMode": [null, null, null, null, null], "rewards": [-1, 2, 7, 6, 52], "path": ["0", "0", "1", "2", "3", "8", "9"], "rt": [8985, 115, 140, 281, 520], "actions": ["up", "up", "up", "left", "up"], "actionTimes": [13445, 14290, 15053, 16040, 17160], "queries": {"click": {"state": {"target": ["9"], "time": [6986]}, "edge": {"target": [], "time": []}}, "mouseover": {"state": {"target": ["3", "9", "11"], "time": [5736, 6023, 7864]}, "edge": {"target": [], "time": []}}, "mouseout": {"state": {"target": ["12", "0", "3", "9", "11"], "time": [1154, 5487, 5942, 7732, 10615]}, "edge": {"target": [], "time": []}}}, "displayed_time": "18.46", "trialTime": 19698, "trial_type": "mouselab-mdp", "trial_index": 21, "time_elapsed": 1101571, "internal_node_id": "0.0-4.0-1.0-12.0"}}, {"uniqueid": "w29508735:a95795747", "current_trial": 22, "dateTime": 1691161763219, "trialdata": {"revealed_states": [], "clicked_states": ["22", "20", "21"], "num_clicks_accrued": [0, 0, 0, 0, 0, 0, 0, 0, 0, 0, 0, 0, 0], "stateRewards": ["", 1, 4, 5, 8, -55, -11, 8, 16, -37, 77, -22, -2, 3, -8, -10, 45, 87, -67, 4, 17, -33, -22, -1, -3, 7, 6, -39, -85, 75, -1, 7, -48, 45], "withholdReward": false, "trial_id": "mdp_trial_14", "block": "test", "trialIndex": 15, "score": 7.550000000000001, "costs": -6.449999999999999, "simulationMode": [null, null, null, null, null], "rewards": [-2, 3, -8, 4, 17], "path": ["0", "0", "12", "13", "14", "19", "20"], "rt": [18626, 372, 686, 365, 35699], "actions": ["right", "right", "right", "down", "right"], "actionTimes": [23184, 24228, 25629, 26620, 62901], "queries": {"click": {"state": {"target": ["22", "20", "21"], "time": [7268, 11827, 16835]}, "edge": {"target": [], "time": []}}, "mouseover": {"state": {"target": ["0", "12", "13", "22", "19", "20", "21", "19", "17", "13"], "time": [4893, 5551, 5780, 6450, 8424, 8608, 13163, 17859, 18670, 21333]}, "edge": {"target": [], "time": []}}, "mouseout": {"state": {"target": ["0", "12", "13", "22", "19", "20", "21", "19", "17", "13"], "time": [5367, 5613, 5948, 8322, 8578, 12680, 17835, 18451, 20867, 62045]}, "edge": {"target": [], "time": []}}}, "displayed_time": "63.58", "trialTime": 68534, "trial_type": "mouselab-mdp", "trial_index": 22, "time_elapsed": 1173944, "internal_node_id": "0.0-4.0-1.0-13.0"}}, {"uniqueid": "w29508735:a95795747", "current_trial": 23, "dateTime": 1691161813084, "trialdata": {"revealed_states": [], "clicked_states": [], "num_clicks_accrued": [0, 0, 0, 0, 0, 0, 0, 0, 0, 0, 0, 0, 0], "stateRewards": ["", 2, -1, -3, 16, -3, -16, -62, -1, 13, -26, 43, -1, 4, 3, -9, -54, -37, -3, -12, -71, -68, -57, 1, -3, 2, -9, 2, -2, -9, -11, 84, -52, 55], "withholdReward": false, "trial_id": "mdp_trial_15", "block": "test", "trialIndex": 16, "score": -29, "costs": 0, "simulationMode": [null, null, null, null, null], "rewards": [2, -1, -3, -1, -26], "path": ["0", "0", "1", "2", "3", "8", "10"], "rt": [13956, 866, 67, 291, 9], "actions": ["up", "up", "up", "left", "down"], "actionTimes": [37771, 39273, 39970, 40880, 41580], "queries": {"click": {"state": {"target": [], "time": []}, "edge": {"target": [], "time": []}}, "mouseover": {"state": {"target": ["1", "2", "9"], "time": [25716, 25865, 27098]}, "edge": {"target": [], "time": []}}, "mouseout": {"state": {"target": ["20", "19", "0", "1", "2", "9"], "time": [20471, 20532, 21200, 25838, 26505, 35949]}, "edge": {"target": [], "time": []}}}, "displayed_time": "42.24", "trialTime": 46078, "trial_type": "mouselab-mdp", "trial_index": 23, "time_elapsed": 1223808, "internal_node_id": "0.0-4.0-1.0-14.0"}}, {"uniqueid": "w29508735:a95795747", "current_trial": 24, "dateTime": 1691161869628, "trialdata": {"revealed_states": [], "clicked_states": ["14", "20", "21"], "num_clicks_accrued": [0, 0, 0, 0, 0, 0, 0, 0, 0, 0, 0, 0, 0], "stateRewards": ["", 2, -1, 5, 6, 10, 86, 55, 10, -45, 63, -71, 1, -2, 5, -8, -50, -72, 36, 15, 61, 12, 33, -1, -4, 6, 5, 79, -56, -21, -16, -87, 60, -81], "withholdReward": false, "trial_id": "mdp_trial_16", "block": "test", "trialIndex": 17, "score": 74.75, "costs": -5.25, "simulationMode": [null, null, null, null, null], "rewards": [1, -2, 5, 15, 61], "path": ["0", "0", "12", "13", "14", "19", "20"], "rt": [14024, 10, 1163, 1176, 159], "actions": ["right", "right", "right", "down", "right"], "actionTimes": [27253, 27952, 29816, 31577, 32384], "queries": {"click": {"state": {"target": ["14", "20", "21"], "time": [15593, 16433, 19461]}, "edge": {"target": [], "time": []}}, "mouseover": {"state": {"target": ["14", "20", "21"], "time": [14860, 16094, 17518]}, "edge": {"target": [], "time": []}}, "mouseout": {"state": {"target": ["9", "0", "14", "20", "21", "20"], "time": [9625, 14745, 15961, 17338, 20295, 50527]}, "edge": {"target": [], "time": []}}}, "displayed_time": "33.07", "trialTime": 52640, "trial_type": "mouselab-mdp", "trial_index": 24, "time_elapsed": 1280354, "internal_node_id": "0.0-4.0-1.0-15.0"}}, {"uniqueid": "w29508735:a95795747", "current_trial": 25, "dateTime": 1691161927337, "trialdata": {"revealed_states": [], "clicked_states": ["21", "22", "20", "17", "16", "18", "10"], "num_clicks_accrued": [0, 0, 0, 0, 0, 0, 0, 0, 0, 0, 0, 0, 0], "stateRewards": ["", -2, 2, 3, -7, -31, -33, 29, -8, -57, 50, -83, -1, -1, 5, 13, -23, -62, 25, 5, -66, -85, 14, 1, -2, -1, 16, 71, 33, -19, -14, 5, -43, 79], "withholdReward": false, "trial_id": "mdp_trial_17", "block": "test", "trialIndex": 18, "score": 25.95, "costs": -15.05, "simulationMode": [null, null, null, null, null, null], "rewards": [-1, -1, 5, 13, 25], "path": ["0", "0", "12", "13", "14", "15", "18"], "rt": [25931, 961, 1741, 977, 513, 175], "actions": ["right", "right", "right", "right", "up", "left"], "actionTimes": [41667, 42647, 45180, 46767, 47906, 48700], "queries": {"click": {"state": {"target": ["21", "22", "20", "17", "16", "18", "10"], "time": [17861, 21660, 25111, 28749, 32354, 35800, 38922]}, "edge": {"target": [], "time": []}}, "mouseover": {"state": {"target": ["19", "21", "22", "19", "20", "17", "16", "18", "12", "1", "10"], "time": [17232, 17480, 18938, 22459, 23002, 26294, 30622, 33257, 37169, 38012, 38221]}, "edge": {"target": [], "time": []}}, "mouseout": {"state": {"target": ["0", "19", "21", "22", "19", "20", "17", "16", "18", "12", "1", "10", "18"], "time": [16906, 17282, 18699, 22429, 22861, 25261, 29060, 33173, 36978, 37373, 38198, 39862, 40202]}, "edge": {"target": [], "time": []}}}, "displayed_time": "49.30", "trialTime": 53271, "trial_type": "mouselab-mdp", "trial_index": 25, "time_elapsed": 1338063, "internal_node_id": "0.0-4.0-1.0-16.0"}}, {"uniqueid": "w29508735:a95795747", "current_trial": 26, "dateTime": 1691161968824, "trialdata": {"revealed_states": [], "clicked_states": [], "num_clicks_accrued": [0, 0, 0, 0, 0, 0, 0, 0, 0, 0, 0, 0, 0], "stateRewards": ["", 1, -4, 6, -3, 40, 76, -51, 5, -24, -63, 44, -2, -2, 8, 1, 76, -85, -58, 10, 59, 20, 11, -2, 3, -3, 3, -82, -10, 54, -7, -57, -6, -32], "withholdReward": false, "trial_id": "mdp_trial_18", "block": "test", "trialIndex": 19, "score": -80, "costs": 0, "simulationMode": [null, null, null, null, null], "rewards": [-2, -2, 8, 1, -85], "path": ["0", "0", "12", "13", "14", "15", "17"], "rt": [9053, 34, 500, 357, 914], "actions": ["right", "right", "right", "up", "right"], "actionTimes": [27219, 27955, 29046, 30054, 31678], "queries": {"click": {"state": {"target": [], "time": []}, "edge": {"target": [], "time": []}}, "mouseover": {"state": {"target": ["0", "22", "14", "20", "22"], "time": [23740, 24045, 24550, 24971, 26456]}, "edge": {"target": [], "time": []}}, "mouseout": {"state": {"target": ["18", "1", "0", "0", "0", "22", "14", "20", "22"], "time": [14390, 14763, 14963, 23452, 23793, 24209, 24771, 26440, 26544]}, "edge": {"target": [], "time": []}}}, "displayed_time": "32.35", "trialTime": 36940, "trial_type": "mouselab-mdp", "trial_index": 26, "time_elapsed": 1379550, "internal_node_id": "0.0-4.0-1.0-17.0"}}, {"uniqueid": "w29508735:a95795747", "current_trial": 27, "dateTime": 1691162014716, "trialdata": {"revealed_states": [], "clicked_states": ["5", "9", "11", "10", "27", "29"], "num_clicks_accrued": [0, 0, 0, 0, 0, 0, 0, 0, 0, 0, 0, 0, 0], "stateRewards": ["", -1, 3, -7, 16, -32, -74, -48, 2, 10, 15, -30, 1, 1, -2, 10, 12, -83, 67, 13, -66, 47, 65, -2, 4, 2, -14, -8, -57, 24, 9, 65, 12, 46], "withholdReward": false, "trial_id": "mdp_trial_19", "block": "test", "trialIndex": 20, "score": 1.1000000000000014, "costs": -12.9, "simulationMode": [null, null, null, null, null], "rewards": [-2, 4, 2, -14, 24], "path": ["0", "0", "23", "24", "25", "26", "29"], "rt": [26496, 777, 68, 246, 91], "actions": ["left", "left", "left", "up", "left"], "actionTimes": [31121, 32486, 33256, 34196, 35023], "queries": {"click": {"state": {"target": ["5", "9", "11", "10", "27", "29"], "time": [6419, 9807, 13614, 17159, 20955, 24547]}, "edge": {"target": [], "time": []}}, "mouseover": {"state": {"target": ["1", "2", "5", "9", "11", "8", "3", "10", "27", "29", "33", "31"], "time": [5477, 5629, 6029, 7915, 10878, 14546, 14728, 15337, 18758, 22284, 25600, 28637]}, "edge": {"target": [], "time": []}}, "mouseout": {"state": {"target": ["0", "1", "2", "5", "9", "11", "8", "3", "10", "27", "29", "33", "31"], "time": [1030, 5608, 5797, 7750, 10808, 14508, 14618, 15098, 18149, 21927, 25520, 28146, 28681]}, "edge": {"target": [], "time": []}}}, "displayed_time": "35.82", "trialTime": 41217, "trial_type": "mouselab-mdp", "trial_index": 27, "time_elapsed": 1425442, "internal_node_id": "0.0-4.0-1.0-18.0"}}, {"uniqueid": "w29508735:a95795747", "current_trial": 28, "dateTime": 1691162061714, "trialdata": {"revealed_states": [], "clicked_states": ["21", "22", "16", "18", "7", "1"], "num_clicks_accrued": [0, 0, 0, 0, 0, 0, 0, 0, 0, 0, 0, 0, 0], "stateRewards": ["", -2, -2, -3, -6, -15, -11, 41, -12, -63, -76, 2, -2, -3, 8, 9, -36, -2, -18, -16, -32, -85, -17, -2, 1, 5, -16, 82, 35, -88, -1, 80, -82, -20], "withholdReward": false, "trial_id": "mdp_trial_20", "block": "test", "trialIndex": 21, "score": 17.5, "costs": -10.5, "simulationMode": [null, null, null, null, null], "rewards": [-2, -2, -3, -6, 41], "path": ["0", "0", "1", "2", "3", "4", "7"], "rt": [24859, 598, 26, 645, 141], "actions": ["up", "up", "up", "right", "down"], "actionTimes": [29241, 30510, 31293, 32500, 33318], "queries": {"click": {"state": {"target": ["21", "22", "16", "18", "7", "1"], "time": [6487, 10188, 13744, 18106, 21727, 26598]}, "edge": {"target": [], "time": []}}, "mouseover": {"state": {"target": ["12", "21", "22", "16", "18", "7", "5", "2", "1"], "time": [5822, 6065, 7688, 11755, 14595, 18935, 22813, 25809, 26278]}, "edge": {"target": [], "time": []}}, "mouseout": {"state": {"target": ["12", "21", "22", "16", "18", "7", "5", "2", "1", "7", "3"], "time": [5877, 7467, 11433, 14444, 18918, 22087, 25601, 25963, 27010, 38359, 38646]}, "edge": {"target": [], "time": []}}}, "displayed_time": "34.05", "trialTime": 41210, "trial_type": "mouselab-mdp", "trial_index": 28, "time_elapsed": 1472439, "internal_node_id": "0.0-4.0-1.0-19.0"}}, {"uniqueid": "w29508735:a95795747", "current_trial": 29, "dateTime": 1691162087422, "trialdata": {"revealed_states": [], "clicked_states": ["11"], "num_clicks_accrued": [0, 0, 0, 0, 0, 0, 0, 0, 0, 0, 0, 0, 0], "stateRewards": ["", 2, 3, 6, -12, -29, 12, 87, 4, 35, -30, 67, 2, 3, -5, -9, 44, 69, -8, 1, 45, -8, 28, -2, -1, -8, 11, -12, -5, 81, 9, 87, 82, 88], "withholdReward": false, "trial_id": "mdp_trial_21", "block": "test", "trialIndex": 22, "score": 79.85, "costs": -2.15, "simulationMode": [null, null, null, null, null], "rewards": [2, 3, 6, 4, 67], "path": ["0", "0", "1", "2", "3", "8", "11"], "rt": [8779, 15, 17, 552, 47], "actions": ["up", "up", "up", "left", "left"], "actionTimes": [13775, 14517, 15365, 16733, 17385], "queries": {"click": {"state": {"target": ["11"], "time": [7233]}, "edge": {"target": [], "time": []}}, "mouseover": {"state": {"target": ["1", "11", "27", "0"], "time": [6050, 6492, 8310, 11368]}, "edge": {"target": [], "time": []}}, "mouseout": {"state": {"target": ["9", "10", "0", "1", "11", "27", "0"], "time": [518, 995, 1339, 6315, 8060, 10910, 11604]}, "edge": {"target": [], "time": []}}}, "displayed_time": "19.02", "trialTime": 20706, "trial_type": "mouselab-mdp", "trial_index": 29, "time_elapsed": 1498147, "internal_node_id": "0.0-4.0-1.0-20.0"}}, {"uniqueid": "w29508735:a95795747", "current_trial": 30, "dateTime": 1691162142504, "trialdata": {"revealed_states": [], "clicked_states": ["31", "33", "32", "29"], "num_clicks_accrued": [0, 0, 0, 0, 0, 0, 0, 0, 0, 0, 0, 0, 0], "stateRewards": ["", -1, 4, 3, 12, -27, 34, -33, 3, -63, 1, 6, 2, 2, -6, -11, -77, -85, 68, -6, 51, 81, -60, -2, -2, 1, 15, 20, 15, 68, -10, -14, 6, -4], "withholdReward": false, "trial_id": "mdp_trial_22", "block": "test", "trialIndex": 23, "score": 71.4, "costs": -8.6, "simulationMode": [null, null, null, null, null], "rewards": [-2, -2, 1, 15, 68], "path": ["0", "0", "23", "24", "25", "26", "29"], "rt": [34237, 505, 516, 223, 16], "actions": ["left", "left", "left", "up", "left"], "actionTimes": [39309, 40434, 41650, 42480, 43229], "queries": {"click": {"state": {"target": ["31", "33", "32", "29"], "time": [7116, 10657, 14142, 17870]}, "edge": {"target": [], "time": []}}, "mouseover": {"state": {"target": ["32", "31", "30", "33", "32", "29", "26", "28", "29"], "time": [6210, 6706, 8308, 8836, 11590, 15291, 18975, 19232, 38823]}, "edge": {"target": [], "time": []}}, "mouseout": {"state": {"target": ["0", "32", "31", "30", "33", "32", "29", "26", "28", "29"], "time": [5873, 6620, 8091, 8709, 11576, 14836, 18830, 19219, 38460, 48377]}, "edge": {"target": [], "time": []}}}, "displayed_time": "43.82", "trialTime": 50182, "trial_type": "mouselab-mdp", "trial_index": 30, "time_elapsed": 1553230, "internal_node_id": "0.0-4.0-1.0-21.0"}}, {"uniqueid": "w29508735:a95795747", "current_trial": 31, "dateTime": 1691162191431, "trialdata": {"revealed_states": [], "clicked_states": ["5", "6"], "num_clicks_accrued": [0, 0, 0, 0, 0, 0, 0, 0, 0, 0, 0, 0, 0], "stateRewards": ["", 1, 1, -5, 10, -31, 73, 14, -8, -23, 63, -70, -1, 2, 8, 7, 25, -59, 27, -10, -40, -71, -15, -2, 3, -8, -5, -19, 77, -34, 7, 67, 63, 19], "withholdReward": false, "trial_id": "mdp_trial_23", "block": "test", "trialIndex": 24, "score": 75.7, "costs": -4.3, "simulationMode": [null, null, null, null, null], "rewards": [1, 1, -5, 10, 73], "path": ["0", "0", "1", "2", "3", "4", "6"], "rt": [12787, 115, 224, 89, 171], "actions": ["up", "up", "up", "right", "right"], "actionTimes": [17207, 18033, 18930, 19685, 20553], "queries": {"click": {"state": {"target": ["5", "6"], "time": [6222, 10768]}, "edge": {"target": [], "time": []}}, "mouseover": {"state": {"target": ["1", "2", "5", "6", "9", "11", "2"], "time": [5276, 5490, 5942, 10248, 12449, 13118, 14552]}, "edge": {"target": [], "time": []}}, "mouseout": {"state": {"target": ["29", "26", "23", "1", "2", "5", "6", "9", "11", "2", "1", "7", "16", "18", "16", "15", "21"], "time": [742, 1025, 1110, 5451, 5769, 7023, 11703, 12820, 14428, 14862, 25924, 26220, 34029, 34770, 39393, 39541, 40032]}, "edge": {"target": [], "time": []}}}, "displayed_time": "21.23", "trialTime": 43980, "trial_type": "mouselab-mdp", "trial_index": 31, "time_elapsed": 1602157, "internal_node_id": "0.0-4.0-1.0-22.0"}}, {"uniqueid": "w29508735:a95795747", "current_trial": 32, "dateTime": 1691162233248, "trialdata": {"revealed_states": [], "clicked_states": ["22", "18", "17"], "num_clicks_accrued": [0, 0, 0, 0, 0, 0, 0, 0, 0, 0, 0, 0, 0], "stateRewards": ["", -2, -3, 8, -4, -30, 31, 69, 9, 66, 87, 64, -2, 2, 8, 5, 47, 16, -39, -8, -54, 51, -19, 1, -2, -2, -11, -25, -26, 43, -9, 19, -84, 86], "withholdReward": false, "trial_id": "mdp_trial_24", "block": "test", "trialIndex": 25, "score": 22.55, "costs": -6.449999999999999, "simulationMode": [null, null, null, null, null], "rewards": [-2, 2, 8, 5, 16], "path": ["0", "0", "12", "13", "14", "15", "17"], "rt": [16880, 694, 395, 101, 122], "actions": ["right", "right", "right", "up", "right"], "actionTimes": [24069, 25471, 26507, 27335, 28181], "queries": {"click": {"state": {"target": ["22", "18", "17"], "time": [9360, 13575, 17617]}, "edge": {"target": [], "time": []}}, "mouseover": {"state": {"target": ["21", "22", "13", "18", "15", "17", "16"], "time": [8427, 8924, 12720, 13119, 14945, 17039, 19279]}, "edge": {"target": [], "time": []}}, "mouseout": {"state": {"target": ["20", "28", "23", "21", "22", "13", "18", "15", "17", "16", "20", "19"], "time": [2764, 3172, 3315, 8724, 11656, 12948, 14879, 15239, 18679, 21498, 30313, 31702]}, "edge": {"target": [], "time": []}}}, "displayed_time": "28.84", "trialTime": 36214, "trial_type": "mouselab-mdp", "trial_index": 32, "time_elapsed": 1643974, "internal_node_id": "0.0-4.0-1.0-23.0"}}, {"uniqueid": "w29508735:a95795747", "current_trial": 33, "dateTime": 1691162264520, "trialdata": {"revealed_states": [], "clicked_states": ["9", "11"], "num_clicks_accrued": [0, 0, 0, 0, 0, 0, 0, 0, 0, 0, 0, 0, 0], "stateRewards": ["", 2, -4, -8, -15, 71, -43, -41, 7, -17, 20, 67, -1, -1, -4, 6, 37, -24, -47, 9, 34, 57, 45, 1, 2, -4, -5, -23, 88, -5, 13, -40, 43, 44], "withholdReward": false, "trial_id": "mdp_trial_25", "block": "test", "trialIndex": 26, "score": 59.7, "costs": -4.3, "simulationMode": [null, null, null, null, null], "rewards": [2, -4, -8, 7, 67], "path": ["0", "0", "1", "2", "3", "8", "11"], "rt": [12038, 154, 239, 352, 132], "actions": ["up", "up", "up", "left", "left"], "actionTimes": [17737, 18567, 19425, 20451, 21200], "queries": {"click": {"state": {"target": ["9", "11"], "time": [8001, 12478]}, "edge": {"target": [], "time": []}}, "mouseover": {"state": {"target": ["1", "9", "11", "27"], "time": [6850, 7393, 12135, 14075]}, "edge": {"target": [], "time": []}}, "mouseout": {"state": {"target": ["1", "9", "11", "27"], "time": [6983, 11926, 13641, 16189]}, "edge": {"target": [], "time": []}}}, "displayed_time": "21.85", "trialTime": 25603, "trial_type": "mouselab-mdp", "trial_index": 33, "time_elapsed": 1675246, "internal_node_id": "0.0-4.0-1.0-24.0"}}, {"uniqueid": "w29508735:a95795747", "current_trial": 34, "dateTime": 1691162296238, "trialdata": {"revealed_states": [], "clicked_states": ["7", "28"], "num_clicks_accrued": [0, 0, 0, 0, 0, 0, 0, 0, 0, 0, 0, 0, 0], "stateRewards": ["", -2, 1, -7, -8, -37, -76, -87, 11, 30, -63, 80, -1, 4, 2, -1, 42, 17, 52, -3, -75, -80, -68, 2, -3, -5, -15, -48, 82, 24, -7, 5, -22, -71], "withholdReward": false, "trial_id": "mdp_trial_26", "block": "test", "trialIndex": 27, "score": 56.7, "costs": -4.3, "simulationMode": [null, null, null, null, null], "rewards": [2, -3, -5, -15, 82], "path": ["0", "0", "23", "24", "25", "26", "28"], "rt": [15055, 32, 302, 278, 204], "actions": ["left", "left", "left", "up", "right"], "actionTimes": [20282, 21001, 21956, 22912, 23843], "queries": {"click": {"state": {"target": ["7", "28"], "time": [7886, 12727]}, "edge": {"target": [], "time": []}}, "mouseover": {"state": {"target": ["6", "5", "7", "2", "10", "28", "28"], "time": [6736, 6985, 7404, 9043, 9533, 11773, 12174]}, "edge": {"target": [], "time": []}}, "mouseout": {"state": {"target": ["0", "6", "5", "7", "2", "10", "28"], "time": [1503, 6972, 7085, 8802, 9427, 11586, 11985]}, "edge": {"target": [], "time": []}}}, "displayed_time": "24.43", "trialTime": 26518, "trial_type": "mouselab-mdp", "trial_index": 34, "time_elapsed": 1706963, "internal_node_id": "0.0-4.0-1.0-25.0"}}, {"uniqueid": "w29508735:a95795747", "current_trial": 35, "dateTime": 1691162336588, "trialdata": {"revealed_states": [], "clicked_states": ["21", "20", "22"], "num_clicks_accrued": [0, 0, 0, 0, 0, 0, 0, 0, 0, 0, 0, 0, 0], "stateRewards": ["", -1, 3, 8, 9, -53, 20, -84, 2, -28, -62, -31, -1, -2, -7, 2, 51, 58, 45, -4, -17, -41, 36, 2, -2, -7, -15, 29, -54, -37, -16, -43, 65, -17], "withholdReward": false, "trial_id": "mdp_trial_27", "block": "test", "trialIndex": 28, "score": 15.55, "costs": -6.449999999999999, "simulationMode": [null, null, null, null, null], "rewards": [-1, -2, -7, -4, 36], "path": ["0", "0", "12", "13", "14", "19", "22"], "rt": [16576, 611, 374, 203, 61], "actions": ["right", "right", "right", "down", "left"], "actionTimes": [23167, 24440, 25563, 26431, 27260], "queries": {"click": {"state": {"target": ["21", "20", "22"], "time": [9177, 13001, 16691]}, "edge": {"target": [], "time": []}}, "mouseover": {"state": {"target": ["21", "20", "19", "22", "14", "15", "17", "14"], "time": [8458, 12557, 14090, 14574, 17770, 18042, 18324, 21320]}, "edge": {"target": [], "time": []}}, "mouseout": {"state": {"target": ["28", "1", "21", "20", "19", "22", "14", "15", "17"], "time": [1182, 1397, 12316, 13332, 14319, 17669, 17992, 18287, 20978]}, "edge": {"target": [], "time": []}}}, "displayed_time": "28.04", "trialTime": 34038, "trial_type": "mouselab-mdp", "trial_index": 35, "time_elapsed": 1747314, "internal_node_id": "0.0-4.0-1.0-26.0"}}, {"uniqueid": "w29508735:a95795747", "current_trial": 36, "dateTime": 1691162362786, "trialdata": {"revealed_states": [], "clicked_states": ["29"], "num_clicks_accrued": [0, 0, 0, 0, 0, 0, 0, 0, 0, 0, 0, 0, 0], "stateRewards": ["", 1, 2, -5, 14, 54, -14, -25, 16, -5, -87, 78, -1, 1, 3, -3, 52, 53, 53, -10, 73, -69, -48, 2, 3, 1, 8, -62, -7, 85, 7, 82, 52, -28], "withholdReward": false, "trial_id": "mdp_trial_28", "block": "test", "trialIndex": 29, "score": 96.85, "costs": -2.15, "simulationMode": [null, null, null, null, null], "rewards": [2, 3, 1, 8, 85], "path": ["0", "0", "23", "24", "25", "26", "29"], "rt": [9238, 115, 50, 42, 903], "actions": ["left", "left", "left", "up", "left"], "actionTimes": [14822, 15555, 16301, 17081, 18666], "queries": {"click": {"state": {"target": ["29"], "time": [8445]}, "edge": {"target": [], "time": []}}, "mouseover": {"state": {"target": ["26", "27", "29", "33"], "time": [6969, 7468, 8028, 9443]}, "edge": {"target": [], "time": []}}, "mouseout": {"state": {"target": ["14", "26", "27", "29"], "time": [1030, 7035, 7529, 8744]}, "edge": {"target": [], "time": []}}}, "displayed_time": "19.64", "trialTime": 20615, "trial_type": "mouselab-mdp", "trial_index": 36, "time_elapsed": 1773510, "internal_node_id": "0.0-4.0-1.0-27.0"}}, {"uniqueid": "w29508735:a95795747", "current_trial": 37, "dateTime": 1691162400745, "trialdata": {"revealed_states": [], "clicked_states": ["21"], "num_clicks_accrued": [0, 0, 0, 0, 0, 0, 0, 0, 0, 0, 0, 0, 0], "stateRewards": ["", -1, 3, -5, -2, -13, -9, -34, -7, -81, 32, 35, -2, -2, 1, -14, -32, 81, 7, 4, 82, 56, -8, -1, 3, -8, 6, -24, -24, -53, 2, 38, 61, 54], "withholdReward": false, "trial_id": "mdp_trial_29", "block": "test", "trialIndex": 30, "score": 54.85, "costs": -2.15, "simulationMode": [null, null, null, null, null], "rewards": [-2, -2, 1, 4, 56], "path": ["0", "0", "12", "13", "14", "19", "21"], "rt": [8488, 75, 605, 32, 244], "actions": ["right", "right", "right", "down", "down"], "actionTimes": [19489, 20197, 21478, 22268, 23241], "queries": {"click": {"state": {"target": ["21"], "time": [13096]}, "edge": {"target": [], "time": []}}, "mouseover": {"state": {"target": ["1", "19", "21"], "time": [12328, 12478, 12668]}, "edge": {"target": [], "time": []}}, "mouseout": {"state": {"target": ["33", "25", "1", "19", "21"], "time": [5372, 5677, 12418, 12596, 16857]}, "edge": {"target": [], "time": []}}}, "displayed_time": "25.00", "trialTime": 32705, "trial_type": "mouselab-mdp", "trial_index": 37, "time_elapsed": 1811471, "internal_node_id": "0.0-4.0-1.0-28.0"}}, {"uniqueid": "w29508735:a95795747", "current_trial": 38, "dateTime": 1691162459870, "trialdata": {"revealed_states": [], "clicked_states": ["11", "9", "5", "6", "7"], "num_clicks_accrued": [0, 0, 0, 0, 0, 0, 0, 0, 0, 0, 0, 0, 0], "stateRewards": ["", 2, 3, -1, 16, -78, -11, 46, 2, -20, 79, -67, 2, 3, 2, 11, -83, -42, -58, -11, -67, -22, 55, 2, -1, -1, -16, -83, -82, 23, -11, -29, 13, 13], "withholdReward": false, "trial_id": "mdp_trial_30", "block": "test", "trialIndex": 31, "score": 55.25, "costs": -10.75, "simulationMode": [null, null, null, null, null], "rewards": [2, 3, -1, 16, 46], "path": ["0", "0", "1", "2", "3", "4", "7"], "rt": [27712, 525, 123, 41, 20], "actions": ["up", "up", "up", "right", "down"], "actionTimes": [35396, 36647, 37338, 38127, 38807], "queries": {"click": {"state": {"target": ["11", "9", "5", "6", "7"], "time": [10368, 15133, 18752, 24558, 28801]}, "edge": {"target": [], "time": []}}, "mouseover": {"state": {"target": ["3", "11", "9", "5", "6", "7", "16"], "time": [9441, 9888, 14787, 17062, 24080, 28354, 29837]}, "edge": {"target": [], "time": []}}, "mouseout": {"state": {"target": ["22", "12", "0", "3", "11", "9", "5", "6", "7"], "time": [3352, 3501, 9102, 9544, 14263, 16872, 23480, 28076, 29564]}, "edge": {"target": [], "time": []}}}, "displayed_time": "39.44", "trialTime": 53942, "trial_type": "mouselab-mdp", "trial_index": 38, "time_elapsed": 1870595, "internal_node_id": "0.0-4.0-1.0-29.0"}}, {"uniqueid": "w29508735:a95795747", "current_trial": 39, "dateTime": 1691162489357, "trialdata": {"revealed_states": [], "clicked_states": ["20"], "num_clicks_accrued": [0, 0, 0, 0, 0, 0, 0, 0, 0, 0, 0, 0, 0], "stateRewards": ["", -1, 3, 1, -7, 56, 76, 57, 3, 11, -9, 14, 1, -2, 2, 8, -77, -3, 79, -5, 88, 24, -66, -2, -1, 7, -7, -30, 14, -76, 11, -36, 28, -6], "withholdReward": false, "trial_id": "mdp_trial_31", "block": "test", "trialIndex": 32, "score": 81.85, "costs": -2.15, "simulationMode": [null, null, null, null, null], "rewards": [1, -2, 2, -5, 88], "path": ["0", "0", "12", "13", "14", "19", "20"], "rt": [8444, 549, 205, 369, 170], "actions": ["right", "right", "right", "down", "right"], "actionTimes": [13717, 15039, 15870, 16848, 17775], "queries": {"click": {"state": {"target": ["20"], "time": [7274]}, "edge": {"target": [], "time": []}}, "mouseover": {"state": {"target": ["12", "20"], "time": [6440, 6870]}, "edge": {"target": [], "time": []}}, "mouseout": {"state": {"target": ["20", "12", "28", "0", "12"], "time": [780, 958, 1178, 6335, 6546]}, "edge": {"target": [], "time": []}}}, "displayed_time": "19.27", "trialTime": 23127, "trial_type": "mouselab-mdp", "trial_index": 39, "time_elapsed": 1900082, "internal_node_id": "0.0-4.0-1.0-30.0"}}, {"uniqueid": "w29508735:a95795747", "current_trial": 40, "dateTime": 1691162526700, "trialdata": {"revealed_states": [], "clicked_states": ["32", "33", "29"], "num_clicks_accrued": [0, 0, 0, 0, 0, 0, 0, 0, 0, 0, 0, 0, 0], "stateRewards": ["", -1, 3, 1, -11, -22, -36, 19, -5, -70, -52, 50, -2, -4, 4, -2, -41, -83, 29, -2, 22, 10, -6, -2, 3, -2, 14, 54, 44, 77, -9, -65, -37, -40], "withholdReward": false, "trial_id": "mdp_trial_32", "block": "test", "trialIndex": 33, "score": 83.55, "costs": -6.449999999999999, "simulationMode": [null, null, null, null, null], "rewards": [-2, 3, -2, 14, 77], "path": ["0", "0", "23", "24", "25", "26", "29"], "rt": [16501, 601, 256, 183, 182], "actions": ["left", "left", "left", "up", "left"], "actionTimes": [25767, 27080, 28067, 28899, 29771], "queries": {"click": {"state": {"target": ["32", "33", "29"], "time": [11758, 15355, 19043]}, "edge": {"target": [], "time": []}}, "mouseover": {"state": {"target": ["23", "33", "32", "33", "29", "27"], "time": [10682, 10804, 11510, 13140, 16658, 20260]}, "edge": {"target": [], "time": []}}, "mouseout": {"state": {"target": ["20", "19", "21", "0", "23", "33", "32", "33", "29"], "time": [4881, 5025, 5275, 5459, 10784, 11077, 12878, 15705, 19345]}, "edge": {"target": [], "time": []}}}, "displayed_time": "30.45", "trialTime": 31698, "trial_type": "mouselab-mdp", "trial_index": 40, "time_elapsed": 1937425, "internal_node_id": "0.0-4.0-1.0-31.0"}}, {"uniqueid": "w29508735:a95795747", "current_trial": 41, "dateTime": 1691162567401, "trialdata": {"revealed_states": [], "clicked_states": ["9", "5", "11"], "num_clicks_accrued": [0, 0, 0, 0, 0, 0, 0, 0, 0, 0, 0, 0, 0], "stateRewards": ["", -1, 1, 3, -8, -23, -15, -14, -11, -23, 58, 68, 1, 3, 5, 12, -17, -41, -7, -10, -4, 82, 10, 1, 4, -4, 11, 73, 55, -55, -1, -86, -86, 54], "withholdReward": false, "trial_id": "mdp_trial_33", "block": "test", "trialIndex": 34, "score": 53.55, "costs": -6.449999999999999, "simulationMode": [null, null, null, null, null], "rewards": [-1, 1, 3, -11, 68], "path": ["0", "0", "1", "2", "3", "8", "11"], "rt": [16231, 19, 190, 37, 33], "actions": ["up", "up", "up", "left", "left"], "actionTimes": [22868, 23674, 24604, 25357, 26122], "queries": {"click": {"state": {"target": ["9", "5", "11"], "time": [8816, 12719, 16303]}, "edge": {"target": [], "time": []}}, "mouseover": {"state": {"target": ["11", "9", "5", "11", "6", "2"], "time": [7782, 8362, 10112, 13882, 17583, 20213]}, "edge": {"target": [], "time": []}}, "mouseout": {"state": {"target": ["27", "13", "11", "9", "5", "11", "6"], "time": [2571, 2939, 7994, 9769, 13593, 17066, 20072]}, "edge": {"target": [], "time": []}}}, "displayed_time": "26.77", "trialTime": 35012, "trial_type": "mouselab-mdp", "trial_index": 41, "time_elapsed": 1978127, "internal_node_id": "0.0-4.0-1.0-32.0"}}, {"uniqueid": "w29508735:a95795747", "current_trial": 42, "dateTime": 1691162593907, "trialdata": {"revealed_states": [], "clicked_states": ["32"], "num_clicks_accrued": [0, 0, 0, 0, 0, 0, 0, 0, 0, 0, 0, 0, 0], "stateRewards": ["", 1, 4, 7, -16, -84, -6, -46, -12, -7, -49, -26, -1, 2, -4, 2, 22, 37, -64, 1, 88, -13, -10, 1, -4, -2, 5, 2, -10, -34, 9, 66, 55, 38], "withholdReward": false, "trial_id": "mdp_trial_34", "block": "test", "trialIndex": 35, "score": 56.85, "costs": -2.15, "simulationMode": [null, null, null, null, null], "rewards": [1, -4, -2, 9, 55], "path": ["0", "0", "23", "24", "25", "30", "32"], "rt": [8845, 75, 160, 743, 149], "actions": ["left", "left", "left", "down", "down"], "actionTimes": [14776, 15468, 16278, 17716, 18509], "queries": {"click": {"state": {"target": ["32"], "time": [8470]}, "edge": {"target": [], "time": []}}, "mouseover": {"state": {"target": ["32", "31"], "time": [7950, 9575]}, "edge": {"target": [], "time": []}}, "mouseout": {"state": {"target": ["1", "32"], "time": [1529, 9163]}, "edge": {"target": [], "time": []}}}, "displayed_time": "19.93", "trialTime": 21779, "trial_type": "mouselab-mdp", "trial_index": 42, "time_elapsed": 2004633, "internal_node_id": "0.0-4.0-1.0-33.0"}}, {"uniqueid": "w29508735:a95795747", "current_trial": 43, "dateTime": 1691162623887, "trialdata": {"revealed_states": [], "clicked_states": ["5"], "num_clicks_accrued": [0, 0, 0, 0, 0, 0, 0, 0, 0, 0, 0, 0, 0], "stateRewards": ["", -2, -1, -2, -15, 87, 57, 29, -10, 77, -80, -7, 1, -3, 6, 14, -11, 87, -59, 4, -71, 16, -11, 2, 2, -7, 2, -47, 61, 50, 14, -20, 17, 81], "withholdReward": false, "trial_id": "mdp_trial_35", "block": "test", "trialIndex": 36, "score": 64.85, "costs": -2.15, "simulationMode": [null, null, null, null, null], "rewards": [-2, -1, -2, -15, 87], "path": ["0", "0", "1", "2", "3", "4", "5"], "rt": [8703, 611, 145, 225, 38], "actions": ["up", "up", "up", "right", "up"], "actionTimes": [13744, 14940, 15768, 16608, 17491], "queries": {"click": {"state": {"target": ["5"], "time": [7360]}, "edge": {"target": [], "time": []}}, "mouseover": {"state": {"target": ["12", "5", "5", "6"], "time": [6313, 6591, 7000, 11051]}, "edge": {"target": [], "time": []}}, "mouseout": {"state": {"target": ["31", "25", "23", "0", "12", "5", "5", "6"], "time": [310, 499, 749, 5382, 6474, 6708, 9250, 11227]}, "edge": {"target": [], "time": []}}}, "displayed_time": "19.05", "trialTime": 24358, "trial_type": "mouselab-mdp", "trial_index": 43, "time_elapsed": 2034612, "internal_node_id": "0.0-4.0-1.0-34.0"}}, {"uniqueid": "w29508735:a95795747", "current_trial": 44, "dateTime": 1691162653941, "trialdata": {"revealed_states": [], "clicked_states": ["20", "22"], "num_clicks_accrued": [0, 0, 0, 0, 0, 0, 0, 0, 0, 0, 0, 0, 0], "stateRewards": ["", -1, 1, 8, -8, -49, 62, -78, 16, 28, -81, 78, -2, -3, -1, -4, 67, 49, -2, -13, -16, -39, 83, 1, -4, 4, -5, -20, 7, 84, 7, -32, -59, 19], "withholdReward": false, "trial_id": "mdp_trial_36", "block": "test", "trialIndex": 37, "score": 59.7, "costs": -4.3, "simulationMode": [null, null, null, null, null], "rewards": [-2, -3, -1, -13, 83], "path": ["0", "0", "12", "13", "14", "19", "22"], "rt": [12728, 13, 1276, 32, 326], "actions": ["right", "right", "right", "down", "left"], "actionTimes": [17694, 18443, 20369, 21135, 22127], "queries": {"click": {"state": {"target": ["20", "22"], "time": [6713, 11294]}, "edge": {"target": [], "time": []}}, "mouseover": {"state": {"target": ["20", "19", "22", "21"], "time": [6529, 10462, 10973, 12702]}, "edge": {"target": [], "time": []}}, "mouseout": {"state": {"target": ["0", "20", "19", "22"], "time": [931, 6948, 10518, 11424]}, "edge": {"target": [], "time": []}}}, "displayed_time": "22.82", "trialTime": 24275, "trial_type": "mouselab-mdp", "trial_index": 44, "time_elapsed": 2064667, "internal_node_id": "0.0-4.0-1.0-35.0"}}, {"uniqueid": "w29508735:a95795747", "current_trial": 45, "dateTime": 1691162682668, "trialdata": {"revealed_states": [], "clicked_states": ["6"], "num_clicks_accrued": [0, 0, 0, 0, 0, 0, 0, 0, 0, 0, 0, 0, 0], "stateRewards": ["", 1, -3, 4, 13, -72, 52, 5, 5, -58, 5, 14, 2, 1, 3, -14, -86, -4, 73, 6, -58, -50, 49, 2, -3, -4, 2, 33, -41, 42, -11, 81, 45, 53], "withholdReward": false, "trial_id": "mdp_trial_37", "block": "test", "trialIndex": 38, "score": 64.85, "costs": -2.15, "simulationMode": [null, null, null, null, null], "rewards": [1, -3, 4, 13, 52], "path": ["0", "0", "1", "2", "3", "4", "6"], "rt": [8823, 493, 32, 166, 97], "actions": ["up", "up", "up", "right", "right"], "actionTimes": [15609, 16952, 17719, 18527, 19340], "queries": {"click": {"state": {"target": ["6"], "time": [9227]}, "edge": {"target": [], "time": []}}, "mouseover": {"state": {"target": ["6", "5"], "time": [8797, 10768]}, "edge": {"target": [], "time": []}}, "mouseout": {"state": {"target": ["21", "22", "0", "6"], "time": [769, 1208, 1868, 10363]}, "edge": {"target": [], "time": []}}}, "displayed_time": "20.79", "trialTime": 22499, "trial_type": "mouselab-mdp", "trial_index": 45, "time_elapsed": 2093394, "internal_node_id": "0.0-4.0-1.0-36.0"}}, {"uniqueid": "w29508735:a95795747", "current_trial": 46, "dateTime": 1691162714583, "trialdata": {"revealed_states": [], "clicked_states": [], "num_clicks_accrued": [0, 0, 0, 0, 0, 0, 0, 0, 0, 0, 0, 0, 0], "stateRewards": ["", 2, 4, 4, -8, -36, -33, 38, 16, -51, 57, 57, 1, 3, 4, -6, 45, 68, 87, 1, 63, 24, -55, -2, 2, -6, -13, -63, -50, 8, 2, 80, 6, 60], "withholdReward": false, "trial_id": "mdp_trial_38", "block": "test", "trialIndex": 39, "score": -46, "costs": 0, "simulationMode": [null, null, null, null, null], "rewards": [1, 3, 4, 1, -55], "path": ["0", "0", "12", "13", "14", "19", "22"], "rt": [7854, 162, 150, 793, 694], "actions": ["right", "right", "right", "down", "left"], "actionTimes": [13694, 14544, 15461, 17137, 18638], "queries": {"click": {"state": {"target": [], "time": []}, "edge": {"target": [], "time": []}}, "mouseover": {"state": {"target": ["21", "12", "21", "22"], "time": [8611, 11965, 12694, 13063]}, "edge": {"target": [], "time": []}}, "mouseout": {"state": {"target": ["5", "1", "21", "12", "21"], "time": [473, 1488, 11304, 12310, 12875]}, "edge": {"target": [], "time": []}}}, "displayed_time": "19.84", "trialTime": 24726, "trial_type": "mouselab-mdp", "trial_index": 46, "time_elapsed": 2125307, "internal_node_id": "0.0-4.0-1.0-37.0"}}, {"uniqueid": "w29508735:a95795747", "current_trial": 47, "dateTime": 1691162751529, "trialdata": {"revealed_states": [], "clicked_states": ["9", "11"], "num_clicks_accrued": [0, 0, 0, 0, 0, 0, 0, 0, 0, 0, 0, 0, 0], "stateRewards": ["", -1, 3, -4, -14, 78, 67, 2, 13, -32, 28, 39, -2, 1, -4, -4, -4, -42, -86, 11, 64, -29, -32, -1, -4, 2, -7, 5, 68, -61, 2, -21, 85, 50], "withholdReward": false, "trial_id": "mdp_trial_39", "block": "test", "trialIndex": 40, "score": 45.7, "costs": -4.3, "simulationMode": [null, null, null, null, null], "rewards": [-1, 3, -4, 13, 39], "path": ["0", "0", "1", "2", "3", "8", "11"], "rt": [12640, 62, 167, 137, 255], "actions": ["up", "up", "up", "left", "left"], "actionTimes": [18982, 19957, 20930, 21821, 22790], "queries": {"click": {"state": {"target": ["9", "11"], "time": [8959, 12409]}, "edge": {"target": [], "time": []}}, "mouseover": {"state": {"target": ["2", "9", "11", "10"], "time": [7774, 8135, 10820, 13433]}, "edge": {"target": [], "time": []}}, "mouseout": {"state": {"target": ["2", "9", "11"], "time": [7946, 10481, 12802]}, "edge": {"target": [], "time": []}}}, "displayed_time": "23.70", "trialTime": 29095, "trial_type": "mouselab-mdp", "trial_index": 47, "time_elapsed": 2162255, "internal_node_id": "0.0-4.0-1.0-38.0"}}, {"uniqueid": "w29508735:a95795747", "current_trial": 48, "dateTime": 1691162801493, "trialdata": {"revealed_states": [], "clicked_states": ["20", "21", "22"], "num_clicks_accrued": [0, 0, 0, 0, 0, 0, 0, 0, 0, 0, 0, 0, 0], "stateRewards": ["", -1, -3, -5, -14, -13, -47, 79, 8, -60, -64, 41, -1, 2, 3, 13, -46, 61, -79, -11, -64, -65, 23, 1, -2, 6, -14, 46, 32, 21, 7, 75, -66, 15], "withholdReward": false, "trial_id": "mdp_trial_40", "block": "test", "trialIndex": 41, "score": 9.55, "costs": -6.449999999999999, "simulationMode": [null, null, null, null, null], "rewards": [-1, 2, 3, -11, 23], "path": ["0", "0", "12", "13", "14", "19", "22"], "rt": [17114, 37, 425, 37, 72], "actions": ["right", "right", "right", "down", "left"], "actionTimes": [23208, 24047, 25208, 26132, 27049], "queries": {"click": {"state": {"target": ["20", "21", "22"], "time": [8150, 12451, 16421]}, "edge": {"target": [], "time": []}}, "mouseover": {"state": {"target": ["20", "21", "22", "17", "14"], "time": [7711, 10253, 13516, 20276, 20901]}, "edge": {"target": [], "time": []}}, "mouseout": {"state": {"target": ["10", "20", "21", "22", "17"], "time": [430, 10061, 13489, 18229, 20533]}, "edge": {"target": [], "time": []}}}, "displayed_time": "27.79", "trialTime": 41998, "trial_type": "mouselab-mdp", "trial_index": 48, "time_elapsed": 2212219, "internal_node_id": "0.0-4.0-1.0-39.0"}}, {"uniqueid": "w29508735:a95795747", "current_trial": 49, "dateTime": 1691162868790, "trialdata": {"rt": 67232, "response": {"Q0": "$-2 to $2", "Q1": "$-16 to $16", "Q2": "$-32 to $32", "Q3": "The cost for clicking on nodes varied between nodes.", "Q4": "Very motivated"}, "question_order": [0, 1, 2, 3, 4], "trial_id": "final_quiz_control", "trial_type": "survey-multi-choice", "trial_index": 49, "time_elapsed": 2279516, "internal_node_id": "0.0-4.0-2.0"}}, {"uniqueid": "w29508735:a95795747", "current_trial": 50, "dateTime": 1691162931373, "trialdata": {"rt": 62292, "response": {"Q0": "TO LOOK FOR HIGHEST VALUE BEFORE TIME RAN OUT.", "Q1": "YES  THINKING FAST", "Q2": "A BIT DIFFICULT"}, "trial_id": "self_report_control", "trial_type": "survey-text", "trial_index": 50, "time_elapsed": 2342100, "internal_node_id": "0.0-4.0-3.0"}}, {"uniqueid": "w29508735:a95795747", "current_trial": 51, "dateTime": 1691162983532, "trialdata": {"rt": 52129, "response": {"Q0": "Agree", "Q1": "Neither disagree nor agree", "Q2": "Neither disagree nor agree", "Q3": "Agree", "Q4": "Agree", "Q5": "Strongly agree", "Q6": "Strongly disagree"}, "question_order": [0, 1, 2, 3, 4, 5, 6], "trial_id": "self_report_2", "trial_type": "survey-multi-choice", "trial_index": 51, "time_elapsed": 2394258, "internal_node_id": "0.0-4.0-4.0"}}, {"uniqueid": "w29508735:a95795747", "current_trial": 52, "dateTime": 1691163019380, "trialdata": {"rt": 35714, "response": {"gender": "male", "age": "22", "colorblind": "0", "effort": "0"}, "trial_type": "survey-html-form", "trial_index": 52, "time_elapsed": 2430106, "internal_node_id": "0.0-4.0-5.0"}}, {"uniqueid": "w29508735:a95795747", "current_trial": 53, "dateTime": 1691163042600, "trialdata": {"rt": 23163, "response": {"Q0": "NO", "Q1": "NO", "Q2": ""}, "trial_type": "survey-text", "trial_index": 53, "time_elapsed": 2453326, "internal_node_id": "0.0-4.0-6.0"}}, {"uniqueid": "w29508735:a95795747", "current_trial": 54, "dateTime": 1691163044602, "trialdata": {"rt": 1976, "stimulus": "Press 'Finish HIT' in order to reach the completion code. Once the data has been saved, you will receive the code either in this window or in the original browser window where you started the experiment.\n", "response": 0, "trial_type": "html-button-response", "trial_index": 54, "time_elapsed": 2455329, "internal_node_id": "0.0-5.0"}}, {"uniqueid": "w29508735:a95795747", "current_trial": 55, "dateTime": 1691163045865, "trialdata": {"success": true, "trial_type": "fullscreen", "trial_index": 55, "time_elapsed": 2456592, "internal_node_id": "0.0-6.0"}}], "questiondata": {"params": {"CODE": "C6DMOQA6", "MIN_TIME": 14, "inspectCost": 1, "startTime": "Fri Aug 04 2023 16:49:43 GMT+0200 (Central Africa Time)", "bonusRate": 0.002, "variance": "1_2_4_8_44", "branching": "31123"}, "final_score": 1518.95}, "eventdata": [{"eventtype": "initialized", "value": null, "timestamp": 1691160582237, "interval": 0}, {"eventtype": "window_resize", "value": [1031, 709], "timestamp": 1691160582238, "interval": 1}, {"eventtype": "window_resize", "value": [1031, 709], "timestamp": 1691160583228, "interval": 990}, {"eventtype": "window_resize", "value": [1384, 779], "timestamp": 1691160597518, "interval": 14290}], "useragent": "Mozilla/5.0 (Windows NT 10.0; Win64; x64) AppleWebKit/537.36 (KHTML, like Gecko) Chrome/115.0.0.0 Safari/537.36", "mode": "live", "id": "w29508735:a95795747", "status": "user data saved", "Beginhit": "2023-08-04 14:49:33.481477", "Beginexp": "2023-08-04 14:49:59.58024", "Endhit": "2023-08-04 15:31:06.127579", "psiturkStatus": 3, "browser": "<redacted>", "platform": "windows", "language": "en-ZA"}