{"condition": 0, "counterbalance": 0, "assignmentId": "a26750992", "workerId": "w78756345", "hitId": "h51886153", "currenttrial": 61, "bonus": 0, "data": [{"uniqueid": "w78756345:a26750992", "current_trial": 0, "dateTime": 1691141802667, "trialdata": {"success": true, "trial_type": "fullscreen", "trial_index": 0, "time_elapsed": 3695, "internal_node_id": "0.0-0.0"}}, {"uniqueid": "w78756345:a26750992", "current_trial": 1, "dateTime": 1691141826852, "trialdata": {"view_history": [{"page_index": 0, "viewing_time": 24157}], "rt": 24159, "trial_id": "exp_instructions_control", "trial_type": "instructions", "trial_index": 1, "time_elapsed": 27881, "internal_node_id": "0.0-1.0"}}, {"uniqueid": "w78756345:a26750992", "current_trial": 2, "dateTime": 1691141849846, "trialdata": {"success": true, "trial_type": "fullscreen", "trial_index": 2, "time_elapsed": 50874, "internal_node_id": "0.0-2.0-0.0"}}, {"uniqueid": "w78756345:a26750992", "current_trial": 3, "dateTime": 1691141934984, "trialdata": {"view_history": [{"page_index": 0, "viewing_time": 32620}, {"page_index": 1, "viewing_time": 34288}, {"page_index": 2, "viewing_time": 9210}, {"page_index": 3, "viewing_time": 9010}], "rt": 85129, "trial_id": "mouselab_instructions_1_control", "trial_type": "instructions", "trial_index": 3, "time_elapsed": 136013, "internal_node_id": "0.0-2.0-1.0"}}, {"uniqueid": "w78756345:a26750992", "current_trial": 4, "dateTime": 1691142020749, "trialdata": {"revealed_states": [], "clicked_states": ["1", "2", "7", "4", "5", "23", "12", "13", "25", "9", "8", "14", "19", "21", "30", "32", "26", "29", "24"], "num_clicks_accrued": [0, 0, 0, 0, 0, 0, 0, 0, 0, 0, 0, 0, 0], "stateRewards": ["", 10, 10, 10, 10, 10, 10, 10, 10, -10, -10, -10, -10, -10, -10, 10, 10, 10, 10, 10, -10, -10, -10, -10, 10, 10, -10, -10, -10, 10, 10, 10, -10, 10], "withholdReward": false, "trial_id": "practice_1", "block": "test", "trialIndex": 0, "score": -36, "costs": -9.5, "simulationMode": [null, null, null, null, null], "rewards": [-10, -10, -10, 10, -10], "path": ["0", "0", "12", "13", "14", "19", "21"], "rt": [73810, 464, 203, 202, 251], "actions": ["right", "right", "right", "down", "down"], "actionTimes": [78540, 79504, 80208, 80910, 81658], "queries": {"click": {"state": {"target": ["1", "2", "7", "4", "5", "23", "12", "13", "25", "9", "8", "14", "19", "21", "30", "32", "26", "29", "24"], "time": [9523, 12107, 13427, 16741, 19990, 26490, 28046, 29915, 34867, 36425, 37460, 45179, 46581, 48039, 49919, 51111, 55418, 56442, 62541]}, "edge": {"target": [], "time": []}}, "mouseover": {"state": {"target": ["1", "2", "7", "6", "4", "1", "7", "5", "4", "7", "23", "0", "12", "12", "13", "14", "14", "13", "23", "24", "25", "24", "10", "8", "9", "8", "2", "13", "22", "1", "1", "0", "0", "1", "18", "14", "19", "21", "31", "30", "32", "28", "26", "29", "24", "23", "24", "12"], "time": [8714, 11491, 13088, 15985, 16024, 17476, 19353, 19630, 21771, 21862, 25822, 27343, 27377, 27590, 29623, 30659, 33259, 34001, 34052, 34098, 34418, 35531, 35781, 35861, 36107, 37079, 38381, 38648, 38695, 40196, 42833, 42897, 43952, 44051, 44323, 44697, 46201, 47714, 49519, 49567, 50702, 54950, 55052, 56157, 57803, 62042, 62183, 76986]}, "edge": {"target": [], "time": []}}, "mouseout": {"state": {"target": ["12", "1", "0", "0", "1", "2", "7", "6", "4", "1", "7", "4", "5", "4", "7", "23", "0", "12", "12", "13", "14", "14", "13", "23", "24", "25", "24", "10", "8", "9", "8", "2", "13", "22", "1", "1", "0", "0", "1", "18", "14", "14", "19", "21", "31", "30", "32", "28", "26", "29", "29", "24", "23", "24", "24", "12"], "time": [682, 2500, 2906, 3649, 11349, 13035, 14701, 16008, 17171, 17515, 19388, 19424, 21720, 21805, 21885, 26674, 27360, 27394, 28975, 30583, 32481, 33980, 34045, 34066, 34257, 35514, 35549, 35821, 35927, 36978, 38330, 38399, 38682, 38744, 40229, 42855, 42931, 44014, 44097, 44382, 45338, 46106, 47518, 48207, 49545, 50638, 52284, 54976, 55578, 56628, 57738, 57837, 62080, 62738, 63115, 77051]}, "edge": {"target": [], "time": []}}}, "displayed_time": "82.16", "trialTime": 84676, "trial_type": "mouselab-mdp", "trial_index": 4, "time_elapsed": 221775, "internal_node_id": "0.0-2.0-2.0-0.0"}}, {"uniqueid": "w78756345:a26750992", "current_trial": 5, "dateTime": 1691142052402, "trialdata": {"revealed_states": [], "clicked_states": ["1", "23"], "num_clicks_accrued": [0, 0, 0, 0, 0, 0, 0, 0, 0, 0, 0, 0, 0], "stateRewards": ["", -10, 10, -10, -10, -10, 10, -10, -10, 10, 10, 10, 10, -10, 10, -10, 10, -10, 10, -10, -10, -10, 10, 10, -10, -10, 10, 10, -10, -10, 10, 10, -10, -10], "withholdReward": false, "trial_id": "practice_2", "block": "test", "trialIndex": 1, "score": -7.5, "costs": -1, "simulationMode": [null, null, null, null, null], "rewards": [10, -10, -10, 10, -10], "path": ["0", "0", "23", "24", "25", "30", "32"], "rt": [7877, 4254, 4281, 6264, 167], "actions": ["left", "left", "left", "down", "down"], "actionTimes": [10161, 14914, 19694, 26461, 27134], "queries": {"click": {"state": {"target": ["1", "23"], "time": [5433, 7204]}, "edge": {"target": [], "time": []}}, "mouseover": {"state": {"target": ["1", "23", "0", "12", "12", "15"], "time": [3285, 6145, 7611, 7647, 7923, 9488]}, "edge": {"target": [], "time": []}}, "mouseout": {"state": {"target": ["0", "1", "23", "0", "12", "12", "15", "1", "24", "7", "7", "2", "31", "30", "30", "24", "2", "8", "11", "28", "0"], "time": [3017, 6005, 7589, 7628, 7690, 9404, 9522, 11269, 14230, 14291, 20792, 20831, 21111, 21160, 23316, 23396, 24025, 24406, 24492, 29921, 30583]}, "edge": {"target": [], "time": []}}}, "displayed_time": "27.63", "trialTime": 30975, "trial_type": "mouselab-mdp", "trial_index": 5, "time_elapsed": 253429, "internal_node_id": "0.0-2.0-2.0-1.0"}}, {"uniqueid": "w78756345:a26750992", "current_trial": 6, "dateTime": 1691142068461, "trialdata": {"view_history": [{"page_index": 0, "viewing_time": 10167}, {"page_index": 1, "viewing_time": 5877}], "rt": 16046, "trial_id": "mouselab_instructions_2_control", "trial_type": "instructions", "trial_index": 6, "time_elapsed": 269489, "internal_node_id": "0.0-2.0-3.0"}}, {"uniqueid": "w78756345:a26750992", "current_trial": 7, "dateTime": 1691142105191, "trialdata": {"rt": 36711, "response": {"Q0": "The cost is always $2.", "Q1": "The better I perform the higher my bonus will be.", "Q2": "No, the amount of cash at each node of the web may be different each time.", "Q3": "To get the highest total score.", "Q4": "Only before moving the spider.", "Q5": "10 seconds"}, "question_order": [0, 1, 2, 3, 4, 5], "correct": {"Q0": "The cost for clicking on nodes may vary between nodes.", "Q1": "The better I perform the higher my bonus will be.", "Q2": "No, the amount of cash at each node of the web may be different each time.", "Q3": "To get the highest total score.", "Q4": "Only before moving the spider.", "Q5": "3 seconds"}, "trial_id": "mouselab_quiz_control", "trial_type": "survey-multi-choice", "trial_index": 7, "time_elapsed": 306220, "internal_node_id": "0.0-2.0-4.0"}}, {"uniqueid": "w78756345:a26750992", "current_trial": 8, "dateTime": 1691142111515, "trialdata": {"success": true, "trial_type": "fullscreen", "trial_index": 8, "time_elapsed": 312544, "internal_node_id": "0.0-2.1-0.1"}}, {"uniqueid": "w78756345:a26750992", "current_trial": 9, "dateTime": 1691142202034, "trialdata": {"view_history": [{"page_index": 0, "viewing_time": 29073}, {"page_index": 1, "viewing_time": 35505}, {"page_index": 2, "viewing_time": 9537}, {"page_index": 3, "viewing_time": 16397}], "rt": 90514, "trial_id": "mouselab_instructions_1_control", "trial_type": "instructions", "trial_index": 9, "time_elapsed": 403063, "internal_node_id": "0.0-2.1-1.1"}}, {"uniqueid": "w78756345:a26750992", "current_trial": 10, "dateTime": 1691142222840, "trialdata": {"revealed_states": [], "clicked_states": ["23", "24", "25", "26", "30", "31"], "num_clicks_accrued": [0, 0, 0, 0, 0, 0, 0, 0, 0, 0, 0, 0, 0], "stateRewards": ["", 10, 10, 10, 10, 10, 10, 10, 10, -10, -10, -10, -10, -10, -10, 10, 10, 10, 10, 10, -10, -10, -10, -10, 10, 10, -10, -10, -10, 10, 10, 10, -10, 10], "withholdReward": false, "trial_id": "practice_1", "block": "test", "trialIndex": 2, "score": 30.5, "costs": -3, "simulationMode": [null, null, null, null, null], "rewards": [-10, 10, 10, 10, 10], "path": ["0", "0", "23", "24", "25", "30", "31"], "rt": [13698, 129, 117, 105, 103], "actions": ["left", "left", "left", "down", "right"], "actionTimes": [15428, 16083, 16703, 17306, 17905], "queries": {"click": {"state": {"target": ["23", "24", "25", "26", "30", "31"], "time": [4706, 5897, 7230, 9291, 10750, 12536]}, "edge": {"target": [], "time": []}}, "mouseover": {"state": {"target": ["0", "23", "24", "25", "26", "30", "31"], "time": [4275, 4358, 5412, 6728, 8978, 10196, 12289]}, "edge": {"target": [], "time": []}}, "mouseout": {"state": {"target": ["0", "0", "23", "24", "25", "26", "25", "30", "31", "22"], "time": [2748, 4327, 5329, 6628, 8860, 9913, 9997, 12247, 13298, 19798]}, "edge": {"target": [], "time": []}}}, "displayed_time": "18.40", "trialTime": 20192, "trial_type": "mouselab-mdp", "trial_index": 10, "time_elapsed": 423867, "internal_node_id": "0.0-2.1-2.1-0.1"}}, {"uniqueid": "w78756345:a26750992", "current_trial": 11, "dateTime": 1691142260775, "trialdata": {"revealed_states": [], "clicked_states": ["1", "12", "13", "14", "15", "19", "24", "2", "3", "4", "8", "16"], "num_clicks_accrued": [0, 0, 0, 0, 0, 0, 0, 0, 0, 0, 0, 0, 0], "stateRewards": ["", -10, 10, -10, -10, -10, 10, -10, -10, 10, 10, 10, 10, -10, 10, -10, 10, -10, 10, -10, -10, -10, 10, 10, -10, -10, 10, 10, -10, -10, 10, 10, -10, -10], "withholdReward": false, "trial_id": "practice_2", "block": "test", "trialIndex": 3, "score": 7.5, "costs": -6, "simulationMode": [null, null, null, null, null], "rewards": [10, -10, 10, -10, 10], "path": ["0", "0", "12", "13", "14", "15", "16"], "rt": [29434, 417, 253, 202, 101], "actions": ["right", "right", "right", "up", "up"], "actionTimes": [31293, 32219, 32988, 33688, 34289], "queries": {"click": {"state": {"target": ["1", "12", "13", "14", "15", "19", "24", "2", "3", "4", "8", "16"], "time": [3429, 5550, 8493, 10922, 12982, 14519, 17163, 19305, 21998, 23875, 25583, 28938]}, "edge": {"target": [], "time": []}}, "mouseover": {"state": {"target": ["1", "1", "12", "0", "23", "0", "12", "0", "23", "0", "13", "13", "14", "15", "19", "12", "0", "23", "24", "1", "2", "3", "4", "8", "7", "18", "16"], "time": [2581, 3028, 3952, 4785, 4880, 5096, 5148, 5977, 6021, 7436, 7485, 8181, 10201, 12677, 13827, 16438, 16473, 16570, 16745, 18768, 19031, 21145, 23602, 25111, 27361, 28012, 28663]}, "edge": {"target": [], "time": []}}, "mouseout": {"state": {"target": ["17", "15", "13", "12", "0", "1", "1", "12", "0", "23", "0", "12", "0", "23", "0", "13", "12", "13", "14", "15", "14", "19", "12", "0", "23", "24", "1", "2", "3", "4", "3", "8", "7", "18", "16", "12"], "time": [690, 716, 786, 829, 2513, 2631, 3852, 4732, 4823, 5064, 5115, 5956, 5998, 7416, 7473, 7733, 7966, 9900, 12548, 13655, 13756, 16405, 16455, 16504, 16638, 18355, 18802, 21104, 23559, 24795, 24927, 27263, 27962, 28046, 35551, 35616]}, "edge": {"target": [], "time": []}}}, "displayed_time": "34.79", "trialTime": 37225, "trial_type": "mouselab-mdp", "trial_index": 11, "time_elapsed": 461802, "internal_node_id": "0.0-2.1-2.1-1.1"}}, {"uniqueid": "w78756345:a26750992", "current_trial": 12, "dateTime": 1691142273520, "trialdata": {"view_history": [{"page_index": 0, "viewing_time": 11267}, {"page_index": 1, "viewing_time": 1465}], "rt": 12733, "trial_id": "mouselab_instructions_2_control", "trial_type": "instructions", "trial_index": 12, "time_elapsed": 474549, "internal_node_id": "0.0-2.1-3.1"}}, {"uniqueid": "w78756345:a26750992", "current_trial": 13, "dateTime": 1691142305268, "trialdata": {"rt": 31733, "response": {"Q0": "The cost for clicking on nodes may vary between nodes.", "Q1": "The better I perform the higher my bonus will be.", "Q2": "No, the amount of cash at each node of the web may be different each time.", "Q3": "To get the highest total score.", "Q4": "Only before moving the spider.", "Q5": "3 seconds"}, "question_order": [0, 1, 2, 3, 4, 5], "correct": {"Q0": "The cost for clicking on nodes may vary between nodes.", "Q1": "The better I perform the higher my bonus will be.", "Q2": "No, the amount of cash at each node of the web may be different each time.", "Q3": "To get the highest total score.", "Q4": "Only before moving the spider.", "Q5": "3 seconds"}, "trial_id": "mouselab_quiz_control", "trial_type": "survey-multi-choice", "trial_index": 13, "time_elapsed": 506297, "internal_node_id": "0.0-2.1-4.1"}}, {"uniqueid": "w78756345:a26750992", "current_trial": 14, "dateTime": 1691142310457, "trialdata": {"rt": 5160, "stimulus": "\n<h1> Get ready to start the game! </h1>\n\nThank you for reading the instructions. Get ready start with the 40 rounds of this game.\n<br><br>\nIf you need to take a break, feel free to take one after the end of a round, before continuing to the next one.\n<br><br>\nRemember, the more money the spider gets, the bigger your bonus will be!\n<br><br>\n<div style='text-align: center;'>Press <code>space</code> to begin.</div>\n\n<br><br>\n(If, at any point, the <code>space</code> key does not take you to the next page, click once on the text and try again.)", "response": " ", "trial_id": "mdp_ready", "trial_type": "html-keyboard-response", "trial_index": 14, "time_elapsed": 511486, "internal_node_id": "0.0-4.0-0.0"}}, {"uniqueid": "w78756345:a26750992", "current_trial": 15, "dateTime": 1691142339977, "trialdata": {"revealed_states": [], "clicked_states": ["1", "2", "12", "23", "13", "14", "15", "16", "17"], "num_clicks_accrued": [0, 0, 0, 0, 0, 0, 0, 0, 0, 0, 0, 0, 0], "stateRewards": ["", -1, -2, 4, 9, 10, -75, 39, 16, -43, 88, -19, -1, 1, 2, 4, -31, 10, 73, 12, 41, -64, -81, -2, 2, -6, 1, -81, -1, -26, 3, -59, -3, -20], "withholdReward": false, "trial_id": "mdp_trial_1", "block": "test", "trialIndex": 4, "score": 3.3999999999999986, "costs": -12.600000000000001, "simulationMode": [null, null, null, null, null], "rewards": [-1, 1, 2, 4, 10], "path": ["0", "0", "12", "13", "14", "15", "17"], "rt": [22012, 76, 139, 66, 82], "actions": ["right", "right", "right", "up", "right"], "actionTimes": [23937, 24524, 25170, 25763, 26362], "queries": {"click": {"state": {"target": ["1", "2", "12", "23", "13", "14", "15", "16", "17"], "time": [3181, 4773, 6858, 8883, 10811, 13390, 15916, 18678, 20993]}, "edge": {"target": [], "time": []}}, "mouseover": {"state": {"target": ["1", "2", "12", "0", "23", "0", "13", "12", "12", "14", "15", "16", "16", "17", "15", "18"], "time": [2584, 4236, 5987, 7364, 7465, 9690, 9872, 11479, 12837, 13121, 15614, 18123, 18338, 19476, 21539, 21712]}, "edge": {"target": [], "time": []}}, "mouseout": {"state": {"target": ["5", "2", "1", "0", "1", "2", "1", "12", "0", "23", "0", "12", "13", "12", "23", "23", "12", "13", "14", "15", "14", "15", "16", "16", "17", "15", "18", "17", "19"], "time": [670, 746, 830, 2515, 4022, 5286, 5403, 7059, 7399, 9671, 9709, 9760, 11473, 11504, 11723, 12789, 12883, 12898, 15480, 17675, 17973, 18007, 18206, 19226, 21504, 21594, 23275, 23315, 27831]}, "edge": {"target": [], "time": []}}}, "displayed_time": "26.88", "trialTime": 28784, "trial_type": "mouselab-mdp", "trial_index": 15, "time_elapsed": 541004, "internal_node_id": "0.0-4.0-1.0-0.0"}}, {"uniqueid": "w78756345:a26750992", "current_trial": 16, "dateTime": 1691142370631, "trialdata": {"revealed_states": [], "clicked_states": ["1", "23", "24", "25", "12", "13", "14", "15", "16"], "num_clicks_accrued": [0, 0, 0, 0, 0, 0, 0, 0, 0, 0, 0, 0, 0], "stateRewards": ["", -1, 4, -5, 9, 29, -75, -42, -16, 24, -28, -41, 2, -3, 1, 10, 60, 47, 55, -1, -53, 22, -40, 2, -3, -6, 4, -26, 44, 54, 15, -76, 42, 14], "withholdReward": false, "trial_id": "mdp_trial_2", "block": "test", "trialIndex": 5, "score": 57.4, "costs": -12.600000000000001, "simulationMode": [null, null, null, null, null], "rewards": [2, -3, 1, 10, 60], "path": ["0", "0", "12", "13", "14", "15", "16"], "rt": [23383, 72, 80, 59, 56], "actions": ["right", "right", "right", "up", "up"], "actionTimes": [25179, 25762, 26344, 26923, 27488], "queries": {"click": {"state": {"target": ["1", "23", "24", "25", "12", "13", "14", "15", "16"], "time": [2910, 4652, 7280, 9753, 12621, 14599, 16904, 19395, 22485]}, "edge": {"target": [], "time": []}}, "mouseover": {"state": {"target": ["1", "23", "12", "0", "24", "25", "12", "13", "12", "13", "14", "15", "19", "14", "16", "17"], "time": [2599, 3619, 5303, 6779, 6885, 9489, 11870, 11937, 12287, 13473, 16642, 19143, 20147, 21664, 21840, 23346]}, "edge": {"target": [], "time": []}}, "mouseout": {"state": {"target": ["0", "0", "1", "23", "12", "0", "23", "24", "25", "12", "13", "12", "13", "14", "15", "14", "19", "14", "15", "16", "17", "19"], "time": [791, 2474, 3452, 4841, 6756, 6801, 6851, 9437, 11775, 11904, 12188, 13357, 15192, 18261, 19825, 19943, 21645, 21693, 21784, 23195, 24546, 28710]}, "edge": {"target": [], "time": []}}}, "displayed_time": "28.01", "trialTime": 29809, "trial_type": "mouselab-mdp", "trial_index": 16, "time_elapsed": 571658, "internal_node_id": "0.0-4.0-1.0-1.0"}}, {"uniqueid": "w78756345:a26750992", "current_trial": 17, "dateTime": 1691142394178, "trialdata": {"revealed_states": [], "clicked_states": ["1", "23", "12"], "num_clicks_accrued": [0, 0, 0, 0, 0, 0, 0, 0, 0, 0, 0, 0, 0], "stateRewards": ["", -1, 4, -6, -5, -22, -38, -38, -2, -56, 88, 14, -1, -1, -7, -6, 61, -60, 21, 11, 57, 31, -30, -2, -2, 6, -9, -44, -70, -44, -15, 34, 16, -78], "withholdReward": false, "trial_id": "mdp_trial_3", "block": "test", "trialIndex": 6, "score": -34.2, "costs": -4.199999999999999, "simulationMode": [null, null, null, null, null], "rewards": [-1, 4, -6, -5, -22], "path": ["0", "0", "1", "2", "3", "4", "5"], "rt": [13185, 133, 31, 10, 1127], "actions": ["up", "up", "up", "right", "up"], "actionTimes": [15086, 15714, 16255, 16791, 18442], "queries": {"click": {"state": {"target": ["1", "23", "12"], "time": [3438, 5590, 7834]}, "edge": {"target": [], "time": []}}, "mouseover": {"state": {"target": ["1", "23", "0", "12", "13"], "time": [3071, 4342, 6387, 6527, 13045]}, "edge": {"target": [], "time": []}}, "mouseout": {"state": {"target": ["1", "23", "0", "12"], "time": [4258, 6366, 6467, 12707]}, "edge": {"target": [], "time": []}}}, "displayed_time": "18.95", "trialTime": 22830, "trial_type": "mouselab-mdp", "trial_index": 17, "time_elapsed": 595205, "internal_node_id": "0.0-4.0-1.0-2.0"}}, {"uniqueid": "w78756345:a26750992", "current_trial": 18, "dateTime": 1691142419948, "trialdata": {"revealed_states": [], "clicked_states": ["23", "24", "25", "30", "26", "28", "27"], "num_clicks_accrued": [0, 0, 0, 0, 0, 0, 0, 0, 0, 0, 0, 0, 0], "stateRewards": ["", -2, 1, -5, 2, -68, 80, 33, 10, 67, -59, 20, -1, -3, 3, 14, 74, -2, 24, -16, 63, 80, 46, -1, 4, 6, 12, 83, -38, -43, -4, 43, 14, -79], "withholdReward": false, "trial_id": "mdp_trial_4", "block": "test", "trialIndex": 7, "score": 94.2, "costs": -9.8, "simulationMode": [null, null, null, null, null], "rewards": [-1, 4, 6, 12, 83], "path": ["0", "0", "23", "24", "25", "26", "27"], "rt": [16777, 47, 20, 76, 45], "actions": ["left", "left", "left", "up", "up"], "actionTimes": [18906, 19472, 20016, 20587, 21158], "queries": {"click": {"state": {"target": ["23", "24", "25", "30", "26", "28", "27"], "time": [3196, 5303, 7320, 9667, 11628, 14008, 16026]}, "edge": {"target": [], "time": []}}, "mouseover": {"state": {"target": ["23", "24", "25", "30", "26", "28", "27", "29"], "time": [2906, 4040, 6121, 9327, 10338, 13621, 14608, 16959]}, "edge": {"target": [], "time": []}}, "mouseout": {"state": {"target": ["13", "12", "0", "23", "24", "25", "30", "25", "26", "28", "27", "29", "1", "20"], "time": [1167, 1214, 2867, 3987, 5984, 9286, 10095, 10152, 13503, 14196, 16608, 18209, 23774, 24463]}, "edge": {"target": [], "time": []}}}, "displayed_time": "21.68", "trialTime": 25001, "trial_type": "mouselab-mdp", "trial_index": 18, "time_elapsed": 620975, "internal_node_id": "0.0-4.0-1.0-3.0"}}, {"uniqueid": "w78756345:a26750992", "current_trial": 19, "dateTime": 1691142448057, "trialdata": {"revealed_states": [], "clicked_states": ["12", "23", "24", "25", "26", "27", "28", "29"], "num_clicks_accrued": [0, 0, 0, 0, 0, 0, 0, 0, 0, 0, 0, 0, 0], "stateRewards": ["", -1, -4, -6, -15, 21, -67, -63, 9, 51, 69, -14, -1, 3, 8, -8, 39, 72, 63, 15, 19, 47, 15, 1, 4, 5, 16, -18, 34, 35, -14, -80, 40, 1], "withholdReward": false, "trial_id": "mdp_trial_5", "block": "test", "trialIndex": 8, "score": 49.8, "costs": -11.200000000000001, "simulationMode": [null, null, null, null, null], "rewards": [1, 4, 5, 16, 35], "path": ["0", "0", "23", "24", "25", "26", "29"], "rt": [19643, 142, 175, 98, 658], "actions": ["left", "left", "left", "up", "left"], "actionTimes": [21812, 22453, 23135, 23742, 24902], "queries": {"click": {"state": {"target": ["12", "23", "24", "25", "26", "27", "28", "29"], "time": [3057, 5057, 8426, 10741, 12818, 14881, 17203, 19991]}, "edge": {"target": [], "time": []}}, "mouseover": {"state": {"target": ["12", "0", "23", "13", "24", "25", "26", "27", "28", "26", "29"], "time": [2755, 3612, 3676, 6375, 7733, 10505, 12465, 13573, 16853, 17661, 17907]}, "edge": {"target": [], "time": []}}, "mouseout": {"state": {"target": ["0", "12", "0", "23", "13", "24", "25", "26", "27", "28", "26", "29", "1", "14"], "time": [2721, 3590, 3654, 5634, 7573, 10454, 10925, 13004, 16567, 17640, 17742, 20427, 26692, 26758]}, "edge": {"target": [], "time": []}}}, "displayed_time": "25.42", "trialTime": 27335, "trial_type": "mouselab-mdp", "trial_index": 19, "time_elapsed": 649084, "internal_node_id": "0.0-4.0-1.0-4.0"}}, {"uniqueid": "w78756345:a26750992", "current_trial": 20, "dateTime": 1691142471454, "trialdata": {"revealed_states": [], "clicked_states": ["12", "14", "16", "18", "17", "22"], "num_clicks_accrued": [0, 0, 0, 0, 0, 0, 0, 0, 0, 0, 0, 0, 0], "stateRewards": ["", 2, 3, 6, -5, -74, -53, 17, -12, 46, 44, 18, -2, 4, 1, -8, 22, -23, -49, 9, -45, 55, 81, 1, -1, -7, -16, -83, -71, -45, 2, 51, 82, 61], "withholdReward": false, "trial_id": "mdp_trial_6", "block": "test", "trialIndex": 9, "score": 84.6, "costs": -8.4, "simulationMode": [null, null, null, null, null], "rewards": [-2, 4, 1, 9, 81], "path": ["0", "0", "12", "13", "14", "19", "22"], "rt": [16090, 100, 98, 8, 39], "actions": ["right", "right", "right", "down", "left"], "actionTimes": [18246, 18853, 19452, 19965, 20526], "queries": {"click": {"state": {"target": ["12", "14", "16", "18", "17", "22"], "time": [3750, 5914, 8673, 10846, 12915, 15300]}, "edge": {"target": [], "time": []}}, "mouseover": {"state": {"target": ["12", "13", "12", "13", "14", "19", "15", "16", "18", "15", "17", "19", "22", "21", "20"], "time": [2763, 2824, 3490, 4461, 5097, 7951, 8215, 8394, 9433, 11302, 11729, 13651, 15030, 16135, 17680]}, "edge": {"target": [], "time": []}}, "mouseout": {"state": {"target": ["13", "12", "12", "13", "12", "13", "14", "14", "19", "15", "16", "18", "18", "15", "17", "17", "19", "22", "21", "20"], "time": [901, 955, 2796, 3123, 4344, 5046, 6100, 7899, 8163, 8310, 9248, 11036, 11281, 11367, 13111, 13416, 14932, 15818, 17599, 17716]}, "edge": {"target": [], "time": []}}}, "displayed_time": "21.04", "trialTime": 22647, "trial_type": "mouselab-mdp", "trial_index": 20, "time_elapsed": 672481, "internal_node_id": "0.0-4.0-1.0-5.0"}}, {"uniqueid": "w78756345:a26750992", "current_trial": 21, "dateTime": 1691142490480, "trialdata": {"revealed_states": [], "clicked_states": ["18"], "num_clicks_accrued": [0, 0, 0, 0, 0, 0, 0, 0, 0, 0, 0, 0, 0], "stateRewards": ["", -2, 2, -4, -4, -59, 88, 62, -3, 69, -15, -34, 1, -2, -5, 7, -54, -20, 78, -16, -74, -53, -21, 2, -4, 2, 13, -8, -44, 26, 9, 72, 4, 17], "withholdReward": false, "trial_id": "mdp_trial_7", "block": "test", "trialIndex": 10, "score": 77.6, "costs": -1.4, "simulationMode": [null, null, null, null, null], "rewards": [1, -2, -5, 7, 78], "path": ["0", "0", "12", "13", "14", "15", "18"], "rt": [4561, 128, 98, 13, 23], "actions": ["right", "right", "right", "up", "left"], "actionTimes": [6825, 7453, 8089, 8604, 9147], "queries": {"click": {"state": {"target": ["18"], "time": [3736]}, "edge": {"target": [], "time": []}}, "mouseover": {"state": {"target": ["12", "13", "15", "18", "16"], "time": [3049, 3090, 3150, 3484, 4374]}, "edge": {"target": [], "time": []}}, "mouseout": {"state": {"target": ["12", "12", "13", "15", "18", "16", "15", "14", "14", "18"], "time": [1089, 3086, 3107, 3267, 4272, 6100, 10820, 10871, 12556, 13835]}, "edge": {"target": [], "time": []}}}, "displayed_time": "16.27", "trialTime": 18221, "trial_type": "mouselab-mdp", "trial_index": 21, "time_elapsed": 691507, "internal_node_id": "0.0-4.0-1.0-6.0"}}, {"uniqueid": "w78756345:a26750992", "current_trial": 22, "dateTime": 1691142512579, "trialdata": {"revealed_states": [], "clicked_states": ["15", "18", "16", "17", "22", "21"], "num_clicks_accrued": [0, 0, 0, 0, 0, 0, 0, 0, 0, 0, 0, 0, 0], "stateRewards": ["", -1, -1, 4, -16, -75, 81, -51, -7, -84, 73, -30, -2, 1, -3, -16, -77, 33, 14, 1, 45, 87, -66, 2, 2, -5, -7, -19, -17, 79, -3, 8, 49, 47], "withholdReward": false, "trial_id": "mdp_trial_8", "block": "test", "trialIndex": 11, "score": 75.6, "costs": -8.4, "simulationMode": [null, null, null, null, null], "rewards": [-2, 1, -3, 1, 87], "path": ["0", "0", "12", "13", "14", "19", "21"], "rt": [14062, 100, 158, 99, 111], "actions": ["right", "right", "right", "down", "down"], "actionTimes": [16652, 17252, 17908, 18516, 19129], "queries": {"click": {"state": {"target": ["15", "18", "16", "17", "22", "21"], "time": [4318, 6080, 8022, 10096, 12165, 14145]}, "edge": {"target": [], "time": []}}, "mouseover": {"state": {"target": ["18", "15", "18", "16", "17", "19", "22", "21", "20"], "time": [3765, 3990, 5813, 7245, 8617, 10947, 11137, 12686, 14618]}, "edge": {"target": [], "time": []}}, "mouseout": {"state": {"target": ["18", "12", "0", "18", "15", "18", "16", "17", "19", "22", "21", "20"], "time": [115, 172, 3322, 3907, 5673, 6828, 8478, 10813, 11066, 12627, 14547, 20931]}, "edge": {"target": [], "time": []}}}, "displayed_time": "19.65", "trialTime": 21286, "trial_type": "mouselab-mdp", "trial_index": 22, "time_elapsed": 713606, "internal_node_id": "0.0-4.0-1.0-7.0"}}, {"uniqueid": "w78756345:a26750992", "current_trial": 23, "dateTime": 1691142533585, "trialdata": {"revealed_states": [], "clicked_states": ["18", "16", "17", "22", "21", "20"], "num_clicks_accrued": [0, 0, 0, 0, 0, 0, 0, 0, 0, 0, 0, 0, 0], "stateRewards": ["", -2, 2, -5, -6, 10, -66, -58, -10, -11, -63, -70, -1, -4, -5, 7, 66, -64, -43, -3, 45, -37, 4, -2, -2, -6, -4, -30, 33, 43, 15, -32, -65, -59], "withholdReward": false, "trial_id": "mdp_trial_9", "block": "test", "trialIndex": 12, "score": 54.6, "costs": -8.4, "simulationMode": [null, null, null, null, null], "rewards": [-1, -4, -5, 7, 66], "path": ["0", "0", "12", "13", "14", "15", "16"], "rt": [13693, 84, 65, 43, 15], "actions": ["right", "right", "right", "up", "up"], "actionTimes": [15987, 16572, 17136, 17699, 18237], "queries": {"click": {"state": {"target": ["18", "16", "17", "22", "21", "20"], "time": [3531, 5626, 7719, 9643, 11637, 13596]}, "edge": {"target": [], "time": []}}, "mouseover": {"state": {"target": ["18", "18", "16", "17", "14", "22", "21", "20"], "time": [2992, 3175, 4239, 6124, 8150, 8415, 10534, 12119]}, "edge": {"target": [], "time": []}}, "mouseout": {"state": {"target": ["20", "12", "0", "23", "23", "18", "18", "16", "17", "14", "22", "21", "20"], "time": [926, 1025, 1073, 1228, 1485, 3030, 4114, 6034, 7904, 8206, 10204, 11823, 15085]}, "edge": {"target": [], "time": []}}}, "displayed_time": "18.76", "trialTime": 20152, "trial_type": "mouselab-mdp", "trial_index": 23, "time_elapsed": 734612, "internal_node_id": "0.0-4.0-1.0-8.0"}}, {"uniqueid": "w78756345:a26750992", "current_trial": 24, "dateTime": 1691142551335, "trialdata": {"revealed_states": [], "clicked_states": ["9", "11", "10"], "num_clicks_accrued": [0, 0, 0, 0, 0, 0, 0, 0, 0, 0, 0, 0, 0], "stateRewards": ["", 2, -4, 4, 9, 69, 9, -75, 12, -86, 66, 25, -1, 3, 2, -13, -88, -3, 1, 4, -69, 49, -84, 2, -1, 4, 2, -18, -81, -52, -15, -69, -54, 25], "withholdReward": false, "trial_id": "mdp_trial_10", "block": "test", "trialIndex": 13, "score": 75.8, "costs": -4.199999999999999, "simulationMode": [null, null, null, null, null], "rewards": [2, -4, 4, 12, 66], "path": ["0", "0", "1", "2", "3", "8", "10"], "rt": [7802, 16, 61, 817, 90], "actions": ["up", "up", "up", "left", "down"], "actionTimes": [9635, 10153, 10731, 12061, 12651], "queries": {"click": {"state": {"target": ["9", "11", "10"], "time": [2796, 4755, 6752]}, "edge": {"target": [], "time": []}}, "mouseover": {"state": {"target": ["10", "8", "9", "11", "10", "2", "7", "7"], "time": [1982, 2161, 2478, 3452, 5303, 7155, 7203, 7488]}, "edge": {"target": [], "time": []}}, "mouseout": {"state": {"target": ["13", "12", "0", "10", "8", "9", "11", "11", "10", "2", "7", "7", "12"], "time": [741, 797, 952, 2095, 2231, 3316, 4954, 5165, 7132, 7179, 7227, 14170, 14357]}, "edge": {"target": [], "time": []}}}, "displayed_time": "15.85", "trialTime": 16860, "trial_type": "mouselab-mdp", "trial_index": 24, "time_elapsed": 752362, "internal_node_id": "0.0-4.0-1.0-9.0"}}, {"uniqueid": "w78756345:a26750992", "current_trial": 25, "dateTime": 1691142569205, "trialdata": {"revealed_states": [], "clicked_states": ["7", "6", "5"], "num_clicks_accrued": [0, 0, 0, 0, 0, 0, 0, 0, 0, 0, 0, 0, 0], "stateRewards": ["", -1, 1, -2, 5, 73, 15, 61, 8, 7, 38, 76, 2, 2, -4, -6, -6, -26, 43, -5, -45, -85, -35, -2, 1, -4, 15, -10, 69, 72, -11, 84, -49, -38], "withholdReward": false, "trial_id": "mdp_trial_11", "block": "test", "trialIndex": 14, "score": 71.8, "costs": -4.199999999999999, "simulationMode": [null, null, null, null, null], "rewards": [-1, 1, -2, 5, 73], "path": ["0", "0", "1", "2", "3", "4", "5"], "rt": [9299, 39, 82, 62, 122], "actions": ["up", "up", "up", "right", "up"], "actionTimes": [11603, 12173, 12774, 13339, 13983], "queries": {"click": {"state": {"target": ["7", "6", "5"], "time": [4763, 6839, 8763]}, "edge": {"target": [], "time": []}}, "mouseover": {"state": {"target": ["15", "18", "7", "6", "5", "9"], "time": [3368, 3985, 4352, 5306, 7457, 9574]}, "edge": {"target": [], "time": []}}, "mouseout": {"state": {"target": ["0", "15", "18", "7", "6", "5", "9", "5"], "time": [3026, 3568, 4072, 4961, 7221, 9340, 10856, 10972]}, "edge": {"target": [], "time": []}}}, "displayed_time": "16.30", "trialTime": 16972, "trial_type": "mouselab-mdp", "trial_index": 25, "time_elapsed": 770232, "internal_node_id": "0.0-4.0-1.0-10.0"}}, {"uniqueid": "w78756345:a26750992", "current_trial": 26, "dateTime": 1691142596321, "trialdata": {"revealed_states": [], "clicked_states": ["28", "27", "29", "33", "32", "31", "22", "21", "20"], "num_clicks_accrued": [0, 0, 0, 0, 0, 0, 0, 0, 0, 0, 0, 0, 0], "stateRewards": ["", -2, 4, 3, 5, -61, 4, 30, 1, -47, 83, 10, 1, 4, 7, -14, 19, -74, -83, 6, -2, -2, -65, -1, -2, 4, -11, 12, -1, -68, 11, -38, -28, 66], "withholdReward": false, "trial_id": "mdp_trial_12", "block": "test", "trialIndex": 15, "score": 65.4, "costs": -12.600000000000001, "simulationMode": [null, null, null, null, null], "rewards": [-1, -2, 4, 11, 66], "path": ["0", "0", "23", "24", "25", "30", "33"], "rt": [19432, 430, 221, 84, 61], "actions": ["left", "left", "left", "down", "left"], "actionTimes": [21641, 22578, 23303, 23899, 24458], "queries": {"click": {"state": {"target": ["28", "27", "29", "33", "32", "31", "22", "21", "20"], "time": [3698, 5654, 7643, 9651, 11569, 13487, 15566, 17485, 19493]}, "edge": {"target": [], "time": []}}, "mouseover": {"state": {"target": ["0", "23", "28", "28", "27", "29", "33", "32", "31", "22", "21", "20"], "time": [2612, 3041, 3133, 3435, 4285, 6093, 8357, 10316, 12348, 14233, 16052, 18104]}, "edge": {"target": [], "time": []}}, "mouseout": {"state": {"target": ["4", "7", "12", "0", "23", "28", "28", "27", "29", "33", "32", "31", "22", "21", "20", "22"], "time": [665, 698, 1057, 2647, 3063, 3167, 3885, 6054, 8056, 10124, 12186, 13941, 15976, 17909, 19928, 19952]}, "edge": {"target": [], "time": []}}}, "displayed_time": "24.98", "trialTime": 26230, "trial_type": "mouselab-mdp", "trial_index": 26, "time_elapsed": 797349, "internal_node_id": "0.0-4.0-1.0-11.0"}}, {"uniqueid": "w78756345:a26750992", "current_trial": 27, "dateTime": 1691142613933, "trialdata": {"revealed_states": [], "clicked_states": ["9", "11", "10"], "num_clicks_accrued": [0, 0, 0, 0, 0, 0, 0, 0, 0, 0, 0, 0, 0], "stateRewards": ["", 1, -4, -6, 11, -20, 8, -30, 1, -38, 88, 42, 2, 3, 5, -12, -8, -74, 30, -8, 67, -19, 42, 2, -1, 4, 13, 50, -68, 2, -8, -15, 87, -46], "withholdReward": false, "trial_id": "mdp_trial_13", "block": "test", "trialIndex": 16, "score": 75.8, "costs": -4.199999999999999, "simulationMode": [null, null, null, null, null], "rewards": [1, -4, -6, 1, 88], "path": ["0", "0", "1", "2", "3", "8", "10"], "rt": [8030, 101, 227, 133, 172], "actions": ["up", "up", "up", "left", "down"], "actionTimes": [9883, 10513, 11249, 11888, 12561], "queries": {"click": {"state": {"target": ["9", "11", "10"], "time": [3014, 4913, 7010]}, "edge": {"target": [], "time": []}}, "mouseover": {"state": {"target": ["1", "2", "9", "11", "10", "3", "5"], "time": [2354, 2406, 2567, 3737, 5519, 7508, 7719]}, "edge": {"target": [], "time": []}}, "mouseout": {"state": {"target": ["0", "1", "2", "9", "11", "11", "10", "3", "5", "16", "15"], "time": [1139, 2401, 2424, 3590, 5115, 5323, 7199, 7532, 9134, 13653, 13674]}, "edge": {"target": [], "time": []}}}, "displayed_time": "15.86", "trialTime": 16645, "trial_type": "mouselab-mdp", "trial_index": 27, "time_elapsed": 814960, "internal_node_id": "0.0-4.0-1.0-12.0"}}, {"uniqueid": "w78756345:a26750992", "current_trial": 28, "dateTime": 1691142634642, "trialdata": {"revealed_states": [], "clicked_states": ["28", "27", "29", "33", "32", "31"], "num_clicks_accrued": [0, 0, 0, 0, 0, 0, 0, 0, 0, 0, 0, 0, 0], "stateRewards": ["", 1, -2, -8, -13, 4, 34, -84, -4, -49, 88, -70, -1, 3, -4, 10, -77, 13, -34, 15, -21, -16, 27, 1, -2, 8, -8, -6, 38, -26, 6, -15, 66, -3], "withholdReward": false, "trial_id": "mdp_trial_14", "block": "test", "trialIndex": 17, "score": 70.6, "costs": -8.4, "simulationMode": [null, null, null, null, null], "rewards": [1, -2, 8, 6, 66], "path": ["0", "0", "23", "24", "25", "30", "32"], "rt": [14229, 24, 55, 40, 71], "actions": ["left", "left", "left", "down", "down"], "actionTimes": [15991, 16515, 17078, 17646, 18262], "queries": {"click": {"state": {"target": ["28", "27", "29", "33", "32", "31"], "time": [4804, 6654, 8537, 10448, 12356, 14476]}, "edge": {"target": [], "time": []}}, "mouseover": {"state": {"target": ["23", "26", "28", "27", "29", "33", "32", "31", "0", "12"], "time": [2623, 4225, 4460, 5609, 7385, 9108, 10992, 12842, 15001, 15046]}, "edge": {"target": [], "time": []}}, "mouseout": {"state": {"target": ["12", "0", "23", "26", "28", "27", "29", "33", "32", "31", "0", "12", "13"], "time": [788, 1927, 2721, 4360, 5514, 7190, 8966, 10850, 12700, 14935, 15021, 19119, 19327]}, "edge": {"target": [], "time": []}}}, "displayed_time": "18.79", "trialTime": 19762, "trial_type": "mouselab-mdp", "trial_index": 28, "time_elapsed": 835669, "internal_node_id": "0.0-4.0-1.0-13.0"}}, {"uniqueid": "w78756345:a26750992", "current_trial": 29, "dateTime": 1691142664504, "trialdata": {"revealed_states": [], "clicked_states": ["18", "16", "17", "20", "21", "22", "7", "6", "5"], "num_clicks_accrued": [0, 0, 0, 0, 0, 0, 0, 0, 0, 0, 0, 0, 0], "stateRewards": ["", -1, 1, -6, -1, 80, 23, 2, -11, 73, -81, 59, 1, 3, 5, -1, -26, 28, -3, 16, -59, -13, -50, -2, -2, 2, 15, -50, 86, 17, -4, 37, 35, 44], "withholdReward": false, "trial_id": "mdp_trial_15", "block": "test", "trialIndex": 18, "score": 60.4, "costs": -12.600000000000001, "simulationMode": [null, null, null, null, null], "rewards": [-1, 1, -6, -1, 80], "path": ["0", "0", "1", "2", "3", "4", "5"], "rt": [21174, 91, 99, 53, 1370], "actions": ["up", "up", "up", "right", "up"], "actionTimes": [23212, 23808, 24415, 24968, 26872], "queries": {"click": {"state": {"target": ["18", "16", "17", "20", "21", "22", "7", "6", "5"], "time": [3326, 5390, 7348, 9825, 12106, 14051, 16066, 18073, 20268]}, "edge": {"target": [], "time": []}}, "mouseover": {"state": {"target": ["12", "13", "15", "18", "16", "17", "20", "21", "22", "13", "18", "7", "6", "5", "9"], "time": [2689, 2761, 2918, 3085, 3924, 5835, 8043, 10405, 12663, 14575, 14617, 14863, 16751, 18568, 20848]}, "edge": {"target": [], "time": []}}, "mouseout": {"state": {"target": ["18", "0", "12", "13", "15", "18", "16", "17", "20", "21", "22", "13", "18", "7", "6", "5", "9", "10"], "time": [862, 2187, 2756, 2785, 3002, 3511, 5777, 7742, 10275, 12490, 14568, 14609, 14648, 16512, 18445, 20747, 28121, 28196]}, "edge": {"target": [], "time": []}}}, "displayed_time": "27.37", "trialTime": 28934, "trial_type": "mouselab-mdp", "trial_index": 29, "time_elapsed": 865532, "internal_node_id": "0.0-4.0-1.0-14.0"}}, {"uniqueid": "w78756345:a26750992", "current_trial": 30, "dateTime": 1691142698181, "trialdata": {"revealed_states": [], "clicked_states": ["9", "11", "10", "5", "6", "7", "27", "29", "28", "33", "32", "31"], "num_clicks_accrued": [0, 0, 0, 0, 0, 0, 0, 0, 0, 0, 0, 0, 0], "stateRewards": ["", -2, 1, -3, -16, -39, -52, 30, -7, -41, -59, 11, 2, 1, 8, 2, -11, -26, -42, -13, 87, -59, -48, -1, -1, -1, 16, -79, 31, 50, -1, -84, 34, -82], "withholdReward": false, "trial_id": "mdp_trial_16", "block": "test", "trialIndex": 19, "score": 46.2, "costs": -16.8, "simulationMode": [null, null, null, null, null], "rewards": [-1, -1, -1, 16, 50], "path": ["0", "0", "23", "24", "25", "26", "29"], "rt": [26146, 567, 282, 163, 124], "actions": ["left", "left", "left", "up", "left"], "actionTimes": [27926, 29061, 29845, 30510, 31138], "queries": {"click": {"state": {"target": ["9", "11", "10", "5", "6", "7", "27", "29", "28", "33", "32", "31"], "time": [3301, 5370, 7410, 9477, 11525, 13485, 15698, 17680, 19869, 22052, 24026, 26030]}, "edge": {"target": [], "time": []}}, "mouseover": {"state": {"target": ["8", "9", "11", "10", "4", "5", "6", "7", "28", "27", "29", "26", "28", "25", "33", "32", "31"], "time": [2563, 2781, 4447, 6086, 8437, 8521, 10586, 12290, 14083, 14364, 16578, 18263, 18426, 20260, 20453, 22506, 24501]}, "edge": {"target": [], "time": []}}, "mouseout": {"state": {"target": ["10", "12", "0", "8", "9", "11", "11", "10", "4", "5", "6", "6", "7", "7", "28", "27", "29", "26", "28", "25", "33", "33", "32", "31"], "time": [57, 812, 2015, 2680, 4189, 5558, 5854, 8253, 8479, 10058, 11718, 12175, 13669, 13997, 14114, 16166, 18241, 18332, 20225, 20302, 22252, 22444, 24261, 26481]}, "edge": {"target": [], "time": []}}}, "displayed_time": "31.65", "trialTime": 32741, "trial_type": "mouselab-mdp", "trial_index": 30, "time_elapsed": 899207, "internal_node_id": "0.0-4.0-1.0-15.0"}}, {"uniqueid": "w78756345:a26750992", "current_trial": 31, "dateTime": 1691142731004, "trialdata": {"revealed_states": [], "clicked_states": ["9", "11", "10", "5", "6", "7", "27", "29", "28", "33", "32", "31"], "num_clicks_accrued": [0, 0, 0, 0, 0, 0, 0, 0, 0, 0, 0, 0, 0], "stateRewards": ["", -2, -1, -3, -1, -78, -6, 2, -1, 22, -88, 32, 2, 2, -7, -8, -51, -17, 54, 2, -44, 54, 75, 2, -2, -8, -15, -29, 12, -67, 15, -1, -47, -47], "withholdReward": false, "trial_id": "mdp_trial_17", "block": "test", "trialIndex": 20, "score": 8.2, "costs": -16.8, "simulationMode": [null, null, null, null, null], "rewards": [-2, -1, -3, -1, 32], "path": ["0", "0", "1", "2", "3", "8", "11"], "rt": [25330, 62, 129, 7, 23], "actions": ["up", "up", "up", "left", "left"], "actionTimes": [27387, 27963, 28633, 29169, 29725], "queries": {"click": {"state": {"target": ["9", "11", "10", "5", "6", "7", "27", "29", "28", "33", "32", "31"], "time": [3645, 5684, 7638, 9564, 11595, 13526, 15521, 17536, 19495, 21518, 23584, 25554]}, "edge": {"target": [], "time": []}}, "mouseover": {"state": {"target": ["1", "2", "3", "9", "11", "10", "4", "5", "6", "7", "2", "28", "26", "27", "29", "26", "28", "25", "33", "32", "31", "0"], "time": [2795, 3020, 3136, 3419, 4295, 6168, 8186, 8362, 10055, 12138, 14067, 14129, 14166, 14465, 16078, 17947, 18176, 20076, 20267, 22233, 24129, 26267]}, "edge": {"target": [], "time": []}}, "mouseout": {"state": {"target": ["0", "1", "2", "3", "9", "11", "10", "4", "5", "6", "7", "2", "28", "26", "27", "29", "26", "28", "25", "33", "32", "31", "0"], "time": [2752, 2986, 3087, 3253, 4108, 6074, 8076, 8263, 9960, 12011, 14062, 14107, 14159, 14283, 15899, 17727, 18041, 19999, 20145, 22017, 23966, 26078, 26296]}, "edge": {"target": [], "time": []}}}, "displayed_time": "30.23", "trialTime": 31775, "trial_type": "mouselab-mdp", "trial_index": 31, "time_elapsed": 932031, "internal_node_id": "0.0-4.0-1.0-16.0"}}, {"uniqueid": "w78756345:a26750992", "current_trial": 32, "dateTime": 1691142748952, "trialdata": {"revealed_states": [], "clicked_states": ["9", "11", "10"], "num_clicks_accrued": [0, 0, 0, 0, 0, 0, 0, 0, 0, 0, 0, 0, 0], "stateRewards": ["", 2, 3, 8, 11, 25, -80, 6, -4, -56, 84, -23, -2, -4, -3, 4, -51, -9, -61, -15, -64, 67, -35, 1, -1, -7, -6, 83, 59, -15, 12, -79, 56, 41], "withholdReward": false, "trial_id": "mdp_trial_18", "block": "test", "trialIndex": 21, "score": 88.8, "costs": -4.199999999999999, "simulationMode": [null, null, null, null, null], "rewards": [2, 3, 8, -4, 84], "path": ["0", "0", "1", "2", "3", "8", "10"], "rt": [9051, 126, 186, 165, 154], "actions": ["up", "up", "up", "left", "down"], "actionTimes": [10999, 11628, 12322, 12985, 13640], "queries": {"click": {"state": {"target": ["9", "11", "10"], "time": [3538, 5698, 7856]}, "edge": {"target": [], "time": []}}, "mouseover": {"state": {"target": ["4", "9", "8", "11", "10", "3", "5", "8", "27", "4"], "time": [2793, 3210, 4245, 4594, 6557, 8292, 8343, 8548, 8936, 10134]}, "edge": {"target": [], "time": []}}, "mouseout": {"state": {"target": ["0", "4", "9", "8", "11", "10", "3", "5", "8", "27", "4"], "time": [2611, 2843, 4131, 4269, 6362, 8265, 8317, 8505, 8573, 10068, 10163]}, "edge": {"target": [], "time": []}}}, "displayed_time": "15.96", "trialTime": 16984, "trial_type": "mouselab-mdp", "trial_index": 32, "time_elapsed": 949979, "internal_node_id": "0.0-4.0-1.0-17.0"}}, {"uniqueid": "w78756345:a26750992", "current_trial": 33, "dateTime": 1691142767044, "trialdata": {"revealed_states": [], "clicked_states": ["9", "11", "10"], "num_clicks_accrued": [0, 0, 0, 0, 0, 0, 0, 0, 0, 0, 0, 0, 0], "stateRewards": ["", 1, 2, 2, -15, -84, 28, -26, 13, 31, 86, 30, -2, 1, -1, -8, 66, -40, -1, -10, -32, 57, -17, 1, 2, -2, 9, -23, 77, 85, 12, -32, -62, -35], "withholdReward": false, "trial_id": "mdp_trial_19", "block": "test", "trialIndex": 22, "score": 99.8, "costs": -4.199999999999999, "simulationMode": [null, null, null, null, null], "rewards": [1, 2, 2, 13, 86], "path": ["0", "0", "1", "2", "3", "8", "10"], "rt": [7876, 98, 68, 194, 111], "actions": ["up", "up", "up", "left", "down"], "actionTimes": [10593, 11222, 11800, 12526, 13144], "queries": {"click": {"state": {"target": ["9", "11", "10"], "time": [3852, 5805, 7874]}, "edge": {"target": [], "time": []}}, "mouseover": {"state": {"target": ["2", "9", "11", "10", "2", "5", "5"], "time": [3286, 3507, 4635, 6309, 8322, 8571, 8662]}, "edge": {"target": [], "time": []}}, "mouseout": {"state": {"target": ["6", "7", "2", "1", "0", "2", "9", "11", "11", "10", "2", "5", "5"], "time": [793, 854, 1407, 1705, 3215, 3309, 4379, 6004, 6247, 8277, 8345, 8598, 10000]}, "edge": {"target": [], "time": []}}}, "displayed_time": "16.73", "trialTime": 17128, "trial_type": "mouselab-mdp", "trial_index": 33, "time_elapsed": 968071, "internal_node_id": "0.0-4.0-1.0-18.0"}}, {"uniqueid": "w78756345:a26750992", "current_trial": 34, "dateTime": 1691142787682, "trialdata": {"revealed_states": [], "clicked_states": ["9", "11", "10", "5", "6"], "num_clicks_accrued": [0, 0, 0, 0, 0, 0, 0, 0, 0, 0, 0, 0, 0], "stateRewards": ["", -2, -3, -3, 9, 79, 67, 22, -15, -56, 27, -85, -2, 4, -4, -15, -20, -32, 60, 15, 71, 57, 17, 1, 2, -8, 15, -37, -81, 82, 15, 21, -3, 2], "withholdReward": false, "trial_id": "mdp_trial_20", "block": "test", "trialIndex": 23, "score": 73, "costs": -7, "simulationMode": [null, null, null, null, null], "rewards": [-2, -3, -3, 9, 79], "path": ["0", "0", "1", "2", "3", "4", "5"], "rt": [10495, 326, 55, 1078, 82], "actions": ["up", "up", "up", "right", "up"], "actionTimes": [12373, 13209, 13770, 15383, 15949], "queries": {"click": {"state": {"target": ["9", "11", "10", "5", "6"], "time": [3088, 5044, 6933, 8942, 10837]}, "edge": {"target": [], "time": []}}, "mouseover": {"state": {"target": ["2", "3", "9", "11", "10", "3", "5", "6"], "time": [2542, 2586, 2870, 3641, 5607, 7476, 7835, 9597]}, "edge": {"target": [], "time": []}}, "mouseout": {"state": {"target": ["0", "2", "3", "9", "11", "10", "3", "5", "6"], "time": [2472, 2560, 2652, 3578, 5237, 7426, 7505, 9360, 11378]}, "edge": {"target": [], "time": []}}}, "displayed_time": "16.48", "trialTime": 19691, "trial_type": "mouselab-mdp", "trial_index": 34, "time_elapsed": 988709, "internal_node_id": "0.0-4.0-1.0-19.0"}}, {"uniqueid": "w78756345:a26750992", "current_trial": 35, "dateTime": 1691142810898, "trialdata": {"revealed_states": [], "clicked_states": ["11", "9", "10", "5", "6", "7"], "num_clicks_accrued": [0, 0, 0, 0, 0, 0, 0, 0, 0, 0, 0, 0, 0], "stateRewards": ["", 1, 3, 1, -13, 52, -28, 67, -14, 3, 63, -70, -1, -4, 7, -11, -10, 47, -18, 6, 69, -9, -61, 2, 3, -6, 10, 63, -34, 40, -6, -79, -35, -32], "withholdReward": false, "trial_id": "mdp_trial_21", "block": "test", "trialIndex": 24, "score": 50.6, "costs": -8.4, "simulationMode": [null, null, null, null, null], "rewards": [1, 3, 1, -13, 67], "path": ["0", "0", "1", "2", "3", "4", "7"], "rt": [14443, 58, 105, 142, 88], "actions": ["up", "up", "up", "right", "down"], "actionTimes": [17467, 18034, 18666, 19319, 19917], "queries": {"click": {"state": {"target": ["11", "9", "10", "5", "6", "7"], "time": [5186, 7079, 9509, 11558, 13648, 15579]}, "edge": {"target": [], "time": []}}, "mouseover": {"state": {"target": ["1", "1", "2", "10", "8", "11", "9", "9", "8", "10", "4", "5", "6", "7"], "time": [3621, 4208, 4569, 4634, 4685, 4916, 5729, 6724, 7810, 8171, 10120, 10606, 12257, 14405]}, "edge": {"target": [], "time": []}}, "mouseout": {"state": {"target": ["18", "0", "1", "1", "2", "10", "8", "11", "9", "9", "9", "8", "10", "4", "5", "6", "7"], "time": [969, 2248, 3673, 4514, 4599, 4665, 4783, 5582, 5820, 7282, 7745, 7980, 10088, 10179, 12042, 14178, 15772]}, "edge": {"target": [], "time": []}}}, "displayed_time": "20.43", "trialTime": 22192, "trial_type": "mouselab-mdp", "trial_index": 35, "time_elapsed": 1011925, "internal_node_id": "0.0-4.0-1.0-20.0"}}, {"uniqueid": "w78756345:a26750992", "current_trial": 36, "dateTime": 1691142831384, "trialdata": {"revealed_states": [], "clicked_states": ["10", "11", "9"], "num_clicks_accrued": [0, 0, 0, 0, 0, 0, 0, 0, 0, 0, 0, 0, 0], "stateRewards": ["", -1, 2, 7, 8, 75, 67, -11, 6, 52, -17, 38, -1, 4, -8, 14, 74, -37, -17, -12, 52, 55, 71, -2, -1, -5, 2, 21, 6, -88, -14, 64, -61, -47], "withholdReward": false, "trial_id": "mdp_trial_22", "block": "test", "trialIndex": 25, "score": 61.8, "costs": -4.199999999999999, "simulationMode": [null, null, null, null, null], "rewards": [-1, 2, 7, 6, 52], "path": ["0", "0", "1", "2", "3", "8", "9"], "rt": [11246, 99, 106, 130, 894], "actions": ["up", "up", "up", "left", "up"], "actionTimes": [13545, 14173, 14777, 15417, 16834], "queries": {"click": {"state": {"target": ["10", "11", "9"], "time": [4428, 6402, 10557]}, "edge": {"target": [], "time": []}}, "mouseover": {"state": {"target": ["0", "1", "10", "10", "11", "11", "5", "9", "5", "5"], "time": [3072, 3466, 3561, 4213, 5071, 6126, 10048, 10331, 11100, 11345]}, "edge": {"target": [], "time": []}}, "mouseout": {"state": {"target": ["0", "1", "10", "10", "11", "11", "5", "9", "5", "5"], "time": [3436, 3494, 3761, 4611, 5254, 6600, 10085, 11021, 11136, 12834]}, "edge": {"target": [], "time": []}}}, "displayed_time": "17.34", "trialTime": 19430, "trial_type": "mouselab-mdp", "trial_index": 36, "time_elapsed": 1032411, "internal_node_id": "0.0-4.0-1.0-21.0"}}, {"uniqueid": "w78756345:a26750992", "current_trial": 37, "dateTime": 1691142857781, "trialdata": {"revealed_states": [], "clicked_states": ["10", "11", "9", "5", "6", "7", "27", "29"], "num_clicks_accrued": [0, 0, 0, 0, 0, 0, 0, 0, 0, 0, 0, 0, 0], "stateRewards": ["", -2, 2, -2, -7, -50, -62, -45, 7, 36, -24, -72, -1, -1, 8, -1, -67, 20, -52, 2, 35, -50, 80, -1, 1, 6, -6, -70, 6, 88, 8, -47, 74, -19], "withholdReward": false, "trial_id": "mdp_trial_23", "block": "test", "trialIndex": 26, "score": 76.8, "costs": -11.200000000000001, "simulationMode": [null, null, null, null, null], "rewards": [-1, 1, 6, -6, 88], "path": ["0", "0", "23", "24", "25", "26", "29"], "rt": [17777, 507, 315, 197, 88], "actions": ["left", "left", "left", "up", "left"], "actionTimes": [20463, 21475, 22323, 23030, 23620], "queries": {"click": {"state": {"target": ["10", "11", "9", "5", "6", "7", "27", "29"], "time": [3918, 6170, 8127, 10084, 11840, 13718, 15603, 17505]}, "edge": {"target": [], "time": []}}, "mouseover": {"state": {"target": ["0", "1", "10", "11", "9", "5", "5", "6", "7", "28", "27", "29", "26", "28", "1", "15"], "time": [3280, 3323, 3685, 4538, 6591, 8592, 8805, 10617, 12333, 14213, 14365, 16175, 17859, 18029, 19897, 19979]}, "edge": {"target": [], "time": []}}, "mouseout": {"state": {"target": ["6", "7", "1", "0", "0", "0", "1", "10", "11", "9", "5", "5", "6", "7", "28", "27", "29", "26", "28", "1", "15", "17"], "time": [1035, 1081, 1116, 1215, 2770, 3318, 3385, 4376, 6525, 8507, 8655, 10449, 12229, 14143, 14260, 16018, 17832, 17905, 19829, 19922, 20001, 24785]}, "edge": {"target": [], "time": []}}}, "displayed_time": "24.12", "trialTime": 25394, "trial_type": "mouselab-mdp", "trial_index": 37, "time_elapsed": 1058809, "internal_node_id": "0.0-4.0-1.0-22.0"}}, {"uniqueid": "w78756345:a26750992", "current_trial": 38, "dateTime": 1691142875484, "trialdata": {"revealed_states": [], "clicked_states": ["10", "11", "9"], "num_clicks_accrued": [0, 0, 0, 0, 0, 0, 0, 0, 0, 0, 0, 0, 0], "stateRewards": ["", -1, -3, -5, -14, -13, -47, 79, 8, -60, -64, 41, -1, 2, 3, 13, -46, 61, -79, -11, -64, -65, 23, 1, -2, 6, -14, 46, 32, 21, 7, 75, -66, 15], "withholdReward": false, "trial_id": "mdp_trial_24", "block": "test", "trialIndex": 27, "score": 35.8, "costs": -4.199999999999999, "simulationMode": [null, null, null, null, null], "rewards": [-1, -3, -5, 8, 41], "path": ["0", "0", "1", "2", "3", "8", "11"], "rt": [8048, 207, 128, 59, 92], "actions": ["up", "up", "up", "left", "left"], "actionTimes": [9856, 10590, 11229, 11794, 12425], "queries": {"click": {"state": {"target": ["10", "11", "9"], "time": [3010, 4906, 7298]}, "edge": {"target": [], "time": []}}, "mouseover": {"state": {"target": ["0", "0", "10", "11", "9", "5"], "time": [2149, 2571, 2758, 3613, 5494, 8010]}, "edge": {"target": [], "time": []}}, "mouseout": {"state": {"target": ["22", "0", "0", "0", "10", "11", "9", "5", "16"], "time": [657, 839, 2193, 2600, 3512, 5390, 7898, 8153, 13885]}, "edge": {"target": [], "time": []}}}, "displayed_time": "15.81", "trialTime": 16572, "trial_type": "mouselab-mdp", "trial_index": 38, "time_elapsed": 1076511, "internal_node_id": "0.0-4.0-1.0-23.0"}}, {"uniqueid": "w78756345:a26750992", "current_trial": 39, "dateTime": 1691142893514, "trialdata": {"revealed_states": [], "clicked_states": ["29", "27", "28"], "num_clicks_accrued": [0, 0, 0, 0, 0, 0, 0, 0, 0, 0, 0, 0, 0], "stateRewards": ["", 2, -1, 8, -2, -16, 69, -39, -7, -13, -27, -86, 2, -2, 2, 13, -34, -16, -20, -5, 19, 81, 32, -2, -1, 2, -14, 20, 80, 58, 4, 70, 12, 73], "withholdReward": false, "trial_id": "mdp_trial_25", "block": "test", "trialIndex": 28, "score": 60.8, "costs": -4.199999999999999, "simulationMode": [null, null, null, null, null], "rewards": [-2, -1, 2, -14, 80], "path": ["0", "0", "23", "24", "25", "26", "28"], "rt": [9086, 167, 162, 173, 189], "actions": ["left", "left", "left", "up", "right"], "actionTimes": [11406, 12083, 12745, 13447, 14142], "queries": {"click": {"state": {"target": ["29", "27", "28"], "time": [5157, 7161, 9201]}, "edge": {"target": [], "time": []}}, "mouseover": {"state": {"target": ["0", "1", "28", "26", "29", "29", "27", "28", "1", "18"], "time": [3015, 3085, 3274, 3408, 4540, 4843, 6496, 7665, 9818, 9948]}, "edge": {"target": [], "time": []}}, "mouseout": {"state": {"target": ["0", "0", "1", "28", "26", "29", "29", "27", "27", "28", "1", "18", "18"], "time": [2392, 3065, 3134, 3343, 3458, 4679, 5647, 7357, 7601, 9753, 9864, 9978, 15233]}, "edge": {"target": [], "time": []}}}, "displayed_time": "16.33", "trialTime": 16879, "trial_type": "mouselab-mdp", "trial_index": 39, "time_elapsed": 1094541, "internal_node_id": "0.0-4.0-1.0-24.0"}}, {"uniqueid": "w78756345:a26750992", "current_trial": 40, "dateTime": 1691142911662, "trialdata": {"revealed_states": [], "clicked_states": ["28"], "num_clicks_accrued": [0, 0, 0, 0, 0, 0, 0, 0, 0, 0, 0, 0, 0], "stateRewards": ["", 2, -4, -8, -15, 71, -43, -41, 7, -17, 20, 67, -1, -1, -4, 6, 37, -24, -47, 9, 34, 57, 45, 1, 2, -4, -5, -23, 88, -5, 13, -40, 43, 44], "withholdReward": false, "trial_id": "mdp_trial_26", "block": "test", "trialIndex": 29, "score": 80.6, "costs": -1.4, "simulationMode": [null, null, null, null, null], "rewards": [1, 2, -4, -5, 88], "path": ["0", "0", "23", "24", "25", "26", "28"], "rt": [5757, 133, 184, 812, 164], "actions": ["left", "left", "left", "up", "right"], "actionTimes": [7599, 8241, 8924, 10236, 10906], "queries": {"click": {"state": {"target": ["28"], "time": [4591]}, "edge": {"target": [], "time": []}}, "mouseover": {"state": {"target": ["24", "26", "28", "27", "27"], "time": [2820, 3416, 4370, 6140, 6368]}, "edge": {"target": [], "time": []}}, "mouseout": {"state": {"target": ["12", "0", "24", "26", "28", "27", "27", "3"], "time": [849, 2772, 2968, 3455, 5975, 6215, 6987, 11835]}, "edge": {"target": [], "time": []}}}, "displayed_time": "15.85", "trialTime": 16893, "trial_type": "mouselab-mdp", "trial_index": 40, "time_elapsed": 1112688, "internal_node_id": "0.0-4.0-1.0-25.0"}}, {"uniqueid": "w78756345:a26750992", "current_trial": 41, "dateTime": 1691142932445, "trialdata": {"revealed_states": [], "clicked_states": ["28", "27", "29"], "num_clicks_accrued": [0, 0, 0, 0, 0, 0, 0, 0, 0, 0, 0, 0, 0], "stateRewards": ["", 1, 1, 1, 15, -76, 52, -32, 14, -57, 37, 49, 1, -4, -3, 6, 83, -76, 25, 9, 36, -1, -17, -1, 4, 4, -2, -22, -21, 58, -15, -57, 49, -24], "withholdReward": false, "trial_id": "mdp_trial_27", "block": "test", "trialIndex": 30, "score": 58.8, "costs": -4.199999999999999, "simulationMode": [null, null, null, null, null], "rewards": [-1, 4, 4, -2, 58], "path": ["0", "0", "23", "24", "25", "26", "29"], "rt": [8294, 163, 71, 157, 550], "actions": ["left", "left", "left", "up", "left"], "actionTimes": [12910, 13579, 14153, 14825, 15925], "queries": {"click": {"state": {"target": ["28", "27", "29"], "time": [5962, 7878, 10116]}, "edge": {"target": [], "time": []}}, "mouseover": {"state": {"target": ["28", "26", "27", "29", "25", "24", "1", "2", "8", "8", "4", "6"], "time": [5642, 6761, 7428, 9778, 10699, 10783, 10950, 11054, 11239, 12293, 12360, 12416]}, "edge": {"target": [], "time": []}}, "mouseout": {"state": {"target": ["0", "0", "28", "26", "27", "29", "25", "24", "1", "2", "8", "8", "4", "6", "18", "19", "21"], "time": [2923, 5237, 6696, 6886, 9517, 10620, 10768, 10858, 11025, 11147, 11459, 12352, 12383, 16945, 17030, 18597, 18747]}, "edge": {"target": [], "time": []}}}, "displayed_time": "18.62", "trialTime": 19461, "trial_type": "mouselab-mdp", "trial_index": 41, "time_elapsed": 1133472, "internal_node_id": "0.0-4.0-1.0-26.0"}}, {"uniqueid": "w78756345:a26750992", "current_trial": 42, "dateTime": 1691142950632, "trialdata": {"revealed_states": [], "clicked_states": ["27", "28", "29"], "num_clicks_accrued": [0, 0, 0, 0, 0, 0, 0, 0, 0, 0, 0, 0, 0], "stateRewards": ["", -1, 3, 2, 9, 41, 4, -46, -12, -54, -87, -25, 2, 3, -1, 11, -77, 12, -33, -9, -32, 35, 72, 1, 3, -7, 4, 37, 65, -73, 6, 77, -43, 8], "withholdReward": false, "trial_id": "mdp_trial_28", "block": "test", "trialIndex": 31, "score": 61.8, "costs": -4.199999999999999, "simulationMode": [null, null, null, null, null], "rewards": [1, 3, -7, 4, 65], "path": ["0", "0", "23", "24", "25", "26", "28"], "rt": [6225, 54, 126, 132, 87], "actions": ["left", "left", "left", "up", "right"], "actionTimes": [8152, 8718, 9374, 10016, 10605], "queries": {"click": {"state": {"target": ["27", "28", "29"], "time": [2969, 4834, 6430]}, "edge": {"target": [], "time": []}}, "mouseover": {"state": {"target": ["28", "27", "28", "28", "26", "29", "29", "26"], "time": [2512, 2705, 3478, 4527, 5232, 5268, 5590, 7019]}, "edge": {"target": [], "time": []}}, "mouseout": {"state": {"target": ["12", "28", "27", "28", "28", "26", "29", "29", "26", "1", "23"], "time": [703, 2539, 3440, 3589, 5200, 5261, 5340, 7013, 7045, 11966, 12731]}, "edge": {"target": [], "time": []}}}, "displayed_time": "15.94", "trialTime": 16921, "trial_type": "mouselab-mdp", "trial_index": 42, "time_elapsed": 1151660, "internal_node_id": "0.0-4.0-1.0-27.0"}}, {"uniqueid": "w78756345:a26750992", "current_trial": 43, "dateTime": 1691142971919, "trialdata": {"revealed_states": [], "clicked_states": ["27", "28", "29", "9", "11"], "num_clicks_accrued": [0, 0, 0, 0, 0, 0, 0, 0, 0, 0, 0, 0, 0], "stateRewards": ["", -2, 3, 8, -9, 59, 41, -50, -1, 82, 66, 33, 2, -2, 7, 8, 1, -38, 12, -16, 24, -37, 67, 1, 4, -2, 5, 35, -83, 28, 8, -27, 69, -64], "withholdReward": false, "trial_id": "mdp_trial_29", "block": "test", "trialIndex": 32, "score": 83, "costs": -7, "simulationMode": [null, null, null, null, null], "rewards": [-2, 3, 8, -1, 82], "path": ["0", "0", "1", "2", "3", "8", "9"], "rt": [11643, 171, 156, 263, 199], "actions": ["up", "up", "up", "left", "up"], "actionTimes": [13522, 14192, 14866, 15642, 16340], "queries": {"click": {"state": {"target": ["27", "28", "29", "9", "11"], "time": [3513, 5353, 7243, 9824, 11767]}, "edge": {"target": [], "time": []}}, "mouseover": {"state": {"target": ["27", "28", "26", "29", "10", "9", "11", "8", "3", "4", "6"], "time": [3309, 4012, 5742, 5798, 8064, 9513, 10370, 12215, 12248, 12281, 12315]}, "edge": {"target": [], "time": []}}, "mouseout": {"state": {"target": ["0", "27", "28", "26", "29", "10", "9", "11", "8", "3", "4", "6", "18", "13", "22"], "time": [740, 3880, 5735, 5769, 7771, 8111, 10303, 12187, 12243, 12275, 12309, 12339, 18183, 18267, 18334]}, "edge": {"target": [], "time": []}}}, "displayed_time": "16.87", "trialTime": 19536, "trial_type": "mouselab-mdp", "trial_index": 43, "time_elapsed": 1172946, "internal_node_id": "0.0-4.0-1.0-28.0"}}, {"uniqueid": "w78756345:a26750992", "current_trial": 44, "dateTime": 1691142990206, "trialdata": {"revealed_states": [], "clicked_states": ["9", "11", "10", "5"], "num_clicks_accrued": [0, 0, 0, 0, 0, 0, 0, 0, 0, 0, 0, 0, 0], "stateRewards": ["", -1, 1, 6, -6, 70, 66, 67, -16, -75, -35, 37, -1, 4, 4, -6, 47, -9, 63, 15, 21, -63, 13, 1, 3, -6, 10, 79, -29, 18, -15, 9, -67, -19], "withholdReward": false, "trial_id": "mdp_trial_30", "block": "test", "trialIndex": 33, "score": 64.4, "costs": -5.6, "simulationMode": [null, null, null, null, null], "rewards": [-1, 1, 6, -6, 70], "path": ["0", "0", "1", "2", "3", "4", "5"], "rt": [10449, 90, 110, 111, 96], "actions": ["up", "up", "up", "right", "up"], "actionTimes": [12527, 13118, 13739, 14358, 14943], "queries": {"click": {"state": {"target": ["9", "11", "10", "5"], "time": [3758, 5811, 7867, 9813]}, "edge": {"target": [], "time": []}}, "mouseover": {"state": {"target": ["0", "9", "11", "10", "3", "4", "5", "6"], "time": [2969, 3284, 4787, 6413, 8344, 8424, 8605, 10719]}, "edge": {"target": [], "time": []}}, "mouseout": {"state": {"target": ["0", "0", "9", "11", "10", "3", "4", "5", "6", "15", "14"], "time": [2560, 3003, 4490, 6158, 8259, 8373, 8454, 10454, 12106, 16146, 16521]}, "edge": {"target": [], "time": []}}}, "displayed_time": "16.08", "trialTime": 17105, "trial_type": "mouselab-mdp", "trial_index": 44, "time_elapsed": 1191233, "internal_node_id": "0.0-4.0-1.0-29.0"}}, {"uniqueid": "w78756345:a26750992", "current_trial": 45, "dateTime": 1691143016596, "trialdata": {"revealed_states": [], "clicked_states": ["5", "6", "7", "9", "11", "10", "27", "29"], "num_clicks_accrued": [0, 0, 0, 0, 0, 0, 0, 0, 0, 0, 0, 0, 0], "stateRewards": ["", -2, 2, 3, -7, -31, -33, 29, -8, -57, 50, -83, -1, -1, 5, 13, -23, -62, 25, 5, -66, -85, 14, 1, -2, -1, 16, 71, 33, -19, -14, 5, -43, 79], "withholdReward": false, "trial_id": "mdp_trial_31", "block": "test", "trialIndex": 34, "score": 73.8, "costs": -11.200000000000001, "simulationMode": [null, null, null, null, null], "rewards": [1, -2, -1, 16, 71], "path": ["0", "0", "23", "24", "25", "26", "27"], "rt": [17183, 494, 325, 46, 121], "actions": ["left", "left", "left", "up", "up"], "actionTimes": [19754, 20764, 21616, 22162, 22808], "queries": {"click": {"state": {"target": ["5", "6", "7", "9", "11", "10", "27", "29"], "time": [4023, 5999, 7998, 10011, 12008, 14009, 16184, 18227]}, "edge": {"target": [], "time": []}}, "mouseover": {"state": {"target": ["0", "4", "5", "6", "7", "3", "9", "11", "10", "1", "27", "29", "26", "28", "1", "18"], "time": [3323, 3437, 3654, 4871, 7403, 8491, 8767, 10644, 12942, 14563, 14921, 16808, 18616, 18738, 18835, 18946]}, "edge": {"target": [], "time": []}}, "mouseout": {"state": {"target": ["0", "0", "0", "4", "5", "6", "7", "3", "9", "11", "10", "10", "1", "27", "29", "26", "28", "1", "18", "13"], "time": [1333, 2998, 3387, 3486, 4668, 7111, 8204, 8519, 10511, 12660, 14206, 14509, 14687, 16616, 18426, 18685, 18788, 18866, 18999, 24332]}, "edge": {"target": [], "time": []}}}, "displayed_time": "23.34", "trialTime": 25138, "trial_type": "mouselab-mdp", "trial_index": 45, "time_elapsed": 1217623, "internal_node_id": "0.0-4.0-1.0-30.0"}}, {"uniqueid": "w78756345:a26750992", "current_trial": 46, "dateTime": 1691143034765, "trialdata": {"revealed_states": [], "clicked_states": ["5", "6", "7"], "num_clicks_accrued": [0, 0, 0, 0, 0, 0, 0, 0, 0, 0, 0, 0, 0], "stateRewards": ["", -1, -2, -1, -10, -57, 73, -72, -16, 75, -14, -46, -2, -3, -7, -1, -61, -60, 76, -4, 50, 4, 14, 2, 2, -7, 12, -65, -32, 15, -8, -76, -25, -61], "withholdReward": false, "trial_id": "mdp_trial_32", "block": "test", "trialIndex": 35, "score": 54.8, "costs": -4.199999999999999, "simulationMode": [null, null, null, null, null], "rewards": [-1, -2, -1, -10, 73], "path": ["0", "0", "1", "2", "3", "4", "6"], "rt": [7409, 197, 174, 54, 111], "actions": ["up", "up", "up", "right", "right"], "actionTimes": [9367, 10075, 10752, 11317, 11956], "queries": {"click": {"state": {"target": ["5", "6", "7"], "time": [3512, 5434, 7552]}, "edge": {"target": [], "time": []}}, "mouseover": {"state": {"target": ["7", "4", "5", "6", "7", "16"], "time": [2914, 2998, 3157, 4439, 5868, 8102]}, "edge": {"target": [], "time": []}}, "mouseout": {"state": {"target": ["0", "7", "4", "5", "6", "7", "16", "16", "15", "14"], "time": [2489, 2964, 3047, 4093, 5791, 8021, 8127, 14311, 14359, 14670]}, "edge": {"target": [], "time": []}}}, "displayed_time": "15.97", "trialTime": 17056, "trial_type": "mouselab-mdp", "trial_index": 46, "time_elapsed": 1235793, "internal_node_id": "0.0-4.0-1.0-31.0"}}, {"uniqueid": "w78756345:a26750992", "current_trial": 47, "dateTime": 1691143056213, "trialdata": {"revealed_states": [], "clicked_states": ["9", "11", "10", "5", "6"], "num_clicks_accrued": [0, 0, 0, 0, 0, 0, 0, 0, 0, 0, 0, 0, 0], "stateRewards": ["", 2, -1, 1, 10, -52, 86, -22, -2, -14, -63, 38, 1, 3, 7, -8, 11, -32, -27, 9, -71, 40, -87, -2, -1, 5, -7, 12, 31, -57, 13, 86, -58, 29], "withholdReward": false, "trial_id": "mdp_trial_33", "block": "test", "trialIndex": 36, "score": 91, "costs": -7, "simulationMode": [null, null, null, null, null], "rewards": [2, -1, 1, 10, 86], "path": ["0", "0", "1", "2", "3", "4", "6"], "rt": [11877, 120, 137, 126, 243], "actions": ["up", "up", "up", "right", "right"], "actionTimes": [16222, 16849, 17483, 18107, 18857], "queries": {"click": {"state": {"target": ["9", "11", "10", "5", "6"], "time": [5941, 7876, 9685, 11775, 13625]}, "edge": {"target": [], "time": []}}, "mouseover": {"state": {"target": ["0", "1", "2", "8", "9", "11", "10", "2", "4", "5", "6", "7"], "time": [5048, 5072, 5136, 5386, 5570, 6792, 8472, 10245, 10323, 10890, 12279, 14125]}, "edge": {"target": [], "time": []}}, "mouseout": {"state": {"target": ["14", "0", "1", "2", "8", "9", "11", "11", "10", "2", "4", "5", "6", "7"], "time": [2956, 5067, 5103, 5320, 5459, 6478, 8086, 8324, 10218, 10273, 10372, 12177, 13989, 15725]}, "edge": {"target": [], "time": []}}}, "displayed_time": "19.36", "trialTime": 20296, "trial_type": "mouselab-mdp", "trial_index": 47, "time_elapsed": 1257240, "internal_node_id": "0.0-4.0-1.0-32.0"}}, {"uniqueid": "w78756345:a26750992", "current_trial": 48, "dateTime": 1691143077688, "trialdata": {"revealed_states": [], "clicked_states": ["9", "11", "10", "5", "6", "7"], "num_clicks_accrued": [0, 0, 0, 0, 0, 0, 0, 0, 0, 0, 0, 0, 0], "stateRewards": ["", 2, 3, -6, -5, -3, 55, 40, 11, 61, 11, 51, 2, -4, -6, 9, -25, 29, -15, -6, 7, -77, -2, -2, -4, 1, 14, -43, -1, 56, -12, -54, 41, -74], "withholdReward": false, "trial_id": "mdp_trial_34", "block": "test", "trialIndex": 37, "score": 62.6, "costs": -8.4, "simulationMode": [null, null, null, null, null], "rewards": [2, 3, -6, 11, 61], "path": ["0", "0", "1", "2", "3", "8", "9"], "rt": [12756, 175, 183, 62, 487], "actions": ["up", "up", "up", "left", "up"], "actionTimes": [15263, 15949, 16645, 17252, 18281], "queries": {"click": {"state": {"target": ["9", "11", "10", "5", "6", "7"], "time": [3757, 5737, 7793, 9754, 11693, 13613]}, "edge": {"target": [], "time": []}}, "mouseover": {"state": {"target": ["3", "9", "11", "11", "10", "3", "5", "6", "7"], "time": [3164, 3480, 4230, 4529, 6324, 8238, 8471, 10169, 12230]}, "edge": {"target": [], "time": []}}, "mouseout": {"state": {"target": ["15", "0", "3", "9", "9", "11", "11", "10", "3", "5", "6", "7", "18"], "time": [634, 2713, 3197, 3962, 4180, 4300, 6151, 8168, 8323, 10080, 12102, 13817, 19852]}, "edge": {"target": [], "time": []}}}, "displayed_time": "18.81", "trialTime": 20289, "trial_type": "mouselab-mdp", "trial_index": 48, "time_elapsed": 1278715, "internal_node_id": "0.0-4.0-1.0-33.0"}}, {"uniqueid": "w78756345:a26750992", "current_trial": 49, "dateTime": 1691143096918, "trialdata": {"revealed_states": [], "clicked_states": ["9"], "num_clicks_accrued": [0, 0, 0, 0, 0, 0, 0, 0, 0, 0, 0, 0, 0], "stateRewards": ["", 2, -1, -1, -9, -81, -30, 55, -6, 78, 25, 62, 2, 4, -1, 9, -85, 1, -19, 1, -60, 12, -34, 1, 4, -1, -13, -24, -16, -83, -8, 16, 43, 9], "withholdReward": false, "trial_id": "mdp_trial_35", "block": "test", "trialIndex": 38, "score": 70.6, "costs": -1.4, "simulationMode": [null, null, null, null, null], "rewards": [2, -1, -1, -6, 78], "path": ["0", "0", "1", "2", "3", "8", "9"], "rt": [4101, 150, 182, 209, 14], "actions": ["up", "up", "up", "left", "up"], "actionTimes": [7071, 7718, 8400, 9111, 9632], "queries": {"click": {"state": {"target": ["9"], "time": [4254]}, "edge": {"target": [], "time": []}}, "mouseover": {"state": {"target": ["9", "11", "3"], "time": [3954, 4726, 6550]}, "edge": {"target": [], "time": []}}, "mouseout": {"state": {"target": ["0", "9", "11", "3"], "time": [3079, 4654, 6491, 6579]}, "edge": {"target": [], "time": []}}}, "displayed_time": "16.98", "trialTime": 17990, "trial_type": "mouselab-mdp", "trial_index": 49, "time_elapsed": 1297946, "internal_node_id": "0.0-4.0-1.0-34.0"}}, {"uniqueid": "w78756345:a26750992", "current_trial": 50, "dateTime": 1691143122436, "trialdata": {"revealed_states": [], "clicked_states": ["9", "11", "10", "7", "6", "5", "16"], "num_clicks_accrued": [0, 0, 0, 0, 0, 0, 0, 0, 0, 0, 0, 0, 0], "stateRewards": ["", -2, -4, -2, 10, -8, -15, -47, 7, -84, 53, 5, -1, 2, -7, 3, 83, 31, 47, -1, 30, -8, 69, 2, -4, -1, 8, -7, 12, -8, -8, -13, 30, -84], "withholdReward": false, "trial_id": "mdp_trial_36", "block": "test", "trialIndex": 39, "score": 70.2, "costs": -9.8, "simulationMode": [null, null, null, null, null], "rewards": [-1, 2, -7, 3, 83], "path": ["0", "0", "12", "13", "14", "15", "16"], "rt": [15357, 78, 96, 51, 52], "actions": ["right", "right", "right", "up", "up"], "actionTimes": [19451, 20037, 20638, 21194, 21805], "queries": {"click": {"state": {"target": ["9", "11", "10", "7", "6", "5", "16"], "time": [5269, 6871, 8794, 10906, 12788, 14687, 16715]}, "edge": {"target": [], "time": []}}, "mouseover": {"state": {"target": ["0", "22", "13", "7", "9", "11", "10", "2", "7", "6", "5", "4", "16", "18"], "time": [4213, 4301, 4480, 4546, 4980, 6029, 7542, 9102, 9245, 11436, 13217, 15488, 15987, 17262]}, "edge": {"target": [], "time": []}}, "mouseout": {"state": {"target": ["1", "0", "22", "13", "7", "9", "11", "11", "10", "2", "7", "6", "5", "5", "4", "6", "16", "16", "18", "15"], "time": [1170, 4273, 4363, 4514, 4580, 5735, 7080, 7272, 9075, 9175, 11225, 13141, 14885, 15402, 15678, 15799, 16903, 17060, 18822, 23071]}, "edge": {"target": [], "time": []}}}, "displayed_time": "22.32", "trialTime": 24134, "trial_type": "mouselab-mdp", "trial_index": 50, "time_elapsed": 1323463, "internal_node_id": "0.0-4.0-1.0-35.0"}}, {"uniqueid": "w78756345:a26750992", "current_trial": 51, "dateTime": 1691143139974, "trialdata": {"revealed_states": [], "clicked_states": ["5", "6", "7"], "num_clicks_accrued": [0, 0, 0, 0, 0, 0, 0, 0, 0, 0, 0, 0, 0], "stateRewards": ["", -1, -3, -7, -4, -85, -70, 79, 8, 84, -66, 42, 2, -2, -3, -16, -54, -66, 68, -3, 21, -14, 7, -2, -1, -3, -8, 75, 80, 86, -7, -84, 73, -16], "withholdReward": false, "trial_id": "mdp_trial_37", "block": "test", "trialIndex": 40, "score": 59.8, "costs": -4.199999999999999, "simulationMode": [null, null, null, null, null], "rewards": [-1, -3, -7, -4, 79], "path": ["0", "0", "1", "2", "3", "4", "7"], "rt": [7504, 97, 147, 91, 77], "actions": ["up", "up", "up", "right", "down"], "actionTimes": [9009, 9628, 10278, 10873, 11458], "queries": {"click": {"state": {"target": ["5", "6", "7"], "time": [2619, 4497, 6454]}, "edge": {"target": [], "time": []}}, "mouseover": {"state": {"target": ["5", "6", "7", "3", "9"], "time": [2271, 3055, 5028, 6855, 6934]}, "edge": {"target": [], "time": []}}, "mouseout": {"state": {"target": ["13", "12", "0", "5", "6", "7", "3", "9", "15"], "time": [302, 352, 2017, 3004, 4918, 6827, 6883, 8593, 14159]}, "edge": {"target": [], "time": []}}}, "displayed_time": "15.51", "trialTime": 16169, "trial_type": "mouselab-mdp", "trial_index": 51, "time_elapsed": 1341001, "internal_node_id": "0.0-4.0-1.0-36.0"}}, {"uniqueid": "w78756345:a26750992", "current_trial": 52, "dateTime": 1691143158057, "trialdata": {"revealed_states": [], "clicked_states": ["9", "11"], "num_clicks_accrued": [0, 0, 0, 0, 0, 0, 0, 0, 0, 0, 0, 0, 0], "stateRewards": ["", 2, -1, -3, 16, -3, -16, -62, -1, 13, -26, 43, -1, 4, 3, -9, -54, -37, -3, -12, -71, -68, -57, 1, -3, 2, -9, 2, -2, -9, -11, 84, -52, 55], "withholdReward": false, "trial_id": "mdp_trial_38", "block": "test", "trialIndex": 41, "score": 37.2, "costs": -2.8, "simulationMode": [null, null, null, null, null], "rewards": [2, -1, -3, -1, 43], "path": ["0", "0", "1", "2", "3", "8", "11"], "rt": [6878, 97, 192, 118, 202], "actions": ["up", "up", "up", "left", "left"], "actionTimes": [8905, 9499, 10213, 10844, 11560], "queries": {"click": {"state": {"target": ["9", "11"], "time": [4382, 6152]}, "edge": {"target": [], "time": []}}, "mouseover": {"state": {"target": ["0", "2", "3", "9", "11", "9", "11", "10", "2", "7"], "time": [2551, 2626, 2696, 2945, 3579, 3997, 4931, 7022, 8306, 8351]}, "edge": {"target": [], "time": []}}, "mouseout": {"state": {"target": ["0", "0", "2", "3", "9", "11", "9", "11", "10", "2", "7"], "time": [2138, 2620, 2649, 2719, 3541, 3944, 4788, 6928, 8298, 8342, 8414]}, "edge": {"target": [], "time": []}}}, "displayed_time": "16.03", "trialTime": 16818, "trial_type": "mouselab-mdp", "trial_index": 52, "time_elapsed": 1359084, "internal_node_id": "0.0-4.0-1.0-37.0"}}, {"uniqueid": "w78756345:a26750992", "current_trial": 53, "dateTime": 1691143182013, "trialdata": {"revealed_states": [], "clicked_states": ["5", "6", "7", "9", "11"], "num_clicks_accrued": [0, 0, 0, 0, 0, 0, 0, 0, 0, 0, 0, 0, 0], "stateRewards": ["", 1, 1, -7, -9, -44, 24, -83, -15, 44, -24, 72, -2, -3, 4, -5, 57, 55, 29, -11, 22, 12, -25, -1, 2, 7, 12, 33, -8, 47, -4, 8, 50, -4], "withholdReward": false, "trial_id": "mdp_trial_39", "block": "test", "trialIndex": 42, "score": 45, "costs": -7, "simulationMode": [null, null, null, null, null], "rewards": [1, 1, -7, -15, 72], "path": ["0", "0", "1", "2", "3", "8", "11"], "rt": [15036, 440, 281, 116, 191], "actions": ["up", "up", "up", "left", "left"], "actionTimes": [17290, 18248, 19039, 19718, 20416], "queries": {"click": {"state": {"target": ["5", "6", "7", "9", "11"], "time": [3105, 5034, 7050, 9035, 14594]}, "edge": {"target": [], "time": []}}, "mouseover": {"state": {"target": ["5", "6", "7", "3", "9", "11"], "time": [2829, 3677, 5465, 7496, 7663, 9613]}, "edge": {"target": [], "time": []}}, "mouseout": {"state": {"target": ["22", "12", "5", "6", "7", "3", "9", "11", "11", "18"], "time": [676, 843, 3572, 5380, 7247, 7526, 9217, 14853, 15569, 21779]}, "edge": {"target": [], "time": []}}}, "displayed_time": "20.93", "trialTime": 22652, "trial_type": "mouselab-mdp", "trial_index": 53, "time_elapsed": 1383040, "internal_node_id": "0.0-4.0-1.0-38.0"}}, {"uniqueid": "w78756345:a26750992", "current_trial": 54, "dateTime": 1691143200080, "trialdata": {"revealed_states": [], "clicked_states": ["9"], "num_clicks_accrued": [0, 0, 0, 0, 0, 0, 0, 0, 0, 0, 0, 0, 0], "stateRewards": ["", -1, -3, -6, 14, 41, 18, 63, -14, 80, 21, 17, -2, -4, -2, -5, 13, 70, 8, -4, -64, -10, -20, 2, -1, 4, -1, -17, -55, 42, -7, 47, 54, 15], "withholdReward": false, "trial_id": "mdp_trial_40", "block": "test", "trialIndex": 43, "score": 54.6, "costs": -1.4, "simulationMode": [null, null, null, null, null], "rewards": [-1, -3, -6, -14, 80], "path": ["0", "0", "1", "2", "3", "8", "9"], "rt": [3554, 165, 141, 158, 108], "actions": ["up", "up", "up", "left", "up"], "actionTimes": [5559, 6234, 6877, 7548, 8164], "queries": {"click": {"state": {"target": ["9"], "time": [3065]}, "edge": {"target": [], "time": []}}, "mouseover": {"state": {"target": ["1", "2", "9", "11"], "time": [2446, 2495, 2845, 3705]}, "edge": {"target": [], "time": []}}, "mouseout": {"state": {"target": ["0", "1", "2", "9", "11", "1", "12"], "time": [2034, 2469, 2529, 3584, 9430, 10396, 10550]}, "edge": {"target": [], "time": []}}}, "displayed_time": "16.01", "trialTime": 16872, "trial_type": "mouselab-mdp", "trial_index": 54, "time_elapsed": 1401106, "internal_node_id": "0.0-4.0-1.0-39.0"}}, {"uniqueid": "w78756345:a26750992", "current_trial": 55, "dateTime": 1691143234178, "trialdata": {"rt": 34005, "response": {"Q0": "$-2 to $2", "Q1": "$-32 to $32", "Q2": "$-88 to $88", "Q3": "The cost for clicking on nodes varied between nodes.", "Q4": "Very motivated"}, "question_order": [0, 1, 2, 3, 4], "trial_id": "final_quiz_control", "trial_type": "survey-multi-choice", "trial_index": 55, "time_elapsed": 1435205, "internal_node_id": "0.0-4.0-2.0"}}, {"uniqueid": "w78756345:a26750992", "current_trial": 56, "dateTime": 1691143284990, "trialdata": {"rt": 50671, "response": {"Q0": "Click on the last nodes to find the highest answer", "Q1": "Somewhat, i started off going for the first nodes but 3 rounds in I changed the strategy", "Q2": "Not difficult at all"}, "trial_id": "self_report_control", "trial_type": "survey-text", "trial_index": 56, "time_elapsed": 1486019, "internal_node_id": "0.0-4.0-3.0"}}, {"uniqueid": "w78756345:a26750992", "current_trial": 57, "dateTime": 1691143300985, "trialdata": {"rt": 15967, "response": {"gender": "female", "age": "21", "colorblind": "0", "effort": "0"}, "trial_type": "survey-html-form", "trial_index": 57, "time_elapsed": 1502013, "internal_node_id": "0.0-4.0-4.0"}}, {"uniqueid": "w78756345:a26750992", "current_trial": 58, "dateTime": 1691143315742, "trialdata": {"rt": 14718, "response": {"Q0": "No", "Q1": "No", "Q2": "No comment"}, "trial_type": "survey-text", "trial_index": 58, "time_elapsed": 1516771, "internal_node_id": "0.0-4.0-5.0"}}, {"uniqueid": "w78756345:a26750992", "current_trial": 59, "dateTime": 1691143318086, "trialdata": {"rt": 2317, "stimulus": "Press 'Finish HIT' in order to reach the completion code. Once the data has been saved, you will receive the code either in this window or in the original browser window where you started the experiment.\n", "response": 0, "trial_type": "html-button-response", "trial_index": 59, "time_elapsed": 1519115, "internal_node_id": "0.0-5.0"}}, {"uniqueid": "w78756345:a26750992", "current_trial": 60, "dateTime": 1691143319115, "trialdata": {"success": true, "trial_type": "fullscreen", "trial_index": 60, "time_elapsed": 1520144, "internal_node_id": "0.0-6.0"}}], "questiondata": {"params": {"CODE": "C6DMOQA6", "MIN_TIME": 14, "inspectCost": 1, "startTime": "Fri Aug 04 2023 11:36:37 GMT+0200 (South Africa Standard Time)", "bonusRate": 0.002, "variance": "1_2_4_8_44", "branching": "31123"}, "final_score": 2452.8}, "eventdata": [{"eventtype": "initialized", "value": null, "timestamp": 1691141796581, "interval": 0}, {"eventtype": "window_resize", "value": [1024, 654], "timestamp": 1691141796581, "interval": 0}, {"eventtype": "window_resize", "value": [1024, 654], "timestamp": 1691141797093, "interval": 512}, {"eventtype": "window_resize", "value": [1366, 768], "timestamp": 1691141801947, "interval": 4854}, {"eventtype": "focus", "value": "off", "timestamp": 1691142108927, "interval": 306980}, {"eventtype": "focus", "value": "on", "timestamp": 1691142108928, "interval": 1}, {"eventtype": "window_resize", "value": [1024, 654], "timestamp": 1691142109181, "interval": 253}, {"eventtype": "window_resize", "value": [1366, 768], "timestamp": 1691142110811, "interval": 1630}, {"eventtype": "window_resize", "value": [1024, 654], "timestamp": 1691143318808, "interval": 1207997}], "useragent": "Mozilla/5.0 (Windows NT 10.0; Win64; x64) AppleWebKit/537.36 (KHTML, like Gecko) Chrome/115.0.0.0 Safari/537.36", "mode": "live", "id": "w78756345:a26750992", "status": "user data saved", "Beginhit": "2023-08-04 09:36:26.971619", "Beginexp": "2023-08-04 09:36:36.232331", "Endhit": "2023-08-04 10:01:53.634821", "psiturkStatus": 3, "browser": "<redacted>", "platform": "windows", "language": "en-US"}