{"condition": 0, "counterbalance": 0, "assignmentId": "a18116095", "workerId": "w66204036", "hitId": "h27320202", "currenttrial": 55, "bonus": 0, "data": [{"uniqueid": "w66204036:a18116095", "current_trial": 0, "dateTime": 1693564654677, "trialdata": {"success": true, "trial_type": "fullscreen", "trial_index": 0, "time_elapsed": 6439, "internal_node_id": "0.0-0.0"}}, {"uniqueid": "w66204036:a18116095", "current_trial": 1, "dateTime": 1693564665848, "trialdata": {"view_history": [{"page_index": 0, "viewing_time": 11167}], "rt": 11167, "trial_id": "exp_instructions_control", "trial_type": "instructions", "trial_index": 1, "time_elapsed": 17611, "internal_node_id": "0.0-1.0"}}, {"uniqueid": "w66204036:a18116095", "current_trial": 2, "dateTime": 1693564756792, "trialdata": {"view_history": [{"page_index": 0, "viewing_time": 30300}, {"page_index": 1, "viewing_time": 31624}, {"page_index": 2, "viewing_time": 6625}, {"page_index": 3, "viewing_time": 22392}], "rt": 90941, "trial_id": "mouselab_instructions_1_control", "trial_type": "instructions", "trial_index": 2, "time_elapsed": 108555, "internal_node_id": "0.0-2.0-1.0"}}, {"uniqueid": "w66204036:a18116095", "current_trial": 3, "dateTime": 1693564778188, "trialdata": {"revealed_states": [], "clicked_states": ["12", "23", "1"], "num_clicks_accrued": [0, 0, 0, 0, 0, 0, 0, 0, 0, 0, 0, 0, 0], "stateRewards": ["", -10, 10, 10, 10, 10, 10, 10, 10, 10, 10, -10, -10, 10, -10, 10, 10, 10, 10, -10, -10, -10, 10, -10, 10, -10, -10, 10, 10, -10, -10, -10, 10, -10], "withholdReward": false, "trial_id": "practice_1", "block": "test", "trialIndex": 0, "score": -28, "costs": -1.5, "simulationMode": [null, null, null, null, null], "rewards": [-10, 10, -10, -10, -10], "path": ["0", "0", "23", "24", "25", "26", "29"], "rt": [7398, 2690, 825, 2565, 90], "actions": ["left", "left", "left", "up", "left"], "actionTimes": [10046, 13241, 14574, 17667, 18273], "queries": {"click": {"state": {"target": ["12", "23", "1"], "time": [4117, 5622, 8159]}, "edge": {"target": [], "time": []}}, "mouseover": {"state": {"target": ["12", "0", "23", "1", "1"], "time": [2816, 4831, 5181, 6377, 7932]}, "edge": {"target": [], "time": []}}, "mouseout": {"state": {"target": ["12", "0", "12", "0", "23", "1", "1", "1", "24", "0", "12", "4"], "time": [582, 2765, 4798, 5151, 6314, 7682, 8493, 10715, 12515, 12632, 14195, 20027]}, "edge": {"target": [], "time": []}}}, "displayed_time": "18.78", "trialTime": 20913, "trial_type": "mouselab-mdp", "trial_index": 3, "time_elapsed": 129950, "internal_node_id": "0.0-2.0-2.0-0.0"}}, {"uniqueid": "w66204036:a18116095", "current_trial": 4, "dateTime": 1693564795643, "trialdata": {"revealed_states": [], "clicked_states": ["14", "15", "17"], "num_clicks_accrued": [0, 0, 0, 0, 0, 0, 0, 0, 0, 0, 0, 0, 0], "stateRewards": ["", -10, -10, -10, -10, -10, 10, 10, -10, -10, -10, -10, 10, 10, -10, 10, 10, -10, 10, 10, 10, -10, 10, 10, -10, -10, 10, -10, 10, -10, 10, 10, 10, -10], "withholdReward": false, "trial_id": "practice_2", "block": "test", "trialIndex": 1, "score": 32, "costs": -1.5, "simulationMode": [null, null, null, null, null], "rewards": [10, 10, -10, 10, 10], "path": ["0", "0", "12", "13", "14", "19", "20"], "rt": [8314, 188, 192, 366, 104], "actions": ["right", "right", "right", "down", "right"], "actionTimes": [11339, 12049, 12782, 13659, 14281], "queries": {"click": {"state": {"target": ["14", "15", "17"], "time": [4271, 5853, 8316]}, "edge": {"target": [], "time": []}}, "mouseover": {"state": {"target": ["12", "13", "14", "15", "16", "17"], "time": [3458, 3524, 3641, 5305, 7323, 7705]}, "edge": {"target": [], "time": []}}, "mouseout": {"state": {"target": ["16", "15", "13", "12", "0", "12", "13", "14", "15", "16", "17", "15", "13"], "time": [724, 757, 874, 975, 3041, 3490, 3575, 5073, 6408, 7608, 8723, 15808, 15841]}, "edge": {"target": [], "time": []}}}, "displayed_time": "14.79", "trialTime": 17111, "trial_type": "mouselab-mdp", "trial_index": 4, "time_elapsed": 147405, "internal_node_id": "0.0-2.0-2.0-1.0"}}, {"uniqueid": "w66204036:a18116095", "current_trial": 5, "dateTime": 1693564804560, "trialdata": {"view_history": [{"page_index": 0, "viewing_time": 5138}, {"page_index": 1, "viewing_time": 3776}], "rt": 8914, "trial_id": "mouselab_instructions_2_control", "trial_type": "instructions", "trial_index": 5, "time_elapsed": 156323, "internal_node_id": "0.0-2.0-3.0"}}, {"uniqueid": "w66204036:a18116095", "current_trial": 6, "dateTime": 1693564832153, "trialdata": {"rt": 27588, "response": {"Q0": "The cost for clicking on nodes may vary between nodes.", "Q1": "The better I perform the higher my bonus will be.", "Q2": "No, the amount of cash at each node of the web may be different each time.", "Q3": "To get the highest total score.", "Q4": "Only before moving the spider.", "Q5": "3 seconds"}, "question_order": [0, 1, 2, 3, 4, 5], "correct": {"Q0": "The cost for clicking on nodes may vary between nodes.", "Q1": "The better I perform the higher my bonus will be.", "Q2": "No, the amount of cash at each node of the web may be different each time.", "Q3": "To get the highest total score.", "Q4": "Only before moving the spider.", "Q5": "3 seconds"}, "trial_id": "mouselab_quiz_control", "trial_type": "survey-multi-choice", "trial_index": 6, "time_elapsed": 183916, "internal_node_id": "0.0-2.0-4.0"}}, {"uniqueid": "w66204036:a18116095", "current_trial": 7, "dateTime": 1693564838200, "trialdata": {"rt": 6041, "response": {"Q0": "No"}, "question_order": [0], "trial_id": "repeat_check", "trial_type": "survey-multi-choice", "trial_index": 7, "time_elapsed": 189963, "internal_node_id": "0.0-4.0-0.0"}}, {"uniqueid": "w66204036:a18116095", "current_trial": 8, "dateTime": 1693564843701, "trialdata": {"rt": 5494, "stimulus": "\n<h1> Get ready to start the game! </h1>\n\nThank you for reading the instructions. Get ready start with the 40 rounds of this game.\n<br><br>\nIf you need to take a break, feel free to take one after the end of a round, before continuing to the next one.\n<br><br>\nRemember, the more money the spider gets, the bigger your bonus will be!\n<br><br>\n<div style='text-align: center;'>Press <code>space</code> to begin.</div>\n\n<br><br>\n(If, at any point, the <code>space</code> key does not take you to the next page, click once on the text and try again.)", "response": " ", "trial_id": "mdp_ready", "trial_type": "html-keyboard-response", "trial_index": 8, "time_elapsed": 195464, "internal_node_id": "0.0-6.0-0.0"}}, {"uniqueid": "w66204036:a18116095", "current_trial": 9, "dateTime": 1693564862694, "trialdata": {"revealed_states": [], "clicked_states": [], "num_clicks_accrued": [0, 0, 0, 0, 0, 0, 0, 0, 0, 0, 0, 0, 0], "stateRewards": ["", 1, 1, -5, 8, -6, 45, 16, -6, -7, -22, -38, -1, -4, 8, -11, -16, 21, -45, -15, -59, -32, 42, -1, 3, 6, 11, -7, 34, -27, -8, 85, 43, -9], "withholdReward": false, "trial_id": "mdp_trial_1", "block": "test", "trialIndex": 2, "score": 13, "costs": 0, "simulationMode": [null, null, null, null, null], "rewards": [-1, -4, 8, -11, 21], "path": ["0", "0", "12", "13", "14", "15", "17"], "rt": [2024, 68, 141, 895, 99], "actions": ["right", "right", "right", "up", "right"], "actionTimes": [5570, 6157, 6814, 8218, 8840], "queries": {"click": {"state": {"target": [], "time": []}, "edge": {"target": [], "time": []}}, "mouseover": {"state": {"target": [], "time": []}, "edge": {"target": [], "time": []}}, "mouseout": {"state": {"target": ["0", "22", "13", "15", "18", "6"], "time": [9605, 9887, 12288, 12805, 12972, 13039]}, "edge": {"target": [], "time": []}}}, "displayed_time": "17.55", "trialTime": 18641, "trial_type": "mouselab-mdp", "trial_index": 9, "time_elapsed": 214456, "internal_node_id": "0.0-6.0-1.0-0.0"}}, {"uniqueid": "w66204036:a18116095", "current_trial": 10, "dateTime": 1693564894424, "trialdata": {"revealed_states": [], "clicked_states": [], "num_clicks_accrued": [0, 0, 0, 0, 0, 0, 0, 0, 0, 0, 0, 0, 0], "stateRewards": ["", -1, 3, 2, 9, 41, 4, -46, -12, -54, -87, -25, 2, 3, -1, 11, -77, 12, -33, -9, -32, 35, 72, 1, 3, -7, 4, 37, 65, -73, 6, 77, -43, 8], "withholdReward": false, "trial_id": "mdp_trial_2", "block": "test", "trialIndex": 3, "score": 38, "costs": 0, "simulationMode": [null, null, null, null, null], "rewards": [1, 3, -7, 4, 37], "path": ["0", "0", "23", "24", "25", "26", "27"], "rt": [402, 13, 318, 73, 14], "actions": ["left", "left", "left", "up", "up"], "actionTimes": [15965, 16495, 17350, 17941, 18462], "queries": {"click": {"state": {"target": [], "time": []}, "edge": {"target": [], "time": []}}, "mouseover": {"state": {"target": [], "time": []}, "edge": {"target": [], "time": []}}, "mouseout": {"state": {"target": ["5", "12", "0", "12", "32", "29", "9", "16", "18", "12"], "time": [2312, 2596, 3479, 3513, 13146, 13214, 13380, 13712, 14063, 14180]}, "edge": {"target": [], "time": []}}}, "displayed_time": "29.57", "trialTime": 31364, "trial_type": "mouselab-mdp", "trial_index": 10, "time_elapsed": 246187, "internal_node_id": "0.0-6.0-1.0-1.0"}}, {"uniqueid": "w66204036:a18116095", "current_trial": 11, "dateTime": 1693564911874, "trialdata": {"revealed_states": [], "clicked_states": [], "num_clicks_accrued": [0, 0, 0, 0, 0, 0, 0, 0, 0, 0, 0, 0, 0], "stateRewards": ["", 2, 3, 6, -5, -74, -53, 17, -12, 46, 44, 18, -2, 4, 1, -8, 22, -23, -49, 9, -45, 55, 81, 1, -1, -7, -16, -83, -71, -45, 2, 51, 82, 61], "withholdReward": false, "trial_id": "mdp_trial_3", "block": "test", "trialIndex": 4, "score": 56, "costs": 0, "simulationMode": [null, null, null, null, null], "rewards": [1, -1, -7, 2, 61], "path": ["0", "0", "23", "24", "25", "30", "33"], "rt": [465, 224, 797, 145, 123], "actions": ["left", "left", "left", "down", "left"], "actionTimes": [1901, 2652, 3962, 4639, 5286], "queries": {"click": {"state": {"target": [], "time": []}, "edge": {"target": [], "time": []}}, "mouseover": {"state": {"target": [], "time": []}, "edge": {"target": [], "time": []}}, "mouseout": {"state": {"target": [], "time": []}, "edge": {"target": [], "time": []}}}, "displayed_time": "15.45", "trialTime": 17079, "trial_type": "mouselab-mdp", "trial_index": 11, "time_elapsed": 263636, "internal_node_id": "0.0-6.0-1.0-2.0"}}, {"uniqueid": "w66204036:a18116095", "current_trial": 12, "dateTime": 1693564929144, "trialdata": {"revealed_states": [], "clicked_states": [], "num_clicks_accrued": [0, 0, 0, 0, 0, 0, 0, 0, 0, 0, 0, 0, 0], "stateRewards": ["", 2, -1, 1, 10, -52, 86, -22, -2, -14, -63, 38, 1, 3, 7, -8, 11, -32, -27, 9, -71, 40, -87, -2, -1, 5, -7, 12, 31, -57, 13, 86, -58, 29], "withholdReward": false, "trial_id": "mdp_trial_4", "block": "test", "trialIndex": 5, "score": -51, "costs": 0, "simulationMode": [null, null, null, null, null], "rewards": [1, 3, 7, 9, -71], "path": ["0", "0", "12", "13", "14", "19", "20"], "rt": [449, 632, 140, 85, 66], "actions": ["right", "right", "right", "down", "right"], "actionTimes": [1495, 2659, 3321, 3923, 4510], "queries": {"click": {"state": {"target": [], "time": []}, "edge": {"target": [], "time": []}}, "mouseover": {"state": {"target": [], "time": []}, "edge": {"target": [], "time": []}}, "mouseout": {"state": {"target": [], "time": []}, "edge": {"target": [], "time": []}}}, "displayed_time": "15.05", "trialTime": 16895, "trial_type": "mouselab-mdp", "trial_index": 12, "time_elapsed": 280906, "internal_node_id": "0.0-6.0-1.0-3.0"}}, {"uniqueid": "w66204036:a18116095", "current_trial": 13, "dateTime": 1693564945828, "trialdata": {"revealed_states": [], "clicked_states": [], "num_clicks_accrued": [0, 0, 0, 0, 0, 0, 0, 0, 0, 0, 0, 0, 0], "stateRewards": ["", -1, 2, 7, 8, 75, 67, -11, 6, 52, -17, 38, -1, 4, -8, 14, 74, -37, -17, -12, 52, 55, 71, -2, -1, -5, 2, 21, 6, -88, -14, 64, -61, -47], "withholdReward": false, "trial_id": "mdp_trial_5", "block": "test", "trialIndex": 6, "score": 66, "costs": 0, "simulationMode": [null, null, null, null, null], "rewards": [-1, 2, 7, 6, 52], "path": ["0", "0", "1", "2", "3", "8", "9"], "rt": [514, 13, 49, 63, 89], "actions": ["up", "up", "up", "left", "up"], "actionTimes": [1625, 2158, 2739, 3341, 3969], "queries": {"click": {"state": {"target": [], "time": []}, "edge": {"target": [], "time": []}}, "mouseover": {"state": {"target": [], "time": []}, "edge": {"target": [], "time": []}}, "mouseout": {"state": {"target": [], "time": []}, "edge": {"target": [], "time": []}}}, "displayed_time": "15.12", "trialTime": 16299, "trial_type": "mouselab-mdp", "trial_index": 13, "time_elapsed": 297590, "internal_node_id": "0.0-6.0-1.0-4.0"}}, {"uniqueid": "w66204036:a18116095", "current_trial": 14, "dateTime": 1693564961585, "trialdata": {"revealed_states": [], "clicked_states": [], "num_clicks_accrued": [0, 0, 0, 0, 0, 0, 0, 0, 0, 0, 0, 0, 0], "stateRewards": ["", 2, -1, 3, -12, -83, 6, -33, 9, 28, 24, -50, -2, -1, -2, -5, -87, 37, 82, 12, 80, -5, 10, -2, -3, -6, 9, 22, -1, 16, 9, 77, -62, 58], "withholdReward": false, "trial_id": "mdp_trial_6", "block": "test", "trialIndex": 7, "score": -64, "costs": 0, "simulationMode": [null, null, null, null, null], "rewards": [-2, -3, -6, 9, -62], "path": ["0", "0", "23", "24", "25", "30", "32"], "rt": [447, 13, 138, 36, 86], "actions": ["left", "left", "left", "down", "down"], "actionTimes": [1130, 1671, 2334, 2895, 3527], "queries": {"click": {"state": {"target": [], "time": []}, "edge": {"target": [], "time": []}}, "mouseover": {"state": {"target": [], "time": []}, "edge": {"target": [], "time": []}}, "mouseout": {"state": {"target": [], "time": []}, "edge": {"target": [], "time": []}}}, "displayed_time": "14.69", "trialTime": 15387, "trial_type": "mouselab-mdp", "trial_index": 14, "time_elapsed": 313347, "internal_node_id": "0.0-6.0-1.0-5.0"}}, {"uniqueid": "w66204036:a18116095", "current_trial": 15, "dateTime": 1693564977959, "trialdata": {"revealed_states": [], "clicked_states": [], "num_clicks_accrued": [0, 0, 0, 0, 0, 0, 0, 0, 0, 0, 0, 0, 0], "stateRewards": ["", 2, 1, -3, 7, 46, 11, -36, 16, 71, 5, 1, 2, -2, -8, -3, -4, 6, 55, 7, 68, -54, 2, 1, 1, 6, -6, 42, -4, -84, -11, -65, 63, 25], "withholdReward": false, "trial_id": "mdp_trial_7", "block": "test", "trialIndex": 8, "score": 1, "costs": 0, "simulationMode": [null, null, null, null, null], "rewards": [2, -2, -8, 7, 2], "path": ["0", "0", "12", "13", "14", "19", "22"], "rt": [665, 373, 130, 108, 118], "actions": ["right", "right", "right", "down", "left"], "actionTimes": [1465, 2353, 3005, 3632, 4278], "queries": {"click": {"state": {"target": [], "time": []}, "edge": {"target": [], "time": []}}, "mouseover": {"state": {"target": [], "time": []}, "edge": {"target": [], "time": []}}, "mouseout": {"state": {"target": [], "time": []}, "edge": {"target": [], "time": []}}}, "displayed_time": "14.80", "trialTime": 15978, "trial_type": "mouselab-mdp", "trial_index": 15, "time_elapsed": 329721, "internal_node_id": "0.0-6.0-1.0-6.0"}}, {"uniqueid": "w66204036:a18116095", "current_trial": 16, "dateTime": 1693564994782, "trialdata": {"revealed_states": [], "clicked_states": [], "num_clicks_accrued": [0, 0, 0, 0, 0, 0, 0, 0, 0, 0, 0, 0, 0], "stateRewards": ["", 2, -1, -3, 16, -3, -16, -62, -1, 13, -26, 43, -1, 4, 3, -9, -54, -37, -3, -12, -71, -68, -57, 1, -3, 2, -9, 2, -2, -9, -11, 84, -52, 55], "withholdReward": false, "trial_id": "mdp_trial_8", "block": "test", "trialIndex": 9, "score": 73, "costs": 0, "simulationMode": [null, null, null, null, null], "rewards": [1, -3, 2, -11, 84], "path": ["0", "0", "23", "24", "25", "30", "31"], "rt": [466, 615, 100, 71, 94], "actions": ["left", "left", "left", "down", "right"], "actionTimes": [1147, 2291, 2908, 3504, 4131], "queries": {"click": {"state": {"target": [], "time": []}, "edge": {"target": [], "time": []}}, "mouseover": {"state": {"target": [], "time": []}, "edge": {"target": [], "time": []}}, "mouseout": {"state": {"target": [], "time": []}, "edge": {"target": [], "time": []}}}, "displayed_time": "14.69", "trialTime": 16461, "trial_type": "mouselab-mdp", "trial_index": 16, "time_elapsed": 346544, "internal_node_id": "0.0-6.0-1.0-7.0"}}, {"uniqueid": "w66204036:a18116095", "current_trial": 17, "dateTime": 1693565010338, "trialdata": {"revealed_states": [], "clicked_states": [], "num_clicks_accrued": [0, 0, 0, 0, 0, 0, 0, 0, 0, 0, 0, 0, 0], "stateRewards": ["", -2, 4, -7, -3, -76, 39, -28, 10, 14, 12, 60, 2, -3, 6, -10, 88, -34, -41, -3, 72, -13, -56, 1, 3, 2, 8, -51, 23, -57, 1, 14, -46, -16], "withholdReward": false, "trial_id": "mdp_trial_9", "block": "test", "trialIndex": 10, "score": 65, "costs": 0, "simulationMode": [null, null, null, null, null], "rewards": [-2, 4, -7, 10, 60], "path": ["0", "0", "1", "2", "3", "8", "11"], "rt": [618, 104, 147, 144, 101], "actions": ["up", "up", "up", "left", "left"], "actionTimes": [1281, 1908, 2575, 3234, 3859], "queries": {"click": {"state": {"target": [], "time": []}, "edge": {"target": [], "time": []}}, "mouseover": {"state": {"target": [], "time": []}, "edge": {"target": [], "time": []}}, "mouseout": {"state": {"target": [], "time": []}, "edge": {"target": [], "time": []}}}, "displayed_time": "14.67", "trialTime": 15168, "trial_type": "mouselab-mdp", "trial_index": 17, "time_elapsed": 362100, "internal_node_id": "0.0-6.0-1.0-8.0"}}, {"uniqueid": "w66204036:a18116095", "current_trial": 18, "dateTime": 1693565027031, "trialdata": {"revealed_states": [], "clicked_states": [], "num_clicks_accrued": [0, 0, 0, 0, 0, 0, 0, 0, 0, 0, 0, 0, 0], "stateRewards": ["", 2, 3, -6, -5, -3, 55, 40, 11, 61, 11, 51, 2, -4, -6, 9, -25, 29, -15, -6, 7, -77, -2, -2, -4, 1, 14, -43, -1, 56, -12, -54, 41, -74], "withholdReward": false, "trial_id": "mdp_trial_10", "block": "test", "trialIndex": 11, "score": 34, "costs": 0, "simulationMode": [null, null, null, null, null], "rewards": [2, 3, -6, -5, 40], "path": ["0", "0", "1", "2", "3", "4", "7"], "rt": [548, 483, 100, 48, 68], "actions": ["up", "up", "up", "right", "down"], "actionTimes": [1786, 2784, 3411, 3983, 4585], "queries": {"click": {"state": {"target": [], "time": []}, "edge": {"target": [], "time": []}}, "mouseover": {"state": {"target": [], "time": []}, "edge": {"target": [], "time": []}}, "mouseout": {"state": {"target": [], "time": []}, "edge": {"target": [], "time": []}}}, "displayed_time": "15.24", "trialTime": 16303, "trial_type": "mouselab-mdp", "trial_index": 18, "time_elapsed": 378793, "internal_node_id": "0.0-6.0-1.0-9.0"}}, {"uniqueid": "w66204036:a18116095", "current_trial": 19, "dateTime": 1693565043404, "trialdata": {"revealed_states": [], "clicked_states": [], "num_clicks_accrued": [0, 0, 0, 0, 0, 0, 0, 0, 0, 0, 0, 0, 0], "stateRewards": ["", 1, 3, 1, -13, 52, -28, 67, -14, 3, 63, -70, -1, -4, 7, -11, -10, 47, -18, 6, 69, -9, -61, 2, 3, -6, 10, 63, -34, 40, -6, -79, -35, -32], "withholdReward": false, "trial_id": "mdp_trial_11", "block": "test", "trialIndex": 12, "score": -36, "costs": 0, "simulationMode": [null, null, null, null, null], "rewards": [1, 3, 1, -13, -28], "path": ["0", "0", "1", "2", "3", "4", "6"], "rt": [272, 368, 84, 238, 116], "actions": ["up", "up", "up", "right", "right"], "actionTimes": [1076, 1979, 2581, 3348, 3980], "queries": {"click": {"state": {"target": [], "time": []}, "edge": {"target": [], "time": []}}, "mouseover": {"state": {"target": [], "time": []}, "edge": {"target": [], "time": []}}, "mouseout": {"state": {"target": [], "time": []}, "edge": {"target": [], "time": []}}}, "displayed_time": "14.81", "trialTime": 15939, "trial_type": "mouselab-mdp", "trial_index": 19, "time_elapsed": 395166, "internal_node_id": "0.0-6.0-1.0-10.0"}}, {"uniqueid": "w66204036:a18116095", "current_trial": 20, "dateTime": 1693565059020, "trialdata": {"revealed_states": [], "clicked_states": [], "num_clicks_accrued": [0, 0, 0, 0, 0, 0, 0, 0, 0, 0, 0, 0, 0], "stateRewards": ["", 1, -2, 7, -14, 88, -56, -44, -14, 64, -51, -57, -2, 3, -4, -9, -11, 19, -77, -1, 68, 75, -67, -1, 1, -2, 5, -37, 70, -34, -10, -72, 63, -41], "withholdReward": false, "trial_id": "mdp_trial_12", "block": "test", "trialIndex": 13, "score": 71, "costs": 0, "simulationMode": [null, null, null, null, null], "rewards": [-2, 3, -4, -1, 75], "path": ["0", "0", "12", "13", "14", "19", "21"], "rt": [1365, 332, 20, 123, 98], "actions": ["right", "right", "right", "down", "down"], "actionTimes": [2242, 3095, 3646, 4294, 4911], "queries": {"click": {"state": {"target": [], "time": []}, "edge": {"target": [], "time": []}}, "mouseover": {"state": {"target": [], "time": []}, "edge": {"target": [], "time": []}}, "mouseout": {"state": {"target": [], "time": []}, "edge": {"target": [], "time": []}}}, "displayed_time": "14.88", "trialTime": 15221, "trial_type": "mouselab-mdp", "trial_index": 20, "time_elapsed": 410782, "internal_node_id": "0.0-6.0-1.0-11.0"}}, {"uniqueid": "w66204036:a18116095", "current_trial": 21, "dateTime": 1693565075499, "trialdata": {"revealed_states": [], "clicked_states": [], "num_clicks_accrued": [0, 0, 0, 0, 0, 0, 0, 0, 0, 0, 0, 0, 0], "stateRewards": ["", -2, -4, -2, -13, -15, 87, -19, -6, -80, 30, 12, 1, 1, -8, 2, 55, 56, 15, 11, -68, -7, 55, -2, 3, -3, -3, 48, 62, 4, 1, -3, 69, -33], "withholdReward": false, "trial_id": "mdp_trial_13", "block": "test", "trialIndex": 14, "score": -34, "costs": 0, "simulationMode": [null, null, null, null, null], "rewards": [-2, 3, -3, 1, -33], "path": ["0", "0", "23", "24", "25", "30", "33"], "rt": [1067, 470, 131, 97, 110], "actions": ["left", "left", "left", "down", "left"], "actionTimes": [1819, 2813, 3470, 4107, 4749], "queries": {"click": {"state": {"target": [], "time": []}, "edge": {"target": [], "time": []}}, "mouseover": {"state": {"target": [], "time": []}, "edge": {"target": [], "time": []}}, "mouseout": {"state": {"target": [], "time": []}, "edge": {"target": [], "time": []}}}, "displayed_time": "14.76", "trialTime": 16062, "trial_type": "mouselab-mdp", "trial_index": 21, "time_elapsed": 427261, "internal_node_id": "0.0-6.0-1.0-12.0"}}, {"uniqueid": "w66204036:a18116095", "current_trial": 22, "dateTime": 1693565091150, "trialdata": {"revealed_states": [], "clicked_states": [], "num_clicks_accrued": [0, 0, 0, 0, 0, 0, 0, 0, 0, 0, 0, 0, 0], "stateRewards": ["", 1, 1, 1, -3, -7, -1, -41, -10, 20, -72, -63, 1, -4, -2, 2, -66, 30, -84, -2, 49, 23, 71, -1, -4, 4, -12, 67, 5, 18, -16, 88, 56, -5], "withholdReward": false, "trial_id": "mdp_trial_14", "block": "test", "trialIndex": 15, "score": 39, "costs": 0, "simulationMode": [null, null, null, null, null], "rewards": [-1, -4, 4, -16, 56], "path": ["0", "0", "23", "24", "25", "30", "32"], "rt": [317, 413, 130, 44, 7], "actions": ["left", "left", "left", "down", "down"], "actionTimes": [941, 1864, 2522, 3078, 3636], "queries": {"click": {"state": {"target": [], "time": []}, "edge": {"target": [], "time": []}}, "mouseover": {"state": {"target": [], "time": []}, "edge": {"target": [], "time": []}}, "mouseout": {"state": {"target": [], "time": []}, "edge": {"target": [], "time": []}}}, "displayed_time": "14.63", "trialTime": 15239, "trial_type": "mouselab-mdp", "trial_index": 22, "time_elapsed": 442912, "internal_node_id": "0.0-6.0-1.0-13.0"}}, {"uniqueid": "w66204036:a18116095", "current_trial": 23, "dateTime": 1693565106641, "trialdata": {"revealed_states": [], "clicked_states": [], "num_clicks_accrued": [0, 0, 0, 0, 0, 0, 0, 0, 0, 0, 0, 0, 0], "stateRewards": ["", 2, 3, -2, -8, -8, -41, 74, 15, -23, -80, 1, 1, 3, 3, -15, -63, -78, 67, 13, 75, -41, 86, 2, -2, 6, -3, -8, -49, 50, -6, 83, 74, 80], "withholdReward": false, "trial_id": "mdp_trial_15", "block": "test", "trialIndex": 16, "score": -5, "costs": 0, "simulationMode": [null, null, null, null, null], "rewards": [2, 3, -2, 15, -23], "path": ["0", "0", "1", "2", "3", "8", "9"], "rt": [492, 638, 133, 112, 55], "actions": ["up", "up", "up", "left", "up"], "actionTimes": [1265, 2419, 3066, 3693, 4269], "queries": {"click": {"state": {"target": [], "time": []}, "edge": {"target": [], "time": []}}, "mouseover": {"state": {"target": [], "time": []}, "edge": {"target": [], "time": []}}, "mouseout": {"state": {"target": ["0", "3", "3", "4", "18"], "time": [9263, 9779, 9879, 9929, 10263]}, "edge": {"target": [], "time": []}}}, "displayed_time": "14.78", "trialTime": 15076, "trial_type": "mouselab-mdp", "trial_index": 23, "time_elapsed": 458403, "internal_node_id": "0.0-6.0-1.0-14.0"}}, {"uniqueid": "w66204036:a18116095", "current_trial": 24, "dateTime": 1693565126125, "trialdata": {"revealed_states": [], "clicked_states": [], "num_clicks_accrued": [0, 0, 0, 0, 0, 0, 0, 0, 0, 0, 0, 0, 0], "stateRewards": ["", 1, -4, -6, 11, -20, 8, -30, 1, -38, 88, 42, 2, 3, 5, -12, -8, -74, 30, -8, 67, -19, 42, 2, -1, 4, 13, 50, -68, 2, -8, -15, 87, -46], "withholdReward": false, "trial_id": "mdp_trial_16", "block": "test", "trialIndex": 17, "score": -18, "costs": 0, "simulationMode": [null, null, null, null, null], "rewards": [1, -4, -6, 11, -20], "path": ["0", "0", "1", "2", "3", "4", "5"], "rt": [521, 475, 437, 66, 61], "actions": ["up", "up", "up", "right", "up"], "actionTimes": [1568, 2571, 3523, 4100, 4676], "queries": {"click": {"state": {"target": [], "time": []}, "edge": {"target": [], "time": []}}, "mouseover": {"state": {"target": [], "time": []}, "edge": {"target": [], "time": []}}, "mouseout": {"state": {"target": [], "time": []}, "edge": {"target": [], "time": []}}}, "displayed_time": "15.05", "trialTime": 19076, "trial_type": "mouselab-mdp", "trial_index": 24, "time_elapsed": 477887, "internal_node_id": "0.0-6.0-1.0-15.0"}}, {"uniqueid": "w66204036:a18116095", "current_trial": 25, "dateTime": 1693565142125, "trialdata": {"revealed_states": [], "clicked_states": [], "num_clicks_accrued": [0, 0, 0, 0, 0, 0, 0, 0, 0, 0, 0, 0, 0], "stateRewards": ["", -2, -1, -3, -1, -78, -6, 2, -1, 22, -88, 32, 2, 2, -7, -8, -51, -17, 54, 2, -44, 54, 75, 2, -2, -8, -15, -29, 12, -67, 15, -1, -47, -47], "withholdReward": false, "trial_id": "mdp_trial_17", "block": "test", "trialIndex": 18, "score": -5, "costs": 0, "simulationMode": [null, null, null, null, null], "rewards": [-2, -1, -3, -1, 2], "path": ["0", "0", "1", "2", "3", "4", "7"], "rt": [128, 191, 163, 68, 125], "actions": ["up", "up", "up", "right", "down"], "actionTimes": [1382, 2089, 2761, 3348, 4005], "queries": {"click": {"state": {"target": [], "time": []}, "edge": {"target": [], "time": []}}, "mouseover": {"state": {"target": [], "time": []}, "edge": {"target": [], "time": []}}, "mouseout": {"state": {"target": [], "time": []}, "edge": {"target": [], "time": []}}}, "displayed_time": "15.26", "trialTime": 15593, "trial_type": "mouselab-mdp", "trial_index": 25, "time_elapsed": 493887, "internal_node_id": "0.0-6.0-1.0-16.0"}}, {"uniqueid": "w66204036:a18116095", "current_trial": 26, "dateTime": 1693565157565, "trialdata": {"revealed_states": [], "clicked_states": [], "num_clicks_accrued": [0, 0, 0, 0, 0, 0, 0, 0, 0, 0, 0, 0, 0], "stateRewards": ["", 1, 2, -5, 14, 54, -14, -25, 16, -5, -87, 78, -1, 1, 3, -3, 52, 53, 53, -10, 73, -69, -48, 2, 3, 1, 8, -62, -7, 85, 7, 82, 52, -28], "withholdReward": false, "trial_id": "mdp_trial_18", "block": "test", "trialIndex": 19, "score": 53, "costs": 0, "simulationMode": [null, null, null, null, null], "rewards": [-1, 1, 3, -3, 53], "path": ["0", "0", "12", "13", "14", "15", "18"], "rt": [906, 347, 163, 362, 87], "actions": ["right", "right", "right", "up", "left"], "actionTimes": [1583, 2451, 3128, 4015, 4632], "queries": {"click": {"state": {"target": [], "time": []}, "edge": {"target": [], "time": []}}, "mouseover": {"state": {"target": [], "time": []}, "edge": {"target": [], "time": []}}, "mouseout": {"state": {"target": [], "time": []}, "edge": {"target": [], "time": []}}}, "displayed_time": "14.68", "trialTime": 15018, "trial_type": "mouselab-mdp", "trial_index": 26, "time_elapsed": 509328, "internal_node_id": "0.0-6.0-1.0-17.0"}}, {"uniqueid": "w66204036:a18116095", "current_trial": 27, "dateTime": 1693565173883, "trialdata": {"revealed_states": [], "clicked_states": [], "num_clicks_accrued": [0, 0, 0, 0, 0, 0, 0, 0, 0, 0, 0, 0, 0], "stateRewards": ["", -2, -2, -7, -13, -10, 49, -68, -1, 84, 70, 88, 1, 4, 4, 12, -57, 25, 30, 8, -1, -77, 57, 2, 3, 2, 3, -18, -80, 23, -15, -41, 70, 11], "withholdReward": false, "trial_id": "mdp_trial_19", "block": "test", "trialIndex": 20, "score": 16, "costs": 0, "simulationMode": [null, null, null, null, null], "rewards": [1, 4, 4, 8, -1], "path": ["0", "0", "12", "13", "14", "19", "20"], "rt": [856, 539, 216, 142, 176], "actions": ["right", "right", "right", "down", "right"], "actionTimes": [1602, 2675, 3402, 4065, 4762], "queries": {"click": {"state": {"target": [], "time": []}, "edge": {"target": [], "time": []}}, "mouseover": {"state": {"target": [], "time": []}, "edge": {"target": [], "time": []}}, "mouseout": {"state": {"target": [], "time": []}, "edge": {"target": [], "time": []}}}, "displayed_time": "14.75", "trialTime": 15889, "trial_type": "mouselab-mdp", "trial_index": 27, "time_elapsed": 525645, "internal_node_id": "0.0-6.0-1.0-18.0"}}, {"uniqueid": "w66204036:a18116095", "current_trial": 28, "dateTime": 1693565189953, "trialdata": {"revealed_states": [], "clicked_states": [], "num_clicks_accrued": [0, 0, 0, 0, 0, 0, 0, 0, 0, 0, 0, 0, 0], "stateRewards": ["", 1, -1, 4, -2, -75, -75, 84, -9, -60, -79, 59, 2, -4, 8, 9, -17, -82, 80, 14, -4, 49, 49, -1, 3, 6, -11, -33, 34, 55, 9, -57, 5, 59], "withholdReward": false, "trial_id": "mdp_trial_20", "block": "test", "trialIndex": 21, "score": 31, "costs": 0, "simulationMode": [null, null, null, null, null], "rewards": [-1, 3, 6, -11, 34], "path": ["0", "0", "23", "24", "25", "26", "28"], "rt": [708, 17, 144, 77, 35], "actions": ["left", "left", "left", "up", "right"], "actionTimes": [2027, 2566, 3256, 3857, 4434], "queries": {"click": {"state": {"target": [], "time": []}, "edge": {"target": [], "time": []}}, "mouseover": {"state": {"target": [], "time": []}, "edge": {"target": [], "time": []}}, "mouseout": {"state": {"target": [], "time": []}, "edge": {"target": [], "time": []}}}, "displayed_time": "15.32", "trialTime": 15636, "trial_type": "mouselab-mdp", "trial_index": 28, "time_elapsed": 541716, "internal_node_id": "0.0-6.0-1.0-19.0"}}, {"uniqueid": "w66204036:a18116095", "current_trial": 29, "dateTime": 1693565210149, "trialdata": {"revealed_states": [], "clicked_states": [], "num_clicks_accrued": [0, 0, 0, 0, 0, 0, 0, 0, 0, 0, 0, 0, 0], "stateRewards": ["", 1, -3, -1, 9, -34, -40, 22, -7, 45, 53, -11, 2, 4, 5, 15, 21, 37, -49, -3, 80, -28, -34, 1, -3, 1, 1, -40, -6, -5, -16, -85, -86, 59], "withholdReward": false, "trial_id": "mdp_trial_21", "block": "test", "trialIndex": 22, "score": -28, "costs": 0, "simulationMode": [null, null, null, null, null], "rewards": [1, -3, -1, 9, -34], "path": ["0", "0", "1", "2", "3", "4", "5"], "rt": [1882, 513, 65, 129, 122], "actions": ["up", "up", "up", "right", "up"], "actionTimes": [3135, 4163, 4749, 5396, 6029], "queries": {"click": {"state": {"target": [], "time": []}, "edge": {"target": [], "time": []}}, "mouseover": {"state": {"target": [], "time": []}, "edge": {"target": [], "time": []}}, "mouseout": {"state": {"target": ["0", "0"], "time": [18114, 18931]}, "edge": {"target": [], "time": []}}}, "displayed_time": "15.26", "trialTime": 19752, "trial_type": "mouselab-mdp", "trial_index": 29, "time_elapsed": 561912, "internal_node_id": "0.0-6.0-1.0-20.0"}}, {"uniqueid": "w66204036:a18116095", "current_trial": 30, "dateTime": 1693565225805, "trialdata": {"revealed_states": [], "clicked_states": [], "num_clicks_accrued": [0, 0, 0, 0, 0, 0, 0, 0, 0, 0, 0, 0, 0], "stateRewards": ["", 1, 2, -3, 6, -88, 74, -45, 7, -46, 40, -77, 1, -4, 4, 3, 22, -25, -59, 8, -83, 19, -60, -1, -1, -1, -8, 26, -29, 64, -7, -88, -51, -55], "withholdReward": false, "trial_id": "mdp_trial_22", "block": "test", "trialIndex": 23, "score": 28, "costs": 0, "simulationMode": [null, null, null, null, null], "rewards": [1, -4, 4, 8, 19], "path": ["0", "0", "12", "13", "14", "19", "21"], "rt": [1627, 277, 88, 46, 51], "actions": ["right", "right", "right", "down", "down"], "actionTimes": [2366, 3168, 3780, 4336, 4938], "queries": {"click": {"state": {"target": [], "time": []}, "edge": {"target": [], "time": []}}, "mouseover": {"state": {"target": [], "time": []}, "edge": {"target": [], "time": []}}, "mouseout": {"state": {"target": ["0"], "time": [491]}, "edge": {"target": [], "time": []}}}, "displayed_time": "14.74", "trialTime": 15214, "trial_type": "mouselab-mdp", "trial_index": 30, "time_elapsed": 577568, "internal_node_id": "0.0-6.0-1.0-21.0"}}, {"uniqueid": "w66204036:a18116095", "current_trial": 31, "dateTime": 1693565242152, "trialdata": {"revealed_states": [], "clicked_states": [], "num_clicks_accrued": [0, 0, 0, 0, 0, 0, 0, 0, 0, 0, 0, 0, 0], "stateRewards": ["", -1, 3, 8, 10, -86, 61, -36, 10, 17, -60, 24, -1, -3, 3, 11, 50, 60, 33, -3, -20, 58, -6, 1, -4, -4, 13, -70, -71, 43, 14, 52, 82, -11], "withholdReward": false, "trial_id": "mdp_trial_23", "block": "test", "trialIndex": 24, "score": -4, "costs": 0, "simulationMode": [null, null, null, null, null], "rewards": [1, -4, -4, 14, -11], "path": ["0", "0", "23", "24", "25", "30", "33"], "rt": [443, 459, 64, 137, 108], "actions": ["left", "left", "left", "down", "left"], "actionTimes": [1332, 2314, 2901, 3568, 4200], "queries": {"click": {"state": {"target": [], "time": []}, "edge": {"target": [], "time": []}}, "mouseover": {"state": {"target": [], "time": []}, "edge": {"target": [], "time": []}}, "mouseout": {"state": {"target": [], "time": []}, "edge": {"target": [], "time": []}}}, "displayed_time": "14.89", "trialTime": 15928, "trial_type": "mouselab-mdp", "trial_index": 31, "time_elapsed": 593915, "internal_node_id": "0.0-6.0-1.0-22.0"}}, {"uniqueid": "w66204036:a18116095", "current_trial": 32, "dateTime": 1693565257553, "trialdata": {"revealed_states": [], "clicked_states": [], "num_clicks_accrued": [0, 0, 0, 0, 0, 0, 0, 0, 0, 0, 0, 0, 0], "stateRewards": ["", 1, 2, 7, 13, 88, -71, 27, 3, 60, 5, -53, -2, 2, -6, -1, -30, 79, 47, -4, -14, 46, 68, 1, 1, 8, 10, -14, 86, 48, -11, -67, -44, 5], "withholdReward": false, "trial_id": "mdp_trial_24", "block": "test", "trialIndex": 25, "score": -45, "costs": 0, "simulationMode": [null, null, null, null, null], "rewards": [1, 1, 8, -11, -44], "path": ["0", "0", "23", "24", "25", "30", "32"], "rt": [520, 498, 294, 25, 256], "actions": ["left", "left", "left", "down", "down"], "actionTimes": [1133, 2155, 2973, 3509, 4307], "queries": {"click": {"state": {"target": [], "time": []}, "edge": {"target": [], "time": []}}, "mouseover": {"state": {"target": [], "time": []}, "edge": {"target": [], "time": []}}, "mouseout": {"state": {"target": [], "time": []}, "edge": {"target": [], "time": []}}}, "displayed_time": "14.62", "trialTime": 14939, "trial_type": "mouselab-mdp", "trial_index": 32, "time_elapsed": 609316, "internal_node_id": "0.0-6.0-1.0-23.0"}}, {"uniqueid": "w66204036:a18116095", "current_trial": 33, "dateTime": 1693565273531, "trialdata": {"revealed_states": [], "clicked_states": [], "num_clicks_accrued": [0, 0, 0, 0, 0, 0, 0, 0, 0, 0, 0, 0, 0], "stateRewards": ["", -1, -4, 8, 8, -68, 47, 24, -7, -61, 49, -69, -1, -1, 8, -7, 42, 1, -45, -11, 10, -63, -6, 1, 4, 6, -16, 79, -37, -58, -12, 81, 18, -53], "withholdReward": false, "trial_id": "mdp_trial_25", "block": "test", "trialIndex": 26, "score": 58, "costs": 0, "simulationMode": [null, null, null, null, null], "rewards": [-1, -4, 8, 8, 47], "path": ["0", "0", "1", "2", "3", "4", "6"], "rt": [213, 399, 478, 73, 14], "actions": ["up", "up", "up", "right", "right"], "actionTimes": [879, 1790, 2786, 3381, 3921], "queries": {"click": {"state": {"target": [], "time": []}, "edge": {"target": [], "time": []}}, "mouseover": {"state": {"target": [], "time": []}, "edge": {"target": [], "time": []}}, "mouseout": {"state": {"target": [], "time": []}, "edge": {"target": [], "time": []}}}, "displayed_time": "14.67", "trialTime": 15506, "trial_type": "mouselab-mdp", "trial_index": 33, "time_elapsed": 625293, "internal_node_id": "0.0-6.0-1.0-24.0"}}, {"uniqueid": "w66204036:a18116095", "current_trial": 34, "dateTime": 1693565289857, "trialdata": {"revealed_states": [], "clicked_states": [], "num_clicks_accrued": [0, 0, 0, 0, 0, 0, 0, 0, 0, 0, 0, 0, 0], "stateRewards": ["", 2, 3, -3, 4, 72, -28, 34, -12, 57, -64, -15, 2, 1, -4, -15, 2, 49, 31, -1, -42, -58, 31, -2, 1, -2, -13, -75, -19, -22, -6, 61, 10, -56], "withholdReward": false, "trial_id": "mdp_trial_26", "block": "test", "trialIndex": 27, "score": 78, "costs": 0, "simulationMode": [null, null, null, null, null], "rewards": [2, 3, -3, 4, 72], "path": ["0", "0", "1", "2", "3", "4", "5"], "rt": [171, 218, 36, 108, 397], "actions": ["up", "up", "up", "right", "up"], "actionTimes": [1146, 1889, 2440, 3062, 3970], "queries": {"click": {"state": {"target": [], "time": []}, "edge": {"target": [], "time": []}}, "mouseover": {"state": {"target": [], "time": []}, "edge": {"target": [], "time": []}}, "mouseout": {"state": {"target": [], "time": []}, "edge": {"target": [], "time": []}}}, "displayed_time": "14.98", "trialTime": 15878, "trial_type": "mouselab-mdp", "trial_index": 34, "time_elapsed": 641620, "internal_node_id": "0.0-6.0-1.0-25.0"}}, {"uniqueid": "w66204036:a18116095", "current_trial": 35, "dateTime": 1693565306691, "trialdata": {"revealed_states": [], "clicked_states": [], "num_clicks_accrued": [0, 0, 0, 0, 0, 0, 0, 0, 0, 0, 0, 0, 0], "stateRewards": ["", 2, -1, -2, -5, -47, -57, -33, -11, 31, -18, -72, -2, 1, -4, -8, -46, -53, -50, 15, -85, -9, 39, -2, -2, 1, 14, -1, -8, 53, -12, -41, -74, 62], "withholdReward": false, "trial_id": "mdp_trial_27", "block": "test", "trialIndex": 28, "score": -84, "costs": 0, "simulationMode": [null, null, null, null, null], "rewards": [2, -1, -2, -11, -72], "path": ["0", "0", "1", "2", "3", "8", "11"], "rt": [334, 133, 341, 234, 439], "actions": ["up", "up", "up", "left", "left"], "actionTimes": [1241, 1893, 2771, 3527, 4501], "queries": {"click": {"state": {"target": [], "time": []}, "edge": {"target": [], "time": []}}, "mouseover": {"state": {"target": [], "time": []}, "edge": {"target": [], "time": []}}, "mouseout": {"state": {"target": [], "time": []}, "edge": {"target": [], "time": []}}}, "displayed_time": "14.91", "trialTime": 16375, "trial_type": "mouselab-mdp", "trial_index": 35, "time_elapsed": 658453, "internal_node_id": "0.0-6.0-1.0-26.0"}}, {"uniqueid": "w66204036:a18116095", "current_trial": 36, "dateTime": 1693565323003, "trialdata": {"revealed_states": [], "clicked_states": [], "num_clicks_accrued": [0, 0, 0, 0, 0, 0, 0, 0, 0, 0, 0, 0, 0], "stateRewards": ["", 1, 1, 6, -14, -40, 37, 16, -13, 33, -68, 49, 2, 4, 3, 6, 55, 27, 32, 10, -65, 20, -87, 2, 1, -6, -5, -42, 12, 29, -8, 16, 76, -33], "withholdReward": false, "trial_id": "mdp_trial_28", "block": "test", "trialIndex": 29, "score": 44, "costs": 0, "simulationMode": [null, null, null, null, null], "rewards": [1, 1, 6, -13, 49], "path": ["0", "0", "1", "2", "3", "8", "11"], "rt": [126, 140, 46, 30, 86], "actions": ["up", "up", "up", "left", "left"], "actionTimes": [1446, 2108, 2675, 3246, 3854], "queries": {"click": {"state": {"target": [], "time": []}, "edge": {"target": [], "time": []}}, "mouseover": {"state": {"target": [], "time": []}, "edge": {"target": [], "time": []}}, "mouseout": {"state": {"target": [], "time": []}, "edge": {"target": [], "time": []}}}, "displayed_time": "15.32", "trialTime": 15838, "trial_type": "mouselab-mdp", "trial_index": 36, "time_elapsed": 674765, "internal_node_id": "0.0-6.0-1.0-27.0"}}, {"uniqueid": "w66204036:a18116095", "current_trial": 37, "dateTime": 1693565338609, "trialdata": {"revealed_states": [], "clicked_states": [], "num_clicks_accrued": [0, 0, 0, 0, 0, 0, 0, 0, 0, 0, 0, 0, 0], "stateRewards": ["", -2, -4, -8, 8, 63, -50, -19, -7, -17, -31, 31, 1, 3, -5, 12, -35, -63, -29, -4, -17, -75, -79, -2, -3, -2, 8, -3, -85, 10, -2, -82, -82, 56], "withholdReward": false, "trial_id": "mdp_trial_29", "block": "test", "trialIndex": 30, "score": -25, "costs": 0, "simulationMode": [null, null, null, null, null], "rewards": [-2, -4, -8, 8, -19], "path": ["0", "0", "1", "2", "3", "4", "7"], "rt": [313, 59, 35, 354, 153], "actions": ["up", "up", "up", "right", "down"], "actionTimes": [988, 1555, 2117, 2984, 3661], "queries": {"click": {"state": {"target": [], "time": []}, "edge": {"target": [], "time": []}}, "mouseover": {"state": {"target": [], "time": []}, "edge": {"target": [], "time": []}}, "mouseout": {"state": {"target": [], "time": []}, "edge": {"target": [], "time": []}}}, "displayed_time": "14.68", "trialTime": 15139, "trial_type": "mouselab-mdp", "trial_index": 37, "time_elapsed": 690371, "internal_node_id": "0.0-6.0-1.0-28.0"}}, {"uniqueid": "w66204036:a18116095", "current_trial": 38, "dateTime": 1693565355106, "trialdata": {"revealed_states": [], "clicked_states": [], "num_clicks_accrued": [0, 0, 0, 0, 0, 0, 0, 0, 0, 0, 0, 0, 0], "stateRewards": ["", -2, 4, -3, -13, 63, -36, 62, 11, 78, 34, -51, 2, -2, 8, -6, -40, -18, 31, 9, 64, 39, 79, 1, 4, -4, 15, -12, 76, 73, -10, -77, 86, -4], "withholdReward": false, "trial_id": "mdp_trial_30", "block": "test", "trialIndex": 31, "score": 4, "costs": 0, "simulationMode": [null, null, null, null, null], "rewards": [1, 4, -4, 15, -12], "path": ["0", "0", "23", "24", "25", "26", "27"], "rt": [569, 67, 568, 339, 109], "actions": ["left", "left", "left", "up", "up"], "actionTimes": [1378, 1967, 3065, 3927, 4569], "queries": {"click": {"state": {"target": [], "time": []}, "edge": {"target": [], "time": []}}, "mouseover": {"state": {"target": [], "time": []}, "edge": {"target": [], "time": []}}, "mouseout": {"state": {"target": [], "time": []}, "edge": {"target": [], "time": []}}}, "displayed_time": "14.81", "trialTime": 16023, "trial_type": "mouselab-mdp", "trial_index": 38, "time_elapsed": 706868, "internal_node_id": "0.0-6.0-1.0-29.0"}}, {"uniqueid": "w66204036:a18116095", "current_trial": 39, "dateTime": 1693565370434, "trialdata": {"revealed_states": [], "clicked_states": [], "num_clicks_accrued": [0, 0, 0, 0, 0, 0, 0, 0, 0, 0, 0, 0, 0], "stateRewards": ["", -2, -4, 6, 14, -34, 49, 36, -8, -3, 32, -4, 1, -2, 1, -8, -20, -71, -57, -7, -86, -62, -16, -2, -3, -5, 11, 23, -21, 53, 5, -5, 85, 73], "withholdReward": false, "trial_id": "mdp_trial_31", "block": "test", "trialIndex": 32, "score": -28, "costs": 0, "simulationMode": [null, null, null, null, null], "rewards": [1, -2, 1, -8, -20], "path": ["0", "0", "12", "13", "14", "15", "16"], "rt": [531, 151, 125, 93, 154], "actions": ["right", "right", "right", "up", "up"], "actionTimes": [1072, 1759, 2417, 3019, 3682], "queries": {"click": {"state": {"target": [], "time": []}, "edge": {"target": [], "time": []}}, "mouseover": {"state": {"target": [], "time": []}, "edge": {"target": [], "time": []}}, "mouseout": {"state": {"target": [], "time": []}, "edge": {"target": [], "time": []}}}, "displayed_time": "14.55", "trialTime": 14861, "trial_type": "mouselab-mdp", "trial_index": 39, "time_elapsed": 722197, "internal_node_id": "0.0-6.0-1.0-30.0"}}, {"uniqueid": "w66204036:a18116095", "current_trial": 40, "dateTime": 1693565385854, "trialdata": {"revealed_states": [], "clicked_states": [], "num_clicks_accrued": [0, 0, 0, 0, 0, 0, 0, 0, 0, 0, 0, 0, 0], "stateRewards": ["", -2, 1, 6, -2, -10, -78, -69, 14, -15, 7, -1, 1, -1, -2, 13, 77, 32, 87, 5, -74, 30, -26, 1, 3, 4, 12, 39, 54, -43, 2, 10, 23, 13], "withholdReward": false, "trial_id": "mdp_trial_32", "block": "test", "trialIndex": 33, "score": 33, "costs": 0, "simulationMode": [null, null, null, null, null], "rewards": [1, -1, -2, 5, 30], "path": ["0", "0", "12", "13", "14", "19", "21"], "rt": [61, 90, 37, 35, 86], "actions": ["right", "right", "right", "down", "down"], "actionTimes": [659, 1271, 1838, 2400, 3028], "queries": {"click": {"state": {"target": [], "time": []}, "edge": {"target": [], "time": []}}, "mouseover": {"state": {"target": [], "time": []}, "edge": {"target": [], "time": []}}, "mouseout": {"state": {"target": [], "time": []}, "edge": {"target": [], "time": []}}}, "displayed_time": "14.60", "trialTime": 14922, "trial_type": "mouselab-mdp", "trial_index": 40, "time_elapsed": 737616, "internal_node_id": "0.0-6.0-1.0-31.0"}}, {"uniqueid": "w66204036:a18116095", "current_trial": 41, "dateTime": 1693565401535, "trialdata": {"revealed_states": [], "clicked_states": [], "num_clicks_accrued": [0, 0, 0, 0, 0, 0, 0, 0, 0, 0, 0, 0, 0], "stateRewards": ["", -1, 1, 6, -6, 70, 66, 67, -16, -75, -35, 37, -1, 4, 4, -6, 47, -9, 63, 15, 21, -63, 13, 1, 3, -6, 10, 79, -29, 18, -15, 9, -67, -19], "withholdReward": false, "trial_id": "mdp_trial_33", "block": "test", "trialIndex": 34, "score": -84, "costs": 0, "simulationMode": [null, null, null, null, null], "rewards": [1, 3, -6, -15, -67], "path": ["0", "0", "23", "24", "25", "30", "32"], "rt": [24, 18, 50, 35, 50], "actions": ["left", "left", "left", "down", "down"], "actionTimes": [896, 1143, 1740, 2322, 2889], "queries": {"click": {"state": {"target": [], "time": []}, "edge": {"target": [], "time": []}}, "mouseover": {"state": {"target": [], "time": []}, "edge": {"target": [], "time": []}}, "mouseout": {"state": {"target": [], "time": []}, "edge": {"target": [], "time": []}}}, "displayed_time": "14.88", "trialTime": 15209, "trial_type": "mouselab-mdp", "trial_index": 41, "time_elapsed": 753298, "internal_node_id": "0.0-6.0-1.0-32.0"}}, {"uniqueid": "w66204036:a18116095", "current_trial": 42, "dateTime": 1693565417003, "trialdata": {"revealed_states": [], "clicked_states": [], "num_clicks_accrued": [0, 0, 0, 0, 0, 0, 0, 0, 0, 0, 0, 0, 0], "stateRewards": ["", -1, 1, -6, -1, 80, 23, 2, -11, 73, -81, 59, 1, 3, 5, -1, -26, 28, -3, 16, -59, -13, -50, -2, -2, 2, 15, -50, 86, 17, -4, 37, 35, 44], "withholdReward": false, "trial_id": "mdp_trial_34", "block": "test", "trialIndex": 35, "score": -37, "costs": 0, "simulationMode": [null, null, null, null, null], "rewards": [-2, -2, 2, 15, -50], "path": ["0", "0", "23", "24", "25", "26", "27"], "rt": [67, 106, 86, 15, 79], "actions": ["left", "left", "left", "up", "up"], "actionTimes": [625, 1258, 1870, 2411, 3045], "queries": {"click": {"state": {"target": [], "time": []}, "edge": {"target": [], "time": []}}, "mouseover": {"state": {"target": [], "time": []}, "edge": {"target": [], "time": []}}, "mouseout": {"state": {"target": [], "time": []}, "edge": {"target": [], "time": []}}}, "displayed_time": "14.57", "trialTime": 14970, "trial_type": "mouselab-mdp", "trial_index": 42, "time_elapsed": 768766, "internal_node_id": "0.0-6.0-1.0-33.0"}}, {"uniqueid": "w66204036:a18116095", "current_trial": 43, "dateTime": 1693565432560, "trialdata": {"revealed_states": [], "clicked_states": [], "num_clicks_accrued": [0, 0, 0, 0, 0, 0, 0, 0, 0, 0, 0, 0, 0], "stateRewards": ["", 2, 3, 3, 10, 19, -21, 6, 9, 54, 68, 16, 2, 2, -6, -8, 40, -2, -75, -2, -42, 55, 59, -1, 2, 4, -14, 11, -34, -30, -6, 61, -53, 13], "withholdReward": false, "trial_id": "mdp_trial_35", "block": "test", "trialIndex": 36, "score": 60, "costs": 0, "simulationMode": [null, null, null, null, null], "rewards": [-1, 2, 4, -6, 61], "path": ["0", "0", "23", "24", "25", "30", "31"], "rt": [28, 87, 386, 693, 168], "actions": ["left", "left", "left", "down", "right"], "actionTimes": [745, 1373, 2281, 3490, 4182], "queries": {"click": {"state": {"target": [], "time": []}, "edge": {"target": [], "time": []}}, "mouseover": {"state": {"target": [], "time": []}, "edge": {"target": [], "time": []}}, "mouseout": {"state": {"target": [], "time": []}, "edge": {"target": [], "time": []}}}, "displayed_time": "14.72", "trialTime": 15074, "trial_type": "mouselab-mdp", "trial_index": 43, "time_elapsed": 784323, "internal_node_id": "0.0-6.0-1.0-34.0"}}, {"uniqueid": "w66204036:a18116095", "current_trial": 44, "dateTime": 1693565448169, "trialdata": {"revealed_states": [], "clicked_states": [], "num_clicks_accrued": [0, 0, 0, 0, 0, 0, 0, 0, 0, 0, 0, 0, 0], "stateRewards": ["", -1, 4, -6, -5, -22, -38, -38, -2, -56, 88, 14, -1, -1, -7, -6, 61, -60, 21, 11, 57, 31, -30, -2, -2, 6, -9, -44, -70, -44, -15, 34, 16, -78], "withholdReward": false, "trial_id": "mdp_trial_36", "block": "test", "trialIndex": 37, "score": -77, "costs": 0, "simulationMode": [null, null, null, null, null], "rewards": [-2, -2, 6, -9, -70], "path": ["0", "0", "23", "24", "25", "26", "28"], "rt": [26, 19, 19, 31, 18], "actions": ["left", "left", "left", "up", "right"], "actionTimes": [757, 1329, 1895, 2457, 2998], "queries": {"click": {"state": {"target": [], "time": []}, "edge": {"target": [], "time": []}}, "mouseover": {"state": {"target": [], "time": []}, "edge": {"target": [], "time": []}}, "mouseout": {"state": {"target": [], "time": []}, "edge": {"target": [], "time": []}}}, "displayed_time": "14.73", "trialTime": 15094, "trial_type": "mouselab-mdp", "trial_index": 44, "time_elapsed": 799931, "internal_node_id": "0.0-6.0-1.0-35.0"}}, {"uniqueid": "w66204036:a18116095", "current_trial": 45, "dateTime": 1693565464197, "trialdata": {"revealed_states": [], "clicked_states": [], "num_clicks_accrued": [0, 0, 0, 0, 0, 0, 0, 0, 0, 0, 0, 0, 0], "stateRewards": ["", -2, 3, -1, -9, 44, 48, -37, -3, 71, -39, 87, -1, 3, -4, 4, -21, 59, -15, -8, -1, 28, -38, 2, 4, 4, 8, -85, -72, -63, 14, 58, 63, -46], "withholdReward": false, "trial_id": "mdp_trial_37", "block": "test", "trialIndex": 38, "score": -13, "costs": 0, "simulationMode": [null, null, null, null, null], "rewards": [-1, 3, -4, 4, -15], "path": ["0", "0", "12", "13", "14", "15", "18"], "rt": [512, 143, 78, 68, 174], "actions": ["right", "right", "right", "up", "left"], "actionTimes": [1252, 1919, 2531, 3107, 3799], "queries": {"click": {"state": {"target": [], "time": []}, "edge": {"target": [], "time": []}}, "mouseover": {"state": {"target": [], "time": []}, "edge": {"target": [], "time": []}}, "mouseout": {"state": {"target": [], "time": []}, "edge": {"target": [], "time": []}}}, "displayed_time": "14.74", "trialTime": 15502, "trial_type": "mouselab-mdp", "trial_index": 45, "time_elapsed": 815959, "internal_node_id": "0.0-6.0-1.0-36.0"}}, {"uniqueid": "w66204036:a18116095", "current_trial": 46, "dateTime": 1693565479577, "trialdata": {"revealed_states": [], "clicked_states": [], "num_clicks_accrued": [0, 0, 0, 0, 0, 0, 0, 0, 0, 0, 0, 0, 0], "stateRewards": ["", -2, 4, 3, 5, -61, 4, 30, 1, -47, 83, 10, 1, 4, 7, -14, 19, -74, -83, 6, -2, -2, -65, -1, -2, 4, -11, 12, -1, -68, 11, -38, -28, 66], "withholdReward": false, "trial_id": "mdp_trial_38", "block": "test", "trialIndex": 39, "score": -47, "costs": 0, "simulationMode": [null, null, null, null, null], "rewards": [1, 4, 7, 6, -65], "path": ["0", "0", "12", "13", "14", "19", "22"], "rt": [70, 119, 61, 60, 104], "actions": ["right", "right", "right", "down", "left"], "actionTimes": [621, 1277, 1860, 2457, 3069], "queries": {"click": {"state": {"target": [], "time": []}, "edge": {"target": [], "time": []}}, "mouseover": {"state": {"target": [], "time": []}, "edge": {"target": [], "time": []}}, "mouseout": {"state": {"target": [], "time": []}, "edge": {"target": [], "time": []}}}, "displayed_time": "14.56", "trialTime": 14872, "trial_type": "mouselab-mdp", "trial_index": 46, "time_elapsed": 831339, "internal_node_id": "0.0-6.0-1.0-37.0"}}, {"uniqueid": "w66204036:a18116095", "current_trial": 47, "dateTime": 1693565495593, "trialdata": {"revealed_states": [], "clicked_states": [], "num_clicks_accrued": [0, 0, 0, 0, 0, 0, 0, 0, 0, 0, 0, 0, 0], "stateRewards": ["", 1, 1, -3, 7, 49, 78, 26, -5, 26, 48, -43, -1, -3, 2, -5, 4, -1, -60, 10, -35, 51, 81, -2, 1, -7, -5, -39, -86, -54, 4, -3, 74, 77], "withholdReward": false, "trial_id": "mdp_trial_39", "block": "test", "trialIndex": 40, "score": 32, "costs": 0, "simulationMode": [null, null, null, null, null], "rewards": [1, 1, -3, 7, 26], "path": ["0", "0", "1", "2", "3", "4", "7"], "rt": [17, 16, 111, 149, 596], "actions": ["up", "up", "up", "right", "down"], "actionTimes": [540, 843, 1491, 2173, 3291], "queries": {"click": {"state": {"target": [], "time": []}, "edge": {"target": [], "time": []}}, "mouseover": {"state": {"target": [], "time": []}, "edge": {"target": [], "time": []}}, "mouseout": {"state": {"target": [], "time": []}, "edge": {"target": [], "time": []}}}, "displayed_time": "14.53", "trialTime": 15470, "trial_type": "mouselab-mdp", "trial_index": 47, "time_elapsed": 847355, "internal_node_id": "0.0-6.0-1.0-38.0"}}, {"uniqueid": "w66204036:a18116095", "current_trial": 48, "dateTime": 1693565511815, "trialdata": {"revealed_states": [], "clicked_states": [], "num_clicks_accrued": [0, 0, 0, 0, 0, 0, 0, 0, 0, 0, 0, 0, 0], "stateRewards": ["", -1, -3, -5, -14, -13, -47, 79, 8, -60, -64, 41, -1, 2, 3, 13, -46, 61, -79, -11, -64, -65, 23, 1, -2, 6, -14, 46, 32, 21, 7, 75, -66, 15], "withholdReward": false, "trial_id": "mdp_trial_40", "block": "test", "trialIndex": 41, "score": -65, "costs": 0, "simulationMode": [null, null, null, null, null], "rewards": [-1, -3, -5, 8, -64], "path": ["0", "0", "1", "2", "3", "8", "10"], "rt": [250, 17, 16, 115, 158], "actions": ["up", "up", "up", "left", "down"], "actionTimes": [774, 1326, 1878, 2541, 3223], "queries": {"click": {"state": {"target": [], "time": []}, "edge": {"target": [], "time": []}}, "mouseover": {"state": {"target": [], "time": []}, "edge": {"target": [], "time": []}}, "mouseout": {"state": {"target": ["0", "17", "20"], "time": [5193, 13176, 13343]}, "edge": {"target": [], "time": []}}}, "displayed_time": "14.53", "trialTime": 15693, "trial_type": "mouselab-mdp", "trial_index": 48, "time_elapsed": 863578, "internal_node_id": "0.0-6.0-1.0-39.0"}}, {"uniqueid": "w66204036:a18116095", "current_trial": 49, "dateTime": 1693565560311, "trialdata": {"rt": 48490, "response": {"Q0": "$-2 to $2", "Q1": "$-16 to $16", "Q2": "$-32 to $32", "Q3": "The cost for clicking on nodes varied between nodes.", "Q4": "Slightly motivated"}, "question_order": [0, 1, 2, 3, 4], "trial_id": "final_quiz_control", "trial_type": "survey-multi-choice", "trial_index": 49, "time_elapsed": 912073, "internal_node_id": "0.0-6.0-2.0"}}, {"uniqueid": "w66204036:a18116095", "current_trial": 50, "dateTime": 1693565631941, "trialdata": {"rt": 71619, "response": {"Q0": "Don't inspect nodes and randomly select a path.", "Q1": "No, I kept me strategy the same throughout.", "Q2": "No, my strategy was unchanged."}, "trial_id": "self_report_control", "trial_type": "survey-text", "trial_index": 50, "time_elapsed": 983704, "internal_node_id": "0.0-6.0-3.0"}}, {"uniqueid": "w66204036:a18116095", "current_trial": 51, "dateTime": 1693565657069, "trialdata": {"rt": 25124, "response": {"gender": "male", "age": "39", "colorblind": "0", "effort": "0"}, "trial_type": "survey-html-form", "trial_index": 51, "time_elapsed": 1008832, "internal_node_id": "0.0-6.0-4.0"}}, {"uniqueid": "w66204036:a18116095", "current_trial": 52, "dateTime": 1693565676452, "trialdata": {"rt": 19379, "response": {"Q0": "No.", "Q1": "No.", "Q2": "No."}, "trial_type": "survey-text", "trial_index": 52, "time_elapsed": 1028215, "internal_node_id": "0.0-6.0-5.0"}}, {"uniqueid": "w66204036:a18116095", "current_trial": 53, "dateTime": 1693565710670, "trialdata": {"rt": 34213, "stimulus": "<h1>Completion Code Instructions (1/2)</h1>\n<br><br><br><br>\nYou have reached the end of the experiment! The completion code consists of two parts: (1) a code with 2 characters (2) a code with 6 characters. On this page, you will receive the second part of the code. The first part of the completion code will be on the next page.\n<br><br>\nThe second part of your completion code is: <b>EWEK22</b>\n<br><br>\nPlease note this down. Then, press 'Finish HIT' in order to find the first part of your completion code. Once the data has been saved, you will receive this code either in this window or in the original browser window where you started the experiment.\n", "response": 0, "trial_type": "html-button-response", "trial_index": 53, "time_elapsed": 1062432, "internal_node_id": "0.0-6.0-6.0"}}, {"uniqueid": "w66204036:a18116095", "current_trial": 54, "dateTime": 1693565711676, "trialdata": {"success": true, "trial_type": "fullscreen", "trial_index": 54, "time_elapsed": 1063439, "internal_node_id": "0.0-7.0"}}], "questiondata": {"params": {"CODE": "C6DMOQA6", "MIN_TIME": 14, "inspectCost": 1, "startTime": "Fri Sep 01 2023 11:37:27 GMT+0100 (British Summer Time)", "bonusRate": 0.002, "variance": "1_2_4_8_44", "branching": "31123"}, "final_score": 143}, "eventdata": [{"eventtype": "initialized", "value": null, "timestamp": 1693564647290, "interval": 0}, {"eventtype": "window_resize", "value": [1024, 767], "timestamp": 1693564647290, "interval": 0}, {"eventtype": "window_resize", "value": [1024, 767], "timestamp": 1693564647599, "interval": 309}, {"eventtype": "window_resize", "value": [1920, 1080], "timestamp": 1693564653884, "interval": 6285}, {"eventtype": "window_resize", "value": [1024, 767], "timestamp": 1693565710892, "interval": 1057008}], "useragent": "Mozilla/5.0 (X11; Linux x86_64) AppleWebKit/537.36 (KHTML, like Gecko) Chrome/116.0.0.0 Safari/537.36", "mode": "live", "id": "w66204036:a18116095", "status": "user data saved", "Beginhit": "2023-09-01 10:37:26.228377", "Beginexp": "2023-09-01 10:37:34.7517", "Endhit": "2023-09-01 10:55:12.381827", "psiturkStatus": 3, "browser": "<redacted>", "platform": "linux", "language": "en-GB"}