{"condition": 1, "counterbalance": 0, "assignmentId": "a15128176", "workerId": "w58770478", "hitId": "h76281826", "currenttrial": 62, "bonus": 0, "data": [{"uniqueid": "w58770478:a15128176", "current_trial": 0, "dateTime": 1693564664481, "trialdata": {"success": true, "trial_type": "fullscreen", "trial_index": 0, "time_elapsed": 2581, "internal_node_id": "0.0-0.0"}}, {"uniqueid": "w58770478:a15128176", "current_trial": 1, "dateTime": 1693564669994, "trialdata": {"view_history": [{"page_index": 0, "viewing_time": 5509}], "rt": 5509, "trial_id": "exp_instructions_misaligned", "trial_type": "instructions", "trial_index": 1, "time_elapsed": 8095, "internal_node_id": "0.0-1.0"}}, {"uniqueid": "w58770478:a15128176", "current_trial": 2, "dateTime": 1693564893149, "trialdata": {"view_history": [{"page_index": 0, "viewing_time": 102756}, {"page_index": 1, "viewing_time": 94055}, {"page_index": 2, "viewing_time": 15886}, {"page_index": 3, "viewing_time": 10453}], "rt": 223151, "trial_id": "mouselab_instructions_1_misaligned", "trial_type": "instructions", "trial_index": 2, "time_elapsed": 231250, "internal_node_id": "0.0-2.0-1.0"}}, {"uniqueid": "w58770478:a15128176", "current_trial": 3, "dateTime": 1693564908547, "trialdata": {"revealed_states": [], "clicked_states": ["23", "24"], "num_clicks_accrued": [0, 0, 0, 0, 0, 0, 0, 0, 0, 0, 0, 0, 0], "stateRewards": ["", -10, -10, -10, -10, -10, -10, -10, -10, 10, 10, 10, -10, -10, -10, -10, 10, -10, 10, -10, 10, 10, 10, 10, -10, 10, -10, 10, 10, 10, -10, 10, 10, 10], "withholdReward": false, "trial_id": "practice_1", "block": "test", "trialIndex": 0, "score": 12.5, "costs": -1, "simulationMode": [null, null, null, null, null], "rewards": [10, -10, 10, -10, 10], "path": ["0", "0", "23", "24", "25", "26", "27"], "rt": [7986, 451, 307, 432, 246], "actions": ["left", "left", "left", "up", "up"], "actionTimes": [9463, 10415, 11223, 12149, 12895], "queries": {"click": {"state": {"target": ["23", "24"], "time": [4268, 5856]}, "edge": {"target": [], "time": []}}, "mouseover": {"state": {"target": ["1", "23", "24", "25"], "time": [2729, 4032, 4997, 6399]}, "edge": {"target": [], "time": []}}, "mouseout": {"state": {"target": ["0", "1", "23", "24"], "time": [513, 3815, 4912, 6312]}, "edge": {"target": [], "time": []}}}, "displayed_time": "13.40", "trialTime": 15031, "trial_type": "mouselab-mdp", "trial_index": 3, "time_elapsed": 246648, "internal_node_id": "0.0-2.0-2.0-0.0"}}, {"uniqueid": "w58770478:a15128176", "current_trial": 4, "dateTime": 1693564915188, "trialdata": {"revealed_states": [], "clicked_states": [], "num_clicks_accrued": [0, 0, 0, 0, 0, 0, 0, 0, 0, 0, 0, 0, 0], "stateRewards": ["", -10, 10, -10, -10, -10, -10, 10, -10, 10, -10, -10, 10, 10, -10, 10, 10, -10, -10, -10, -10, 10, 10, -10, -10, -10, 10, -10, -10, -10, 10, 10, -10, 10], "withholdReward": false, "trial_id": "practice_2", "block": "test", "trialIndex": 1, "score": 13.5, "costs": 0, "simulationMode": [null, null, null, null, null], "rewards": [10, 10, -10, -10, 10], "path": ["0", "0", "12", "13", "14", "19", "22"], "rt": [802, 400, 186, 55, 65], "actions": ["right", "right", "right", "down", "left"], "actionTimes": [2115, 3010, 3698, 4251, 4811], "queries": {"click": {"state": {"target": [], "time": []}, "edge": {"target": [], "time": []}}, "mouseover": {"state": {"target": ["17"], "time": [1611]}, "edge": {"target": [], "time": []}}, "mouseout": {"state": {"target": ["25", "24", "23", "0", "17"], "time": [677, 726, 826, 1494, 1625]}, "edge": {"target": [], "time": []}}}, "displayed_time": "5.31", "trialTime": 6466, "trial_type": "mouselab-mdp", "trial_index": 4, "time_elapsed": 253288, "internal_node_id": "0.0-2.0-2.0-1.0"}}, {"uniqueid": "w58770478:a15128176", "current_trial": 5, "dateTime": 1693564988189, "trialdata": {"view_history": [{"page_index": 0, "viewing_time": 68495}, {"page_index": 1, "viewing_time": 4499}], "rt": 72994, "trial_id": "mouselab_instructions_2_misaligned", "trial_type": "instructions", "trial_index": 5, "time_elapsed": 326290, "internal_node_id": "0.0-2.0-3.0"}}, {"uniqueid": "w58770478:a15128176", "current_trial": 6, "dateTime": 1693565015600, "trialdata": {"rt": 27406, "response": {"Q0": "The cost for clicking on nodes may vary between nodes.", "Q1": "The better I perform the higher my bonus will be.", "Q2": "No, the amount of cash at each node of the web may be different each time.", "Q3": "To get the highest total score.", "Q4": "Any time during the round.", "Q5": "3 seconds"}, "question_order": [0, 1, 2, 3, 4, 5], "correct": {"Q0": "The cost for clicking on nodes may vary between nodes.", "Q1": "The better I perform the higher my bonus will be.", "Q2": "No, the amount of cash at each node of the web may be different each time.", "Q3": "To get the highest total score.", "Q4": "Only before moving the spider.", "Q5": "3 seconds"}, "trial_id": "mouselab_quiz_misaligned", "trial_type": "survey-multi-choice", "trial_index": 6, "time_elapsed": 353701, "internal_node_id": "0.0-2.0-4.0"}}, {"uniqueid": "w58770478:a15128176", "current_trial": 7, "dateTime": 1693565021192, "trialdata": {"success": true, "trial_type": "fullscreen", "trial_index": 7, "time_elapsed": 359293, "internal_node_id": "0.0-2.1-0.1-0.1"}}, {"uniqueid": "w58770478:a15128176", "current_trial": 8, "dateTime": 1693565063627, "trialdata": {"view_history": [{"page_index": 0, "viewing_time": 16408}, {"page_index": 1, "viewing_time": 11918}, {"page_index": 2, "viewing_time": 7520}, {"page_index": 3, "viewing_time": 6586}], "rt": 42433, "trial_id": "mouselab_instructions_1_misaligned", "trial_type": "instructions", "trial_index": 8, "time_elapsed": 401728, "internal_node_id": "0.0-2.1-1.1"}}, {"uniqueid": "w58770478:a15128176", "current_trial": 9, "dateTime": 1693565081912, "trialdata": {"revealed_states": [], "clicked_states": ["12", "2", "15", "19", "24", "23"], "num_clicks_accrued": [0, 0, 0, 0, 0, 0, 0, 0, 0, 0, 0, 0, 0], "stateRewards": ["", -10, -10, -10, -10, -10, -10, -10, -10, 10, 10, 10, -10, -10, -10, -10, 10, -10, 10, -10, 10, 10, 10, 10, -10, 10, -10, 10, 10, 10, -10, 10, 10, 10], "withholdReward": false, "trial_id": "practice_1", "block": "test", "trialIndex": 2, "score": 10.5, "costs": -3, "simulationMode": [null, null, null, null, null], "rewards": [10, -10, 10, -10, 10], "path": ["0", "0", "23", "24", "25", "30", "32"], "rt": [11573, 61, 125, 1210, 73], "actions": ["left", "left", "left", "down", "down"], "actionTimes": [13135, 13702, 14318, 16021, 16598], "queries": {"click": {"state": {"target": ["12", "2", "15", "19", "24", "23"], "time": [3095, 4960, 6344, 7611, 9078, 10528]}, "edge": {"target": [], "time": []}}, "mouseover": {"state": {"target": ["12", "13", "2", "7", "18", "15", "14", "19", "21", "23", "26", "24", "23", "28", "28", "10", "28", "25"], "time": [2339, 3505, 4739, 5487, 5571, 5705, 6805, 6988, 8088, 8574, 8657, 8906, 9640, 10972, 11109, 11792, 12124, 12356]}, "edge": {"target": [], "time": []}}, "mouseout": {"state": {"target": ["0", "12", "13", "2", "7", "18", "15", "14", "19", "21", "23", "26", "24", "23", "28", "28", "10", "28", "25"], "time": [2257, 3456, 4440, 5454, 5521, 5587, 6758, 6855, 8041, 8526, 8590, 8806, 9588, 10857, 11010, 11291, 12022, 12208, 14777]}, "edge": {"target": [], "time": []}}}, "displayed_time": "17.09", "trialTime": 17990, "trial_type": "mouselab-mdp", "trial_index": 9, "time_elapsed": 420013, "internal_node_id": "0.0-2.1-2.1-0.1"}}, {"uniqueid": "w58770478:a15128176", "current_trial": 10, "dateTime": 1693565095440, "trialdata": {"revealed_states": [], "clicked_states": ["3", "2"], "num_clicks_accrued": [0, 0, 0, 0, 0, 0, 0, 0, 0, 0, 0, 0, 0], "stateRewards": ["", -10, 10, -10, -10, -10, -10, 10, -10, 10, -10, -10, 10, 10, -10, 10, 10, -10, -10, -10, -10, 10, 10, -10, -10, -10, 10, -10, -10, -10, 10, 10, -10, 10], "withholdReward": false, "trial_id": "practice_2", "block": "test", "trialIndex": 3, "score": -27.5, "costs": -1, "simulationMode": [null, null, null, null, null], "rewards": [-10, 10, -10, -10, -10], "path": ["0", "0", "1", "2", "3", "4", "6"], "rt": [6484, 689, 192, 262, 246], "actions": ["up", "up", "up", "right", "right"], "actionTimes": [8418, 9609, 10297, 11049, 11801], "queries": {"click": {"state": {"target": ["3", "2"], "time": [3141, 5908]}, "edge": {"target": [], "time": []}}, "mouseover": {"state": {"target": ["1", "2", "3", "7", "2", "10", "2", "7", "2", "12", "1", "7"], "time": [2305, 2417, 2921, 3901, 4604, 4888, 5119, 5354, 5769, 6538, 7653, 8071]}, "edge": {"target": [], "time": []}}, "mouseout": {"state": {"target": ["30", "0", "1", "2", "3", "7", "2", "10", "2", "7", "2", "12", "1", "7"], "time": [1133, 2269, 2352, 2871, 3801, 4468, 4821, 5105, 5321, 5587, 6436, 6885, 7821, 8085]}, "edge": {"target": [], "time": []}}}, "displayed_time": "12.30", "trialTime": 13345, "trial_type": "mouselab-mdp", "trial_index": 10, "time_elapsed": 433541, "internal_node_id": "0.0-2.1-2.1-1.1"}}, {"uniqueid": "w58770478:a15128176", "current_trial": 11, "dateTime": 1693565105718, "trialdata": {"view_history": [{"page_index": 0, "viewing_time": 8356}, {"page_index": 1, "viewing_time": 1917}], "rt": 10273, "trial_id": "mouselab_instructions_2_misaligned", "trial_type": "instructions", "trial_index": 11, "time_elapsed": 443819, "internal_node_id": "0.0-2.1-3.1"}}, {"uniqueid": "w58770478:a15128176", "current_trial": 12, "dateTime": 1693565159129, "trialdata": {"rt": 53408, "response": {"Q0": "The cost for clicking on nodes may vary between nodes.", "Q1": "The better I perform the higher my bonus will be.", "Q2": "No, the amount of cash at each node of the web may be different each time.", "Q3": "To get the highest total score.", "Q4": "Only before moving the spider.", "Q5": "3 seconds"}, "question_order": [0, 1, 2, 3, 4, 5], "correct": {"Q0": "The cost for clicking on nodes may vary between nodes.", "Q1": "The better I perform the higher my bonus will be.", "Q2": "No, the amount of cash at each node of the web may be different each time.", "Q3": "To get the highest total score.", "Q4": "Only before moving the spider.", "Q5": "3 seconds"}, "trial_id": "mouselab_quiz_misaligned", "trial_type": "survey-multi-choice", "trial_index": 12, "time_elapsed": 497230, "internal_node_id": "0.0-2.1-4.1"}}, {"uniqueid": "w58770478:a15128176", "current_trial": 13, "dateTime": 1693565163030, "trialdata": {"rt": 3895, "response": {"Q0": "No"}, "question_order": [0], "trial_id": "repeat_check", "trial_type": "survey-multi-choice", "trial_index": 13, "time_elapsed": 501131, "internal_node_id": "0.0-4.0-0.0"}}, {"uniqueid": "w58770478:a15128176", "current_trial": 14, "dateTime": 1693565166961, "trialdata": {"rt": 3926, "stimulus": "\n<h1> Get ready to start the game! </h1>\n\nThank you for reading the instructions. Get ready start with the 40 rounds of this game.\n<br><br>\nIf you need to take a break, feel free to take one after the end of a round, before continuing to the next one.\n<br><br>\nRemember, the more money the spider gets, the bigger your bonus will be!\n<br><br>\n<div style='text-align: center;'>Press <code>space</code> to begin.</div>\n\n<br><br>\n(If, at any point, the <code>space</code> key does not take you to the next page, click once on the text and try again.)", "response": " ", "trial_id": "mdp_ready", "trial_type": "html-keyboard-response", "trial_index": 14, "time_elapsed": 505062, "internal_node_id": "0.0-6.0-0.0"}}, {"uniqueid": "w58770478:a15128176", "current_trial": 15, "dateTime": 1693565184162, "trialdata": {"revealed_states": [], "clicked_states": ["24", "26", "30", "13", "15", "19", "3", "1"], "num_clicks_accrued": [0, 0, 0, 0, 0, 0, 0, 0, 0, 0, 0, 0, 0], "stateRewards": ["", 1, 2, -6, -13, -51, 22, -4, -12, -44, -12, 6, -2, -2, -2, -14, -46, -4, -77, -2, 36, -79, 41, 2, -4, 2, -6, -55, 59, 70, -5, 39, -19, 24], "withholdReward": false, "trial_id": "mdp_trial_1", "block": "test", "trialIndex": 4, "score": -66.6, "costs": -7.6000000000000005, "simulationMode": [null, null, null, null, null], "rewards": [1, 2, -6, -12, -44], "path": ["0", "0", "1", "2", "3", "8", "9"], "rt": [11175, 52, 56, 554, 132], "actions": ["up", "up", "up", "left", "up"], "actionTimes": [12695, 13248, 13800, 14847, 15480], "queries": {"click": {"state": {"target": ["24", "26", "30", "13", "15", "19", "3", "1"], "time": [2734, 4201, 5600, 7418, 8332, 9402, 10399, 11635]}, "edge": {"target": [], "time": []}}, "mouseover": {"state": {"target": ["1", "24", "24", "26", "26", "30", "32", "30", "31", "13", "14", "15", "14", "19", "3", "2", "1", "1"], "time": [1876, 2194, 2429, 3393, 3675, 4874, 4941, 5143, 6258, 6612, 7844, 8027, 8758, 8796, 10160, 11042, 11112, 11426]}, "edge": {"target": [], "time": []}}, "mouseout": {"state": {"target": ["0", "1", "24", "24", "26", "26", "26", "30", "32", "30", "31", "13", "14", "15", "14", "19", "13", "3", "2", "1", "1"], "time": [1041, 1909, 2242, 3307, 3458, 4296, 4827, 4911, 5108, 6242, 6277, 7809, 7958, 8726, 8775, 9830, 9895, 11009, 11077, 11211, 12159]}, "edge": {"target": [], "time": []}}}, "displayed_time": "15.98", "trialTime": 17008, "trial_type": "mouselab-mdp", "trial_index": 15, "time_elapsed": 522263, "internal_node_id": "0.0-6.0-1.0-0.0"}}, {"uniqueid": "w58770478:a15128176", "current_trial": 16, "dateTime": 1693565213002, "trialdata": {"revealed_states": [], "clicked_states": [], "num_clicks_accrued": [0, 0, 0, 0, 0, 0, 0, 0, 0, 0, 0, 0, 0], "stateRewards": ["", 1, -1, 8, 4, 76, -33, -17, -3, -1, -54, -74, -2, 2, -5, 13, -51, 63, 83, 1, 84, 29, -36, 2, -1, 7, -12, -10, -44, -43, -14, 8, -69, 19], "withholdReward": false, "trial_id": "mdp_trial_2", "block": "test", "trialIndex": 5, "score": 25, "costs": 0, "simulationMode": [null, null, null, null, null], "rewards": [-2, 2, -5, 1, 29], "path": ["0", "0", "12", "13", "14", "19", "21"], "rt": [645, 125, 73, 7, 33], "actions": ["right", "right", "right", "down", "down"], "actionTimes": [2570, 3200, 3777, 4279, 4826], "queries": {"click": {"state": {"target": [], "time": []}, "edge": {"target": [], "time": []}}, "mouseover": {"state": {"target": ["12", "14"], "time": [2205, 2235]}, "edge": {"target": [], "time": []}}, "mouseout": {"state": {"target": ["0", "12", "14", "10", "1", "12"], "time": [2203, 2218, 2252, 21175, 21490, 21874]}, "edge": {"target": [], "time": []}}}, "displayed_time": "26.93", "trialTime": 28657, "trial_type": "mouselab-mdp", "trial_index": 16, "time_elapsed": 551103, "internal_node_id": "0.0-6.0-1.0-1.0"}}, {"uniqueid": "w58770478:a15128176", "current_trial": 17, "dateTime": 1693565238489, "trialdata": {"revealed_states": [], "clicked_states": [], "num_clicks_accrued": [0, 0, 0, 0, 0, 0, 0, 0, 0, 0, 0, 0, 0], "stateRewards": ["", -1, 2, 5, -6, 13, -64, -47, 8, -79, -80, -33, 1, 2, -2, -16, 56, -71, -10, 3, 29, 44, 85, -1, 4, 5, 4, -36, -56, 19, 8, 52, -13, -2], "withholdReward": false, "trial_id": "mdp_trial_3", "block": "test", "trialIndex": 6, "score": -19, "costs": 0, "simulationMode": [null, null, null, null, null], "rewards": [-1, 2, 5, 8, -33], "path": ["0", "0", "1", "2", "3", "8", "11"], "rt": [764, 19, 166, 540, 48], "actions": ["up", "up", "up", "left", "left"], "actionTimes": [2921, 3433, 4112, 5152, 5696], "queries": {"click": {"state": {"target": [], "time": []}, "edge": {"target": [], "time": []}}, "mouseover": {"state": {"target": [], "time": []}, "edge": {"target": [], "time": []}}, "mouseout": {"state": {"target": ["1"], "time": [1760]}, "edge": {"target": [], "time": []}}}, "displayed_time": "23.16", "trialTime": 25280, "trial_type": "mouselab-mdp", "trial_index": 17, "time_elapsed": 576590, "internal_node_id": "0.0-6.0-1.0-2.0"}}, {"uniqueid": "w58770478:a15128176", "current_trial": 18, "dateTime": 1693565294980, "trialdata": {"revealed_states": [], "clicked_states": [], "num_clicks_accrued": [0, 0, 0, 0, 0, 0, 0, 0, 0, 0, 0, 0, 0], "stateRewards": ["", 2, 3, 8, 14, 69, -27, 17, 2, -71, -65, -10, 2, -3, 7, 8, 65, -10, 65, -12, 73, -12, 13, -2, -2, 6, 10, -79, -69, -18, 10, -85, 67, 74], "withholdReward": false, "trial_id": "mdp_trial_4", "block": "test", "trialIndex": 7, "score": 86, "costs": 0, "simulationMode": [null, null, null, null, null], "rewards": [-2, -2, 6, 10, 74], "path": ["0", "0", "23", "24", "25", "30", "33"], "rt": [582, 22, 72, 699, 153], "actions": ["left", "left", "left", "down", "left"], "actionTimes": [1471, 2000, 2565, 3759, 4415], "queries": {"click": {"state": {"target": [], "time": []}, "edge": {"target": [], "time": []}}, "mouseover": {"state": {"target": [], "time": []}, "edge": {"target": [], "time": []}}, "mouseout": {"state": {"target": ["0", "26"], "time": [524, 50555]}, "edge": {"target": [], "time": []}}}, "displayed_time": "53.90", "trialTime": 56264, "trial_type": "mouselab-mdp", "trial_index": 18, "time_elapsed": 633080, "internal_node_id": "0.0-6.0-1.0-3.0"}}, {"uniqueid": "w58770478:a15128176", "current_trial": 19, "dateTime": 1693565313812, "trialdata": {"revealed_states": [], "clicked_states": [], "num_clicks_accrued": [0, 0, 0, 0, 0, 0, 0, 0, 0, 0, 0, 0, 0], "stateRewards": ["", 2, 3, -6, -5, -3, 55, 40, 11, 61, 11, 51, 2, -4, -6, 9, -25, 29, -15, -6, 7, -77, -2, -2, -4, 1, 14, -43, -1, 56, -12, -54, 41, -74], "withholdReward": false, "trial_id": "mdp_trial_5", "block": "test", "trialIndex": 8, "score": 71, "costs": 0, "simulationMode": [null, null, null, null, null], "rewards": [2, 3, -6, 11, 61], "path": ["0", "0", "1", "2", "3", "8", "9"], "rt": [707, 526, 56, 751, 117], "actions": ["up", "up", "up", "left", "up"], "actionTimes": [1909, 2934, 3494, 4740, 5356], "queries": {"click": {"state": {"target": [], "time": []}, "edge": {"target": [], "time": []}}, "mouseover": {"state": {"target": ["12"], "time": [1422]}, "edge": {"target": [], "time": []}}, "mouseout": {"state": {"target": ["0", "12", "14"], "time": [685, 1436, 18391]}, "edge": {"target": [], "time": []}}}, "displayed_time": "15.21", "trialTime": 18614, "trial_type": "mouselab-mdp", "trial_index": 19, "time_elapsed": 651913, "internal_node_id": "0.0-6.0-1.0-4.0"}}, {"uniqueid": "w58770478:a15128176", "current_trial": 20, "dateTime": 1693565330901, "trialdata": {"revealed_states": [], "clicked_states": [], "num_clicks_accrued": [0, 0, 0, 0, 0, 0, 0, 0, 0, 0, 0, 0, 0], "stateRewards": ["", -1, -1, 4, -16, -75, 81, -51, -7, -84, 73, -30, -2, 1, -3, -16, -77, 33, 14, 1, 45, 87, -66, 2, 2, -5, -7, -19, -17, 79, -3, 8, 49, 47], "withholdReward": false, "trial_id": "mdp_trial_6", "block": "test", "trialIndex": 9, "score": -6, "costs": 0, "simulationMode": [null, null, null, null, null], "rewards": [-2, 1, -3, -16, 14], "path": ["0", "0", "12", "13", "14", "15", "18"], "rt": [647, 41, 71, 446, 89], "actions": ["right", "right", "right", "up", "left"], "actionTimes": [1877, 2414, 3006, 3950, 4542], "queries": {"click": {"state": {"target": [], "time": []}, "edge": {"target": [], "time": []}}, "mouseover": {"state": {"target": ["12"], "time": [1433]}, "edge": {"target": [], "time": []}}, "mouseout": {"state": {"target": ["13", "12", "0", "0", "12"], "time": [298, 768, 783, 1401, 1449]}, "edge": {"target": [], "time": []}}}, "displayed_time": "15.23", "trialTime": 16846, "trial_type": "mouselab-mdp", "trial_index": 20, "time_elapsed": 669001, "internal_node_id": "0.0-6.0-1.0-5.0"}}, {"uniqueid": "w58770478:a15128176", "current_trial": 21, "dateTime": 1693565347949, "trialdata": {"revealed_states": [], "clicked_states": [], "num_clicks_accrued": [0, 0, 0, 0, 0, 0, 0, 0, 0, 0, 0, 0, 0], "stateRewards": ["", -1, 1, 6, -6, 70, 66, 67, -16, -75, -35, 37, -1, 4, 4, -6, 47, -9, 63, 15, 21, -63, 13, 1, 3, -6, 10, 79, -29, 18, -15, 9, -67, -19], "withholdReward": false, "trial_id": "mdp_trial_7", "block": "test", "trialIndex": 10, "score": -84, "costs": 0, "simulationMode": [null, null, null, null, null], "rewards": [1, 3, -6, -15, -67], "path": ["0", "0", "23", "24", "25", "30", "32"], "rt": [1495, 100, 77, 640, 128], "actions": ["left", "left", "left", "down", "down"], "actionTimes": [3325, 3916, 4492, 5636, 6260], "queries": {"click": {"state": {"target": [], "time": []}, "edge": {"target": [], "time": []}}, "mouseover": {"state": {"target": [], "time": []}, "edge": {"target": [], "time": []}}, "mouseout": {"state": {"target": ["14", "13", "0", "0"], "time": [245, 294, 1329, 2163]}, "edge": {"target": [], "time": []}}}, "displayed_time": "15.84", "trialTime": 16836, "trial_type": "mouselab-mdp", "trial_index": 21, "time_elapsed": 686049, "internal_node_id": "0.0-6.0-1.0-6.0"}}, {"uniqueid": "w58770478:a15128176", "current_trial": 22, "dateTime": 1693565363909, "trialdata": {"revealed_states": [], "clicked_states": ["25", "14", "3"], "num_clicks_accrued": [0, 0, 0, 0, 0, 0, 0, 0, 0, 0, 0, 0, 0], "stateRewards": ["", -1, 4, -8, 12, 14, 69, -8, 5, -72, -14, 56, -1, -1, -1, 9, 67, 19, 11, -9, -88, -58, 3, 2, -4, -8, 4, 62, 77, -74, 5, -31, 65, 88], "withholdReward": false, "trial_id": "mdp_trial_8", "block": "test", "trialIndex": 11, "score": -72.85, "costs": -2.8499999999999996, "simulationMode": [null, null, null, null, null], "rewards": [-1, -1, -1, -9, -58], "path": ["0", "0", "12", "13", "14", "19", "21"], "rt": [5766, 55, 71, 2, 39], "actions": ["right", "right", "right", "down", "down"], "actionTimes": [6762, 7313, 7881, 8376, 8930], "queries": {"click": {"state": {"target": ["25", "14", "3"], "time": [1998, 3532, 5115]}, "edge": {"target": [], "time": []}}, "mouseover": {"state": {"target": ["23", "24", "25", "24", "13", "14", "7", "3", "2", "1", "21"], "time": [1454, 1504, 1690, 2608, 2676, 2954, 4541, 4606, 5773, 5791, 6158]}, "edge": {"target": [], "time": []}}, "mouseout": {"state": {"target": ["0", "23", "24", "25", "24", "13", "14", "7", "3", "2", "1", "21"], "time": [1440, 1487, 1605, 2592, 2625, 2706, 4492, 4556, 5755, 5789, 5805, 6172]}, "edge": {"target": [], "time": []}}}, "displayed_time": "15.00", "trialTime": 15754, "trial_type": "mouselab-mdp", "trial_index": 22, "time_elapsed": 702010, "internal_node_id": "0.0-6.0-1.0-7.0"}}, {"uniqueid": "w58770478:a15128176", "current_trial": 23, "dateTime": 1693565385109, "trialdata": {"revealed_states": [], "clicked_states": [], "num_clicks_accrued": [0, 0, 0, 0, 0, 0, 0, 0, 0, 0, 0, 0, 0], "stateRewards": ["", -2, 2, 5, -14, -56, 64, 84, -5, 52, 39, 85, -2, 1, 7, 8, 21, 29, -78, -9, -10, -69, 10, -2, -1, -7, 15, 72, 20, 41, -2, 52, 80, 22], "withholdReward": false, "trial_id": "mdp_trial_9", "block": "test", "trialIndex": 12, "score": 46, "costs": 0, "simulationMode": [null, null, null, null, null], "rewards": [-2, -1, -7, 15, 41], "path": ["0", "0", "23", "24", "25", "26", "29"], "rt": [431, 9, 63, 646, 488], "actions": ["left", "left", "left", "up", "left"], "actionTimes": [1666, 2175, 2745, 3897, 4889], "queries": {"click": {"state": {"target": [], "time": []}, "edge": {"target": [], "time": []}}, "mouseover": {"state": {"target": [], "time": []}, "edge": {"target": [], "time": []}}, "mouseout": {"state": {"target": [], "time": []}, "edge": {"target": [], "time": []}}}, "displayed_time": "15.24", "trialTime": 20993, "trial_type": "mouselab-mdp", "trial_index": 23, "time_elapsed": 723209, "internal_node_id": "0.0-6.0-1.0-8.0"}}, {"uniqueid": "w58770478:a15128176", "current_trial": 24, "dateTime": 1693565404237, "trialdata": {"revealed_states": [], "clicked_states": [], "num_clicks_accrued": [0, 0, 0, 0, 0, 0, 0, 0, 0, 0, 0, 0, 0], "stateRewards": ["", 1, 2, -8, 9, 18, -83, -11, 6, -64, -48, 17, -2, -2, -5, -3, -24, -3, -86, -2, 48, -41, -22, -2, 4, 7, 8, 81, 13, -48, 10, 61, 19, 57], "withholdReward": false, "trial_id": "mdp_trial_10", "block": "test", "trialIndex": 13, "score": 38, "costs": 0, "simulationMode": [null, null, null, null, null], "rewards": [-2, 4, 7, 10, 19], "path": ["0", "0", "23", "24", "25", "30", "32"], "rt": [910, 127, 844, 167, 100], "actions": ["left", "left", "left", "down", "down"], "actionTimes": [1475, 2099, 3435, 4105, 4705], "queries": {"click": {"state": {"target": [], "time": []}, "edge": {"target": [], "time": []}}, "mouseover": {"state": {"target": [], "time": []}, "edge": {"target": [], "time": []}}, "mouseout": {"state": {"target": ["0", "0"], "time": [17942, 18123]}, "edge": {"target": [], "time": []}}}, "displayed_time": "14.57", "trialTime": 18906, "trial_type": "mouselab-mdp", "trial_index": 24, "time_elapsed": 742337, "internal_node_id": "0.0-6.0-1.0-9.0"}}, {"uniqueid": "w58770478:a15128176", "current_trial": 25, "dateTime": 1693565419900, "trialdata": {"revealed_states": [], "clicked_states": [], "num_clicks_accrued": [0, 0, 0, 0, 0, 0, 0, 0, 0, 0, 0, 0, 0], "stateRewards": ["", -2, 1, -3, -16, -39, -52, 30, -7, -41, -59, 11, 2, 1, 8, 2, -11, -26, -42, -13, 87, -59, -48, -1, -1, -1, 16, -79, 31, 50, -1, -84, 34, -82], "withholdReward": false, "trial_id": "mdp_trial_11", "block": "test", "trialIndex": 14, "score": -70, "costs": 0, "simulationMode": [null, null, null, null, null], "rewards": [-2, 1, -3, -7, -59], "path": ["0", "0", "1", "2", "3", "8", "10"], "rt": [369, 439, 99, 82, 101], "actions": ["up", "up", "up", "left", "down"], "actionTimes": [1055, 1993, 2586, 3170, 3770], "queries": {"click": {"state": {"target": [], "time": []}, "edge": {"target": [], "time": []}}, "mouseover": {"state": {"target": [], "time": []}, "edge": {"target": [], "time": []}}, "mouseout": {"state": {"target": ["0"], "time": [13839]}, "edge": {"target": [], "time": []}}}, "displayed_time": "14.69", "trialTime": 15449, "trial_type": "mouselab-mdp", "trial_index": 25, "time_elapsed": 758000, "internal_node_id": "0.0-6.0-1.0-10.0"}}, {"uniqueid": "w58770478:a15128176", "current_trial": 26, "dateTime": 1693565436374, "trialdata": {"revealed_states": [], "clicked_states": [], "num_clicks_accrued": [0, 0, 0, 0, 0, 0, 0, 0, 0, 0, 0, 0, 0], "stateRewards": ["", -2, -1, -4, -15, -14, -67, 32, -3, -59, 63, 31, 2, -1, -7, -15, 71, -66, -27, -3, -54, -39, 72, 2, 1, 1, -13, 77, -40, 35, -9, 35, 75, 57], "withholdReward": false, "trial_id": "mdp_trial_12", "block": "test", "trialIndex": 15, "score": -48, "costs": 0, "simulationMode": [null, null, null, null, null], "rewards": [2, -1, -7, -15, -27], "path": ["0", "0", "12", "13", "14", "15", "18"], "rt": [467, 2, 113, 105, 255], "actions": ["right", "right", "right", "up", "left"], "actionTimes": [1969, 2466, 3096, 3704, 4456], "queries": {"click": {"state": {"target": [], "time": []}, "edge": {"target": [], "time": []}}, "mouseover": {"state": {"target": [], "time": []}, "edge": {"target": [], "time": []}}, "mouseout": {"state": {"target": ["0"], "time": [14637]}, "edge": {"target": [], "time": []}}}, "displayed_time": "15.51", "trialTime": 16248, "trial_type": "mouselab-mdp", "trial_index": 26, "time_elapsed": 774474, "internal_node_id": "0.0-6.0-1.0-11.0"}}, {"uniqueid": "w58770478:a15128176", "current_trial": 27, "dateTime": 1693565452502, "trialdata": {"revealed_states": [], "clicked_states": [], "num_clicks_accrued": [0, 0, 0, 0, 0, 0, 0, 0, 0, 0, 0, 0, 0], "stateRewards": ["", -1, -3, -3, 1, -38, 2, -53, -2, -1, -81, 70, -1, 1, -5, -9, 46, 15, 35, -1, -22, 38, 59, -2, 4, -8, 13, 1, -83, -43, 4, 76, 13, 48], "withholdReward": false, "trial_id": "mdp_trial_13", "block": "test", "trialIndex": 16, "score": -90, "costs": 0, "simulationMode": [null, null, null, null, null], "rewards": [-1, -3, -3, -2, -81], "path": ["0", "0", "1", "2", "3", "8", "10"], "rt": [846, 19, 158, 25, 41], "actions": ["up", "up", "up", "left", "down"], "actionTimes": [1697, 2215, 2873, 3392, 3937], "queries": {"click": {"state": {"target": [], "time": []}, "edge": {"target": [], "time": []}}, "mouseover": {"state": {"target": [], "time": []}, "edge": {"target": [], "time": []}}, "mouseout": {"state": {"target": ["0"], "time": [15431]}, "edge": {"target": [], "time": []}}}, "displayed_time": "14.86", "trialTime": 15921, "trial_type": "mouselab-mdp", "trial_index": 27, "time_elapsed": 790603, "internal_node_id": "0.0-6.0-1.0-12.0"}}, {"uniqueid": "w58770478:a15128176", "current_trial": 28, "dateTime": 1693565468414, "trialdata": {"revealed_states": [], "clicked_states": ["25"], "num_clicks_accrued": [0, 0, 0, 0, 0, 0, 0, 0, 0, 0, 0, 0, 0], "stateRewards": ["", -2, 4, -5, -12, 85, -24, -18, -15, -78, -22, 26, -1, -1, 2, 14, -45, 52, -23, 7, -33, 24, -6, -2, -4, 5, -7, -16, 36, -39, 5, 71, -87, -23], "withholdReward": false, "trial_id": "mdp_trial_14", "block": "test", "trialIndex": 17, "score": -47.95, "costs": -0.95, "simulationMode": [null, null, null, null, null], "rewards": [-2, -4, 5, -7, -39], "path": ["0", "0", "23", "24", "25", "26", "29"], "rt": [3914, 69, 50, 3, 112], "actions": ["left", "left", "left", "up", "left"], "actionTimes": [4887, 5455, 6006, 6506, 7134], "queries": {"click": {"state": {"target": ["25"], "time": [2429]}, "edge": {"target": [], "time": []}}, "mouseover": {"state": {"target": ["23", "24", "25", "30", "32", "31", "0", "12", "13", "13", "23", "12"], "time": [1371, 1555, 2139, 2986, 3051, 3837, 3884, 3903, 3935, 4272, 4354, 4484]}, "edge": {"target": [], "time": []}}, "mouseout": {"state": {"target": ["0", "23", "24", "25", "30", "32", "31", "0", "12", "13", "13", "23", "12"], "time": [1319, 1451, 2085, 2953, 3020, 3803, 3869, 3901, 3917, 3951, 4283, 4469, 13338]}, "edge": {"target": [], "time": []}}}, "displayed_time": "14.98", "trialTime": 15686, "trial_type": "mouselab-mdp", "trial_index": 28, "time_elapsed": 806515, "internal_node_id": "0.0-6.0-1.0-13.0"}}, {"uniqueid": "w58770478:a15128176", "current_trial": 29, "dateTime": 1693565484439, "trialdata": {"revealed_states": [], "clicked_states": [], "num_clicks_accrued": [0, 0, 0, 0, 0, 0, 0, 0, 0, 0, 0, 0, 0], "stateRewards": ["", 1, -4, -4, 8, 1, -79, 68, -10, -79, 8, -74, -1, -3, -6, 14, 43, 23, 9, 5, -51, 63, 61, -2, 4, 6, -10, 69, -32, 57, 15, -80, -80, -77], "withholdReward": false, "trial_id": "mdp_trial_15", "block": "test", "trialIndex": 18, "score": -78, "costs": 0, "simulationMode": [null, null, null, null, null], "rewards": [1, -4, -4, 8, -79], "path": ["0", "0", "1", "2", "3", "4", "6"], "rt": [484, 83, 10, 115, 4], "actions": ["up", "up", "up", "right", "right"], "actionTimes": [1580, 2156, 2667, 3292, 3795], "queries": {"click": {"state": {"target": [], "time": []}, "edge": {"target": [], "time": []}}, "mouseover": {"state": {"target": [], "time": []}, "edge": {"target": [], "time": []}}, "mouseout": {"state": {"target": ["1", "2", "1", "0"], "time": [491, 607, 691, 15111]}, "edge": {"target": [], "time": []}}}, "displayed_time": "15.10", "trialTime": 15813, "trial_type": "mouselab-mdp", "trial_index": 29, "time_elapsed": 822539, "internal_node_id": "0.0-6.0-1.0-14.0"}}, {"uniqueid": "w58770478:a15128176", "current_trial": 30, "dateTime": 1693565500255, "trialdata": {"revealed_states": [], "clicked_states": [], "num_clicks_accrued": [0, 0, 0, 0, 0, 0, 0, 0, 0, 0, 0, 0, 0], "stateRewards": ["", -1, 1, -2, 5, 73, 15, 61, 8, 7, 38, 76, 2, 2, -4, -6, -6, -26, 43, -5, -45, -85, -35, -2, 1, -4, 15, -10, 69, 72, -11, 84, -49, -38], "withholdReward": false, "trial_id": "mdp_trial_16", "block": "test", "trialIndex": 19, "score": -54, "costs": 0, "simulationMode": [null, null, null, null, null], "rewards": [-2, 1, -4, -11, -38], "path": ["0", "0", "23", "24", "25", "30", "33"], "rt": [702, 48, 20, 140, 195], "actions": ["left", "left", "left", "down", "left"], "actionTimes": [1533, 2077, 2599, 3237, 3925], "queries": {"click": {"state": {"target": [], "time": []}, "edge": {"target": [], "time": []}}, "mouseover": {"state": {"target": [], "time": []}, "edge": {"target": [], "time": []}}, "mouseout": {"state": {"target": ["0"], "time": [14763]}, "edge": {"target": [], "time": []}}}, "displayed_time": "14.84", "trialTime": 15581, "trial_type": "mouselab-mdp", "trial_index": 30, "time_elapsed": 838356, "internal_node_id": "0.0-6.0-1.0-15.0"}}, {"uniqueid": "w58770478:a15128176", "current_trial": 31, "dateTime": 1693565515934, "trialdata": {"revealed_states": [], "clicked_states": ["10", "21"], "num_clicks_accrued": [0, 0, 0, 0, 0, 0, 0, 0, 0, 0, 0, 0, 0], "stateRewards": ["", 1, 1, 4, 11, 83, -66, 18, -16, -23, 5, 25, 1, -3, 1, -12, 18, 24, -86, -11, -64, 36, 40, 2, 1, -6, 13, 55, 29, 72, -2, 81, -72, -41], "withholdReward": false, "trial_id": "mdp_trial_17", "block": "test", "trialIndex": 20, "score": 19.7, "costs": -4.3, "simulationMode": [null, null, null, null, null], "rewards": [1, -3, 1, -11, 36], "path": ["0", "0", "12", "13", "14", "19", "21"], "rt": [8630, 34, 30, 126, 12], "actions": ["right", "right", "right", "down", "down"], "actionTimes": [9379, 9908, 10438, 11082, 11588], "queries": {"click": {"state": {"target": ["10", "21"], "time": [2307, 6208]}, "edge": {"target": [], "time": []}}, "mouseover": {"state": {"target": ["7", "4", "3", "8", "10", "16", "16", "6", "16", "15", "18", "12", "13", "14", "21"], "time": [1538, 1573, 1786, 1854, 2139, 2771, 3038, 3788, 4538, 4754, 4772, 4838, 5106, 5190, 6039]}, "edge": {"target": [], "time": []}}, "mouseout": {"state": {"target": ["0", "7", "4", "3", "8", "10", "16", "16", "6", "16", "15", "18", "12", "13", "14", "21"], "time": [487, 1556, 1772, 1838, 1890, 2686, 2786, 3103, 4487, 4586, 4770, 4804, 5054, 5139, 5522, 13124]}, "edge": {"target": [], "time": []}}}, "displayed_time": "14.76", "trialTime": 15467, "trial_type": "mouselab-mdp", "trial_index": 31, "time_elapsed": 854034, "internal_node_id": "0.0-6.0-1.0-16.0"}}, {"uniqueid": "w58770478:a15128176", "current_trial": 32, "dateTime": 1693565539454, "trialdata": {"revealed_states": [], "clicked_states": ["32", "27", "5"], "num_clicks_accrued": [0, 0, 0, 0, 0, 0, 0, 0, 0, 0, 0, 0, 0], "stateRewards": ["", 1, 2, -3, -5, 66, -50, -47, -5, 1, 28, -27, 1, 1, -1, -6, 37, -25, 56, 1, -82, -66, -40, -1, -4, -7, 15, -61, -23, 26, 10, 14, -56, 29], "withholdReward": false, "trial_id": "mdp_trial_18", "block": "test", "trialIndex": 21, "score": 54.55, "costs": -6.449999999999999, "simulationMode": [null, null, null, null, null], "rewards": [1, 2, -3, -5, 66], "path": ["0", "0", "1", "2", "3", "4", "5"], "rt": [12284, 44, 156, 112, 122], "actions": ["up", "up", "up", "right", "up"], "actionTimes": [13390, 13937, 14591, 15201, 15825], "queries": {"click": {"state": {"target": ["32", "27", "5"], "time": [1937, 5871, 9388]}, "edge": {"target": [], "time": []}}, "mouseover": {"state": {"target": ["0", "31", "32", "29", "27", "8", "3", "5", "4", "2", "8", "8", "7"], "time": [1401, 1451, 1481, 2798, 5616, 6499, 6532, 6983, 10199, 10735, 10800, 12619, 12785]}, "edge": {"target": [], "time": []}}, "mouseout": {"state": {"target": ["0", "31", "32", "29", "27", "8", "3", "5", "4", "2", "8", "8"], "time": [1414, 1465, 2349, 5317, 6448, 6517, 6552, 10154, 10220, 10784, 10818, 12702]}, "edge": {"target": [], "time": []}}}, "displayed_time": "16.32", "trialTime": 23296, "trial_type": "mouselab-mdp", "trial_index": 32, "time_elapsed": 877555, "internal_node_id": "0.0-6.0-1.0-17.0"}}, {"uniqueid": "w58770478:a15128176", "current_trial": 33, "dateTime": 1693565556360, "trialdata": {"revealed_states": [], "clicked_states": ["17", "20", "22"], "num_clicks_accrued": [0, 0, 0, 0, 0, 0, 0, 0, 0, 0, 0, 0, 0], "stateRewards": ["", 2, -1, -2, -5, -47, -57, -33, -11, 31, -18, -72, -2, 1, -4, -8, -46, -53, -50, 15, -85, -9, 39, -2, -2, 1, 14, -1, -8, 53, -12, -41, -74, 62], "withholdReward": false, "trial_id": "mdp_trial_19", "block": "test", "trialIndex": 22, "score": 42.55, "costs": -6.449999999999999, "simulationMode": [null, null, null, null, null], "rewards": [-2, 1, -4, 15, 39], "path": ["0", "0", "12", "13", "14", "19", "22"], "rt": [11030, 67, 122, 51, 303], "actions": ["right", "right", "right", "down", "left"], "actionTimes": [12386, 12954, 13576, 14122, 14922], "queries": {"click": {"state": {"target": ["17", "20", "22"], "time": [2089, 5456, 8672]}, "edge": {"target": [], "time": []}}, "mouseover": {"state": {"target": ["17", "18", "31", "20", "21", "21", "22", "13", "18"], "time": [1885, 2433, 2517, 3067, 5919, 6021, 7819, 9101, 9318]}, "edge": {"target": [], "time": []}}, "mouseout": {"state": {"target": ["7", "18", "12", "0", "17", "18", "31", "20", "21", "21", "22", "13"], "time": [433, 517, 784, 836, 2416, 2454, 2618, 5816, 5933, 6085, 9053, 9151]}, "edge": {"target": [], "time": []}}}, "displayed_time": "15.42", "trialTime": 16682, "trial_type": "mouselab-mdp", "trial_index": 33, "time_elapsed": 894461, "internal_node_id": "0.0-6.0-1.0-18.0"}}, {"uniqueid": "w58770478:a15128176", "current_trial": 34, "dateTime": 1693565678963, "trialdata": {"revealed_states": [], "clicked_states": ["32"], "num_clicks_accrued": [0, 0, 0, 0, 0, 0, 0, 0, 0, 0, 0, 0, 0], "stateRewards": ["", -1, -3, 1, 13, -64, -29, 12, -4, -33, 50, 56, 2, -3, 4, 11, -64, -58, -55, 12, 47, 38, -25, -2, 2, 5, -15, 85, 7, 84, 10, 8, 57, 26], "withholdReward": false, "trial_id": "mdp_trial_20", "block": "test", "trialIndex": 23, "score": 69.85, "costs": -2.15, "simulationMode": [null, null, null, null, null], "rewards": [-2, 2, 5, 10, 57], "path": ["0", "0", "23", "24", "25", "30", "32"], "rt": [4768, 48, 90, 27, 124], "actions": ["left", "left", "left", "down", "down"], "actionTimes": [87517, 88060, 88668, 89188, 89820], "queries": {"click": {"state": {"target": ["32"], "time": [83437]}, "edge": {"target": [], "time": []}}, "mouseover": {"state": {"target": ["23", "31", "32", "27", "26", "28", "25"], "time": [83023, 83091, 83259, 84291, 86774, 86808, 86941]}, "edge": {"target": [], "time": []}}, "mouseout": {"state": {"target": ["18", "0", "0", "23", "31", "32", "27", "26", "28"], "time": [1910, 2593, 83009, 83040, 83124, 83445, 86760, 86790, 86844]}, "edge": {"target": [], "time": []}}}, "displayed_time": "96.76", "trialTime": 122341, "trial_type": "mouselab-mdp", "trial_index": 34, "time_elapsed": 1017063, "internal_node_id": "0.0-6.0-1.0-19.0"}}, {"uniqueid": "w58770478:a15128176", "current_trial": 35, "dateTime": 1693565748612, "trialdata": {"revealed_states": [], "clicked_states": ["9"], "num_clicks_accrued": [0, 0, 0, 0, 0, 0, 0, 0, 0, 0, 0, 0, 0], "stateRewards": ["", 2, 3, -3, 4, 72, -28, 34, -12, 57, -64, -15, 2, 1, -4, -15, 2, 49, 31, -1, -42, -58, 31, -2, 1, -2, -13, -75, -19, -22, -6, 61, 10, -56], "withholdReward": false, "trial_id": "mdp_trial_21", "block": "test", "trialIndex": 24, "score": 44.85, "costs": -2.15, "simulationMode": [null, null, null, null, null], "rewards": [2, 3, -3, -12, 57], "path": ["0", "0", "1", "2", "3", "8", "9"], "rt": [4931, 39, 15, 3, 102], "actions": ["up", "up", "up", "left", "up"], "actionTimes": [58245, 58789, 59315, 59821, 60436], "queries": {"click": {"state": {"target": ["9"], "time": [54698]}, "edge": {"target": [], "time": []}}, "mouseover": {"state": {"target": ["1", "2", "3", "8", "9", "9", "8", "10"], "time": [53915, 54047, 54133, 54182, 54249, 54547, 55280, 55618]}, "edge": {"target": [], "time": []}}, "mouseout": {"state": {"target": ["25", "24", "23", "0", "1", "2", "3", "8", "9", "9", "8", "10", "28", "30"], "time": [52648, 52697, 52766, 53800, 54033, 54100, 54147, 54217, 54297, 55248, 55363, 67352, 67716, 67853]}, "edge": {"target": [], "time": []}}}, "displayed_time": "67.32", "trialTime": 69414, "trial_type": "mouselab-mdp", "trial_index": 35, "time_elapsed": 1086712, "internal_node_id": "0.0-6.0-1.0-20.0"}}, {"uniqueid": "w58770478:a15128176", "current_trial": 36, "dateTime": 1693565772052, "trialdata": {"revealed_states": [], "clicked_states": ["29", "32"], "num_clicks_accrued": [0, 0, 0, 0, 0, 0, 0, 0, 0, 0, 0, 0, 0], "stateRewards": ["", -1, 1, -1, 2, 19, 85, -18, 2, -3, -26, 36, 2, 4, 7, -9, -18, 70, 72, -5, 35, -20, -28, 1, -2, -4, -3, -59, -11, -63, -2, -72, 59, -69], "withholdReward": false, "trial_id": "mdp_trial_22", "block": "test", "trialIndex": 25, "score": 47.7, "costs": -4.3, "simulationMode": [null, null, null, null, null], "rewards": [1, -2, -4, -2, 59], "path": ["0", "0", "23", "24", "25", "30", "32"], "rt": [7402, 403, 97, 97, 136], "actions": ["left", "left", "left", "down", "down"], "actionTimes": [8371, 9275, 9867, 10467, 11107], "queries": {"click": {"state": {"target": ["29", "32"], "time": [1504, 4888]}, "edge": {"target": [], "time": []}}, "mouseover": {"state": {"target": ["23", "26", "29", "33", "33", "32", "30", "10", "13", "19", "21"], "time": [1139, 1202, 1267, 2166, 2633, 3702, 5335, 5936, 6270, 6334, 6568]}, "edge": {"target": [], "time": []}}, "mouseout": {"state": {"target": ["0", "23", "26", "29", "33", "33", "32", "30", "10", "13", "19"], "time": [1137, 1150, 1233, 2016, 2550, 3487, 5303, 5367, 5950, 6284, 6368]}, "edge": {"target": [], "time": []}}}, "displayed_time": "14.97", "trialTime": 23204, "trial_type": "mouselab-mdp", "trial_index": 36, "time_elapsed": 1110153, "internal_node_id": "0.0-6.0-1.0-21.0"}}, {"uniqueid": "w58770478:a15128176", "current_trial": 37, "dateTime": 1693565790211, "trialdata": {"revealed_states": [], "clicked_states": ["16", "18"], "num_clicks_accrued": [0, 0, 0, 0, 0, 0, 0, 0, 0, 0, 0, 0, 0], "stateRewards": ["", -1, -3, -6, 14, 41, 18, 63, -14, 80, 21, 17, -2, -4, -2, -5, 13, 70, 8, -4, -64, -10, -20, 2, -1, 4, -1, -17, -55, 42, -7, 47, 54, 15], "withholdReward": false, "trial_id": "mdp_trial_23", "block": "test", "trialIndex": 26, "score": -4.300000000000001, "costs": -4.3, "simulationMode": [null, null, null, null, null], "rewards": [-2, -4, -2, -5, 13], "path": ["0", "0", "12", "13", "14", "15", "16"], "rt": [8732, 60, 33, 138, 34], "actions": ["right", "right", "right", "up", "up"], "actionTimes": [9949, 10517, 11053, 11709, 12243], "queries": {"click": {"state": {"target": ["16", "18"], "time": [1838, 6256]}, "edge": {"target": [], "time": []}}, "mouseover": {"state": {"target": ["12", "13", "16", "17", "17", "14", "18"], "time": [1400, 1450, 1654, 2585, 2851, 5701, 5953]}, "edge": {"target": [], "time": []}}, "mouseout": {"state": {"target": ["21", "22", "0", "12", "13", "16", "17", "17", "14", "18"], "time": [334, 650, 1385, 1435, 1501, 2500, 2600, 5652, 5853, 6900]}, "edge": {"target": [], "time": []}}}, "displayed_time": "15.22", "trialTime": 17892, "trial_type": "mouselab-mdp", "trial_index": 37, "time_elapsed": 1128312, "internal_node_id": "0.0-6.0-1.0-22.0"}}, {"uniqueid": "w58770478:a15128176", "current_trial": 38, "dateTime": 1693565854509, "trialdata": {"revealed_states": [], "clicked_states": ["9"], "num_clicks_accrued": [0, 0, 0, 0, 0, 0, 0, 0, 0, 0, 0, 0, 0], "stateRewards": ["", -2, -1, -6, -14, -55, 78, -13, 11, 14, -71, 59, 2, 2, 6, -6, 9, 38, 14, 7, 85, 11, 68, 1, -4, -1, -3, -63, -85, 9, -2, 63, -86, -10], "withholdReward": false, "trial_id": "mdp_trial_24", "block": "test", "trialIndex": 27, "score": 13.85, "costs": -2.15, "simulationMode": [null, null, null, null, null], "rewards": [-2, -1, -6, 11, 14], "path": ["0", "0", "1", "2", "3", "8", "9"], "rt": [4387, 19, 32, 514, 74], "actions": ["up", "up", "up", "left", "up"], "actionTimes": [53450, 53968, 54499, 55514, 56089], "queries": {"click": {"state": {"target": ["9"], "time": [49772]}, "edge": {"target": [], "time": []}}, "mouseover": {"state": {"target": ["8", "9", "3", "7", "7", "7", "6"], "time": [49547, 49680, 50497, 50530, 50997, 51497, 51955]}, "edge": {"target": [], "time": []}}, "mouseout": {"state": {"target": ["14", "19", "22", "22", "0", "8", "9", "3", "7", "7", "7", "6", "4", "10", "28", "23", "23"], "time": [47996, 48262, 48365, 48496, 49280, 49580, 50463, 50513, 50547, 51063, 51681, 63334, 63366, 63433, 63568, 63667, 63801]}, "edge": {"target": [], "time": []}}}, "displayed_time": "63.07", "trialTime": 64058, "trial_type": "mouselab-mdp", "trial_index": 38, "time_elapsed": 1192610, "internal_node_id": "0.0-6.0-1.0-23.0"}}, {"uniqueid": "w58770478:a15128176", "current_trial": 39, "dateTime": 1693565885678, "trialdata": {"revealed_states": [], "clicked_states": ["29", "32", "17"], "num_clicks_accrued": [0, 0, 0, 0, 0, 0, 0, 0, 0, 0, 0, 0, 0], "stateRewards": ["", -2, -3, -7, 7, -54, -69, -4, -14, -77, 22, 40, -2, -1, 5, 6, -35, 50, -60, 10, -28, 75, 57, 1, -4, -2, 2, 68, 34, -18, 12, 3, -21, -43], "withholdReward": false, "trial_id": "mdp_trial_25", "block": "test", "trialIndex": 28, "score": 51.55, "costs": -6.449999999999999, "simulationMode": [null, null, null, null, null], "rewards": [-2, -1, 5, 6, 50], "path": ["0", "0", "12", "13", "14", "15", "17"], "rt": [11639, 27, 45, 22, 914], "actions": ["right", "right", "right", "up", "right"], "actionTimes": [12495, 13023, 13559, 14085, 15494], "queries": {"click": {"state": {"target": ["29", "32", "17"], "time": [1720, 5453, 8821]}, "edge": {"target": [], "time": []}}, "mouseover": {"state": {"target": ["0", "23", "30", "29", "33", "30", "32", "12", "13", "17", "21"], "time": [1092, 1111, 1177, 1593, 4881, 5076, 5260, 8264, 8309, 8645, 9879]}, "edge": {"target": [], "time": []}}, "mouseout": {"state": {"target": ["0", "0", "23", "30", "29", "33", "30", "32", "12", "13", "17", "21"], "time": [611, 1109, 1125, 1293, 3643, 5027, 5227, 6430, 8297, 8528, 9344, 12179]}, "edge": {"target": [], "time": []}}}, "displayed_time": "16.00", "trialTime": 30920, "trial_type": "mouselab-mdp", "trial_index": 39, "time_elapsed": 1223779, "internal_node_id": "0.0-6.0-1.0-24.0"}}, {"uniqueid": "w58770478:a15128176", "current_trial": 40, "dateTime": 1693565987070, "trialdata": {"revealed_states": [], "clicked_states": ["27", "32"], "num_clicks_accrued": [0, 0, 0, 0, 0, 0, 0, 0, 0, 0, 0, 0, 0], "stateRewards": ["", 2, -3, -4, -1, 25, -16, 16, 10, -71, -20, -55, 1, 3, -4, -9, 1, 32, 11, -6, 32, -50, -41, -1, 4, 4, -8, 7, -81, 70, 2, -52, 45, -10], "withholdReward": false, "trial_id": "mdp_trial_26", "block": "test", "trialIndex": 29, "score": 49.7, "costs": -4.3, "simulationMode": [null, null, null, null, null], "rewards": [-1, 4, 4, 2, 45], "path": ["0", "0", "23", "24", "25", "30", "32"], "rt": [8501, 351, 99, 165, 137], "actions": ["left", "left", "left", "down", "down"], "actionTimes": [73875, 74724, 75323, 75988, 76628], "queries": {"click": {"state": {"target": ["27", "32"], "time": [66122, 70388]}, "edge": {"target": [], "time": []}}, "mouseover": {"state": {"target": ["11", "27", "26", "25", "30", "30", "33", "32", "30", "26", "10", "3", "7", "12"], "time": [65772, 65954, 68340, 68372, 68788, 69373, 69875, 70223, 70921, 71371, 71438, 71504, 71973, 72389]}, "edge": {"target": [], "time": []}}, "mouseout": {"state": {"target": ["20", "19", "22", "0", "11", "27", "26", "25", "30", "30", "33", "32", "30", "26", "10", "3", "7", "12"], "time": [478, 511, 543, 64953, 65787, 68310, 68356, 68404, 68939, 69624, 70190, 70871, 70956, 71388, 71454, 71606, 72273, 72807]}, "edge": {"target": [], "time": []}}}, "displayed_time": "79.38", "trialTime": 101141, "trial_type": "mouselab-mdp", "trial_index": 40, "time_elapsed": 1325171, "internal_node_id": "0.0-6.0-1.0-25.0"}}, {"uniqueid": "w58770478:a15128176", "current_trial": 41, "dateTime": 1693566006088, "trialdata": {"revealed_states": [], "clicked_states": ["27", "32"], "num_clicks_accrued": [0, 0, 0, 0, 0, 0, 0, 0, 0, 0, 0, 0, 0], "stateRewards": ["", -1, -4, -6, -15, 21, -67, -63, 9, 51, 69, -14, -1, 3, 8, -8, 39, 72, 63, 15, 19, 47, 15, 1, 4, 5, 16, -18, 34, 35, -14, -80, 40, 1], "withholdReward": false, "trial_id": "mdp_trial_27", "block": "test", "trialIndex": 30, "score": 31.7, "costs": -4.3, "simulationMode": [null, null, null, null, null], "rewards": [1, 4, 5, -14, 40], "path": ["0", "0", "23", "24", "25", "30", "32"], "rt": [7594, 59, 57, 130, 161], "actions": ["left", "left", "left", "down", "down"], "actionTimes": [10299, 10858, 11418, 12040, 12705], "queries": {"click": {"state": {"target": ["27", "32"], "time": [3558, 6741]}, "edge": {"target": [], "time": []}}, "mouseover": {"state": {"target": ["23", "28", "27", "26", "25", "30", "32", "19", "20", "20"], "time": [3141, 3210, 3526, 5208, 5243, 5280, 5300, 7143, 7161, 7574]}, "edge": {"target": [], "time": []}}, "mouseout": {"state": {"target": ["0", "23", "28", "27", "26", "25", "30", "32", "19", "20"], "time": [3111, 3158, 3293, 5192, 5224, 5262, 5298, 7093, 7159, 7175]}, "edge": {"target": [], "time": []}}}, "displayed_time": "16.71", "trialTime": 18754, "trial_type": "mouselab-mdp", "trial_index": 41, "time_elapsed": 1344188, "internal_node_id": "0.0-6.0-1.0-26.0"}}, {"uniqueid": "w58770478:a15128176", "current_trial": 42, "dateTime": 1693566055288, "trialdata": {"revealed_states": [], "clicked_states": ["5", "11", "32", "20", "18"], "num_clicks_accrued": [0, 0, 0, 0, 0, 0, 0, 0, 0, 0, 0, 0, 0], "stateRewards": ["", -2, 2, -4, -4, -59, 88, 62, -3, 69, -15, -34, 1, -2, -5, 7, -54, -20, 78, -16, -74, -53, -21, 2, -4, 2, 13, -8, -44, 26, 9, 72, 4, 17], "withholdReward": false, "trial_id": "mdp_trial_28", "block": "test", "trialIndex": 31, "score": 68.25, "costs": -10.75, "simulationMode": [null, null, null, null, null], "rewards": [1, -2, -5, 7, 78], "path": ["0", "0", "12", "13", "14", "15", "18"], "rt": [19145, 69, 89, 52, 674], "actions": ["right", "right", "right", "up", "left"], "actionTimes": [20366, 20941, 21525, 22078, 23261], "queries": {"click": {"state": {"target": ["5", "11", "32", "20", "18"], "time": [1951, 6285, 10019, 13402, 17152]}, "edge": {"target": [], "time": []}}, "mouseover": {"state": {"target": ["1", "2", "3", "5", "9", "11", "23", "31", "30", "33", "33", "33", "32", "20", "17", "15", "18", "12"], "time": [1586, 1617, 1632, 1766, 2915, 3000, 6750, 7332, 7382, 7932, 8232, 9366, 9684, 10867, 16785, 16850, 16954, 18768]}, "edge": {"target": [], "time": []}}, "mouseout": {"state": {"target": ["20", "22", "0", "0", "1", "2", "3", "5", "9", "11", "23", "31", "30", "33", "33", "33", "32", "20", "17", "15", "18", "12"], "time": [283, 483, 798, 1532, 1597, 1630, 1647, 2865, 2950, 6666, 6766, 7366, 7416, 8049, 8299, 9483, 10029, 13920, 16835, 16889, 18702, 18817]}, "edge": {"target": [], "time": []}}}, "displayed_time": "23.75", "trialTime": 48942, "trial_type": "mouselab-mdp", "trial_index": 42, "time_elapsed": 1393388, "internal_node_id": "0.0-6.0-1.0-27.0"}}, {"uniqueid": "w58770478:a15128176", "current_trial": 43, "dateTime": 1693566128377, "trialdata": {"revealed_states": [], "clicked_states": ["9"], "num_clicks_accrued": [0, 0, 0, 0, 0, 0, 0, 0, 0, 0, 0, 0, 0], "stateRewards": ["", -1, -2, -1, -10, -57, 73, -72, -16, 75, -14, -46, -2, -3, -7, -1, -61, -60, 76, -4, 50, 4, 14, 2, 2, -7, 12, -65, -32, 15, -8, -76, -25, -61], "withholdReward": false, "trial_id": "mdp_trial_29", "block": "test", "trialIndex": 32, "score": 52.85, "costs": -2.15, "simulationMode": [null, null, null, null, null], "rewards": [-1, -2, -1, -16, 75], "path": ["0", "0", "1", "2", "3", "8", "9"], "rt": [4656, 72, 40, 481, 101], "actions": ["up", "up", "up", "left", "up"], "actionTimes": [61569, 62145, 62681, 63657, 64257], "queries": {"click": {"state": {"target": ["9"], "time": [57963]}, "edge": {"target": [], "time": []}}, "mouseover": {"state": {"target": ["10", "8", "9", "2", "18", "15", "17", "20", "21"], "time": [57307, 57689, 57856, 59873, 60138, 60174, 60239, 60673, 60941]}, "edge": {"target": [], "time": []}}, "mouseout": {"state": {"target": ["22", "0", "10", "8", "9", "2", "18", "15", "17", "20", "21"], "time": [56273, 57259, 57322, 57808, 59806, 59888, 60156, 60206, 60419, 60773, 61123]}, "edge": {"target": [], "time": []}}}, "displayed_time": "70.92", "trialTime": 72768, "trial_type": "mouselab-mdp", "trial_index": 43, "time_elapsed": 1466477, "internal_node_id": "0.0-6.0-1.0-28.0"}}, {"uniqueid": "w58770478:a15128176", "current_trial": 44, "dateTime": 1693566154386, "trialdata": {"revealed_states": [], "clicked_states": ["17", "21", "33", "27", "5", "11"], "num_clicks_accrued": [0, 0, 0, 0, 0, 0, 0, 0, 0, 0, 0, 0, 0], "stateRewards": ["", 2, 4, 7, 7, -79, -2, -21, -5, -53, 47, -21, 1, -3, -1, 7, 83, 7, 84, -7, 80, -37, 69, 2, -4, 5, 2, 4, -20, -30, 7, 71, 44, -81], "withholdReward": false, "trial_id": "mdp_trial_30", "block": "test", "trialIndex": 33, "score": -57.9, "costs": -12.9, "simulationMode": [null, null, null, null, null], "rewards": [2, 4, 7, -5, -53], "path": ["0", "0", "1", "2", "3", "8", "9"], "rt": [20431, 54, 57, 536, 108], "actions": ["up", "up", "up", "left", "up"], "actionTimes": [21273, 21825, 22385, 23424, 24033], "queries": {"click": {"state": {"target": ["17", "21", "33", "27", "5", "11"], "time": [1526, 4910, 8178, 11392, 14812, 18146]}, "edge": {"target": [], "time": []}}, "mouseover": {"state": {"target": ["15", "17", "19", "21", "24", "30", "33", "27", "8", "5", "4", "4", "3", "9", "9", "11"], "time": [1201, 1417, 4267, 4636, 5385, 5719, 5782, 8636, 11786, 12218, 15319, 15501, 15519, 15569, 15887, 18022]}, "edge": {"target": [], "time": []}}, "mouseout": {"state": {"target": ["0", "15", "17", "19", "21", "24", "30", "33", "27", "8", "5", "4", "4", "3", "9", "9", "11", "11"], "time": [1101, 1267, 4186, 4290, 5301, 5667, 5737, 8256, 11720, 11836, 15269, 15355, 15518, 15536, 15636, 17204, 18225, 18636]}, "edge": {"target": [], "time": []}}}, "displayed_time": "24.52", "trialTime": 25768, "trial_type": "mouselab-mdp", "trial_index": 44, "time_elapsed": 1492486, "internal_node_id": "0.0-6.0-1.0-29.0"}}, {"uniqueid": "w58770478:a15128176", "current_trial": 45, "dateTime": 1693566171368, "trialdata": {"revealed_states": [], "clicked_states": ["17", "29", "31"], "num_clicks_accrued": [0, 0, 0, 0, 0, 0, 0, 0, 0, 0, 0, 0, 0], "stateRewards": ["", 2, 3, 6, -5, -74, -53, 17, -12, 46, 44, 18, -2, 4, 1, -8, 22, -23, -49, 9, -45, 55, 81, 1, -1, -7, -16, -83, -71, -45, 2, 51, 82, 61], "withholdReward": false, "trial_id": "mdp_trial_31", "block": "test", "trialIndex": 34, "score": 39.55, "costs": -6.449999999999999, "simulationMode": [null, null, null, null, null], "rewards": [1, -1, -7, 2, 51], "path": ["0", "0", "23", "24", "25", "30", "31"], "rt": [11124, 128, 78, 4, 49], "actions": ["left", "left", "left", "down", "right"], "actionTimes": [12067, 12699, 13283, 13789, 14356], "queries": {"click": {"state": {"target": ["17", "29", "31"], "time": [1576, 5326, 8560]}, "edge": {"target": [], "time": []}}, "mouseover": {"state": {"target": ["17", "17", "23", "33", "33", "29", "30", "32", "31", "23", "23", "32", "32"], "time": [1199, 1466, 1982, 2065, 2398, 5233, 5732, 6717, 7501, 8985, 9168, 9535, 9984]}, "edge": {"target": [], "time": []}}, "mouseout": {"state": {"target": ["0", "0", "17", "17", "23", "33", "33", "29", "30", "32", "31", "23", "23", "31", "32"], "time": [334, 666, 1214, 1931, 1997, 2182, 4918, 5682, 5767, 7217, 8951, 9017, 9201, 9284, 9600]}, "edge": {"target": [], "time": []}}}, "displayed_time": "14.95", "trialTime": 16729, "trial_type": "mouselab-mdp", "trial_index": 45, "time_elapsed": 1509469, "internal_node_id": "0.0-6.0-1.0-30.0"}}, {"uniqueid": "w58770478:a15128176", "current_trial": 46, "dateTime": 1693566210858, "trialdata": {"revealed_states": [], "clicked_states": ["5", "29", "18", "22"], "num_clicks_accrued": [0, 0, 0, 0, 0, 0, 0, 0, 0, 0, 0, 0, 0], "stateRewards": ["", -1, 2, -7, -12, -62, 12, -13, 5, 77, -71, 83, 1, -4, 7, 15, -42, -87, -4, 5, -25, 44, 88, -1, 4, -5, -8, 14, 51, 8, -5, 83, -24, -19], "withholdReward": false, "trial_id": "mdp_trial_32", "block": "test", "trialIndex": 35, "score": 88.4, "costs": -8.6, "simulationMode": [null, null, null, null, null], "rewards": [1, -4, 7, 5, 88], "path": ["0", "0", "12", "13", "14", "19", "22"], "rt": [14455, 50, 28, 4, 75], "actions": ["right", "right", "right", "down", "left"], "actionTimes": [35150, 35703, 36228, 36724, 37309], "queries": {"click": {"state": {"target": ["5", "29", "18", "22"], "time": [21511, 24776, 28141, 31995]}, "edge": {"target": [], "time": []}}, "mouseover": {"state": {"target": ["1", "2", "3", "5", "11", "27", "29", "25", "31", "20", "14", "18", "13", "21", "19", "17", "14", "21", "21", "22"], "time": [21030, 21048, 21096, 21400, 21915, 21935, 22216, 25147, 25167, 25532, 26264, 26500, 28697, 29167, 29233, 29401, 29581, 29930, 31502, 31901]}, "edge": {"target": [], "time": []}}, "mouseout": {"state": {"target": ["32", "0", "1", "2", "3", "5", "11", "27", "29", "25", "31", "20", "14", "18", "13", "21", "19", "17", "14", "21", "21", "22"], "time": [3379, 20980, 21047, 21080, 21181, 21850, 21933, 22000, 25132, 25165, 25181, 26217, 26334, 28684, 28732, 29214, 29264, 29565, 29618, 30285, 31700, 32516]}, "edge": {"target": [], "time": []}}}, "displayed_time": "37.81", "trialTime": 39261, "trial_type": "mouselab-mdp", "trial_index": 46, "time_elapsed": 1548959, "internal_node_id": "0.0-6.0-1.0-31.0"}}, {"uniqueid": "w58770478:a15128176", "current_trial": 47, "dateTime": 1693566244372, "trialdata": {"revealed_states": [], "clicked_states": ["9", "17", "33", "20"], "num_clicks_accrued": [0, 0, 0, 0, 0, 0, 0, 0, 0, 0, 0, 0, 0], "stateRewards": ["", 1, 2, -3, 6, -88, 74, -45, 7, -46, 40, -77, 1, -4, 4, 3, 22, -25, -59, 8, -83, 19, -60, -1, -1, -1, -8, 26, -29, 64, -7, -88, -51, -55], "withholdReward": false, "trial_id": "mdp_trial_33", "block": "test", "trialIndex": 36, "score": 19.4, "costs": -8.6, "simulationMode": [null, null, null, null, null], "rewards": [1, -4, 4, 8, 19], "path": ["0", "0", "12", "13", "14", "19", "21"], "rt": [13510, 111, 20, 69, 6], "actions": ["right", "right", "right", "down", "down"], "actionTimes": [29103, 29718, 30246, 30807, 31310], "queries": {"click": {"state": {"target": ["9", "17", "33", "20"], "time": [16366, 19631, 22982, 26249]}, "edge": {"target": [], "time": []}}, "mouseover": {"state": {"target": ["1", "9", "15", "17", "30", "33", "33", "33", "30", "20", "19", "22"], "time": [16003, 16203, 17337, 17767, 20036, 20053, 20270, 20519, 23306, 23888, 27001, 27119]}, "edge": {"target": [], "time": []}}, "mouseout": {"state": {"target": ["2", "3", "15", "12", "0", "1", "9", "15", "17", "30", "33", "33", "33", "30", "20", "19", "22", "22", "19", "19"], "time": [11268, 11282, 14753, 15102, 15954, 16017, 16800, 17367, 19967, 20051, 20087, 20334, 23303, 23321, 26969, 27056, 27853, 32206, 32240, 32873]}, "edge": {"target": [], "time": []}}}, "displayed_time": "31.82", "trialTime": 33255, "trial_type": "mouselab-mdp", "trial_index": 47, "time_elapsed": 1582472, "internal_node_id": "0.0-6.0-1.0-32.0"}}, {"uniqueid": "w58770478:a15128176", "current_trial": 48, "dateTime": 1693566369652, "trialdata": {"revealed_states": [], "clicked_states": [], "num_clicks_accrued": [0, 0, 0, 0, 0, 0, 0, 0, 0, 0, 0, 0, 0], "stateRewards": ["", 2, -4, -4, 13, -80, 62, 13, -11, 57, -13, -44, 1, 4, 3, -4, -29, -88, 15, 16, -58, 68, -45, -1, -3, -1, -9, -44, -86, -19, -7, -36, 59, 66], "withholdReward": false, "trial_id": "mdp_trial_34", "block": "test", "trialIndex": 37, "score": -30, "costs": 0, "simulationMode": [null, null, null, null, null], "rewards": [2, -4, -4, -11, -13], "path": ["0", "0", "1", "2", "3", "8", "10"], "rt": [335, 18, 670, 4, 119], "actions": ["up", "up", "up", "left", "down"], "actionTimes": [98697, 99208, 100393, 100895, 101529], "queries": {"click": {"state": {"target": [], "time": []}, "edge": {"target": [], "time": []}}, "mouseover": {"state": {"target": [], "time": []}, "edge": {"target": [], "time": []}}, "mouseout": {"state": {"target": ["14", "12", "0"], "time": [2940, 97908, 123894]}, "edge": {"target": [], "time": []}}}, "displayed_time": "112.37", "trialTime": 124952, "trial_type": "mouselab-mdp", "trial_index": 48, "time_elapsed": 1707753, "internal_node_id": "0.0-6.0-1.0-33.0"}}, {"uniqueid": "w58770478:a15128176", "current_trial": 49, "dateTime": 1693566468938, "trialdata": {"revealed_states": [], "clicked_states": ["11"], "num_clicks_accrued": [0, 0, 0, 0, 0, 0, 0, 0, 0, 0, 0, 0, 0], "stateRewards": ["", -2, 2, -1, -6, 22, 6, 6, -5, 70, -42, 65, 1, 3, 5, -6, -67, -9, 3, 14, 7, -62, -13, -2, 4, 1, 16, 42, -21, -52, -8, 32, 53, 81], "withholdReward": false, "trial_id": "mdp_trial_35", "block": "test", "trialIndex": 38, "score": 56.85, "costs": -2.15, "simulationMode": [null, null, null, null, null], "rewards": [-2, 2, -1, -5, 65], "path": ["0", "0", "1", "2", "3", "8", "11"], "rt": [4129, 32, 23, 142, 18], "actions": ["up", "up", "up", "left", "left"], "actionTimes": [76859, 77397, 77938, 78571, 79081], "queries": {"click": {"state": {"target": ["11"], "time": [73320]}, "edge": {"target": [], "time": []}}, "mouseover": {"state": {"target": ["10", "11", "11", "8", "3", "17", "16", "6", "5", "3"], "time": [72996, 73059, 73212, 73676, 73695, 74274, 75576, 75610, 75680, 76527]}, "edge": {"target": [], "time": []}}, "mouseout": {"state": {"target": ["0", "10", "11", "11", "11", "8", "3", "17", "16", "6", "5", "3", "3", "2"], "time": [72928, 73009, 73075, 73331, 73659, 73693, 73709, 75562, 75597, 75626, 76079, 98365, 98482, 98549]}, "edge": {"target": [], "time": []}}}, "displayed_time": "86.73", "trialTime": 99035, "trial_type": "mouselab-mdp", "trial_index": 49, "time_elapsed": 1807038, "internal_node_id": "0.0-6.0-1.0-34.0"}}, {"uniqueid": "w58770478:a15128176", "current_trial": 50, "dateTime": 1693566575415, "trialdata": {"revealed_states": [], "clicked_states": ["11"], "num_clicks_accrued": [0, 0, 0, 0, 0, 0, 0, 0, 0, 0, 0, 0, 0], "stateRewards": ["", 1, 2, 8, -2, 23, -69, -18, -16, 54, -21, 71, -1, -4, 7, 11, 43, -6, 88, 6, -55, 72, 43, 1, -3, -2, -1, 68, -31, -54, 4, -8, 25, -2], "withholdReward": false, "trial_id": "mdp_trial_36", "block": "test", "trialIndex": 39, "score": 63.85, "costs": -2.15, "simulationMode": [null, null, null, null, null], "rewards": [1, 2, 8, -16, 71], "path": ["0", "0", "1", "2", "3", "8", "11"], "rt": [4211, 69, 39, 154, 35], "actions": ["up", "up", "up", "left", "left"], "actionTimes": [78020, 78594, 79130, 79795, 80332], "queries": {"click": {"state": {"target": ["11"], "time": [74357]}, "edge": {"target": [], "time": []}}, "mouseover": {"state": {"target": ["11", "18", "20", "20", "12", "7"], "time": [74192, 74805, 75106, 75306, 77590, 77757]}, "edge": {"target": [], "time": []}}, "mouseout": {"state": {"target": ["0", "11", "18", "20", "20", "12", "7", "7"], "time": [73939, 74755, 74822, 75138, 77558, 77606, 85043, 90195]}, "edge": {"target": [], "time": []}}}, "displayed_time": "91.81", "trialTime": 106211, "trial_type": "mouselab-mdp", "trial_index": 50, "time_elapsed": 1913516, "internal_node_id": "0.0-6.0-1.0-35.0"}}, {"uniqueid": "w58770478:a15128176", "current_trial": 51, "dateTime": 1693566656070, "trialdata": {"revealed_states": [], "clicked_states": ["11", "17"], "num_clicks_accrued": [0, 0, 0, 0, 0, 0, 0, 0, 0, 0, 0, 0, 0], "stateRewards": ["", 2, -3, -8, 14, -7, -51, 73, 2, 36, 36, -43, -1, 3, -4, 1, 6, 87, -65, 15, 61, -42, -83, -1, 3, -2, -7, 30, -48, 35, 13, 26, 60, 78], "withholdReward": false, "trial_id": "mdp_trial_37", "block": "test", "trialIndex": 40, "score": 81.7, "costs": -4.3, "simulationMode": [null, null, null, null, null], "rewards": [-1, 3, -4, 1, 87], "path": ["0", "0", "12", "13", "14", "15", "17"], "rt": [7357, 72, 117, 60, 32], "actions": ["right", "right", "right", "up", "right"], "actionTimes": [67552, 68128, 68744, 69304, 69839], "queries": {"click": {"state": {"target": ["11", "17"], "time": [60844, 64127]}, "edge": {"target": [], "time": []}}, "mouseover": {"state": {"target": ["10", "11", "8", "3", "4", "16", "17", "14", "22", "32", "29", "33"], "time": [60423, 60739, 63438, 63488, 63537, 63609, 63907, 64490, 64507, 64604, 65222, 66074]}, "edge": {"target": [], "time": []}}, "mouseout": {"state": {"target": ["0", "10", "11", "8", "3", "4", "16", "17", "17", "14", "22", "32", "29", "33"], "time": [59804, 60456, 60854, 63472, 63521, 63555, 63638, 64197, 64488, 64505, 64524, 64621, 65974, 79590]}, "edge": {"target": [], "time": []}}}, "displayed_time": "74.20", "trialTime": 80368, "trial_type": "mouselab-mdp", "trial_index": 51, "time_elapsed": 1994171, "internal_node_id": "0.0-6.0-1.0-36.0"}}, {"uniqueid": "w58770478:a15128176", "current_trial": 52, "dateTime": 1693566735868, "trialdata": {"revealed_states": [], "clicked_states": [], "num_clicks_accrued": [0, 0, 0, 0, 0, 0, 0, 0, 0, 0, 0, 0, 0], "stateRewards": ["", 1, -4, 6, -3, 40, 76, -51, 5, -24, -63, 44, -2, -2, 8, 1, 76, -85, -58, 10, 59, 20, 11, -2, 3, -3, 3, -82, -10, 54, -7, -57, -6, -32], "withholdReward": false, "trial_id": "mdp_trial_38", "block": "test", "trialIndex": 41, "score": -55, "costs": 0, "simulationMode": [null, null, null, null, null], "rewards": [1, -4, 6, 5, -63], "path": ["0", "0", "1", "2", "3", "8", "10"], "rt": [570, 60, 33, 531, 58], "actions": ["up", "up", "up", "left", "down"], "actionTimes": [64611, 65161, 65698, 66746, 67307], "queries": {"click": {"state": {"target": [], "time": []}, "edge": {"target": [], "time": []}}, "mouseover": {"state": {"target": [], "time": []}, "edge": {"target": [], "time": []}}, "mouseout": {"state": {"target": ["0", "0"], "time": [64267, 69916]}, "edge": {"target": [], "time": []}}}, "displayed_time": "78.04", "trialTime": 79514, "trial_type": "mouselab-mdp", "trial_index": 52, "time_elapsed": 2073969, "internal_node_id": "0.0-6.0-1.0-37.0"}}, {"uniqueid": "w58770478:a15128176", "current_trial": 53, "dateTime": 1693566869786, "trialdata": {"revealed_states": [], "clicked_states": ["33", "16"], "num_clicks_accrued": [0, 0, 0, 0, 0, 0, 0, 0, 0, 0, 0, 0, 0], "stateRewards": ["", 1, 1, 1, 15, -76, 52, -32, 14, -57, 37, 49, 1, -4, -3, 6, 83, -76, 25, 9, 36, -1, -17, -1, 4, 4, -2, -22, -21, 58, -15, -57, 49, -24], "withholdReward": false, "trial_id": "mdp_trial_39", "block": "test", "trialIndex": 42, "score": 78.7, "costs": -4.3, "simulationMode": [null, null, null, null, null], "rewards": [1, -4, -3, 6, 83], "path": ["0", "0", "12", "13", "14", "15", "16"], "rt": [8341, 28, 17, 136, 5], "actions": ["right", "right", "right", "up", "up"], "actionTimes": [24007, 24543, 25060, 25695, 26197], "queries": {"click": {"state": {"target": ["33", "16"], "time": [17473, 20640]}, "edge": {"target": [], "time": []}}, "mouseover": {"state": {"target": ["28", "24", "23", "23", "33", "33", "12", "13", "15", "17", "16", "15", "14", "19", "21", "12", "2", "10", "10"], "time": [16076, 16223, 16241, 16407, 16806, 17392, 17924, 18140, 18192, 18412, 18978, 21010, 21025, 21056, 21107, 21190, 21457, 21511, 21809]}, "edge": {"target": [], "time": []}}, "mouseout": {"state": {"target": ["0", "28", "24", "23", "23", "33", "33", "12", "13", "15", "17", "16", "15", "14", "19", "21", "12", "2", "10", "10"], "time": [15274, 16191, 16239, 16272, 16459, 16890, 17823, 18122, 18159, 18289, 18740, 20989, 21023, 21042, 21073, 21156, 21210, 21491, 21540, 132626]}, "edge": {"target": [], "time": []}}}, "displayed_time": "29.67", "trialTime": 133652, "trial_type": "mouselab-mdp", "trial_index": 53, "time_elapsed": 2207886, "internal_node_id": "0.0-6.0-1.0-38.0"}}, {"uniqueid": "w58770478:a15128176", "current_trial": 54, "dateTime": 1693566891153, "trialdata": {"revealed_states": [], "clicked_states": ["29", "9", "6", "17"], "num_clicks_accrued": [0, 0, 0, 0, 0, 0, 0, 0, 0, 0, 0, 0, 0], "stateRewards": ["", 2, -3, 5, -14, -63, -9, -24, -11, -54, -43, 68, 2, -2, -4, 7, -64, 30, 47, 12, -74, 11, 86, 1, -3, 3, 10, -71, -42, -52, -1, -29, -16, 69], "withholdReward": false, "trial_id": "mdp_trial_40", "block": "test", "trialIndex": 43, "score": 24.4, "costs": -8.6, "simulationMode": [null, null, null, null, null], "rewards": [2, -2, -4, 7, 30], "path": ["0", "0", "12", "13", "14", "15", "17"], "rt": [14161, 19, 39, 4, 1043], "actions": ["right", "right", "right", "up", "right"], "actionTimes": [15131, 15643, 16197, 16711, 18269], "queries": {"click": {"state": {"target": ["29", "9", "6", "17"], "time": [1727, 5077, 8275, 11494]}, "edge": {"target": [], "time": []}}, "mouseover": {"state": {"target": ["26", "29", "23", "13", "9", "5", "16", "6", "4", "6", "18", "15", "17", "17", "14", "22"], "time": [1288, 1642, 2121, 2139, 2770, 5456, 6105, 6571, 6673, 6872, 8789, 9104, 9189, 9672, 11856, 12009]}, "edge": {"target": [], "time": []}}, "mouseout": {"state": {"target": ["0", "26", "29", "23", "13", "9", "5", "16", "6", "4", "6", "18", "15", "17", "17", "14", "22"], "time": [1191, 1323, 2088, 2138, 2154, 5179, 5473, 6323, 6606, 6689, 8680, 9072, 9156, 9589, 11791, 11873, 20394]}, "edge": {"target": [], "time": []}}}, "displayed_time": "18.76", "trialTime": 21101, "trial_type": "mouselab-mdp", "trial_index": 54, "time_elapsed": 2229254, "internal_node_id": "0.0-6.0-1.0-39.0"}}, {"uniqueid": "w58770478:a15128176", "current_trial": 55, "dateTime": 1693566919264, "trialdata": {"rt": 28107, "response": {"Q0": "$-2 to $2", "Q1": "$-16 to $16", "Q2": "$-88 to $88", "Q3": "The cost for clicking on nodes varied between nodes.", "Q4": "Very motivated"}, "question_order": [0, 1, 2, 3, 4], "trial_id": "final_quiz_control", "trial_type": "survey-multi-choice", "trial_index": 55, "time_elapsed": 2257365, "internal_node_id": "0.0-6.0-2.0"}}, {"uniqueid": "w58770478:a15128176", "current_trial": 56, "dateTime": 1693566965242, "trialdata": {"rt": 45973, "response": {"Q0": "Inspect the nodes furthest away.", "Q1": "Not sure", "Q2": "It's ultimately a game of chance so not sure how I could have improved."}, "trial_id": "self_report_control", "trial_type": "survey-text", "trial_index": 56, "time_elapsed": 2303343, "internal_node_id": "0.0-6.0-3.0"}}, {"uniqueid": "w58770478:a15128176", "current_trial": 57, "dateTime": 1693566992945, "trialdata": {"rt": 27699, "response": {"Q0": "Strongly disagree", "Q1": "Neither disagree nor agree", "Q2": "Neither disagree nor agree", "Q3": "Neither disagree nor agree", "Q4": "Neither disagree nor agree", "Q5": "Neither disagree nor agree", "Q6": "Neither disagree nor agree"}, "question_order": [0, 1, 2, 3, 4, 5, 6], "trial_id": "self_report_2", "trial_type": "survey-multi-choice", "trial_index": 57, "time_elapsed": 2331046, "internal_node_id": "0.0-6.0-4.0"}}, {"uniqueid": "w58770478:a15128176", "current_trial": 58, "dateTime": 1693567011481, "trialdata": {"rt": 18531, "response": {"gender": "female", "age": "27", "colorblind": "0", "effort": "1"}, "trial_type": "survey-html-form", "trial_index": 58, "time_elapsed": 2349582, "internal_node_id": "0.0-6.0-5.0"}}, {"uniqueid": "w58770478:a15128176", "current_trial": 59, "dateTime": 1693567024005, "trialdata": {"rt": 12520, "response": {"Q0": "No", "Q1": "No", "Q2": ""}, "trial_type": "survey-text", "trial_index": 59, "time_elapsed": 2362106, "internal_node_id": "0.0-6.0-6.0"}}, {"uniqueid": "w58770478:a15128176", "current_trial": 60, "dateTime": 1693567029001, "trialdata": {"rt": 4992, "stimulus": "<h1>Completion Code Instructions (1/2)</h1>\n<br><br><br><br>\nYou have reached the end of the experiment! The completion code consists of two parts: (1) a code with 2 characters (2) a code with 6 characters. On this page, you will receive the second part of the code. The first part of the completion code will be on the next page.\n<br><br>\nThe second part of your completion code is: <b>EWEK22</b>\n<br><br>\nPlease note this down. Then, press 'Finish HIT' in order to find the first part of your completion code. Once the data has been saved, you will receive this code either in this window or in the original browser window where you started the experiment.\n", "response": 0, "trial_type": "html-button-response", "trial_index": 60, "time_elapsed": 2367102, "internal_node_id": "0.0-6.0-7.0"}}, {"uniqueid": "w58770478:a15128176", "current_trial": 61, "dateTime": 1693567030005, "trialdata": {"success": true, "trial_type": "fullscreen", "trial_index": 61, "time_elapsed": 2368106, "internal_node_id": "0.0-7.0"}}], "questiondata": {"params": {"CODE": "C6DMOQA6", "MIN_TIME": 14, "inspectCost": 1, "startTime": "Fri Sep 01 2023 11:37:41 GMT+0100 (British Summer Time)", "bonusRate": 0.002, "variance": "1_2_4_8_44", "branching": "31123"}, "final_score": 482.35}, "eventdata": [{"eventtype": "initialized", "value": null, "timestamp": 1693564660810, "interval": 0}, {"eventtype": "window_resize", "value": [1440, 783], "timestamp": 1693564660810, "interval": 0}, {"eventtype": "window_resize", "value": [1440, 783], "timestamp": 1693564661123, "interval": 313}, {"eventtype": "window_resize", "value": [1440, 900], "timestamp": 1693564663687, "interval": 2564}, {"eventtype": "focus", "value": "off", "timestamp": 1693564676442, "interval": 12755}, {"eventtype": "focus", "value": "on", "timestamp": 1693564769454, "interval": 93012}, {"eventtype": "focus", "value": "off", "timestamp": 1693564925217, "interval": 155763}, {"eventtype": "focus", "value": "on", "timestamp": 1693564926126, "interval": 909}, {"eventtype": "focus", "value": "off", "timestamp": 1693564930950, "interval": 4824}, {"eventtype": "focus", "value": "on", "timestamp": 1693564959106, "interval": 28156}, {"eventtype": "focus", "value": "off", "timestamp": 1693564961794, "interval": 2688}, {"eventtype": "focus", "value": "on", "timestamp": 1693564983605, "interval": 21811}, {"eventtype": "focus", "value": "off", "timestamp": 1693565017886, "interval": 34281}, {"eventtype": "focus", "value": "on", "timestamp": 1693565018060, "interval": 174}, {"eventtype": "window_resize", "value": [1440, 783], "timestamp": 1693565018095, "interval": 35}, {"eventtype": "window_resize", "value": [1440, 900], "timestamp": 1693565020407, "interval": 2312}, {"eventtype": "focus", "value": "off", "timestamp": 1693565108873, "interval": 88466}, {"eventtype": "focus", "value": "on", "timestamp": 1693565138626, "interval": 29753}, {"eventtype": "focus", "value": "off", "timestamp": 1693565143752, "interval": 5126}, {"eventtype": "focus", "value": "on", "timestamp": 1693565144980, "interval": 1228}, {"eventtype": "focus", "value": "off", "timestamp": 1693565193673, "interval": 48693}, {"eventtype": "focus", "value": "on", "timestamp": 1693565205432, "interval": 11759}, {"eventtype": "focus", "value": "off", "timestamp": 1693565221690, "interval": 16258}, {"eventtype": "focus", "value": "on", "timestamp": 1693565238099, "interval": 16409}, {"eventtype": "focus", "value": "off", "timestamp": 1693565245184, "interval": 7085}, {"eventtype": "focus", "value": "on", "timestamp": 1693565294662, "interval": 49478}, {"eventtype": "focus", "value": "off", "timestamp": 1693565969473, "interval": 674811}, {"eventtype": "focus", "value": "on", "timestamp": 1693565986770, "interval": 17297}, {"eventtype": "focus", "value": "off", "timestamp": 1693566172511, "interval": 185741}, {"eventtype": "focus", "value": "on", "timestamp": 1693566192135, "interval": 19624}, {"eventtype": "window_resize", "value": [1440, 783], "timestamp": 1693566221916, "interval": 29781}, {"eventtype": "focus", "value": "off", "timestamp": 1693566223107, "interval": 1191}, {"eventtype": "focus", "value": "on", "timestamp": 1693566224881, "interval": 1774}, {"eventtype": "focus", "value": "off", "timestamp": 1693566554925, "interval": 330044}, {"eventtype": "focus", "value": "on", "timestamp": 1693566574963, "interval": 20038}], "useragent": "Mozilla/5.0 (Macintosh; Intel Mac OS X 10_15_7) AppleWebKit/537.36 (KHTML, like Gecko) Chrome/115.0.0.0 Safari/537.36", "mode": "live", "id": "w58770478:a15128176", "status": "user data saved", "Beginhit": "2023-09-01 10:37:39.587637", "Beginexp": "2023-09-01 10:37:44.579123", "Endhit": "2023-09-01 11:17:10.531743", "psiturkStatus": 3, "browser": "<redacted>", "platform": "macos", "language": "en-GB"}