{"condition": 1, "counterbalance": 0, "assignmentId": "a14988009", "workerId": "w40289780", "hitId": "h68108571", "currenttrial": 74, "bonus": 0, "data": [{"uniqueid": "w40289780:a14988009", "current_trial": 0, "dateTime": 1691142075976, "trialdata": {"success": true, "trial_type": "fullscreen", "trial_index": 0, "time_elapsed": 7217, "internal_node_id": "0.0-0.0"}}, {"uniqueid": "w40289780:a14988009", "current_trial": 1, "dateTime": 1691142188833, "trialdata": {"view_history": [{"page_index": 0, "viewing_time": 112839}], "rt": 112840, "trial_id": "exp_instructions_misaligned", "trial_type": "instructions", "trial_index": 1, "time_elapsed": 120075, "internal_node_id": "0.0-1.0"}}, {"uniqueid": "w40289780:a14988009", "current_trial": 2, "dateTime": 1691142191928, "trialdata": {"success": true, "trial_type": "fullscreen", "trial_index": 2, "time_elapsed": 123170, "internal_node_id": "0.0-2.0-0.0"}}, {"uniqueid": "w40289780:a14988009", "current_trial": 3, "dateTime": 1691142520525, "trialdata": {"view_history": [{"page_index": 0, "viewing_time": 80801}, {"page_index": 1, "viewing_time": 56710}, {"page_index": 2, "viewing_time": 45405}, {"page_index": 3, "viewing_time": 145680}], "rt": 328596, "trial_id": "mouselab_instructions_1_misaligned", "trial_type": "instructions", "trial_index": 3, "time_elapsed": 451767, "internal_node_id": "0.0-2.0-1.0"}}, {"uniqueid": "w40289780:a14988009", "current_trial": 4, "dateTime": 1691142565530, "trialdata": {"revealed_states": [], "clicked_states": ["12", "13", "14", "19", "21", "23", "1", "2"], "num_clicks_accrued": [0, 0, 0, 0, 0, 0, 0, 0, 0, 0, 0, 0, 0], "stateRewards": ["", -10, 10, -10, 10, -10, 10, 10, 10, -10, 10, -10, 10, 10, 10, 10, 10, -10, 10, -10, -10, 10, -10, -10, -10, 10, 10, -10, -10, -10, 10, 10, -10, -10], "withholdReward": false, "trial_id": "practice_1", "block": "test", "trialIndex": 0, "score": 49.5, "costs": -4, "simulationMode": [null, null, null, null, null], "rewards": [10, 10, 10, 10, 10], "path": ["0", "0", "12", "13", "14", "15", "16"], "rt": [32086, 2696, 341, 657, 116], "actions": ["right", "right", "right", "up", "up"], "actionTimes": [33700, 36920, 37775, 38943, 39584], "queries": {"click": {"state": {"target": ["12", "13", "14", "19", "21", "23", "1", "2"], "time": [9264, 11386, 12784, 14598, 17041, 22778, 24304, 30655]}, "edge": {"target": [], "time": []}}, "mouseover": {"state": {"target": ["1", "2", "2", "1", "23", "23", "23", "24", "24", "23", "0", "12", "12", "13", "14", "19", "21", "0", "23", "1", "0", "12", "2", "12", "12"], "time": [3465, 5044, 5758, 5852, 6114, 6873, 7356, 7484, 7768, 7865, 7931, 8137, 8769, 10843, 12397, 13476, 15175, 20691, 22448, 23616, 27152, 28482, 29793, 31239, 31854]}, "edge": {"target": [], "time": []}}, "mouseout": {"state": {"target": ["12", "0", "0", "1", "2", "2", "1", "23", "23", "23", "24", "24", "23", "0", "12", "12", "13", "14", "19", "21", "0", "23", "1", "1", "0", "12", "2", "12"], "time": [265, 442, 695, 3825, 5159, 5824, 5993, 6657, 7140, 7458, 7571, 7848, 7897, 7948, 8320, 9847, 12261, 13410, 15075, 17821, 20807, 23533, 25114, 26994, 27648, 29452, 31173, 31273]}, "edge": {"target": [], "time": []}}}, "displayed_time": "40.10", "trialTime": 44008, "trial_type": "mouselab-mdp", "trial_index": 4, "time_elapsed": 496770, "internal_node_id": "0.0-2.0-2.0-0.0"}}, {"uniqueid": "w40289780:a14988009", "current_trial": 5, "dateTime": 1691142580766, "trialdata": {"revealed_states": [], "clicked_states": [], "num_clicks_accrued": [0, 0, 0, 0, 0, 0, 0, 0, 0, 0, 0, 0, 0], "stateRewards": ["", -10, 10, 10, 10, 10, 10, 10, 10, -10, 10, -10, 10, 10, 10, 10, 10, 10, 10, -10, 10, 10, -10, -10, -10, -10, -10, 10, -10, 10, 10, -10, 10, 10], "withholdReward": false, "trial_id": "practice_2", "block": "test", "trialIndex": 1, "score": -26.5, "costs": 0, "simulationMode": [null, null, null, null, null], "rewards": [-10, -10, -10, -10, 10], "path": ["0", "0", "23", "24", "25", "26", "27"], "rt": [5113, 458, 132, 249, 76], "actions": ["left", "left", "left", "up", "up"], "actionTimes": [9412, 10397, 11048, 11817, 12411], "queries": {"click": {"state": {"target": [], "time": []}, "edge": {"target": [], "time": []}}, "mouseover": {"state": {"target": [], "time": []}, "edge": {"target": [], "time": []}}, "mouseout": {"state": {"target": ["12", "12", "0", "0"], "time": [781, 1746, 2295, 4759]}, "edge": {"target": [], "time": []}}}, "displayed_time": "12.94", "trialTime": 14932, "trial_type": "mouselab-mdp", "trial_index": 5, "time_elapsed": 512006, "internal_node_id": "0.0-2.0-2.0-1.0"}}, {"uniqueid": "w40289780:a14988009", "current_trial": 6, "dateTime": 1691142603481, "trialdata": {"view_history": [{"page_index": 0, "viewing_time": 9197}, {"page_index": 1, "viewing_time": 13510}], "rt": 22708, "trial_id": "mouselab_instructions_2_misaligned", "trial_type": "instructions", "trial_index": 6, "time_elapsed": 534723, "internal_node_id": "0.0-2.0-3.0"}}, {"uniqueid": "w40289780:a14988009", "current_trial": 7, "dateTime": 1691142658754, "trialdata": {"rt": 55269, "response": {"Q0": "The cost for clicking on nodes may vary between nodes.", "Q1": "The better I perform the higher my bonus will be.", "Q2": "No, the amount of cash at each node of the web may be different each time.", "Q3": "To click on the least number of nodes.", "Q4": "Any time during the round.", "Q5": "3 seconds"}, "question_order": [0, 1, 2, 3, 4, 5], "correct": {"Q0": "The cost for clicking on nodes may vary between nodes.", "Q1": "The better I perform the higher my bonus will be.", "Q2": "No, the amount of cash at each node of the web may be different each time.", "Q3": "To get the highest total score.", "Q4": "Only before moving the spider.", "Q5": "3 seconds"}, "trial_id": "mouselab_quiz_misaligned", "trial_type": "survey-multi-choice", "trial_index": 7, "time_elapsed": 589996, "internal_node_id": "0.0-2.0-4.0"}}, {"uniqueid": "w40289780:a14988009", "current_trial": 8, "dateTime": 1691142667947, "trialdata": {"success": true, "trial_type": "fullscreen", "trial_index": 8, "time_elapsed": 599189, "internal_node_id": "0.0-2.1-0.1"}}, {"uniqueid": "w40289780:a14988009", "current_trial": 9, "dateTime": 1691142720560, "trialdata": {"view_history": [{"page_index": 0, "viewing_time": 25932}, {"page_index": 1, "viewing_time": 10612}, {"page_index": 2, "viewing_time": 9341}, {"page_index": 3, "viewing_time": 6723}], "rt": 52608, "trial_id": "mouselab_instructions_1_misaligned", "trial_type": "instructions", "trial_index": 9, "time_elapsed": 651802, "internal_node_id": "0.0-2.1-1.1"}}, {"uniqueid": "w40289780:a14988009", "current_trial": 10, "dateTime": 1691142734809, "trialdata": {"revealed_states": [], "clicked_states": ["12", "23", "1"], "num_clicks_accrued": [0, 0, 0, 0, 0, 0, 0, 0, 0, 0, 0, 0, 0], "stateRewards": ["", -10, 10, -10, 10, -10, 10, 10, 10, -10, 10, -10, 10, 10, 10, 10, 10, -10, 10, -10, -10, 10, -10, -10, -10, 10, 10, -10, -10, -10, 10, 10, -10, -10], "withholdReward": false, "trial_id": "practice_1", "block": "test", "trialIndex": 2, "score": 52, "costs": -1.5, "simulationMode": [null, null, null, null, null], "rewards": [10, 10, 10, 10, 10], "path": ["0", "0", "12", "13", "14", "15", "16"], "rt": [6239, 184, 184, 213, 177], "actions": ["right", "right", "right", "up", "up"], "actionTimes": [8942, 9644, 10349, 11079, 11774], "queries": {"click": {"state": {"target": ["12", "23", "1"], "time": [4230, 5434, 6792]}, "edge": {"target": [], "time": []}}, "mouseover": {"state": {"target": ["12", "23", "1"], "time": [3521, 4886, 6234]}, "edge": {"target": [], "time": []}}, "mouseout": {"state": {"target": ["0", "12", "23", "1", "1", "12"], "time": [3229, 4819, 6051, 6908, 7633, 13432]}, "edge": {"target": [], "time": []}}}, "displayed_time": "12.30", "trialTime": 13921, "trial_type": "mouselab-mdp", "trial_index": 10, "time_elapsed": 666050, "internal_node_id": "0.0-2.1-2.1-0.1"}}, {"uniqueid": "w40289780:a14988009", "current_trial": 11, "dateTime": 1691142744636, "trialdata": {"revealed_states": [], "clicked_states": [], "num_clicks_accrued": [0, 0, 0, 0, 0, 0, 0, 0, 0, 0, 0, 0, 0], "stateRewards": ["", -10, 10, 10, 10, 10, 10, 10, 10, -10, 10, -10, 10, 10, 10, 10, 10, 10, 10, -10, 10, 10, -10, -10, -10, -10, -10, 10, -10, 10, 10, -10, 10, 10], "withholdReward": false, "trial_id": "practice_2", "block": "test", "trialIndex": 3, "score": 33.5, "costs": 0, "simulationMode": [null, null, null, null, null], "rewards": [10, 10, 10, -10, 10], "path": ["0", "0", "12", "13", "14", "19", "21"], "rt": [1272, 152, 1455, 228, 1], "actions": ["right", "right", "right", "down", "down"], "actionTimes": [4036, 4700, 6673, 7419, 7941], "queries": {"click": {"state": {"target": [], "time": []}, "edge": {"target": [], "time": []}}, "mouseover": {"state": {"target": ["12"], "time": [3330]}, "edge": {"target": [], "time": []}}, "mouseout": {"state": {"target": ["0"], "time": [2974]}, "edge": {"target": [], "time": []}}}, "displayed_time": "8.47", "trialTime": 9484, "trial_type": "mouselab-mdp", "trial_index": 11, "time_elapsed": 675877, "internal_node_id": "0.0-2.1-2.1-1.1"}}, {"uniqueid": "w40289780:a14988009", "current_trial": 12, "dateTime": 1691142760909, "trialdata": {"view_history": [{"page_index": 0, "viewing_time": 12804}, {"page_index": 1, "viewing_time": 3461}], "rt": 16265, "trial_id": "mouselab_instructions_2_misaligned", "trial_type": "instructions", "trial_index": 12, "time_elapsed": 692151, "internal_node_id": "0.0-2.1-3.1"}}, {"uniqueid": "w40289780:a14988009", "current_trial": 13, "dateTime": 1691142890076, "trialdata": {"rt": 129164, "response": {"Q0": "The cost for clicking on nodes may vary between nodes.", "Q1": "The better I perform the higher my bonus will be.", "Q2": "No, the amount of cash at each node of the web may be different each time.", "Q3": "To click on the least number of nodes.", "Q4": "Only before moving the spider.", "Q5": "3 seconds"}, "question_order": [0, 1, 2, 3, 4, 5], "correct": {"Q0": "The cost for clicking on nodes may vary between nodes.", "Q1": "The better I perform the higher my bonus will be.", "Q2": "No, the amount of cash at each node of the web may be different each time.", "Q3": "To get the highest total score.", "Q4": "Only before moving the spider.", "Q5": "3 seconds"}, "trial_id": "mouselab_quiz_misaligned", "trial_type": "survey-multi-choice", "trial_index": 13, "time_elapsed": 821318, "internal_node_id": "0.0-2.1-4.1"}}, {"uniqueid": "w40289780:a14988009", "current_trial": 14, "dateTime": 1691142895274, "trialdata": {"success": true, "trial_type": "fullscreen", "trial_index": 14, "time_elapsed": 826516, "internal_node_id": "0.0-2.2-0.2"}}, {"uniqueid": "w40289780:a14988009", "current_trial": 15, "dateTime": 1691142905906, "trialdata": {"view_history": [{"page_index": 0, "viewing_time": 3864}, {"page_index": 1, "viewing_time": 3150}, {"page_index": 2, "viewing_time": 1900}, {"page_index": 3, "viewing_time": 1716}], "rt": 10631, "trial_id": "mouselab_instructions_1_misaligned", "trial_type": "instructions", "trial_index": 15, "time_elapsed": 837148, "internal_node_id": "0.0-2.2-1.2"}}, {"uniqueid": "w40289780:a14988009", "current_trial": 16, "dateTime": 1691142913931, "trialdata": {"revealed_states": [], "clicked_states": ["12"], "num_clicks_accrued": [0, 0, 0, 0, 0, 0, 0, 0, 0, 0, 0, 0, 0], "stateRewards": ["", -10, 10, -10, 10, -10, 10, 10, 10, -10, 10, -10, 10, 10, 10, 10, 10, -10, 10, -10, -10, 10, -10, -10, -10, 10, 10, -10, -10, -10, 10, 10, -10, -10], "withholdReward": false, "trial_id": "practice_1", "block": "test", "trialIndex": 4, "score": 53, "costs": -0.5, "simulationMode": [null, null, null, null, null, null], "rewards": [10, 10, 10, 10, 10], "path": ["0", "0", "12", "13", "14", "15", "16"], "rt": [1747, 287, 73, 415, 172, 52], "actions": ["right", "right", "right", "right", "up", "up"], "actionTimes": [3166, 3457, 4059, 5000, 5690, 6257], "queries": {"click": {"state": {"target": ["12"], "time": [2451]}, "edge": {"target": [], "time": []}}, "mouseover": {"state": {"target": ["12"], "time": [1810]}, "edge": {"target": [], "time": []}}, "mouseout": {"state": {"target": ["23", "23", "0"], "time": [120, 472, 1554]}, "edge": {"target": [], "time": []}}}, "displayed_time": "6.79", "trialTime": 7668, "trial_type": "mouselab-mdp", "trial_index": 16, "time_elapsed": 845172, "internal_node_id": "0.0-2.2-2.2-0.2"}}, {"uniqueid": "w40289780:a14988009", "current_trial": 17, "dateTime": 1691142920791, "trialdata": {"revealed_states": [], "clicked_states": [], "num_clicks_accrued": [0, 0, 0, 0, 0, 0, 0, 0, 0, 0, 0, 0, 0], "stateRewards": ["", -10, 10, 10, 10, 10, 10, 10, 10, -10, 10, -10, 10, 10, 10, 10, 10, 10, 10, -10, 10, 10, -10, -10, -10, -10, -10, 10, -10, 10, 10, -10, 10, 10], "withholdReward": false, "trial_id": "practice_2", "block": "test", "trialIndex": 5, "score": 53.5, "costs": 0, "simulationMode": [null, null, null, null, null], "rewards": [10, 10, 10, 10, 10], "path": ["0", "0", "12", "13", "14", "15", "16"], "rt": [371, 78, 253, 320, 128], "actions": ["right", "right", "right", "up", "up"], "actionTimes": [2576, 3175, 3949, 4783, 5423], "queries": {"click": {"state": {"target": [], "time": []}, "edge": {"target": [], "time": []}}, "mouseover": {"state": {"target": [], "time": []}, "edge": {"target": [], "time": []}}, "mouseout": {"state": {"target": ["12", "23", "23"], "time": [934, 1097, 1332]}, "edge": {"target": [], "time": []}}}, "displayed_time": "5.95", "trialTime": 6498, "trial_type": "mouselab-mdp", "trial_index": 17, "time_elapsed": 852032, "internal_node_id": "0.0-2.2-2.2-1.2"}}, {"uniqueid": "w40289780:a14988009", "current_trial": 18, "dateTime": 1691142925327, "trialdata": {"view_history": [{"page_index": 0, "viewing_time": 2744}, {"page_index": 1, "viewing_time": 1784}], "rt": 4528, "trial_id": "mouselab_instructions_2_misaligned", "trial_type": "instructions", "trial_index": 18, "time_elapsed": 856569, "internal_node_id": "0.0-2.2-3.2"}}, {"uniqueid": "w40289780:a14988009", "current_trial": 19, "dateTime": 1691143085905, "trialdata": {"rt": 160575, "response": {"Q0": "The cost for clicking on nodes may vary between nodes.", "Q1": "The better I perform the higher my bonus will be.", "Q2": "No, the amount of cash at each node of the web may be different each time.", "Q3": "To click on the least number of nodes.", "Q4": "Only before moving the spider.", "Q5": "3 seconds"}, "question_order": [0, 1, 2, 3, 4, 5], "correct": {"Q0": "The cost for clicking on nodes may vary between nodes.", "Q1": "The better I perform the higher my bonus will be.", "Q2": "No, the amount of cash at each node of the web may be different each time.", "Q3": "To get the highest total score.", "Q4": "Only before moving the spider.", "Q5": "3 seconds"}, "trial_id": "mouselab_quiz_misaligned", "trial_type": "survey-multi-choice", "trial_index": 19, "time_elapsed": 1017147, "internal_node_id": "0.0-2.2-4.2"}}, {"uniqueid": "w40289780:a14988009", "current_trial": 20, "dateTime": 1691143092897, "trialdata": {"success": true, "trial_type": "fullscreen", "trial_index": 20, "time_elapsed": 1024139, "internal_node_id": "0.0-2.3-0.3"}}, {"uniqueid": "w40289780:a14988009", "current_trial": 21, "dateTime": 1691143110558, "trialdata": {"view_history": [{"page_index": 0, "viewing_time": 10899}, {"page_index": 1, "viewing_time": 2860}, {"page_index": 2, "viewing_time": 2530}, {"page_index": 3, "viewing_time": 1367}], "rt": 17656, "trial_id": "mouselab_instructions_1_misaligned", "trial_type": "instructions", "trial_index": 21, "time_elapsed": 1041799, "internal_node_id": "0.0-2.3-1.3"}}, {"uniqueid": "w40289780:a14988009", "current_trial": 22, "dateTime": 1691143118178, "trialdata": {"revealed_states": [], "clicked_states": [], "num_clicks_accrued": [0, 0, 0, 0, 0, 0, 0, 0, 0, 0, 0, 0, 0], "stateRewards": ["", -10, 10, -10, 10, -10, 10, 10, 10, -10, 10, -10, 10, 10, 10, 10, 10, -10, 10, -10, -10, 10, -10, -10, -10, 10, 10, -10, -10, -10, 10, 10, -10, -10], "withholdReward": false, "trial_id": "practice_1", "block": "test", "trialIndex": 6, "score": 53.5, "costs": 0, "simulationMode": [null, null, null, null, null], "rewards": [10, 10, 10, 10, 10], "path": ["0", "0", "12", "13", "14", "15", "16"], "rt": [1013, 87, 176, 150, 92], "actions": ["right", "right", "right", "up", "up"], "actionTimes": [2990, 3603, 4296, 4971, 5576], "queries": {"click": {"state": {"target": [], "time": []}, "edge": {"target": [], "time": []}}, "mouseover": {"state": {"target": ["12"], "time": [2471]}, "edge": {"target": [], "time": []}}, "mouseout": {"state": {"target": ["12", "0"], "time": [1305, 2373]}, "edge": {"target": [], "time": []}}}, "displayed_time": "6.10", "trialTime": 7249, "trial_type": "mouselab-mdp", "trial_index": 22, "time_elapsed": 1049419, "internal_node_id": "0.0-2.3-2.3-0.3"}}, {"uniqueid": "w40289780:a14988009", "current_trial": 23, "dateTime": 1691143125487, "trialdata": {"revealed_states": [], "clicked_states": [], "num_clicks_accrued": [0, 0, 0, 0, 0, 0, 0, 0, 0, 0, 0, 0, 0], "stateRewards": ["", -10, 10, 10, 10, 10, 10, 10, 10, -10, 10, -10, 10, 10, 10, 10, 10, 10, 10, -10, 10, 10, -10, -10, -10, -10, -10, 10, -10, 10, 10, -10, 10, 10], "withholdReward": false, "trial_id": "practice_2", "block": "test", "trialIndex": 7, "score": 53.5, "costs": 0, "simulationMode": [null, null, null, null, null], "rewards": [10, 10, 10, 10, 10], "path": ["0", "0", "12", "13", "14", "15", "16"], "rt": [819, 214, 50, 228, 302], "actions": ["right", "right", "right", "up", "up"], "actionTimes": [2840, 3572, 4140, 4901, 5728], "queries": {"click": {"state": {"target": [], "time": []}, "edge": {"target": [], "time": []}}, "mouseover": {"state": {"target": ["0"], "time": [2159]}, "edge": {"target": [], "time": []}}, "mouseout": {"state": {"target": ["12", "0", "23", "23", "0"], "time": [1031, 1128, 1214, 1362, 2308]}, "edge": {"target": [], "time": []}}}, "displayed_time": "6.24", "trialTime": 6924, "trial_type": "mouselab-mdp", "trial_index": 23, "time_elapsed": 1056728, "internal_node_id": "0.0-2.3-2.3-1.3"}}, {"uniqueid": "w40289780:a14988009", "current_trial": 24, "dateTime": 1691143158891, "trialdata": {"view_history": [{"page_index": 0, "viewing_time": 31717}, {"page_index": 1, "viewing_time": 1679}], "rt": 33395, "trial_id": "mouselab_instructions_2_misaligned", "trial_type": "instructions", "trial_index": 24, "time_elapsed": 1090133, "internal_node_id": "0.0-2.3-3.3"}}, {"uniqueid": "w40289780:a14988009", "current_trial": 25, "dateTime": 1691143298623, "trialdata": {"rt": 139729, "response": {"Q0": "The cost for clicking on nodes may vary between nodes.", "Q1": "The better I perform the higher my bonus will be.", "Q2": "No, the amount of cash at each node of the web may be different each time.", "Q3": "To get the highest total score.", "Q4": "Any time during the round.", "Q5": "3 seconds"}, "question_order": [0, 1, 2, 3, 4, 5], "correct": {"Q0": "The cost for clicking on nodes may vary between nodes.", "Q1": "The better I perform the higher my bonus will be.", "Q2": "No, the amount of cash at each node of the web may be different each time.", "Q3": "To get the highest total score.", "Q4": "Only before moving the spider.", "Q5": "3 seconds"}, "trial_id": "mouselab_quiz_misaligned", "trial_type": "survey-multi-choice", "trial_index": 25, "time_elapsed": 1229865, "internal_node_id": "0.0-2.3-4.3"}}, {"uniqueid": "w40289780:a14988009", "current_trial": 26, "dateTime": 1691143303043, "trialdata": {"rt": 4411, "stimulus": "\n<h1> Get ready to start the game! </h1>\n\nThank you for reading the instructions. Get ready start with the 40 rounds of this game.\n<br><br>\nIf you need to take a break, feel free to take one after the end of a round, before continuing to the next one.\n<br><br>\nRemember, the more money the spider gets, the bigger your bonus will be!\n<br><br>\n<div style='text-align: center;'>Press <code>space</code> to begin.</div>\n\n<br><br>\n(If, at any point, the <code>space</code> key does not take you to the next page, click once on the text and try again.)", "response": " ", "trial_id": "mdp_ready", "trial_type": "html-keyboard-response", "trial_index": 26, "time_elapsed": 1234284, "internal_node_id": "0.0-4.0-0.0"}}, {"uniqueid": "w40289780:a14988009", "current_trial": 27, "dateTime": 1691143320972, "trialdata": {"revealed_states": [], "clicked_states": [], "num_clicks_accrued": [0, 0, 0, 0, 0, 0, 0, 0, 0, 0, 0, 0, 0], "stateRewards": ["", 2, -1, -4, -13, 74, 77, 3, 2, -43, -2, -11, 2, 3, 7, 11, -26, -29, -33, -3, -3, -13, -3, 1, 3, -7, 14, -59, 33, 9, -5, 34, 79, 68], "withholdReward": false, "trial_id": "mdp_trial_1", "block": "test", "trialIndex": 8, "score": 58, "costs": 0, "simulationMode": [null, null, null, null, null], "rewards": [2, -1, -4, -13, 74], "path": ["0", "0", "1", "2", "3", "4", "5"], "rt": [3114, 81, 603, 4287, 421], "actions": ["up", "up", "up", "right", "up"], "actionTimes": [4592, 5200, 6315, 11115, 12044], "queries": {"click": {"state": {"target": [], "time": []}, "edge": {"target": [], "time": []}}, "mouseover": {"state": {"target": ["0"], "time": [2008]}, "edge": {"target": [], "time": []}}, "mouseout": {"state": {"target": ["3", "2"], "time": [271, 368]}, "edge": {"target": [], "time": []}}}, "displayed_time": "15.49", "trialTime": 17529, "trial_type": "mouselab-mdp", "trial_index": 27, "time_elapsed": 1252213, "internal_node_id": "0.0-4.0-1.0-0.0"}}, {"uniqueid": "w40289780:a14988009", "current_trial": 28, "dateTime": 1691143338537, "trialdata": {"revealed_states": [], "clicked_states": [], "num_clicks_accrued": [0, 0, 0, 0, 0, 0, 0, 0, 0, 0, 0, 0, 0], "stateRewards": ["", 2, 3, 6, -12, -29, 12, 87, 4, 35, -30, 67, 2, 3, -5, -9, 44, 69, -8, 1, 45, -8, 28, -2, -1, -8, 11, -12, -5, 81, 9, 87, 82, 88], "withholdReward": false, "trial_id": "mdp_trial_2", "block": "test", "trialIndex": 9, "score": 50, "costs": 0, "simulationMode": [null, null, null, null, null], "rewards": [2, 3, 6, 4, 35], "path": ["0", "0", "1", "2", "3", "8", "9"], "rt": [1122, 187, 4166, 417, 732], "actions": ["up", "up", "up", "left", "up"], "actionTimes": [3205, 3932, 8617, 9544, 10790], "queries": {"click": {"state": {"target": [], "time": []}, "edge": {"target": [], "time": []}}, "mouseover": {"state": {"target": [], "time": []}, "edge": {"target": [], "time": []}}, "mouseout": {"state": {"target": ["0"], "time": [1313]}, "edge": {"target": [], "time": []}}}, "displayed_time": "16.09", "trialTime": 17180, "trial_type": "mouselab-mdp", "trial_index": 28, "time_elapsed": 1269778, "internal_node_id": "0.0-4.0-1.0-1.0"}}, {"uniqueid": "w40289780:a14988009", "current_trial": 29, "dateTime": 1691143365474, "trialdata": {"revealed_states": [], "clicked_states": [], "num_clicks_accrued": [0, 0, 0, 0, 0, 0, 0, 0, 0, 0, 0, 0, 0], "stateRewards": ["", 1, -1, 4, -2, -75, -75, 84, -9, -60, -79, 59, 2, -4, 8, 9, -17, -82, 80, 14, -4, 49, 49, -1, 3, 6, -11, -33, 34, 55, 9, -57, 5, 59], "withholdReward": false, "trial_id": "mdp_trial_3", "block": "test", "trialIndex": 10, "score": -2, "costs": 0, "simulationMode": [null, null, null, null, null], "rewards": [2, -4, 8, 9, -17], "path": ["0", "0", "12", "13", "14", "15", "16"], "rt": [672, 138, 216, 264, 342], "actions": ["right", "right", "right", "up", "up"], "actionTimes": [2214, 2869, 3596, 4381, 5243], "queries": {"click": {"state": {"target": [], "time": []}, "edge": {"target": [], "time": []}}, "mouseover": {"state": {"target": [], "time": []}, "edge": {"target": [], "time": []}}, "mouseout": {"state": {"target": ["0"], "time": [1289]}, "edge": {"target": [], "time": []}}}, "displayed_time": "15.54", "trialTime": 26553, "trial_type": "mouselab-mdp", "trial_index": 29, "time_elapsed": 1296714, "internal_node_id": "0.0-4.0-1.0-2.0"}}, {"uniqueid": "w40289780:a14988009", "current_trial": 30, "dateTime": 1691143386032, "trialdata": {"revealed_states": [], "clicked_states": [], "num_clicks_accrued": [0, 0, 0, 0, 0, 0, 0, 0, 0, 0, 0, 0, 0], "stateRewards": ["", -1, 2, -7, -12, -62, 12, -13, 5, 77, -71, 83, 1, -4, 7, 15, -42, -87, -4, 5, -25, 44, 88, -1, 4, -5, -8, 14, 51, 8, -5, 83, -24, -19], "withholdReward": false, "trial_id": "mdp_trial_4", "block": "test", "trialIndex": 11, "score": 82, "costs": 0, "simulationMode": [null, null, null, null, null], "rewards": [-1, 2, -7, 5, 83], "path": ["0", "0", "1", "2", "3", "8", "11"], "rt": [1460, 258, 38, 434, 148], "actions": ["up", "up", "up", "left", "left"], "actionTimes": [4365, 5139, 5700, 6652, 7308], "queries": {"click": {"state": {"target": [], "time": []}, "edge": {"target": [], "time": []}}, "mouseover": {"state": {"target": [], "time": []}, "edge": {"target": [], "time": []}}, "mouseout": {"state": {"target": ["0"], "time": [1650]}, "edge": {"target": [], "time": []}}}, "displayed_time": "16.91", "trialTime": 20127, "trial_type": "mouselab-mdp", "trial_index": 30, "time_elapsed": 1317273, "internal_node_id": "0.0-4.0-1.0-3.0"}}, {"uniqueid": "w40289780:a14988009", "current_trial": 31, "dateTime": 1691143410482, "trialdata": {"revealed_states": [], "clicked_states": [], "num_clicks_accrued": [0, 0, 0, 0, 0, 0, 0, 0, 0, 0, 0, 0, 0], "stateRewards": ["", -1, 1, -1, 2, 19, 85, -18, 2, -3, -26, 36, 2, 4, 7, -9, -18, 70, 72, -5, 35, -20, -28, 1, -2, -4, -3, -59, -11, -63, -2, -72, 59, -69], "withholdReward": false, "trial_id": "mdp_trial_5", "block": "test", "trialIndex": 12, "score": 86, "costs": 0, "simulationMode": [null, null, null, null, null], "rewards": [-1, 1, -1, 2, 85], "path": ["0", "0", "1", "2", "3", "4", "6"], "rt": [1040, 82, 378, 23, 96], "actions": ["up", "up", "up", "right", "right"], "actionTimes": [6985, 7584, 8478, 9021, 9647], "queries": {"click": {"state": {"target": [], "time": []}, "edge": {"target": [], "time": []}}, "mouseover": {"state": {"target": [], "time": []}, "edge": {"target": [], "time": []}}, "mouseout": {"state": {"target": [], "time": []}, "edge": {"target": [], "time": []}}}, "displayed_time": "19.95", "trialTime": 24009, "trial_type": "mouselab-mdp", "trial_index": 31, "time_elapsed": 1341723, "internal_node_id": "0.0-4.0-1.0-4.0"}}, {"uniqueid": "w40289780:a14988009", "current_trial": 32, "dateTime": 1691143428494, "trialdata": {"revealed_states": [], "clicked_states": [], "num_clicks_accrued": [0, 0, 0, 0, 0, 0, 0, 0, 0, 0, 0, 0, 0], "stateRewards": ["", 2, 3, -1, 6, 44, -4, -59, -14, -3, 64, 16, 1, -3, 3, 6, 3, 49, 19, 3, -49, -14, -86, 1, 2, -3, -8, -33, 14, 32, -13, -77, -47, -67], "withholdReward": false, "trial_id": "mdp_trial_6", "block": "test", "trialIndex": 13, "score": -90, "costs": 0, "simulationMode": [null, null, null, null, null], "rewards": [1, 2, -3, -13, -77], "path": ["0", "0", "23", "24", "25", "30", "31"], "rt": [1806, 1019, 51, 374, 878], "actions": ["left", "left", "left", "down", "right"], "actionTimes": [3474, 5001, 5563, 6467, 7855], "queries": {"click": {"state": {"target": [], "time": []}, "edge": {"target": [], "time": []}}, "mouseover": {"state": {"target": [], "time": []}, "edge": {"target": [], "time": []}}, "mouseout": {"state": {"target": ["0"], "time": [369]}, "edge": {"target": [], "time": []}}}, "displayed_time": "15.67", "trialTime": 17608, "trial_type": "mouselab-mdp", "trial_index": 32, "time_elapsed": 1359734, "internal_node_id": "0.0-4.0-1.0-5.0"}}, {"uniqueid": "w40289780:a14988009", "current_trial": 33, "dateTime": 1691143445543, "trialdata": {"revealed_states": [], "clicked_states": [], "num_clicks_accrued": [0, 0, 0, 0, 0, 0, 0, 0, 0, 0, 0, 0, 0], "stateRewards": ["", 2, 4, -3, 16, -58, 30, -35, 11, -60, 47, 27, -2, -1, -7, -16, 23, -70, 68, -10, -65, -43, -34, -2, 1, 7, 9, -63, 34, -31, -8, -12, -86, 59], "withholdReward": false, "trial_id": "mdp_trial_7", "block": "test", "trialIndex": 14, "score": 41, "costs": 0, "simulationMode": [null, null, null, null, null], "rewards": [2, 4, -3, 11, 27], "path": ["0", "0", "1", "2", "3", "8", "11"], "rt": [997, 919, 190, 905, 153], "actions": ["up", "up", "up", "left", "left"], "actionTimes": [2625, 4053, 4755, 6168, 6831], "queries": {"click": {"state": {"target": [], "time": []}, "edge": {"target": [], "time": []}}, "mouseover": {"state": {"target": [], "time": []}, "edge": {"target": [], "time": []}}, "mouseout": {"state": {"target": ["0", "23", "23", "0"], "time": [471, 535, 819, 1873]}, "edge": {"target": [], "time": []}}}, "displayed_time": "15.63", "trialTime": 16647, "trial_type": "mouselab-mdp", "trial_index": 33, "time_elapsed": 1376784, "internal_node_id": "0.0-4.0-1.0-6.0"}}, {"uniqueid": "w40289780:a14988009", "current_trial": 34, "dateTime": 1691143463915, "trialdata": {"revealed_states": [], "clicked_states": [], "num_clicks_accrued": [0, 0, 0, 0, 0, 0, 0, 0, 0, 0, 0, 0, 0], "stateRewards": ["", 1, 1, 1, 15, -76, 52, -32, 14, -57, 37, 49, 1, -4, -3, 6, 83, -76, 25, 9, 36, -1, -17, -1, 4, 4, -2, -22, -21, 58, -15, -57, 49, -24], "withholdReward": false, "trial_id": "mdp_trial_8", "block": "test", "trialIndex": 15, "score": -14, "costs": 0, "simulationMode": [null, null, null, null, null], "rewards": [1, 1, 1, 15, -32], "path": ["0", "0", "1", "2", "3", "4", "7"], "rt": [1103, 27, 14, 349, 869], "actions": ["up", "up", "up", "right", "down"], "actionTimes": [3655, 4203, 4737, 5607, 6994], "queries": {"click": {"state": {"target": [], "time": []}, "edge": {"target": [], "time": []}}, "mouseover": {"state": {"target": [], "time": []}, "edge": {"target": [], "time": []}}, "mouseout": {"state": {"target": ["12"], "time": [1314]}, "edge": {"target": [], "time": []}}}, "displayed_time": "16.55", "trialTime": 17983, "trial_type": "mouselab-mdp", "trial_index": 34, "time_elapsed": 1395156, "internal_node_id": "0.0-4.0-1.0-7.0"}}, {"uniqueid": "w40289780:a14988009", "current_trial": 35, "dateTime": 1691143482678, "trialdata": {"revealed_states": [], "clicked_states": [], "num_clicks_accrued": [0, 0, 0, 0, 0, 0, 0, 0, 0, 0, 0, 0, 0], "stateRewards": ["", -2, -4, -2, -13, -15, 87, -19, -6, -80, 30, 12, 1, 1, -8, 2, 55, 56, 15, 11, -68, -7, 55, -2, 3, -3, -3, 48, 62, 4, 1, -3, 69, -33], "withholdReward": false, "trial_id": "mdp_trial_9", "block": "test", "trialIndex": 16, "score": 66, "costs": 0, "simulationMode": [null, null, null, null, null], "rewards": [-2, -4, -2, -13, 87], "path": ["0", "0", "1", "2", "3", "4", "6"], "rt": [1121, 55, 211, 156, 544], "actions": ["up", "up", "up", "right", "right"], "actionTimes": [2732, 3299, 4035, 4698, 5751], "queries": {"click": {"state": {"target": [], "time": []}, "edge": {"target": [], "time": []}}, "mouseover": {"state": {"target": [], "time": []}, "edge": {"target": [], "time": []}}, "mouseout": {"state": {"target": [], "time": []}, "edge": {"target": [], "time": []}}}, "displayed_time": "15.61", "trialTime": 18316, "trial_type": "mouselab-mdp", "trial_index": 35, "time_elapsed": 1413918, "internal_node_id": "0.0-4.0-1.0-8.0"}}, {"uniqueid": "w40289780:a14988009", "current_trial": 36, "dateTime": 1691143506295, "trialdata": {"revealed_states": [], "clicked_states": [], "num_clicks_accrued": [0, 0, 0, 0, 0, 0, 0, 0, 0, 0, 0, 0, 0], "stateRewards": ["", 1, 1, -3, 7, 49, 78, 26, -5, 26, 48, -43, -1, -3, 2, -5, 4, -1, -60, 10, -35, 51, 81, -2, 1, -7, -5, -39, -86, -54, 4, -3, 74, 77], "withholdReward": false, "trial_id": "mdp_trial_10", "block": "test", "trialIndex": 17, "score": 20, "costs": 0, "simulationMode": [null, null, null, null, null], "rewards": [1, 1, -3, -5, 26], "path": ["0", "0", "1", "2", "3", "8", "9"], "rt": [905, 20, 180, 439, 645], "actions": ["up", "up", "up", "left", "up"], "actionTimes": [3472, 4007, 4711, 5671, 6828], "queries": {"click": {"state": {"target": [], "time": []}, "edge": {"target": [], "time": []}}, "mouseover": {"state": {"target": [], "time": []}, "edge": {"target": [], "time": []}}, "mouseout": {"state": {"target": ["0", "31", "24", "23"], "time": [207, 355, 1233, 1401]}, "edge": {"target": [], "time": []}}}, "displayed_time": "16.57", "trialTime": 23212, "trial_type": "mouselab-mdp", "trial_index": 36, "time_elapsed": 1437536, "internal_node_id": "0.0-4.0-1.0-9.0"}}, {"uniqueid": "w40289780:a14988009", "current_trial": 37, "dateTime": 1691143544708, "trialdata": {"revealed_states": [], "clicked_states": [], "num_clicks_accrued": [0, 0, 0, 0, 0, 0, 0, 0, 0, 0, 0, 0, 0], "stateRewards": ["", 2, -4, -4, 13, -80, 62, 13, -11, 57, -13, -44, 1, 4, 3, -4, -29, -88, 15, 16, -58, 68, -45, -1, -3, -1, -9, -44, -86, -19, -7, -36, 59, 66], "withholdReward": false, "trial_id": "mdp_trial_11", "block": "test", "trialIndex": 18, "score": -73, "costs": 0, "simulationMode": [null, null, null, null, null], "rewards": [2, -4, -4, 13, -80], "path": ["0", "0", "1", "2", "3", "4", "5"], "rt": [1046, 116, 75, 227, 290], "actions": ["up", "up", "up", "right", "up"], "actionTimes": [7920, 8568, 9162, 9913, 10739], "queries": {"click": {"state": {"target": [], "time": []}, "edge": {"target": [], "time": []}}, "mouseover": {"state": {"target": [], "time": []}, "edge": {"target": [], "time": []}}, "mouseout": {"state": {"target": ["0"], "time": [37687]}, "edge": {"target": [], "time": []}}}, "displayed_time": "20.88", "trialTime": 37960, "trial_type": "mouselab-mdp", "trial_index": 37, "time_elapsed": 1475948, "internal_node_id": "0.0-4.0-1.0-10.0"}}, {"uniqueid": "w40289780:a14988009", "current_trial": 38, "dateTime": 1691143565548, "trialdata": {"revealed_states": [], "clicked_states": [], "num_clicks_accrued": [0, 0, 0, 0, 0, 0, 0, 0, 0, 0, 0, 0, 0], "stateRewards": ["", -1, 1, 3, -8, -23, -15, -14, -11, -23, 58, 68, 1, 3, 5, 12, -17, -41, -7, -10, -4, 82, 10, 1, 4, -4, 11, 73, 55, -55, -1, -86, -86, 54], "withholdReward": false, "trial_id": "mdp_trial_12", "block": "test", "trialIndex": 19, "score": 85, "costs": 0, "simulationMode": [null, null, null, null, null], "rewards": [1, 4, -4, 11, 73], "path": ["0", "0", "23", "24", "25", "26", "27"], "rt": [1403, 299, 593, 2205, 134], "actions": ["left", "left", "left", "up", "up"], "actionTimes": [5503, 6325, 7441, 10163, 10804], "queries": {"click": {"state": {"target": [], "time": []}, "edge": {"target": [], "time": []}}, "mouseover": {"state": {"target": ["1"], "time": [4610]}, "edge": {"target": [], "time": []}}, "mouseout": {"state": {"target": ["0", "0", "0"], "time": [1862, 3031, 4483]}, "edge": {"target": [], "time": []}}}, "displayed_time": "18.10", "trialTime": 20365, "trial_type": "mouselab-mdp", "trial_index": 38, "time_elapsed": 1496788, "internal_node_id": "0.0-4.0-1.0-11.0"}}, {"uniqueid": "w40289780:a14988009", "current_trial": 39, "dateTime": 1691143585115, "trialdata": {"revealed_states": [], "clicked_states": [], "num_clicks_accrued": [0, 0, 0, 0, 0, 0, 0, 0, 0, 0, 0, 0, 0], "stateRewards": ["", -2, -4, 4, -11, -63, -60, -7, 2, -14, 81, -43, -1, -1, -5, 7, 10, 69, 40, 8, -83, 52, 60, 1, 2, 5, -5, 16, 64, 14, -3, 29, 7, -51], "withholdReward": false, "trial_id": "mdp_trial_13", "block": "test", "trialIndex": 20, "score": 17, "costs": 0, "simulationMode": [null, null, null, null, null], "rewards": [1, 2, 5, -5, 14], "path": ["0", "0", "23", "24", "25", "26", "29"], "rt": [901, 318, 554, 1089, 141], "actions": ["left", "left", "left", "up", "left"], "actionTimes": [3787, 4625, 5693, 7294, 7944], "queries": {"click": {"state": {"target": [], "time": []}, "edge": {"target": [], "time": []}}, "mouseover": {"state": {"target": [], "time": []}, "edge": {"target": [], "time": []}}, "mouseout": {"state": {"target": ["1", "0"], "time": [1844, 1945]}, "edge": {"target": [], "time": []}}}, "displayed_time": "16.89", "trialTime": 19118, "trial_type": "mouselab-mdp", "trial_index": 39, "time_elapsed": 1516355, "internal_node_id": "0.0-4.0-1.0-12.0"}}, {"uniqueid": "w40289780:a14988009", "current_trial": 40, "dateTime": 1691143615066, "trialdata": {"revealed_states": [], "clicked_states": [], "num_clicks_accrued": [0, 0, 0, 0, 0, 0, 0, 0, 0, 0, 0, 0, 0], "stateRewards": ["", -2, -1, -5, 10, -36, -70, 68, -9, 86, 71, -10, 2, -4, 7, -7, 66, 44, -66, -13, -69, 43, 15, -2, 2, 6, -13, 62, 57, 50, -10, -69, 42, -72], "withholdReward": false, "trial_id": "mdp_trial_14", "block": "test", "trialIndex": 21, "score": 50, "costs": 0, "simulationMode": [null, null, null, null, null], "rewards": [-2, 2, 6, -13, 57], "path": ["0", "0", "23", "24", "25", "26", "28"], "rt": [1396, 204, 63, 449, 1615], "actions": ["left", "left", "left", "up", "right"], "actionTimes": [14631, 15344, 15919, 16904, 19036], "queries": {"click": {"state": {"target": [], "time": []}, "edge": {"target": [], "time": []}}, "mouseover": {"state": {"target": [], "time": []}, "edge": {"target": [], "time": []}}, "mouseout": {"state": {"target": ["0"], "time": [12514]}, "edge": {"target": [], "time": []}}}, "displayed_time": "27.24", "trialTime": 29522, "trial_type": "mouselab-mdp", "trial_index": 40, "time_elapsed": 1546307, "internal_node_id": "0.0-4.0-1.0-13.0"}}, {"uniqueid": "w40289780:a14988009", "current_trial": 41, "dateTime": 1691143638493, "trialdata": {"revealed_states": [], "clicked_states": [], "num_clicks_accrued": [0, 0, 0, 0, 0, 0, 0, 0, 0, 0, 0, 0, 0], "stateRewards": ["", 2, -4, 7, 3, 23, -42, 4, 7, -81, -33, 7, -2, -4, 5, -1, 50, -57, -14, -13, -14, 44, 55, -2, -2, 5, -2, 33, 1, 57, -13, -7, 58, 87], "withholdReward": false, "trial_id": "mdp_trial_15", "block": "test", "trialIndex": 22, "score": 32, "costs": 0, "simulationMode": [null, null, null, null, null], "rewards": [-2, -2, 5, -2, 33], "path": ["0", "0", "23", "24", "25", "26", "27"], "rt": [2585, 25, 420, 534, 241], "actions": ["left", "left", "left", "up", "up"], "actionTimes": [4759, 5293, 6236, 7289, 8040], "queries": {"click": {"state": {"target": [], "time": []}, "edge": {"target": [], "time": []}}, "mouseover": {"state": {"target": ["23"], "time": [2658]}, "edge": {"target": [], "time": []}}, "mouseout": {"state": {"target": ["0", "23", "31", "23", "23", "12"], "time": [228, 371, 973, 1291, 22555, 22613]}, "edge": {"target": [], "time": []}}}, "displayed_time": "16.18", "trialTime": 22949, "trial_type": "mouselab-mdp", "trial_index": 41, "time_elapsed": 1569733, "internal_node_id": "0.0-4.0-1.0-14.0"}}, {"uniqueid": "w40289780:a14988009", "current_trial": 42, "dateTime": 1691143657831, "trialdata": {"revealed_states": [], "clicked_states": [], "num_clicks_accrued": [0, 0, 0, 0, 0, 0, 0, 0, 0, 0, 0, 0, 0], "stateRewards": ["", 1, 4, -8, -5, -15, -7, 21, 13, -30, 40, -65, 1, 1, 5, -14, 35, 27, -38, -11, 36, -58, -47, -2, 4, -3, 13, -16, -49, 22, 15, -56, -44, -10], "withholdReward": false, "trial_id": "mdp_trial_16", "block": "test", "trialIndex": 23, "score": -45, "costs": 0, "simulationMode": [null, null, null, null, null], "rewards": [1, 1, 5, -14, -38], "path": ["0", "0", "12", "13", "14", "15", "18"], "rt": [1216, 848, 385, 287, 99], "actions": ["right", "right", "right", "up", "left"], "actionTimes": [3379, 4734, 5636, 6438, 7048], "queries": {"click": {"state": {"target": [], "time": []}, "edge": {"target": [], "time": []}}, "mouseover": {"state": {"target": ["12"], "time": [2852]}, "edge": {"target": [], "time": []}}, "mouseout": {"state": {"target": ["0", "0"], "time": [757, 2770]}, "edge": {"target": [], "time": []}}}, "displayed_time": "16.17", "trialTime": 18897, "trial_type": "mouselab-mdp", "trial_index": 42, "time_elapsed": 1589072, "internal_node_id": "0.0-4.0-1.0-15.0"}}, {"uniqueid": "w40289780:a14988009", "current_trial": 43, "dateTime": 1691143675343, "trialdata": {"revealed_states": [], "clicked_states": [], "num_clicks_accrued": [0, 0, 0, 0, 0, 0, 0, 0, 0, 0, 0, 0, 0], "stateRewards": ["", -2, -1, -4, -15, -14, -67, 32, -3, -59, 63, 31, 2, -1, -7, -15, 71, -66, -27, -3, -54, -39, 72, 2, 1, 1, -13, 77, -40, 35, -9, 35, 75, 57], "withholdReward": false, "trial_id": "mdp_trial_17", "block": "test", "trialIndex": 24, "score": -36, "costs": 0, "simulationMode": [null, null, null, null, null], "rewards": [-2, -1, -4, -15, -14], "path": ["0", "0", "1", "2", "3", "4", "5"], "rt": [803, 402, 553, 448, 2684], "actions": ["up", "up", "up", "right", "up"], "actionTimes": [2465, 3377, 4445, 5403, 8604], "queries": {"click": {"state": {"target": [], "time": []}, "edge": {"target": [], "time": []}}, "mouseover": {"state": {"target": [], "time": []}, "edge": {"target": [], "time": []}}, "mouseout": {"state": {"target": ["12"], "time": [282]}, "edge": {"target": [], "time": []}}}, "displayed_time": "15.66", "trialTime": 17086, "trial_type": "mouselab-mdp", "trial_index": 43, "time_elapsed": 1606584, "internal_node_id": "0.0-4.0-1.0-16.0"}}, {"uniqueid": "w40289780:a14988009", "current_trial": 44, "dateTime": 1691143692884, "trialdata": {"revealed_states": [], "clicked_states": [], "num_clicks_accrued": [0, 0, 0, 0, 0, 0, 0, 0, 0, 0, 0, 0, 0], "stateRewards": ["", -1, -3, 1, 13, -64, -29, 12, -4, -33, 50, 56, 2, -3, 4, 11, -64, -58, -55, 12, 47, 38, -25, -2, 2, 5, -15, 85, 7, 84, 10, 8, 57, 26], "withholdReward": false, "trial_id": "mdp_trial_18", "block": "test", "trialIndex": 25, "score": 49, "costs": 0, "simulationMode": [null, null, null, null, null], "rewards": [-1, -3, 1, -4, 56], "path": ["0", "0", "1", "2", "3", "8", "11"], "rt": [951, 481, 1234, 63, 3], "actions": ["up", "up", "up", "left", "left"], "actionTimes": [2885, 3874, 5634, 6219, 6756], "queries": {"click": {"state": {"target": [], "time": []}, "edge": {"target": [], "time": []}}, "mouseover": {"state": {"target": [], "time": []}, "edge": {"target": [], "time": []}}, "mouseout": {"state": {"target": [], "time": []}, "edge": {"target": [], "time": []}}}, "displayed_time": "15.94", "trialTime": 17066, "trial_type": "mouselab-mdp", "trial_index": 44, "time_elapsed": 1624125, "internal_node_id": "0.0-4.0-1.0-17.0"}}, {"uniqueid": "w40289780:a14988009", "current_trial": 45, "dateTime": 1691143714820, "trialdata": {"revealed_states": [], "clicked_states": [], "num_clicks_accrued": [0, 0, 0, 0, 0, 0, 0, 0, 0, 0, 0, 0, 0], "stateRewards": ["", 2, -2, 7, -11, -76, -65, -23, 16, -58, 30, 81, 1, 2, 7, 14, 9, 55, -2, 6, 11, -15, 31, -1, -1, -3, 2, 15, 2, 46, 15, 18, 45, -34], "withholdReward": false, "trial_id": "mdp_trial_19", "block": "test", "trialIndex": 26, "score": -27, "costs": 0, "simulationMode": [null, null, null, null, null], "rewards": [2, -2, 7, -11, -23], "path": ["0", "0", "1", "2", "3", "4", "7"], "rt": [379, 774, 190, 608, 468], "actions": ["up", "up", "up", "right", "down"], "actionTimes": [2511, 3796, 4493, 5610, 6586], "queries": {"click": {"state": {"target": [], "time": []}, "edge": {"target": [], "time": []}}, "mouseover": {"state": {"target": [], "time": []}, "edge": {"target": [], "time": []}}, "mouseout": {"state": {"target": ["0", "12", "12"], "time": [143, 278, 1325]}, "edge": {"target": [], "time": []}}}, "displayed_time": "16.13", "trialTime": 21468, "trial_type": "mouselab-mdp", "trial_index": 45, "time_elapsed": 1646061, "internal_node_id": "0.0-4.0-1.0-18.0"}}, {"uniqueid": "w40289780:a14988009", "current_trial": 46, "dateTime": 1691143733762, "trialdata": {"revealed_states": [], "clicked_states": ["23"], "num_clicks_accrued": [0, 0, 0, 0, 0, 0, 0, 0, 0, 0, 0, 0, 0], "stateRewards": ["", -2, 2, -2, -7, -50, -62, -45, 7, 36, -24, -72, -1, -1, 8, -1, -67, 20, -52, 2, 35, -50, 80, -1, 1, 6, -6, -70, 6, 88, 8, -47, 74, -19], "withholdReward": false, "trial_id": "mdp_trial_20", "block": "test", "trialIndex": 27, "score": -69.75, "costs": 0.25, "simulationMode": [null, null, null, null, null], "rewards": [-1, 1, 6, -6, -70], "path": ["0", "0", "23", "24", "25", "26", "27"], "rt": [2459, 202, 362, 4693, 187], "actions": ["left", "left", "left", "up", "up"], "actionTimes": [4124, 4836, 5715, 10926, 11630], "queries": {"click": {"state": {"target": ["23"], "time": [2548]}, "edge": {"target": [], "time": []}}, "mouseover": {"state": {"target": ["23"], "time": [2203]}, "edge": {"target": [], "time": []}}, "mouseout": {"state": {"target": ["0", "23", "30", "25"], "time": [831, 7155, 9942, 10015]}, "edge": {"target": [], "time": []}}}, "displayed_time": "15.67", "trialTime": 18450, "trial_type": "mouselab-mdp", "trial_index": 46, "time_elapsed": 1665003, "internal_node_id": "0.0-4.0-1.0-19.0"}}, {"uniqueid": "w40289780:a14988009", "current_trial": 47, "dateTime": 1691143751376, "trialdata": {"revealed_states": [], "clicked_states": [], "num_clicks_accrued": [0, 0, 0, 0, 0, 0, 0, 0, 0, 0, 0, 0, 0], "stateRewards": ["", 2, 4, -5, 7, 81, 35, 6, 11, 14, -72, 42, -1, 2, 3, -7, -77, -44, -40, -15, -85, 51, -32, -2, -1, -5, 7, -74, 47, 52, 16, -49, 48, -46], "withholdReward": false, "trial_id": "mdp_trial_21", "block": "test", "trialIndex": 28, "score": 26, "costs": 0, "simulationMode": [null, null, null, null, null], "rewards": [2, 4, -5, 11, 14], "path": ["0", "0", "1", "2", "3", "8", "9"], "rt": [909, 282, 678, 169, 119], "actions": ["up", "up", "up", "left", "up"], "actionTimes": [2667, 3465, 4661, 5350, 5984], "queries": {"click": {"state": {"target": [], "time": []}, "edge": {"target": [], "time": []}}, "mouseover": {"state": {"target": [], "time": []}, "edge": {"target": [], "time": []}}, "mouseout": {"state": {"target": ["23", "0"], "time": [720, 855]}, "edge": {"target": [], "time": []}}}, "displayed_time": "15.76", "trialTime": 17166, "trial_type": "mouselab-mdp", "trial_index": 47, "time_elapsed": 1682617, "internal_node_id": "0.0-4.0-1.0-20.0"}}, {"uniqueid": "w40289780:a14988009", "current_trial": 48, "dateTime": 1691143769134, "trialdata": {"revealed_states": [], "clicked_states": [], "num_clicks_accrued": [0, 0, 0, 0, 0, 0, 0, 0, 0, 0, 0, 0, 0], "stateRewards": ["", -2, 4, -3, -13, 63, -36, 62, 11, 78, 34, -51, 2, -2, 8, -6, -40, -18, 31, 9, 64, 39, 79, 1, 4, -4, 15, -12, 76, 73, -10, -77, 86, -4], "withholdReward": false, "trial_id": "mdp_trial_22", "block": "test", "trialIndex": 29, "score": 49, "costs": 0, "simulationMode": [null, null, null, null, null], "rewards": [-2, 4, -3, -13, 63], "path": ["0", "0", "1", "2", "3", "4", "5"], "rt": [1210, 100, 284, 126, 247], "actions": ["up", "up", "up", "right", "up"], "actionTimes": [2918, 3536, 4336, 4976, 5730], "queries": {"click": {"state": {"target": [], "time": []}, "edge": {"target": [], "time": []}}, "mouseover": {"state": {"target": [], "time": []}, "edge": {"target": [], "time": []}}, "mouseout": {"state": {"target": [], "time": []}, "edge": {"target": [], "time": []}}}, "displayed_time": "15.71", "trialTime": 17333, "trial_type": "mouselab-mdp", "trial_index": 48, "time_elapsed": 1700375, "internal_node_id": "0.0-4.0-1.0-21.0"}}, {"uniqueid": "w40289780:a14988009", "current_trial": 49, "dateTime": 1691143787698, "trialdata": {"revealed_states": [], "clicked_states": [], "num_clicks_accrued": [0, 0, 0, 0, 0, 0, 0, 0, 0, 0, 0, 0, 0], "stateRewards": ["", -1, 2, -6, 6, 43, 78, 78, -2, 55, -29, -17, -2, -4, 1, -15, 13, 7, -79, 8, -28, -68, 36, -1, -3, 3, -16, 84, -18, 87, 10, 32, 13, -81], "withholdReward": false, "trial_id": "mdp_trial_23", "block": "test", "trialIndex": 30, "score": 79, "costs": 0, "simulationMode": [null, null, null, null, null], "rewards": [-1, 2, -6, 6, 78], "path": ["0", "0", "1", "2", "3", "4", "7"], "rt": [1149, 523, 108, 172, 678], "actions": ["up", "up", "up", "right", "down"], "actionTimes": [2603, 3640, 4257, 4937, 6127], "queries": {"click": {"state": {"target": [], "time": []}, "edge": {"target": [], "time": []}}, "mouseover": {"state": {"target": [], "time": []}, "edge": {"target": [], "time": []}}, "mouseout": {"state": {"target": ["0"], "time": [69]}, "edge": {"target": [], "time": []}}}, "displayed_time": "15.46", "trialTime": 18129, "trial_type": "mouselab-mdp", "trial_index": 49, "time_elapsed": 1718939, "internal_node_id": "0.0-4.0-1.0-22.0"}}, {"uniqueid": "w40289780:a14988009", "current_trial": 50, "dateTime": 1691143824469, "trialdata": {"revealed_states": [], "clicked_states": [], "num_clicks_accrued": [0, 0, 0, 0, 0, 0, 0, 0, 0, 0, 0, 0, 0], "stateRewards": ["", 1, 1, 6, -14, -40, 37, 16, -13, 33, -68, 49, 2, 4, 3, 6, 55, 27, 32, 10, -65, 20, -87, 2, 1, -6, -5, -42, 12, 29, -8, 16, 76, -33], "withholdReward": false, "trial_id": "mdp_trial_24", "block": "test", "trialIndex": 31, "score": -73, "costs": 0, "simulationMode": [null, null, null, null, null], "rewards": [1, 1, 6, -13, -68], "path": ["0", "0", "1", "2", "3", "8", "10"], "rt": [11394, 507, 38, 153, 8], "actions": ["up", "up", "up", "left", "down"], "actionTimes": [31004, 32031, 32584, 33275, 33803], "queries": {"click": {"state": {"target": [], "time": []}, "edge": {"target": [], "time": []}}, "mouseover": {"state": {"target": ["1"], "time": [30158]}, "edge": {"target": [], "time": []}}, "mouseout": {"state": {"target": ["0", "1", "1", "1"], "time": [17707, 17907, 18371, 30389]}, "edge": {"target": [], "time": []}}}, "displayed_time": "34.34", "trialTime": 36296, "trial_type": "mouselab-mdp", "trial_index": 50, "time_elapsed": 1755710, "internal_node_id": "0.0-4.0-1.0-23.0"}}, {"uniqueid": "w40289780:a14988009", "current_trial": 51, "dateTime": 1691143842957, "trialdata": {"revealed_states": [], "clicked_states": [], "num_clicks_accrued": [0, 0, 0, 0, 0, 0, 0, 0, 0, 0, 0, 0, 0], "stateRewards": ["", -1, 3, -7, 16, -32, -74, -48, 2, 10, 15, -30, 1, 1, -2, 10, 12, -83, 67, 13, -66, 47, 65, -2, 4, 2, -14, -8, -57, 24, 9, 65, 12, 46], "withholdReward": false, "trial_id": "mdp_trial_25", "block": "test", "trialIndex": 32, "score": 25, "costs": 0, "simulationMode": [null, null, null, null, null], "rewards": [-2, 4, 2, 9, 12], "path": ["0", "0", "23", "24", "25", "30", "32"], "rt": [988, 316, 254, 48, 587], "actions": ["left", "left", "left", "down", "down"], "actionTimes": [2526, 3357, 4125, 4686, 5805], "queries": {"click": {"state": {"target": [], "time": []}, "edge": {"target": [], "time": []}}, "mouseover": {"state": {"target": [], "time": []}, "edge": {"target": [], "time": []}}, "mouseout": {"state": {"target": ["0", "0"], "time": [369, 955]}, "edge": {"target": [], "time": []}}}, "displayed_time": "15.54", "trialTime": 18042, "trial_type": "mouselab-mdp", "trial_index": 51, "time_elapsed": 1774198, "internal_node_id": "0.0-4.0-1.0-24.0"}}, {"uniqueid": "w40289780:a14988009", "current_trial": 52, "dateTime": 1691143866907, "trialdata": {"revealed_states": [], "clicked_states": [], "num_clicks_accrued": [0, 0, 0, 0, 0, 0, 0, 0, 0, 0, 0, 0, 0], "stateRewards": ["", 1, 1, -5, 10, -31, 73, 14, -8, -23, 63, -70, -1, 2, 8, 7, 25, -59, 27, -10, -40, -71, -15, -2, 3, -8, -5, -19, 77, -34, 7, 67, 63, 19], "withholdReward": false, "trial_id": "mdp_trial_26", "block": "test", "trialIndex": 33, "score": 19, "costs": 0, "simulationMode": [null, null, null, null, null], "rewards": [-2, 3, -8, 7, 19], "path": ["0", "0", "23", "24", "25", "30", "33"], "rt": [1443, 256, 203, 144, 136], "actions": ["left", "left", "left", "down", "left"], "actionTimes": [3884, 4651, 5364, 6021, 6680], "queries": {"click": {"state": {"target": [], "time": []}, "edge": {"target": [], "time": []}}, "mouseover": {"state": {"target": [], "time": []}, "edge": {"target": [], "time": []}}, "mouseout": {"state": {"target": ["0"], "time": [2124]}, "edge": {"target": [], "time": []}}}, "displayed_time": "16.44", "trialTime": 23468, "trial_type": "mouselab-mdp", "trial_index": 52, "time_elapsed": 1798147, "internal_node_id": "0.0-4.0-1.0-25.0"}}, {"uniqueid": "w40289780:a14988009", "current_trial": 53, "dateTime": 1691143896903, "trialdata": {"revealed_states": [], "clicked_states": [], "num_clicks_accrued": [0, 0, 0, 0, 0, 0, 0, 0, 0, 0, 0, 0, 0], "stateRewards": ["", -2, -1, -6, -14, -55, 78, -13, 11, 14, -71, 59, 2, 2, 6, -6, 9, 38, 14, 7, 85, 11, 68, 1, -4, -1, -3, -63, -85, 9, -2, 63, -86, -10], "withholdReward": false, "trial_id": "mdp_trial_27", "block": "test", "trialIndex": 34, "score": 16, "costs": 0, "simulationMode": [null, null, null, null, null], "rewards": [-2, -1, -6, 11, 14], "path": ["0", "0", "1", "2", "3", "8", "9"], "rt": [1324, 1035, 273, 909, 221], "actions": ["up", "up", "up", "left", "up"], "actionTimes": [14853, 16406, 17191, 18610, 19355], "queries": {"click": {"state": {"target": [], "time": []}, "edge": {"target": [], "time": []}}, "mouseover": {"state": {"target": [], "time": []}, "edge": {"target": [], "time": []}}, "mouseout": {"state": {"target": ["0"], "time": [13123]}, "edge": {"target": [], "time": []}}}, "displayed_time": "27.53", "trialTime": 29515, "trial_type": "mouselab-mdp", "trial_index": 53, "time_elapsed": 1828144, "internal_node_id": "0.0-4.0-1.0-26.0"}}, {"uniqueid": "w40289780:a14988009", "current_trial": 54, "dateTime": 1691143923646, "trialdata": {"revealed_states": [], "clicked_states": [], "num_clicks_accrued": [0, 0, 0, 0, 0, 0, 0, 0, 0, 0, 0, 0, 0], "stateRewards": ["", -2, 3, -1, -9, 44, 48, -37, -3, 71, -39, 87, -1, 3, -4, 4, -21, 59, -15, -8, -1, 28, -38, 2, 4, 4, 8, -85, -72, -63, 14, 58, 63, -46], "withholdReward": false, "trial_id": "mdp_trial_28", "block": "test", "trialIndex": 35, "score": -42, "costs": 0, "simulationMode": [null, null, null, null, null], "rewards": [-2, 3, -1, -3, -39], "path": ["0", "0", "1", "2", "3", "8", "10"], "rt": [1043, 331, 3, 168, 117], "actions": ["up", "up", "up", "left", "down"], "actionTimes": [7658, 8521, 9045, 9741, 10374], "queries": {"click": {"state": {"target": [], "time": []}, "edge": {"target": [], "time": []}}, "mouseover": {"state": {"target": [], "time": []}, "edge": {"target": [], "time": []}}, "mouseout": {"state": {"target": ["0", "0", "0"], "time": [5380, 5426, 6063]}, "edge": {"target": [], "time": []}}}, "displayed_time": "20.62", "trialTime": 26255, "trial_type": "mouselab-mdp", "trial_index": 54, "time_elapsed": 1854886, "internal_node_id": "0.0-4.0-1.0-27.0"}}, {"uniqueid": "w40289780:a14988009", "current_trial": 55, "dateTime": 1691143941136, "trialdata": {"revealed_states": [], "clicked_states": [], "num_clicks_accrued": [0, 0, 0, 0, 0, 0, 0, 0, 0, 0, 0, 0, 0], "stateRewards": ["", -2, 3, 8, -9, 59, 41, -50, -1, 82, 66, 33, 2, -2, 7, 8, 1, -38, 12, -16, 24, -37, 67, 1, 4, -2, 5, 35, -83, 28, 8, -27, 69, -64], "withholdReward": false, "trial_id": "mdp_trial_29", "block": "test", "trialIndex": 36, "score": 58, "costs": 0, "simulationMode": [null, null, null, null, null], "rewards": [2, -2, 7, -16, 67], "path": ["0", "0", "12", "13", "14", "19", "22"], "rt": [1977, 507, 53, 203, 467], "actions": ["right", "right", "right", "down", "left"], "actionTimes": [3692, 4715, 5276, 6006, 6989], "queries": {"click": {"state": {"target": [], "time": []}, "edge": {"target": [], "time": []}}, "mouseover": {"state": {"target": ["1"], "time": [2363]}, "edge": {"target": [], "time": []}}, "mouseout": {"state": {"target": ["0", "0", "0"], "time": [158, 394, 2181]}, "edge": {"target": [], "time": []}}}, "displayed_time": "15.72", "trialTime": 17020, "trial_type": "mouselab-mdp", "trial_index": 55, "time_elapsed": 1872377, "internal_node_id": "0.0-4.0-1.0-28.0"}}, {"uniqueid": "w40289780:a14988009", "current_trial": 56, "dateTime": 1691143958652, "trialdata": {"revealed_states": [], "clicked_states": [], "num_clicks_accrued": [0, 0, 0, 0, 0, 0, 0, 0, 0, 0, 0, 0, 0], "stateRewards": ["", -1, 1, -5, -6, -78, 47, -13, 12, 48, -88, 20, 2, -3, -2, 13, -20, 37, -57, 14, -38, 30, 31, -2, -2, 8, 2, -23, 78, 28, 12, -74, -88, 8], "withholdReward": false, "trial_id": "mdp_trial_30", "block": "test", "trialIndex": 37, "score": -27, "costs": 0, "simulationMode": [null, null, null, null, null], "rewards": [2, -3, -2, 14, -38], "path": ["0", "0", "12", "13", "14", "19", "20"], "rt": [1195, 421, 567, 279, 160], "actions": ["right", "right", "right", "down", "right"], "actionTimes": [2801, 3744, 4823, 5616, 6313], "queries": {"click": {"state": {"target": [], "time": []}, "edge": {"target": [], "time": []}}, "mouseover": {"state": {"target": [], "time": []}, "edge": {"target": [], "time": []}}, "mouseout": {"state": {"target": ["1"], "time": [644]}, "edge": {"target": [], "time": []}}}, "displayed_time": "15.61", "trialTime": 17005, "trial_type": "mouselab-mdp", "trial_index": 56, "time_elapsed": 1889893, "internal_node_id": "0.0-4.0-1.0-29.0"}}, {"uniqueid": "w40289780:a14988009", "current_trial": 57, "dateTime": 1691143976675, "trialdata": {"revealed_states": [], "clicked_states": [], "num_clicks_accrued": [0, 0, 0, 0, 0, 0, 0, 0, 0, 0, 0, 0, 0], "stateRewards": ["", -1, -4, 8, 8, -68, 47, 24, -7, -61, 49, -69, -1, -1, 8, -7, 42, 1, -45, -11, 10, -63, -6, 1, 4, 6, -16, 79, -37, -58, -12, 81, 18, -53], "withholdReward": false, "trial_id": "mdp_trial_31", "block": "test", "trialIndex": 38, "score": -65, "costs": 0, "simulationMode": [null, null, null, null, null], "rewards": [-1, -4, 8, -7, -61], "path": ["0", "0", "1", "2", "3", "8", "9"], "rt": [401, 507, 103, 296, 184], "actions": ["up", "up", "up", "left", "up"], "actionTimes": [2187, 3207, 3817, 4633, 5331], "queries": {"click": {"state": {"target": [], "time": []}, "edge": {"target": [], "time": []}}, "mouseover": {"state": {"target": [], "time": []}, "edge": {"target": [], "time": []}}, "mouseout": {"state": {"target": ["0", "23"], "time": [365, 968]}, "edge": {"target": [], "time": []}}}, "displayed_time": "15.79", "trialTime": 17539, "trial_type": "mouselab-mdp", "trial_index": 57, "time_elapsed": 1907915, "internal_node_id": "0.0-4.0-1.0-30.0"}}, {"uniqueid": "w40289780:a14988009", "current_trial": 58, "dateTime": 1691143994690, "trialdata": {"revealed_states": [], "clicked_states": [], "num_clicks_accrued": [0, 0, 0, 0, 0, 0, 0, 0, 0, 0, 0, 0, 0], "stateRewards": ["", 2, 3, 6, -5, -74, -53, 17, -12, 46, 44, 18, -2, 4, 1, -8, 22, -23, -49, 9, -45, 55, 81, 1, -1, -7, -16, -83, -71, -45, 2, 51, 82, 61], "withholdReward": false, "trial_id": "mdp_trial_32", "block": "test", "trialIndex": 39, "score": -94, "costs": 0, "simulationMode": [null, null, null, null, null], "rewards": [1, -1, -7, -16, -71], "path": ["0", "0", "23", "24", "25", "26", "28"], "rt": [1037, 604, 502, 383, 28], "actions": ["left", "left", "left", "up", "right"], "actionTimes": [2597, 3731, 4744, 5640, 6183], "queries": {"click": {"state": {"target": [], "time": []}, "edge": {"target": [], "time": []}}, "mouseover": {"state": {"target": [], "time": []}, "edge": {"target": [], "time": []}}, "mouseout": {"state": {"target": ["0"], "time": [1253]}, "edge": {"target": [], "time": []}}}, "displayed_time": "15.56", "trialTime": 17536, "trial_type": "mouselab-mdp", "trial_index": 58, "time_elapsed": 1925931, "internal_node_id": "0.0-4.0-1.0-31.0"}}, {"uniqueid": "w40289780:a14988009", "current_trial": 59, "dateTime": 1691144015591, "trialdata": {"revealed_states": [], "clicked_states": ["12", "1", "23"], "num_clicks_accrued": [0, 0, 0, 0, 0, 0, 0, 0, 0, 0, 0, 0, 0], "stateRewards": ["", -2, 2, 3, -7, -31, -33, 29, -8, -57, 50, -83, -1, -1, 5, 13, -23, -62, 25, 5, -66, -85, 14, 1, -2, -1, 16, 71, 33, -19, -14, 5, -43, 79], "withholdReward": false, "trial_id": "mdp_trial_33", "block": "test", "trialIndex": 40, "score": -61.25, "costs": 0.75, "simulationMode": [null, null, null, null, null], "rewards": [-2, 2, 3, -8, -57], "path": ["0", "0", "1", "2", "3", "8", "9"], "rt": [12862, 1503, 282, 244, 120], "actions": ["up", "up", "up", "left", "up"], "actionTimes": [14329, 16352, 17145, 17906, 18547], "queries": {"click": {"state": {"target": ["12", "1", "23"], "time": [2441, 3619, 6375]}, "edge": {"target": [], "time": []}}, "mouseover": {"state": {"target": ["12", "1", "10", "23", "23", "2", "1", "0", "0", "1", "2", "1"], "time": [2063, 3210, 4896, 5508, 6012, 8343, 8623, 8686, 9408, 9468, 9892, 13633]}, "edge": {"target": [], "time": []}}, "mouseout": {"state": {"target": ["0", "0", "12", "1", "10", "23", "23", "2", "1", "0", "0", "1", "2", "1"], "time": [683, 1936, 2551, 4442, 5447, 5592, 7622, 8506, 8656, 8720, 9431, 9501, 13587, 13653]}, "edge": {"target": [], "time": []}}}, "displayed_time": "19.06", "trialTime": 20394, "trial_type": "mouselab-mdp", "trial_index": 59, "time_elapsed": 1946831, "internal_node_id": "0.0-4.0-1.0-32.0"}}, {"uniqueid": "w40289780:a14988009", "current_trial": 60, "dateTime": 1691144032761, "trialdata": {"revealed_states": [], "clicked_states": ["23", "30", "2", "13", "12"], "num_clicks_accrued": [0, 0, 0, 0, 0, 0, 0, 0, 0, 0, 0, 0, 0], "stateRewards": ["", 2, 3, -2, -8, -8, -41, 74, 15, -23, -80, 1, 1, 3, 3, -15, -63, -78, 67, 13, 75, -41, 86, 2, -2, 6, -3, -8, -49, 50, -6, 83, 74, 80], "withholdReward": false, "trial_id": "mdp_trial_34", "block": "test", "trialIndex": 41, "score": -72.75, "costs": -1.75, "simulationMode": [null, null, null, null, null], "rewards": [1, 3, 3, -15, -63], "path": ["0", "0", "12", "13", "14", "15", "16"], "rt": [10228, 360, 381, 419, 357], "actions": ["right", "right", "right", "up", "up"], "actionTimes": [11411, 12280, 13184, 14121, 14991], "queries": {"click": {"state": {"target": ["23", "30", "2", "13", "12"], "time": [2822, 4453, 6010, 8413, 9463]}, "edge": {"target": [], "time": []}}, "mouseover": {"state": {"target": ["0", "23", "24", "30", "24", "2", "1", "12", "12", "13", "13", "12", "0"], "time": [2280, 2432, 3396, 3747, 5193, 5360, 6825, 6924, 7311, 7444, 8046, 9122, 10120]}, "edge": {"target": [], "time": []}}, "mouseout": {"state": {"target": ["0", "23", "24", "30", "24", "2", "1", "12", "12", "13", "13", "12", "0"], "time": [2312, 3347, 3596, 5010, 5211, 6775, 6857, 7041, 7407, 7523, 9056, 10071, 10203]}, "edge": {"target": [], "time": []}}}, "displayed_time": "15.50", "trialTime": 16607, "trial_type": "mouselab-mdp", "trial_index": 60, "time_elapsed": 1964002, "internal_node_id": "0.0-4.0-1.0-33.0"}}, {"uniqueid": "w40289780:a14988009", "current_trial": 61, "dateTime": 1691144049638, "trialdata": {"revealed_states": [], "clicked_states": [], "num_clicks_accrued": [0, 0, 0, 0, 0, 0, 0, 0, 0, 0, 0, 0, 0], "stateRewards": ["", -1, -3, -5, -14, -13, -47, 79, 8, -60, -64, 41, -1, 2, 3, 13, -46, 61, -79, -11, -64, -65, 23, 1, -2, 6, -14, 46, 32, 21, 7, 75, -66, 15], "withholdReward": false, "trial_id": "mdp_trial_35", "block": "test", "trialIndex": 42, "score": -70, "costs": 0, "simulationMode": [null, null, null, null, null], "rewards": [-1, -3, -5, -14, -47], "path": ["0", "0", "1", "2", "3", "4", "6"], "rt": [950, 485, 316, 405, 230], "actions": ["up", "up", "up", "right", "right"], "actionTimes": [2579, 3586, 4415, 5334, 6077], "queries": {"click": {"state": {"target": [], "time": []}, "edge": {"target": [], "time": []}}, "mouseover": {"state": {"target": [], "time": []}, "edge": {"target": [], "time": []}}, "mouseout": {"state": {"target": ["0"], "time": [1813]}, "edge": {"target": [], "time": []}}}, "displayed_time": "15.63", "trialTime": 16372, "trial_type": "mouselab-mdp", "trial_index": 61, "time_elapsed": 1980878, "internal_node_id": "0.0-4.0-1.0-34.0"}}, {"uniqueid": "w40289780:a14988009", "current_trial": 62, "dateTime": 1691144068459, "trialdata": {"revealed_states": [], "clicked_states": [], "num_clicks_accrued": [0, 0, 0, 0, 0, 0, 0, 0, 0, 0, 0, 0, 0], "stateRewards": ["", -1, 1, 8, -8, -49, 62, -78, 16, 28, -81, 78, -2, -3, -1, -4, 67, 49, -2, -13, -16, -39, 83, 1, -4, 4, -5, -20, 7, 84, 7, -32, -59, 19], "withholdReward": false, "trial_id": "mdp_trial_36", "block": "test", "trialIndex": 43, "score": 3, "costs": 0, "simulationMode": [null, null, null, null, null], "rewards": [1, -4, 4, -5, 7], "path": ["0", "0", "23", "24", "25", "26", "28"], "rt": [1288, 997, 489, 410, 62], "actions": ["left", "left", "left", "up", "right"], "actionTimes": [2959, 4475, 5482, 6402, 6986], "queries": {"click": {"state": {"target": [], "time": []}, "edge": {"target": [], "time": []}}, "mouseover": {"state": {"target": [], "time": []}, "edge": {"target": [], "time": []}}, "mouseout": {"state": {"target": ["23", "28", "23"], "time": [14, 733, 895]}, "edge": {"target": [], "time": []}}}, "displayed_time": "15.67", "trialTime": 18276, "trial_type": "mouselab-mdp", "trial_index": 62, "time_elapsed": 1999699, "internal_node_id": "0.0-4.0-1.0-35.0"}}, {"uniqueid": "w40289780:a14988009", "current_trial": 63, "dateTime": 1691144086391, "trialdata": {"revealed_states": [], "clicked_states": [], "num_clicks_accrued": [0, 0, 0, 0, 0, 0, 0, 0, 0, 0, 0, 0, 0], "stateRewards": ["", -2, 3, -5, -7, 66, 43, -60, -4, -70, -75, 4, -1, 2, 2, -13, 54, 11, -40, -1, 77, 32, 15, -2, 3, -8, -9, -35, 83, -27, 6, -74, -34, 44], "withholdReward": false, "trial_id": "mdp_trial_37", "block": "test", "trialIndex": 44, "score": 44, "costs": 0, "simulationMode": [null, null, null, null, null], "rewards": [-1, 2, 2, -13, 54], "path": ["0", "0", "12", "13", "14", "15", "16"], "rt": [1026, 219, 47, 270, 311], "actions": ["right", "right", "right", "up", "up"], "actionTimes": [2766, 3517, 4077, 4881, 5706], "queries": {"click": {"state": {"target": [], "time": []}, "edge": {"target": [], "time": []}}, "mouseover": {"state": {"target": [], "time": []}, "edge": {"target": [], "time": []}}, "mouseout": {"state": {"target": ["0", "0"], "time": [313, 2004]}, "edge": {"target": [], "time": []}}}, "displayed_time": "15.74", "trialTime": 17450, "trial_type": "mouselab-mdp", "trial_index": 63, "time_elapsed": 2017632, "internal_node_id": "0.0-4.0-1.0-36.0"}}, {"uniqueid": "w40289780:a14988009", "current_trial": 64, "dateTime": 1691144103580, "trialdata": {"revealed_states": [], "clicked_states": [], "num_clicks_accrued": [0, 0, 0, 0, 0, 0, 0, 0, 0, 0, 0, 0, 0], "stateRewards": ["", 1, -1, 4, 5, -32, 18, 20, 6, -88, -74, 9, -2, 1, -2, -14, 34, -77, -38, -1, 80, -36, 73, 2, 3, -8, 10, -48, -73, -71, -11, -22, 20, 54], "withholdReward": false, "trial_id": "mdp_trial_38", "block": "test", "trialIndex": 45, "score": 17, "costs": 0, "simulationMode": [null, null, null, null, null], "rewards": [-2, 1, -2, -14, 34], "path": ["0", "0", "12", "13", "14", "15", "16"], "rt": [890, 233, 331, 67, 421], "actions": ["right", "right", "right", "up", "up"], "actionTimes": [2007, 2758, 3605, 4191, 5142], "queries": {"click": {"state": {"target": [], "time": []}, "edge": {"target": [], "time": []}}, "mouseover": {"state": {"target": [], "time": []}, "edge": {"target": [], "time": []}}, "mouseout": {"state": {"target": ["0", "0", "0"], "time": [139, 378, 507]}, "edge": {"target": [], "time": []}}}, "displayed_time": "15.12", "trialTime": 16701, "trial_type": "mouselab-mdp", "trial_index": 64, "time_elapsed": 2034820, "internal_node_id": "0.0-4.0-1.0-37.0"}}, {"uniqueid": "w40289780:a14988009", "current_trial": 65, "dateTime": 1691144121340, "trialdata": {"revealed_states": [], "clicked_states": [], "num_clicks_accrued": [0, 0, 0, 0, 0, 0, 0, 0, 0, 0, 0, 0, 0], "stateRewards": ["", 2, -1, -1, 7, 11, -40, -22, -2, 69, 37, 8, -2, 4, -8, -12, -2, -72, -3, -12, 17, 63, 12, 1, 3, -7, 6, 25, 61, 61, -9, 28, -17, 27], "withholdReward": false, "trial_id": "mdp_trial_39", "block": "test", "trialIndex": 46, "score": -33, "costs": 0, "simulationMode": [null, null, null, null, null], "rewards": [2, -1, -1, 7, -40], "path": ["0", "0", "1", "2", "3", "4", "6"], "rt": [1212, 298, 424, 322, 1411], "actions": ["up", "up", "up", "right", "right"], "actionTimes": [2817, 3631, 4588, 5419, 7341], "queries": {"click": {"state": {"target": [], "time": []}, "edge": {"target": [], "time": []}}, "mouseover": {"state": {"target": [], "time": []}, "edge": {"target": [], "time": []}}, "mouseout": {"state": {"target": ["0", "0"], "time": [172, 301]}, "edge": {"target": [], "time": []}}}, "displayed_time": "15.61", "trialTime": 17223, "trial_type": "mouselab-mdp", "trial_index": 65, "time_elapsed": 2052581, "internal_node_id": "0.0-4.0-1.0-38.0"}}, {"uniqueid": "w40289780:a14988009", "current_trial": 66, "dateTime": 1691144140755, "trialdata": {"revealed_states": [], "clicked_states": [], "num_clicks_accrued": [0, 0, 0, 0, 0, 0, 0, 0, 0, 0, 0, 0, 0], "stateRewards": ["", 2, 3, -3, 4, 72, -28, 34, -12, 57, -64, -15, 2, 1, -4, -15, 2, 49, 31, -1, -42, -58, 31, -2, 1, -2, -13, -75, -19, -22, -6, 61, 10, -56], "withholdReward": false, "trial_id": "mdp_trial_40", "block": "test", "trialIndex": 47, "score": -91, "costs": 0, "simulationMode": [null, null, null, null, null], "rewards": [-2, 1, -2, -13, -75], "path": ["0", "0", "23", "24", "25", "26", "27"], "rt": [1295, 465, 170, 2359, 220], "actions": ["left", "left", "left", "up", "up"], "actionTimes": [4013, 4996, 5684, 8554, 9297], "queries": {"click": {"state": {"target": [], "time": []}, "edge": {"target": [], "time": []}}, "mouseover": {"state": {"target": [], "time": []}, "edge": {"target": [], "time": []}}, "mouseout": {"state": {"target": ["0", "0"], "time": [1668, 3308]}, "edge": {"target": [], "time": []}}}, "displayed_time": "16.72", "trialTime": 18893, "trial_type": "mouselab-mdp", "trial_index": 66, "time_elapsed": 2071996, "internal_node_id": "0.0-4.0-1.0-39.0"}}, {"uniqueid": "w40289780:a14988009", "current_trial": 67, "dateTime": 1691144194285, "trialdata": {"rt": 53517, "response": {"Q0": "$-2 to $2", "Q1": "$-16 to $16", "Q2": "$-32 to $32", "Q3": "The cost for clicking on nodes varied between nodes.", "Q4": "Very motivated"}, "question_order": [0, 1, 2, 3, 4], "trial_id": "final_quiz_control", "trial_type": "survey-multi-choice", "trial_index": 67, "time_elapsed": 2125527, "internal_node_id": "0.0-4.0-2.0"}}, {"uniqueid": "w40289780:a14988009", "current_trial": 68, "dateTime": 1691144222659, "trialdata": {"rt": 28366, "response": {"Q0": "i had no strategy", "Q1": "n/a", "Q2": "n/a"}, "trial_id": "self_report_control", "trial_type": "survey-text", "trial_index": 68, "time_elapsed": 2153901, "internal_node_id": "0.0-4.0-3.0"}}, {"uniqueid": "w40289780:a14988009", "current_trial": 69, "dateTime": 1691144254200, "trialdata": {"rt": 31535, "response": {"Q0": "Strongly agree", "Q1": "Agree", "Q2": "Agree", "Q3": "Strongly disagree", "Q4": "Disagree", "Q5": "Disagree", "Q6": "Disagree"}, "question_order": [0, 1, 2, 3, 4, 5, 6], "trial_id": "self_report_2", "trial_type": "survey-multi-choice", "trial_index": 69, "time_elapsed": 2185442, "internal_node_id": "0.0-4.0-4.0"}}, {"uniqueid": "w40289780:a14988009", "current_trial": 70, "dateTime": 1691144278671, "trialdata": {"rt": 24465, "response": {"gender": "female", "age": "22", "colorblind": "0", "effort": "0"}, "trial_type": "survey-html-form", "trial_index": 70, "time_elapsed": 2209913, "internal_node_id": "0.0-4.0-5.0"}}, {"uniqueid": "w40289780:a14988009", "current_trial": 71, "dateTime": 1691144304279, "trialdata": {"rt": 25602, "response": {"Q0": "not at all", "Q1": "yes", "Q2": "great study!"}, "trial_type": "survey-text", "trial_index": 71, "time_elapsed": 2235521, "internal_node_id": "0.0-4.0-6.0"}}, {"uniqueid": "w40289780:a14988009", "current_trial": 72, "dateTime": 1691144305995, "trialdata": {"rt": 1712, "stimulus": "Press 'Finish HIT' in order to reach the completion code. Once the data has been saved, you will receive the code either in this window or in the original browser window where you started the experiment.\n", "response": 0, "trial_type": "html-button-response", "trial_index": 72, "time_elapsed": 2237237, "internal_node_id": "0.0-5.0"}}, {"uniqueid": "w40289780:a14988009", "current_trial": 73, "dateTime": 1691144307000, "trialdata": {"success": true, "trial_type": "fullscreen", "trial_index": 73, "time_elapsed": 2238241, "internal_node_id": "0.0-6.0"}}], "questiondata": {"params": {"CODE": "C6DMOQA6", "MIN_TIME": 14, "inspectCost": 1, "startTime": "Fri Aug 04 2023 11:41:06 GMT+0200 (South Africa Standard Time)", "bonusRate": 0.002, "variance": "1_2_4_8_44", "branching": "31123"}, "final_score": -13.75}, "eventdata": [{"eventtype": "initialized", "value": null, "timestamp": 1691142065943, "interval": 0}, {"eventtype": "window_resize", "value": [1027, 772], "timestamp": 1691142065943, "interval": 0}, {"eventtype": "window_resize", "value": [1027, 772], "timestamp": 1691142066408, "interval": 465}, {"eventtype": "window_resize", "value": [1740, 979], "timestamp": 1691142075218, "interval": 8810}, {"eventtype": "focus", "value": "off", "timestamp": 1691142664322, "interval": 589104}, {"eventtype": "focus", "value": "on", "timestamp": 1691142664322, "interval": 0}, {"eventtype": "window_resize", "value": [1027, 772], "timestamp": 1691142664534, "interval": 212}, {"eventtype": "window_resize", "value": [1740, 979], "timestamp": 1691142667175, "interval": 2641}, {"eventtype": "focus", "value": "off", "timestamp": 1691142892783, "interval": 225608}, {"eventtype": "focus", "value": "on", "timestamp": 1691142892783, "interval": 0}, {"eventtype": "window_resize", "value": [1027, 772], "timestamp": 1691142892995, "interval": 212}, {"eventtype": "window_resize", "value": [1740, 979], "timestamp": 1691142894498, "interval": 1503}, {"eventtype": "focus", "value": "off", "timestamp": 1691143090251, "interval": 195753}, {"eventtype": "focus", "value": "on", "timestamp": 1691143090252, "interval": 1}, {"eventtype": "window_resize", "value": [1027, 772], "timestamp": 1691143090464, "interval": 212}, {"eventtype": "window_resize", "value": [1740, 979], "timestamp": 1691143092124, "interval": 1660}, {"eventtype": "window_resize", "value": [1027, 772], "timestamp": 1691144306260, "interval": 1214136}], "useragent": "Mozilla/5.0 (Windows NT 10.0; Win64; x64) AppleWebKit/537.36 (KHTML, like Gecko) Chrome/115.0.0.0 Safari/537.36", "mode": "live", "id": "w40289780:a14988009", "status": "user data saved", "Beginhit": "2023-08-04 09:41:02.880151", "Beginexp": "2023-08-04 09:41:16.268112", "Endhit": "2023-08-04 10:18:28.835253", "psiturkStatus": 3, "browser": "<redacted>", "platform": "windows", "language": "en-US", "excludeReason": "alreadyparticipated"}