{"condition": 1, "counterbalance": 0, "assignmentId": "a41687625", "workerId": "w48202768", "hitId": "h54059195", "currenttrial": 56, "bonus": 0, "data": [{"uniqueid": "w48202768:a41687625", "current_trial": 0, "dateTime": 1693663180429, "trialdata": {"success": true, "trial_type": "fullscreen", "trial_index": 0, "time_elapsed": 2902281, "internal_node_id": "0.0-0.0"}}, {"uniqueid": "w48202768:a41687625", "current_trial": 1, "dateTime": 1693663190894, "trialdata": {"view_history": [{"page_index": 0, "viewing_time": 10462}], "rt": 10462, "trial_id": "exp_instructions_misaligned", "trial_type": "instructions", "trial_index": 1, "time_elapsed": 2912745, "internal_node_id": "0.0-1.0"}}, {"uniqueid": "w48202768:a41687625", "current_trial": 2, "dateTime": 1693663435648, "trialdata": {"view_history": [{"page_index": 0, "viewing_time": 45819}, {"page_index": 1, "viewing_time": 826}, {"page_index": 0, "viewing_time": 2786}, {"page_index": 1, "viewing_time": 68705}, {"page_index": 2, "viewing_time": 18403}, {"page_index": 3, "viewing_time": 108213}], "rt": 244752, "trial_id": "mouselab_instructions_1_misaligned", "trial_type": "instructions", "trial_index": 2, "time_elapsed": 3157500, "internal_node_id": "0.0-2.0-1.0"}}, {"uniqueid": "w48202768:a41687625", "current_trial": 3, "dateTime": 1693663472943, "trialdata": {"revealed_states": [], "clicked_states": ["1", "23", "12", "2", "25", "14", "15", "18", "30"], "num_clicks_accrued": [0, 0, 0, 0, 0, 0, 0, 0, 0, 0, 0, 0, 0], "stateRewards": ["", 10, -10, 10, -10, 10, 10, -10, 10, 10, 10, -10, 10, 10, 10, 10, -10, -10, 10, 10, -10, 10, 10, -10, -10, 10, -10, -10, -10, -10, -10, 10, 10, -10], "withholdReward": false, "trial_id": "practice_1", "block": "test", "trialIndex": 0, "score": 49, "costs": -4.5, "simulationMode": [null, null, null, null, null], "rewards": [10, 10, 10, 10, 10], "path": ["0", "0", "12", "13", "14", "15", "18"], "rt": [22017, 487, 617, 1445, 338], "actions": ["right", "right", "right", "up", "left"], "actionTimes": [24165, 25182, 26320, 28289, 29150], "queries": {"click": {"state": {"target": ["1", "23", "12", "2", "25", "14", "15", "18", "30"], "time": [3832, 5244, 6525, 8032, 9586, 11528, 13914, 16722, 19509]}, "edge": {"target": [], "time": []}}, "mouseover": {"state": {"target": ["1", "23", "0", "12", "2", "24", "25", "26", "28", "1", "14", "13", "15", "13", "18", "13", "13", "22", "31", "30", "31", "24", "13"], "time": [2800, 4637, 5714, 5802, 7683, 8716, 9233, 10525, 10998, 11049, 11132, 11921, 12882, 14556, 15717, 17285, 17441, 17550, 18766, 19249, 19875, 20066, 21865]}, "edge": {"target": [], "time": []}}, "mouseout": {"state": {"target": ["17", "15", "1", "0", "1", "23", "0", "12", "2", "24", "25", "26", "28", "1", "14", "13", "14", "15", "13", "18", "13", "13", "22", "31", "30", "31", "24", "13"], "time": [1299, 1348, 1465, 2699, 4415, 5678, 5750, 7105, 8304, 9032, 9958, 10982, 11016, 11066, 11862, 12523, 12649, 14325, 15349, 17136, 17309, 17463, 17833, 18816, 19816, 20021, 20115, 21883]}, "edge": {"target": [], "time": []}}}, "displayed_time": "29.67", "trialTime": 36707, "trial_type": "mouselab-mdp", "trial_index": 3, "time_elapsed": 3194795, "internal_node_id": "0.0-2.0-2.0-0.0"}}, {"uniqueid": "w48202768:a41687625", "current_trial": 4, "dateTime": 1693663514470, "trialdata": {"revealed_states": [], "clicked_states": ["3", "8", "6", "4", "7", "29", "33", "24", "30", "25", "31", "26", "27"], "num_clicks_accrued": [0, 0, 0, 0, 0, 0, 0, 0, 0, 0, 0, 0, 0], "stateRewards": ["", -10, -10, -10, 10, 10, 10, -10, 10, 10, -10, 10, 10, 10, 10, -10, 10, 10, 10, -10, 10, -10, 10, 10, 10, 10, -10, 10, -10, 10, -10, 10, -10, 10], "withholdReward": false, "trial_id": "practice_2", "block": "test", "trialIndex": 1, "score": -13, "costs": -6.5, "simulationMode": [null, null, null, null, null], "rewards": [-10, -10, -10, 10, 10], "path": ["0", "0", "1", "2", "3", "4", "6"], "rt": [30601, 613, 588, 573, 363], "actions": ["up", "up", "up", "right", "right"], "actionTimes": [34319, 35444, 36536, 37623, 38503], "queries": {"click": {"state": {"target": ["3", "8", "6", "4", "7", "29", "33", "24", "30", "25", "31", "26", "27"], "time": [5670, 7178, 9290, 10903, 13479, 15756, 17438, 19736, 21187, 22884, 24911, 27488, 29280]}, "edge": {"target": [], "time": []}}, "mouseover": {"state": {"target": ["1", "2", "3", "8", "11", "4", "6", "4", "3", "4", "3", "2", "7", "24", "25", "29", "26", "25", "30", "33", "30", "31", "31", "32", "31", "24", "30", "25", "31", "24", "26", "27", "29", "26"], "time": [4931, 4998, 5498, 6483, 7856, 8631, 9165, 9636, 9969, 10290, 11225, 12315, 12397, 14948, 15114, 15614, 16103, 16465, 16728, 17005, 17748, 17869, 18128, 18514, 19364, 19531, 20865, 21818, 24681, 26548, 27147, 29064, 30305, 32631]}, "edge": {"target": [], "time": []}}, "mouseout": {"state": {"target": ["14", "13", "12", "1", "2", "3", "8", "11", "8", "4", "6", "4", "3", "3", "4", "3", "2", "7", "24", "25", "29", "26", "25", "30", "33", "30", "31", "31", "32", "31", "24", "30", "25", "31", "24", "26", "27", "29", "26"], "time": [1748, 1847, 2181, 4964, 5264, 6349, 7585, 8447, 8514, 9031, 9385, 9702, 9745, 10174, 11181, 11295, 12348, 13699, 14998, 15347, 16076, 16328, 16622, 16747, 17699, 17815, 17965, 18243, 19331, 19448, 20369, 21514, 23265, 25393, 26997, 28998, 29685, 32582, 32664]}, "edge": {"target": [], "time": []}}}, "displayed_time": "39.01", "trialTime": 41266, "trial_type": "mouselab-mdp", "trial_index": 4, "time_elapsed": 3236322, "internal_node_id": "0.0-2.0-2.0-1.0"}}, {"uniqueid": "w48202768:a41687625", "current_trial": 5, "dateTime": 1693663568679, "trialdata": {"view_history": [{"page_index": 0, "viewing_time": 48573}, {"page_index": 1, "viewing_time": 5632}], "rt": 54205, "trial_id": "mouselab_instructions_2_misaligned", "trial_type": "instructions", "trial_index": 5, "time_elapsed": 3290531, "internal_node_id": "0.0-2.0-3.0"}}, {"uniqueid": "w48202768:a41687625", "current_trial": 6, "dateTime": 1693663601930, "trialdata": {"rt": 33249, "response": {"Q0": "The cost for clicking on nodes may vary between nodes.", "Q1": "The better I perform the higher my bonus will be.", "Q2": "No, the amount of cash at each node of the web may be different each time.", "Q3": "To get the highest total score.", "Q4": "Only before moving the spider.", "Q5": "3 seconds"}, "question_order": [0, 1, 2, 3, 4, 5], "correct": {"Q0": "The cost for clicking on nodes may vary between nodes.", "Q1": "The better I perform the higher my bonus will be.", "Q2": "No, the amount of cash at each node of the web may be different each time.", "Q3": "To get the highest total score.", "Q4": "Only before moving the spider.", "Q5": "3 seconds"}, "trial_id": "mouselab_quiz_misaligned", "trial_type": "survey-multi-choice", "trial_index": 6, "time_elapsed": 3323782, "internal_node_id": "0.0-2.0-4.0"}}, {"uniqueid": "w48202768:a41687625", "current_trial": 7, "dateTime": 1693663606961, "trialdata": {"rt": 5028, "response": {"Q0": "No"}, "question_order": [0], "trial_id": "repeat_check", "trial_type": "survey-multi-choice", "trial_index": 7, "time_elapsed": 3328813, "internal_node_id": "0.0-4.0-0.0"}}, {"uniqueid": "w48202768:a41687625", "current_trial": 8, "dateTime": 1693663661059, "trialdata": {"rt": 54096, "stimulus": "\n<h1> Get ready to start the game! </h1>\n\nThank you for reading the instructions. Get ready start with the 40 rounds of this game.\n<br><br>\nIf you need to take a break, feel free to take one after the end of a round, before continuing to the next one.\n<br><br>\nRemember, the more money the spider gets, the bigger your bonus will be!\n<br><br>\n<div style='text-align: center;'>Press <code>space</code> to begin.</div>\n\n<br><br>\n(If, at any point, the <code>space</code> key does not take you to the next page, click once on the text and try again.)", "response": " ", "trial_id": "mdp_ready", "trial_type": "html-keyboard-response", "trial_index": 8, "time_elapsed": 3382911, "internal_node_id": "0.0-6.0-0.0"}}, {"uniqueid": "w48202768:a41687625", "current_trial": 9, "dateTime": 1693663684646, "trialdata": {"revealed_states": [], "clicked_states": ["1", "23", "12", "14", "13", "15", "19", "22", "21"], "num_clicks_accrued": [0, 0, 0, 0, 0, 0, 0, 0, 0, 0, 0, 0, 0], "stateRewards": ["", 2, -4, 1, -12, -59, -53, -74, 16, -88, -66, 66, 1, -2, 8, -9, -14, 22, 25, -1, -39, 47, -14, -1, -1, -2, 1, -4, 52, -26, 15, -7, 46, 43], "withholdReward": false, "trial_id": "mdp_trial_1", "block": "test", "trialIndex": 2, "score": 45.05, "costs": -7.950000000000001, "simulationMode": [null, null, null, null, null], "rewards": [1, -2, 8, -1, 47], "path": ["0", "0", "12", "13", "14", "19", "21"], "rt": [15761, 297, 335, 267, 322], "actions": ["right", "right", "right", "down", "down"], "actionTimes": [17703, 18520, 19372, 20154, 20992], "queries": {"click": {"state": {"target": ["1", "23", "12", "14", "13", "15", "19", "22", "21"], "time": [2775, 3940, 4999, 6313, 7460, 8563, 9856, 10990, 14234]}, "edge": {"target": [], "time": []}}, "mouseover": {"state": {"target": ["1", "23", "0", "12", "13", "14", "13", "22", "15", "19", "21", "22", "21", "20"], "time": [2569, 3502, 4402, 4469, 5840, 5953, 6885, 7835, 8319, 9486, 10143, 10701, 11368, 15018]}, "edge": {"target": [], "time": []}}, "mouseout": {"state": {"target": ["0", "0", "1", "23", "0", "12", "13", "14", "14", "13", "22", "15", "14", "13", "13", "19", "21", "22", "21", "20", "20"], "time": [1219, 2398, 3236, 4369, 4435, 5452, 5911, 6461, 6685, 7735, 7919, 8951, 9069, 9151, 9387, 10104, 10652, 11236, 14751, 17102, 23068]}, "edge": {"target": [], "time": []}}}, "displayed_time": "21.50", "trialTime": 23346, "trial_type": "mouselab-mdp", "trial_index": 9, "time_elapsed": 3406498, "internal_node_id": "0.0-6.0-1.0-0.0"}}, {"uniqueid": "w48202768:a41687625", "current_trial": 10, "dateTime": 1693663722256, "trialdata": {"revealed_states": [], "clicked_states": ["1", "23", "12", "2", "4", "8", "11", "9", "10", "6", "5", "7"], "num_clicks_accrued": [0, 0, 0, 0, 0, 0, 0, 0, 0, 0, 0, 0, 0], "stateRewards": ["", 2, -3, -4, -1, 25, -16, 16, 10, -71, -20, -55, 1, 3, -4, -9, 1, 32, 11, -6, 32, -50, -41, -1, 4, 4, -8, 7, -81, 70, 2, -52, 45, -10], "withholdReward": false, "trial_id": "mdp_trial_2", "block": "test", "trialIndex": 3, "score": 3.3999999999999986, "costs": -15.600000000000001, "simulationMode": [null, null, null, null, null], "rewards": [2, -3, -4, -1, 25], "path": ["0", "0", "1", "2", "3", "4", "5"], "rt": [29772, 317, 307, 224, 192], "actions": ["up", "up", "up", "right", "up"], "actionTimes": [31958, 32781, 33605, 34338, 35040], "queries": {"click": {"state": {"target": ["1", "23", "12", "2", "4", "8", "11", "9", "10", "6", "5", "7"], "time": [3097, 4360, 5762, 7249, 9075, 10660, 12446, 15302, 18498, 22301, 25484, 28729]}, "edge": {"target": [], "time": []}}, "mouseover": {"state": {"target": ["1", "23", "12", "0", "1", "2", "7", "3", "4", "3", "8", "11", "9", "8", "10", "2", "4", "4", "6", "5", "4", "7", "18", "15"], "time": [2831, 3864, 5580, 6347, 6563, 6763, 7899, 8263, 8646, 9613, 9779, 12180, 13163, 15963, 16563, 19346, 21946, 22099, 22247, 24282, 25996, 26829, 29713, 29863]}, "edge": {"target": [], "time": []}}, "mouseout": {"state": {"target": ["19", "22", "0", "1", "23", "23", "12", "0", "1", "2", "7", "3", "4", "3", "8", "11", "9", "8", "10", "10", "2", "4", "4", "6", "6", "5", "4", "7", "7", "18", "15"], "time": [479, 712, 2730, 3582, 4497, 5164, 6263, 6479, 6613, 7365, 7929, 8596, 9563, 9713, 11179, 12996, 15863, 16196, 18618, 18979, 19529, 21980, 22129, 22375, 22880, 25921, 26163, 28854, 29263, 29830, 29880]}, "edge": {"target": [], "time": []}}}, "displayed_time": "35.55", "trialTime": 37450, "trial_type": "mouselab-mdp", "trial_index": 10, "time_elapsed": 3444108, "internal_node_id": "0.0-6.0-1.0-1.0"}}, {"uniqueid": "w48202768:a41687625", "current_trial": 11, "dateTime": 1693663747544, "trialdata": {"revealed_states": [], "clicked_states": ["23", "1", "12", "27", "29", "33", "28"], "num_clicks_accrued": [0, 0, 0, 0, 0, 0, 0, 0, 0, 0, 0, 0, 0], "stateRewards": ["", -1, 3, 2, 9, 41, 4, -46, -12, -54, -87, -25, 2, 3, -1, 11, -77, 12, -33, -9, -32, 35, 72, 1, 3, -7, 4, 37, 65, -73, 6, 77, -43, 8], "withholdReward": false, "trial_id": "mdp_trial_3", "block": "test", "trialIndex": 4, "score": 58.15, "costs": -7.85, "simulationMode": [null, null, null, null, null], "rewards": [1, 3, -7, 4, 65], "path": ["0", "0", "23", "24", "25", "26", "28"], "rt": [18253, 288, 283, 215, 185], "actions": ["left", "left", "left", "up", "right"], "actionTimes": [20059, 20854, 21650, 22382, 23084], "queries": {"click": {"state": {"target": ["23", "1", "12", "27", "29", "33", "28"], "time": [2482, 3661, 4977, 6621, 9523, 12695, 15695]}, "edge": {"target": [], "time": []}}, "mouseover": {"state": {"target": ["23", "1", "12", "0", "23", "26", "27", "29", "33", "30", "28", "24", "25", "25"], "time": [2299, 3120, 4299, 5866, 5916, 6132, 6415, 7616, 10465, 13082, 14499, 16250, 18849, 19266]}, "edge": {"target": [], "time": []}}, "mouseout": {"state": {"target": ["16", "1", "23", "23", "1", "12", "0", "23", "26", "27", "29", "33", "30", "28", "24", "25", "25"], "time": [1082, 1183, 1348, 2922, 4082, 5815, 5899, 5949, 6181, 7215, 10082, 12993, 14199, 16216, 16301, 18915, 19282]}, "edge": {"target": [], "time": []}}}, "displayed_time": "23.60", "trialTime": 25122, "trial_type": "mouselab-mdp", "trial_index": 11, "time_elapsed": 3469396, "internal_node_id": "0.0-6.0-1.0-2.0"}}, {"uniqueid": "w48202768:a41687625", "current_trial": 12, "dateTime": 1693663783366, "trialdata": {"revealed_states": [], "clicked_states": ["23", "1", "12", "17", "16", "18", "21", "20", "22", "29"], "num_clicks_accrued": [0, 0, 0, 0, 0, 0, 0, 0, 0, 0, 0, 0, 0], "stateRewards": ["", -1, -3, 1, 13, -64, -29, 12, -4, -33, 50, 56, 2, -3, 4, 11, -64, -58, -55, 12, 47, 38, -25, -2, 2, 5, -15, 85, 7, 84, 10, 8, 57, 26], "withholdReward": false, "trial_id": "mdp_trial_4", "block": "test", "trialIndex": 5, "score": 59.7, "costs": -14.3, "simulationMode": [null, null, null, null, null], "rewards": [-2, 2, 5, -15, 84], "path": ["0", "0", "23", "24", "25", "26", "29"], "rt": [28355, 239, 213, 198, 186], "actions": ["left", "left", "left", "up", "left"], "actionTimes": [30687, 31430, 32154, 32856, 33561], "queries": {"click": {"state": {"target": ["23", "1", "12", "17", "16", "18", "21", "20", "22", "29"], "time": [3065, 4300, 5617, 6913, 10013, 13363, 16445, 19704, 22911, 26421]}, "edge": {"target": [], "time": []}}, "mouseover": {"state": {"target": ["23", "1", "12", "13", "14", "17", "15", "16", "18", "13", "19", "21", "20", "19", "22", "25", "26", "29", "26", "27"], "time": [2889, 3689, 4939, 6423, 6490, 6756, 7623, 7956, 11640, 13807, 13890, 14624, 17239, 20140, 22073, 23856, 26026, 26306, 27540, 28673]}, "edge": {"target": [], "time": []}}, "mouseout": {"state": {"target": ["24", "0", "0", "23", "1", "12", "13", "14", "17", "17", "15", "16", "18", "13", "19", "21", "20", "19", "22", "25", "26", "29", "26", "27"], "time": [356, 1140, 2726, 3572, 4757, 6373, 6472, 6507, 7049, 7376, 7773, 10525, 13774, 13843, 13911, 16973, 20089, 20273, 23323, 24456, 26223, 26740, 27589, 34973]}, "edge": {"target": [], "time": []}}}, "displayed_time": "34.07", "trialTime": 35670, "trial_type": "mouselab-mdp", "trial_index": 12, "time_elapsed": 3505218, "internal_node_id": "0.0-6.0-1.0-3.0"}}, {"uniqueid": "w48202768:a41687625", "current_trial": 13, "dateTime": 1693663807374, "trialdata": {"revealed_states": [], "clicked_states": ["9", "17", "21", "32", "29"], "num_clicks_accrued": [0, 0, 0, 0, 0, 0, 0, 0, 0, 0, 0, 0, 0], "stateRewards": ["", 2, 3, -2, -8, -8, -41, 74, 15, -23, -80, 1, 1, 3, 3, -15, -63, -78, 67, 13, 75, -41, 86, 2, -2, 6, -3, -8, -49, 50, -6, 83, 74, 80], "withholdReward": false, "trial_id": "mdp_trial_5", "block": "test", "trialIndex": 6, "score": 63.25, "costs": -10.75, "simulationMode": [null, null, null, null, null], "rewards": [2, -2, 6, -6, 74], "path": ["0", "0", "23", "24", "25", "30", "32"], "rt": [17373, 204, 204, 168, 145], "actions": ["left", "left", "left", "down", "down"], "actionTimes": [18939, 19650, 20370, 21049, 21719], "queries": {"click": {"state": {"target": ["9", "17", "21", "32", "29"], "time": [2498, 6311, 9242, 12444, 15767]}, "edge": {"target": [], "time": []}}, "mouseover": {"state": {"target": ["1", "2", "3", "9", "8", "7", "17", "21", "32", "29"], "time": [1946, 1994, 2037, 2229, 2911, 3445, 4128, 8397, 10761, 14415]}, "edge": {"target": [], "time": []}}, "mouseout": {"state": {"target": ["28", "23", "0", "0", "0", "1", "2", "3", "9", "9", "8", "7", "17", "21", "32", "29", "29", "26", "23"], "time": [512, 544, 578, 911, 1344, 1979, 2012, 2061, 2602, 2897, 2931, 3478, 7345, 10078, 12879, 15883, 22512, 22545, 22579]}, "edge": {"target": [], "time": []}}}, "displayed_time": "22.23", "trialTime": 23849, "trial_type": "mouselab-mdp", "trial_index": 13, "time_elapsed": 3529225, "internal_node_id": "0.0-6.0-1.0-4.0"}}, {"uniqueid": "w48202768:a41687625", "current_trial": 14, "dateTime": 1693663836900, "trialdata": {"revealed_states": [], "clicked_states": ["32", "6", "11", "33", "29", "20", "17"], "num_clicks_accrued": [0, 0, 0, 0, 0, 0, 0, 0, 0, 0, 0, 0, 0], "stateRewards": ["", -2, -3, -7, 7, -54, -69, -4, -14, -77, 22, 40, -2, -1, 5, 6, -35, 50, -60, 10, -28, 75, 57, 1, -4, -2, 2, 68, 34, -18, 12, 3, -21, -43], "withholdReward": false, "trial_id": "mdp_trial_6", "block": "test", "trialIndex": 7, "score": 42.95, "costs": -15.05, "simulationMode": [null, null, null, null, null], "rewards": [-2, -1, 5, 6, 50], "path": ["0", "0", "12", "13", "14", "15", "17"], "rt": [23957, 147, 172, 165, 180], "actions": ["right", "right", "right", "up", "right"], "actionTimes": [25014, 25666, 26342, 27020, 27715], "queries": {"click": {"state": {"target": ["32", "6", "11", "33", "29", "20", "17"], "time": [1803, 5002, 8302, 11423, 14855, 18049, 21329]}, "edge": {"target": [], "time": []}}, "mouseover": {"state": {"target": ["0", "23", "31", "30", "32", "31", "0", "6", "4", "3", "8", "11", "27", "29", "33", "29", "22", "19", "20", "17"], "time": [1302, 1335, 1385, 1451, 1635, 2285, 2652, 3586, 5385, 5451, 5568, 5652, 8802, 8951, 9451, 12052, 15268, 15302, 15518, 18820]}, "edge": {"target": [], "time": []}}, "mouseout": {"state": {"target": ["0", "0", "23", "31", "30", "32", "31", "0", "6", "4", "3", "8", "11", "27", "29", "33", "29", "22", "19", "20", "17", "20"], "time": [868, 1319, 1352, 1418, 1468, 1933, 2301, 2986, 5353, 5435, 5502, 5635, 8702, 8835, 9035, 11919, 15152, 15286, 15319, 18568, 21951, 22068]}, "edge": {"target": [], "time": []}}}, "displayed_time": "28.22", "trialTime": 29366, "trial_type": "mouselab-mdp", "trial_index": 14, "time_elapsed": 3558752, "internal_node_id": "0.0-6.0-1.0-5.0"}}, {"uniqueid": "w48202768:a41687625", "current_trial": 15, "dateTime": 1693663854516, "trialdata": {"revealed_states": [], "clicked_states": ["16", "5"], "num_clicks_accrued": [0, 0, 0, 0, 0, 0, 0, 0, 0, 0, 0, 0, 0], "stateRewards": ["", 1, 1, -7, -9, -44, 24, -83, -15, 44, -24, 72, -2, -3, 4, -5, 57, 55, 29, -11, 22, 12, -25, -1, 2, 7, 12, 33, -8, 47, -4, 8, 50, -4], "withholdReward": false, "trial_id": "mdp_trial_7", "block": "test", "trialIndex": 8, "score": 46.7, "costs": -4.3, "simulationMode": [null, null, null, null, null], "rewards": [-2, -3, 4, -5, 57], "path": ["0", "0", "12", "13", "14", "15", "16"], "rt": [7721, 145, 110, 139, 97], "actions": ["right", "right", "right", "up", "up"], "actionTimes": [9313, 9976, 10604, 11251, 11859], "queries": {"click": {"state": {"target": ["16", "5"], "time": [2724, 6169]}, "edge": {"target": [], "time": []}}, "mouseover": {"state": {"target": ["12", "15", "17", "16", "18", "18", "6", "5"], "time": [2077, 2159, 2244, 2493, 3227, 4943, 5027, 5276]}, "edge": {"target": [], "time": []}}, "mouseout": {"state": {"target": ["20", "19", "0", "12", "15", "17", "16", "18", "18", "6", "5", "4", "7", "18", "13", "20"], "time": [527, 576, 2061, 2110, 2193, 2276, 3127, 3310, 4977, 5043, 13076, 13129, 13176, 13211, 13244, 16577]}, "edge": {"target": [], "time": []}}}, "displayed_time": "15.73", "trialTime": 17456, "trial_type": "mouselab-mdp", "trial_index": 15, "time_elapsed": 3576368, "internal_node_id": "0.0-6.0-1.0-6.0"}}, {"uniqueid": "w48202768:a41687625", "current_trial": 16, "dateTime": 1693663872490, "trialdata": {"revealed_states": [], "clicked_states": ["9", "29"], "num_clicks_accrued": [0, 0, 0, 0, 0, 0, 0, 0, 0, 0, 0, 0, 0], "stateRewards": ["", -2, 3, 8, -9, 59, 41, -50, -1, 82, 66, 33, 2, -2, 7, 8, 1, -38, 12, -16, 24, -37, 67, 1, 4, -2, 5, 35, -83, 28, 8, -27, 69, -64], "withholdReward": false, "trial_id": "mdp_trial_8", "block": "test", "trialIndex": 9, "score": 85.7, "costs": -4.3, "simulationMode": [null, null, null, null, null, null], "rewards": [-2, 3, 8, -1, 82], "path": ["0", "0", "1", "2", "3", "8", "9"], "rt": [5323, 2312, 205, 154, 96, 120], "actions": ["up", "up", "up", "up", "left", "up"], "actionTimes": [6334, 8647, 9363, 10031, 10640, 11280], "queries": {"click": {"state": {"target": ["9", "29"], "time": [1829, 4856]}, "edge": {"target": [], "time": []}}, "mouseover": {"state": {"target": ["2", "3", "9", "11", "27", "29"], "time": [1325, 1363, 1591, 2492, 3009, 3289]}, "edge": {"target": [], "time": []}}, "mouseout": {"state": {"target": ["22", "0", "2", "3", "9", "11", "27", "29", "24"], "time": [308, 1275, 1342, 1426, 2238, 2841, 3206, 12492, 12542]}, "edge": {"target": [], "time": []}}}, "displayed_time": "15.23", "trialTime": 17763, "trial_type": "mouselab-mdp", "trial_index": 16, "time_elapsed": 3594342, "internal_node_id": "0.0-6.0-1.0-7.0"}}, {"uniqueid": "w48202768:a41687625", "current_trial": 17, "dateTime": 1693663905497, "trialdata": {"revealed_states": [], "clicked_states": ["21", "16", "6", "5", "32", "33", "27", "11"], "num_clicks_accrued": [0, 0, 0, 0, 0, 0, 0, 0, 0, 0, 0, 0, 0], "stateRewards": ["", 1, 1, -3, 2, 22, -25, -11, -5, 50, 49, 3, 1, -1, 8, 14, -85, -30, 57, -6, -39, -16, 59, -2, -1, 5, 5, 59, -16, 8, 4, 67, 56, -9], "withholdReward": false, "trial_id": "mdp_trial_9", "block": "test", "trialIndex": 10, "score": 48.8, "costs": -17.2, "simulationMode": [null, null, null, null, null], "rewards": [-2, -1, 5, 5, 59], "path": ["0", "0", "23", "24", "25", "26", "27"], "rt": [26764, 118, 166, 103, 69], "actions": ["left", "left", "left", "up", "up"], "actionTimes": [28390, 29021, 29702, 30322, 30904], "queries": {"click": {"state": {"target": ["21", "16", "6", "5", "32", "33", "27", "11"], "time": [2516, 5833, 9054, 12276, 15394, 18662, 21846, 25210]}, "edge": {"target": [], "time": []}}, "mouseover": {"state": {"target": ["19", "21", "19", "14", "16", "16", "7", "8", "3", "4", "6", "5", "3", "10", "28", "25", "30", "32", "33", "29", "27", "11"], "time": [2035, 2268, 3918, 3953, 4368, 4535, 6268, 6736, 7485, 7618, 8685, 9818, 12555, 12586, 12626, 12694, 12770, 13069, 16151, 19235, 19752, 23919]}, "edge": {"target": [], "time": []}}, "mouseout": {"state": {"target": ["0", "19", "21", "19", "14", "16", "16", "7", "8", "3", "4", "6", "5", "3", "10", "28", "25", "30", "32", "33", "29", "27", "27", "11", "11", "10"], "time": [1935, 2184, 3868, 3951, 3968, 4418, 6201, 6285, 7401, 7567, 7952, 9188, 12530, 12570, 12607, 12646, 12708, 12826, 15851, 19035, 19384, 22985, 23668, 25985, 32151, 32185]}, "edge": {"target": [], "time": []}}}, "displayed_time": "31.42", "trialTime": 32745, "trial_type": "mouselab-mdp", "trial_index": 17, "time_elapsed": 3627349, "internal_node_id": "0.0-6.0-1.0-8.0"}}, {"uniqueid": "w48202768:a41687625", "current_trial": 18, "dateTime": 1693663941913, "trialdata": {"revealed_states": [], "clicked_states": ["9", "33", "17", "32", "31", "29", "6", "5", "7"], "num_clicks_accrued": [0, 0, 0, 0, 0, 0, 0, 0, 0, 0, 0, 0, 0], "stateRewards": ["", 1, 2, 8, -2, 23, -69, -18, -16, 54, -21, 71, -1, -4, 7, 11, 43, -6, 88, 6, -55, 72, 43, 1, -3, -2, -1, 68, -31, -54, 4, -8, 25, -2], "withholdReward": false, "trial_id": "mdp_trial_10", "block": "test", "trialIndex": 11, "score": 29.650000000000002, "costs": -19.349999999999998, "simulationMode": [null, null, null, null, null], "rewards": [1, 2, 8, -16, 54], "path": ["0", "0", "1", "2", "3", "8", "9"], "rt": [30516, 146, 154, 136, 99], "actions": ["up", "up", "up", "left", "up"], "actionTimes": [32059, 32721, 33379, 34032, 34642], "queries": {"click": {"state": {"target": ["9", "33", "17", "32", "31", "29", "6", "5", "7"], "time": [2260, 5587, 8807, 12176, 15498, 18670, 21794, 25384, 28879]}, "edge": {"target": [], "time": []}}, "mouseover": {"state": {"target": ["8", "9", "25", "33", "32", "17", "20", "32", "31", "24", "28", "27", "29", "10", "4", "6", "5", "7", "16"], "time": [1875, 2060, 2725, 3125, 6108, 6725, 9358, 11641, 12961, 15811, 15842, 16095, 16342, 19608, 19742, 19791, 24974, 26326, 29208]}, "edge": {"target": [], "time": []}}, "mouseout": {"state": {"target": ["13", "0", "8", "9", "25", "33", "32", "17", "20", "33", "32", "31", "24", "28", "27", "29", "10", "4", "6", "5", "6", "7", "16"], "time": [902, 1708, 1908, 2560, 2910, 5909, 6275, 9109, 9675, 11342, 12579, 15626, 15825, 15859, 16192, 18804, 19658, 19776, 22309, 25680, 25772, 29159, 29228]}, "edge": {"target": [], "time": []}}}, "displayed_time": "35.16", "trialTime": 36251, "trial_type": "mouselab-mdp", "trial_index": 18, "time_elapsed": 3663765, "internal_node_id": "0.0-6.0-1.0-9.0"}}, {"uniqueid": "w48202768:a41687625", "current_trial": 19, "dateTime": 1693663959128, "trialdata": {"revealed_states": [], "clicked_states": ["17", "29", "20"], "num_clicks_accrued": [0, 0, 0, 0, 0, 0, 0, 0, 0, 0, 0, 0, 0], "stateRewards": ["", 2, 4, 7, 7, -79, -2, -21, -5, -53, 47, -21, 1, -3, -1, 7, 83, 7, 84, -7, 80, -37, 69, 2, -4, 5, 2, 4, -20, -30, 7, 71, 44, -81], "withholdReward": false, "trial_id": "mdp_trial_11", "block": "test", "trialIndex": 12, "score": 63.55, "costs": -6.449999999999999, "simulationMode": [null, null, null, null, null], "rewards": [1, -3, -1, -7, 80], "path": ["0", "0", "12", "13", "14", "19", "20"], "rt": [11471, 103, 127, 59, 130], "actions": ["right", "right", "right", "down", "right"], "actionTimes": [13065, 13701, 14344, 14910, 15547], "queries": {"click": {"state": {"target": ["17", "29", "20"], "time": [2376, 5596, 8922]}, "edge": {"target": [], "time": []}}, "mouseover": {"state": {"target": ["18", "15", "17", "14", "13", "12", "28", "29", "26", "28", "1", "13", "14", "20", "19", "22", "33"], "time": [1798, 1833, 1898, 2732, 2800, 2832, 3015, 3264, 5981, 6031, 6099, 6565, 6616, 6698, 9199, 9216, 9765]}, "edge": {"target": [], "time": []}}, "mouseout": {"state": {"target": ["16", "1", "18", "15", "17", "14", "13", "12", "28", "29", "26", "28", "1", "13", "14", "20", "19", "22"], "time": [215, 864, 1831, 1866, 2681, 2782, 2815, 2866, 3050, 5948, 6015, 6048, 6148, 6615, 6631, 9183, 9215, 9231]}, "edge": {"target": [], "time": []}}}, "displayed_time": "16.07", "trialTime": 17056, "trial_type": "mouselab-mdp", "trial_index": 19, "time_elapsed": 3680980, "internal_node_id": "0.0-6.0-1.0-10.0"}}, {"uniqueid": "w48202768:a41687625", "current_trial": 20, "dateTime": 1693663994648, "trialdata": {"revealed_states": [], "clicked_states": ["6", "33", "20", "22", "21", "16", "11", "29"], "num_clicks_accrued": [0, 0, 0, 0, 0, 0, 0, 0, 0, 0, 0, 0, 0], "stateRewards": ["", -1, -3, -6, 14, 41, 18, 63, -14, 80, 21, 17, -2, -4, -2, -5, 13, 70, 8, -4, -64, -10, -20, 2, -1, 4, -1, -17, -55, 42, -7, 47, 54, 15], "withholdReward": false, "trial_id": "mdp_trial_12", "block": "test", "trialIndex": 13, "score": 28.8, "costs": -17.2, "simulationMode": [null, null, null, null, null], "rewards": [2, -1, 4, -1, 42], "path": ["0", "0", "23", "24", "25", "26", "29"], "rt": [29537, 140, 136, 131, 98], "actions": ["left", "left", "left", "up", "left"], "actionTimes": [30861, 31516, 32172, 32816, 33436], "queries": {"click": {"state": {"target": ["6", "33", "20", "22", "21", "16", "11", "29"], "time": [2233, 5473, 8919, 13425, 16675, 19993, 23189, 26477]}, "edge": {"target": [], "time": []}}, "mouseover": {"state": {"target": ["6", "6", "4", "2", "28", "25", "33", "30", "31", "22", "19", "20", "19", "19", "14", "17", "19", "22", "21", "19", "14", "16", "7", "2", "10", "11", "26", "29", "27"], "time": [1834, 2066, 2612, 2662, 2808, 3116, 3533, 5934, 5983, 6083, 6117, 6500, 9716, 11550, 11617, 11983, 12849, 13300, 14400, 17099, 17112, 17483, 21467, 21533, 21654, 21934, 24000, 25133, 26917]}, "edge": {"target": [], "time": []}}, "mouseout": {"state": {"target": ["33", "30", "0", "6", "6", "4", "2", "28", "25", "33", "30", "31", "22", "19", "20", "19", "19", "14", "17", "19", "22", "21", "19", "14", "16", "7", "2", "10", "11", "26", "29", "27", "26", "31"], "time": [165, 182, 1725, 1867, 2600, 2628, 2696, 2904, 3233, 5640, 5967, 6000, 6100, 6401, 9600, 10566, 11566, 11634, 12734, 12866, 13999, 17066, 17109, 17129, 21317, 21519, 21617, 21733, 23643, 25066, 26799, 34184, 34235, 34300]}, "edge": {"target": [], "time": []}}}, "displayed_time": "33.95", "trialTime": 35362, "trial_type": "mouselab-mdp", "trial_index": 20, "time_elapsed": 3716500, "internal_node_id": "0.0-6.0-1.0-11.0"}}, {"uniqueid": "w48202768:a41687625", "current_trial": 21, "dateTime": 1693664018648, "trialdata": {"revealed_states": [], "clicked_states": ["5", "3", "7", "6", "29", "20"], "num_clicks_accrued": [0, 0, 0, 0, 0, 0, 0, 0, 0, 0, 0, 0, 0], "stateRewards": ["", 1, -3, 4, 13, -72, 52, 5, 5, -58, 5, 14, 2, 1, 3, -14, -86, -4, 73, 6, -58, -50, 49, 2, -3, -4, 2, 33, -41, 42, -11, 81, 45, 53], "withholdReward": false, "trial_id": "mdp_trial_13", "block": "test", "trialIndex": 14, "score": 55.3, "costs": -11.700000000000001, "simulationMode": [null, null, null, null, null], "rewards": [1, -3, 4, 13, 52], "path": ["0", "0", "1", "2", "3", "4", "6"], "rt": [19136, 123, 114, 88, 58], "actions": ["up", "up", "up", "right", "right"], "actionTimes": [20233, 20869, 21493, 22100, 22672], "queries": {"click": {"state": {"target": ["5", "3", "7", "6", "29", "20"], "time": [2021, 5607, 6874, 10202, 13768, 17003]}, "edge": {"target": [], "time": []}}, "mouseover": {"state": {"target": ["1", "5", "3", "7", "6", "2", "28", "25", "29", "25", "24", "23", "31", "31", "22", "19", "20"], "time": [1395, 1829, 5030, 6295, 7996, 10679, 10929, 11046, 11413, 14295, 14495, 14645, 14963, 15179, 15329, 15380, 15763]}, "edge": {"target": [], "time": []}}, "mouseout": {"state": {"target": ["0", "1", "5", "3", "7", "6", "2", "28", "25", "29", "25", "24", "23", "31", "31", "22", "19", "20"], "time": [1346, 1413, 2579, 6212, 7228, 10596, 10729, 10962, 11079, 14229, 14363, 14629, 14879, 15095, 15229, 15364, 15412, 17235]}, "edge": {"target": [], "time": []}}}, "displayed_time": "23.18", "trialTime": 23841, "trial_type": "mouselab-mdp", "trial_index": 21, "time_elapsed": 3740500, "internal_node_id": "0.0-6.0-1.0-12.0"}}, {"uniqueid": "w48202768:a41687625", "current_trial": 22, "dateTime": 1693664044304, "trialdata": {"revealed_states": [], "clicked_states": ["20", "33", "21", "32", "5", "9"], "num_clicks_accrued": [0, 0, 0, 0, 0, 0, 0, 0, 0, 0, 0, 0, 0], "stateRewards": ["", -1, -3, 3, 5, 56, 39, 50, -1, -80, 33, -46, 1, -2, -6, -8, 87, 48, 54, -11, -20, -64, -54, -2, 3, -7, -3, 12, 88, 35, -16, -46, -70, -3], "withholdReward": false, "trial_id": "mdp_trial_14", "block": "test", "trialIndex": 15, "score": 47.1, "costs": -12.9, "simulationMode": [null, null, null, null, null], "rewards": [-1, -3, 3, 5, 56], "path": ["0", "0", "1", "2", "3", "4", "5"], "rt": [20240, 144, 153, 147, 121], "actions": ["up", "up", "up", "right", "up"], "actionTimes": [21377, 22040, 22698, 23357, 23983], "queries": {"click": {"state": {"target": ["20", "33", "21", "32", "5", "9"], "time": [1943, 5171, 8394, 11682, 14864, 18157]}, "edge": {"target": [], "time": []}}, "mouseover": {"state": {"target": ["12", "13", "14", "20", "19", "22", "31", "30", "33", "33", "30", "31", "22", "22", "21", "31", "30", "32", "31", "7", "4", "5", "9", "4", "6"], "time": [1411, 1481, 1544, 1811, 2294, 2344, 2494, 2530, 2576, 3294, 6177, 6227, 7127, 7260, 7593, 8860, 8910, 10178, 12029, 12128, 12310, 12493, 16344, 18579, 18610]}, "edge": {"target": [], "time": []}}, "mouseout": {"state": {"target": ["12", "12", "13", "14", "20", "19", "22", "31", "30", "33", "33", "30", "31", "22", "22", "21", "31", "30", "32", "31", "7", "4", "5", "9", "4", "6", "19"], "time": [645, 1465, 1526, 1560, 2043, 2327, 2377, 2510, 2560, 2646, 6144, 6210, 6243, 7160, 7310, 8743, 8877, 10060, 11979, 12045, 12177, 12444, 15427, 18480, 18594, 18643, 25177]}, "edge": {"target": [], "time": []}}}, "displayed_time": "24.50", "trialTime": 25495, "trial_type": "mouselab-mdp", "trial_index": 22, "time_elapsed": 3766156, "internal_node_id": "0.0-6.0-1.0-13.0"}}, {"uniqueid": "w48202768:a41687625", "current_trial": 23, "dateTime": 1693664065010, "trialdata": {"revealed_states": [], "clicked_states": ["5", "21", "9", "32"], "num_clicks_accrued": [0, 0, 0, 0, 0, 0, 0, 0, 0, 0, 0, 0, 0], "stateRewards": ["", 1, 1, 1, -3, -7, -1, -41, -10, 20, -72, -63, 1, -4, -2, 2, -66, 30, -84, -2, 49, 23, 71, -1, -4, 4, -12, 67, 5, 18, -16, 88, 56, -5], "withholdReward": false, "trial_id": "mdp_trial_15", "block": "test", "trialIndex": 16, "score": 30.4, "costs": -8.6, "simulationMode": [null, null, null, null, null], "rewards": [-1, -4, 4, -16, 56], "path": ["0", "0", "23", "24", "25", "30", "32"], "rt": [15418, 147, 56, 78, 119], "actions": ["left", "left", "left", "down", "down"], "actionTimes": [16528, 17184, 17758, 18364, 18988], "queries": {"click": {"state": {"target": ["5", "21", "9", "32"], "time": [1933, 5137, 8471, 12092]}, "edge": {"target": [], "time": []}}, "mouseover": {"state": {"target": ["7", "5", "14", "21", "0", "10", "8", "9", "11", "26", "25", "30", "32", "30", "25", "29"], "time": [1467, 1800, 3250, 3718, 5767, 5867, 5917, 6483, 8817, 8872, 8923, 9233, 9734, 13284, 13516, 14183]}, "edge": {"target": [], "time": []}}, "mouseout": {"state": {"target": ["0", "7", "5", "14", "21", "0", "10", "8", "9", "9", "11", "26", "25", "30", "32", "30", "25", "29", "25", "31"], "time": [1418, 1484, 3083, 3267, 5252, 5784, 5900, 6016, 8590, 8784, 8834, 8884, 9055, 9367, 12684, 13384, 13636, 19950, 20000, 20033]}, "edge": {"target": [], "time": []}}}, "displayed_time": "19.50", "trialTime": 20541, "trial_type": "mouselab-mdp", "trial_index": 23, "time_elapsed": 3786862, "internal_node_id": "0.0-6.0-1.0-14.0"}}, {"uniqueid": "w48202768:a41687625", "current_trial": 24, "dateTime": 1693664081012, "trialdata": {"revealed_states": [], "clicked_states": ["17", "29"], "num_clicks_accrued": [0, 0, 0, 0, 0, 0, 0, 0, 0, 0, 0, 0, 0], "stateRewards": ["", -2, 3, -1, 2, -72, 63, 20, -1, 62, -66, 39, -2, 3, -6, 14, 22, 47, 1, 8, -49, -1, -41, 2, 2, -6, -16, -64, -60, -34, 16, 54, 22, -7], "withholdReward": false, "trial_id": "mdp_trial_16", "block": "test", "trialIndex": 17, "score": 51.7, "costs": -4.3, "simulationMode": [null, null, null, null, null], "rewards": [-2, 3, -6, 14, 47], "path": ["0", "0", "12", "13", "14", "15", "17"], "rt": [7597, 112, 99, 92, 63], "actions": ["right", "right", "right", "up", "right"], "actionTimes": [8314, 8941, 9543, 10154, 10725], "queries": {"click": {"state": {"target": ["17", "29"], "time": [1590, 5151]}, "edge": {"target": [], "time": []}}, "mouseover": {"state": {"target": ["14", "17", "15", "18", "1", "28", "26", "29", "26", "28", "12", "13"], "time": [1028, 1445, 3744, 3794, 3861, 3928, 3994, 4279, 5549, 5573, 5621, 5633]}, "edge": {"target": [], "time": []}}, "mouseout": {"state": {"target": ["0", "14", "17", "15", "18", "1", "28", "26", "29", "26", "28", "12", "13", "21"], "time": [477, 1044, 3727, 3777, 3811, 3877, 3961, 4211, 5530, 5566, 5581, 5632, 5648, 12161]}, "edge": {"target": [], "time": []}}}, "displayed_time": "14.86", "trialTime": 15837, "trial_type": "mouselab-mdp", "trial_index": 24, "time_elapsed": 3802864, "internal_node_id": "0.0-6.0-1.0-15.0"}}, {"uniqueid": "w48202768:a41687625", "current_trial": 25, "dateTime": 1693664097016, "trialdata": {"revealed_states": [], "clicked_states": ["17", "29"], "num_clicks_accrued": [0, 0, 0, 0, 0, 0, 0, 0, 0, 0, 0, 0, 0], "stateRewards": ["", 1, -4, -4, 8, 1, -79, 68, -10, -79, 8, -74, -1, -3, -6, 14, 43, 23, 9, 5, -51, 63, 61, -2, 4, 6, -10, 69, -32, 57, 15, -80, -80, -77], "withholdReward": false, "trial_id": "mdp_trial_17", "block": "test", "trialIndex": 18, "score": 50.7, "costs": -4.3, "simulationMode": [null, null, null, null, null], "rewards": [-2, 4, 6, -10, 57], "path": ["0", "0", "23", "24", "25", "26", "29"], "rt": [8358, 88, 103, 130, 103], "actions": ["left", "left", "left", "up", "left"], "actionTimes": [9230, 9831, 10445, 11089, 11713], "queries": {"click": {"state": {"target": ["17", "29"], "time": [1654, 5236]}, "edge": {"target": [], "time": []}}, "mouseover": {"state": {"target": ["15", "17", "17", "15", "18", "1", "28", "26", "29", "10", "6"], "time": [1225, 1242, 1476, 2157, 2208, 2290, 3826, 3991, 4865, 5791, 6341]}, "edge": {"target": [], "time": []}}, "mouseout": {"state": {"target": ["0", "15", "17", "17", "15", "18", "1", "28", "26", "29", "10", "6", "12"], "time": [691, 1241, 1274, 1733, 2191, 2224, 2324, 3908, 4008, 5597, 5808, 12691, 12824]}, "edge": {"target": [], "time": []}}}, "displayed_time": "15.05", "trialTime": 15771, "trial_type": "mouselab-mdp", "trial_index": 25, "time_elapsed": 3818868, "internal_node_id": "0.0-6.0-1.0-16.0"}}, {"uniqueid": "w48202768:a41687625", "current_trial": 26, "dateTime": 1693664126036, "trialdata": {"revealed_states": [], "clicked_states": ["21", "32", "5", "9", "17", "29"], "num_clicks_accrued": [0, 0, 0, 0, 0, 0, 0, 0, 0, 0, 0, 0, 0], "stateRewards": ["", -2, -3, 1, -7, 39, -67, 16, 5, -20, 73, 66, -1, 4, 5, -3, 23, -68, -87, -8, 3, -3, 17, 1, -4, -2, -13, -32, 34, 61, -5, -11, -18, 12], "withholdReward": false, "trial_id": "mdp_trial_18", "block": "test", "trialIndex": 19, "score": 30.1, "costs": -12.9, "simulationMode": [null, null, null, null, null], "rewards": [1, -4, -2, -13, 61], "path": ["0", "0", "23", "24", "25", "26", "29"], "rt": [21519, 97, 115, 89, 112], "actions": ["left", "left", "left", "up", "left"], "actionTimes": [24488, 25096, 25731, 26337, 26961], "queries": {"click": {"state": {"target": ["21", "32", "5", "9", "17", "29"], "time": [3919, 7154, 10367, 13769, 16995, 20505]}, "edge": {"target": [], "time": []}}, "mouseover": {"state": {"target": ["12", "22", "21", "32", "31", "23", "2", "4", "5", "9", "3", "15", "17", "18", "29", "33"], "time": [3198, 3331, 3648, 4931, 7564, 7582, 7631, 7664, 7864, 11181, 14282, 14398, 14666, 17286, 17732, 20918]}, "edge": {"target": [], "time": []}}, "mouseout": {"state": {"target": ["19", "22", "22", "19", "19", "22", "0", "0", "12", "22", "21", "32", "31", "23", "2", "4", "5", "9", "9", "3", "15", "17", "18", "29", "33", "30", "31"], "time": [764, 797, 1281, 1314, 1514, 1548, 2080, 3132, 3248, 3548, 3980, 7514, 7581, 7598, 7648, 7700, 10765, 13781, 14215, 14297, 14448, 17271, 17301, 20815, 28032, 28082, 28331]}, "edge": {"target": [], "time": []}}}, "displayed_time": "27.46", "trialTime": 28764, "trial_type": "mouselab-mdp", "trial_index": 26, "time_elapsed": 3847888, "internal_node_id": "0.0-6.0-1.0-17.0"}}, {"uniqueid": "w48202768:a41687625", "current_trial": 27, "dateTime": 1693664142427, "trialdata": {"revealed_states": [], "clicked_states": ["17", "29"], "num_clicks_accrued": [0, 0, 0, 0, 0, 0, 0, 0, 0, 0, 0, 0, 0], "stateRewards": ["", -1, 4, 3, 12, -27, 34, -33, 3, -63, 1, 6, 2, 2, -6, -11, -77, -85, 68, -6, 51, 81, -60, -2, -2, 1, 15, 20, 15, 68, -10, -14, 6, -4], "withholdReward": false, "trial_id": "mdp_trial_19", "block": "test", "trialIndex": 20, "score": 75.7, "costs": -4.3, "simulationMode": [null, null, null, null, null], "rewards": [-2, -2, 1, 15, 68], "path": ["0", "0", "23", "24", "25", "26", "29"], "rt": [8207, 51, 91, 81, 55], "actions": ["left", "left", "left", "up", "left"], "actionTimes": [9208, 9771, 10377, 10967, 11542], "queries": {"click": {"state": {"target": ["17", "29"], "time": [1831, 4949]}, "edge": {"target": [], "time": []}}, "mouseover": {"state": {"target": ["13", "14", "17", "15", "18", "1", "28", "26", "29", "24", "19", "20"], "time": [1186, 1218, 1586, 2120, 2185, 2303, 2369, 2403, 2453, 5636, 6136, 6237]}, "edge": {"target": [], "time": []}}, "mouseout": {"state": {"target": ["22", "14", "13", "0", "13", "14", "17", "15", "18", "1", "28", "26", "29", "24", "19", "20", "19"], "time": [319, 519, 602, 1160, 1203, 1340, 2086, 2152, 2219, 2320, 2386, 2437, 5486, 5669, 6170, 12336, 12386]}, "edge": {"target": [], "time": []}}}, "displayed_time": "15.24", "trialTime": 16226, "trial_type": "mouselab-mdp", "trial_index": 27, "time_elapsed": 3864278, "internal_node_id": "0.0-6.0-1.0-18.0"}}, {"uniqueid": "w48202768:a41687625", "current_trial": 28, "dateTime": 1693664173005, "trialdata": {"revealed_states": [], "clicked_states": ["17", "29", "5", "21", "9", "32", "33"], "num_clicks_accrued": [0, 0, 0, 0, 0, 0, 0, 0, 0, 0, 0, 0, 0], "stateRewards": ["", 2, -3, 5, -14, -63, -9, -24, -11, -54, -43, 68, 2, -2, -4, 7, -64, 30, 47, 12, -74, 11, 86, 1, -3, 3, 10, -71, -42, -52, -1, -29, -16, 69], "withholdReward": false, "trial_id": "mdp_trial_20", "block": "test", "trialIndex": 21, "score": 53.95, "costs": -15.05, "simulationMode": [null, null, null, null, null], "rewards": [1, -3, 3, -1, 69], "path": ["0", "0", "23", "24", "25", "30", "33"], "rt": [24754, 110, 167, 143, 140], "actions": ["left", "left", "left", "down", "left"], "actionTimes": [25866, 26491, 27163, 27823, 28470], "queries": {"click": {"state": {"target": ["17", "29", "5", "21", "9", "32", "33"], "time": [1958, 5362, 8728, 11990, 15370, 18591, 21932]}, "edge": {"target": [], "time": []}}, "mouseover": {"state": {"target": ["12", "15", "17", "15", "18", "1", "28", "26", "29", "26", "2", "7", "4", "5", "4", "4", "18", "13", "21", "22", "12", "1", "2", "8", "9", "8", "28", "24", "30", "32", "30", "33", "30", "31", "22", "19", "20", "14", "15", "16"], "time": [1296, 1430, 1796, 2399, 2435, 2612, 3096, 3147, 3379, 5929, 6013, 6095, 6862, 7080, 9179, 9513, 10112, 10162, 10513, 12354, 12396, 12480, 12570, 12712, 12945, 15795, 15963, 16029, 16279, 16529, 19980, 20579, 22331, 22379, 22529, 22679, 22862, 23929, 23997, 24179]}, "edge": {"target": [], "time": []}}, "mouseout": {"state": {"target": ["12", "13", "15", "12", "0", "12", "15", "17", "15", "18", "1", "28", "26", "29", "26", "2", "7", "4", "5", "4", "4", "18", "13", "21", "22", "12", "1", "2", "8", "9", "8", "28", "24", "30", "32", "30", "33", "30", "31", "22", "19", "20", "14", "15", "16", "21"], "time": [379, 412, 579, 778, 1262, 1329, 1513, 2346, 2418, 2472, 2928, 3146, 3213, 5829, 5945, 6046, 6813, 6963, 9112, 9295, 9962, 10146, 10179, 12299, 12388, 12447, 12530, 12602, 12762, 15762, 15812, 15996, 16063, 16429, 19629, 20012, 22046, 22363, 22396, 22613, 22779, 23845, 23946, 24079, 29313, 30129]}, "edge": {"target": [], "time": []}}}, "displayed_time": "28.98", "trialTime": 30346, "trial_type": "mouselab-mdp", "trial_index": 28, "time_elapsed": 3894857, "internal_node_id": "0.0-6.0-1.0-19.0"}}, {"uniqueid": "w48202768:a41687625", "current_trial": 29, "dateTime": 1693664200488, "trialdata": {"revealed_states": [], "clicked_states": ["21", "5", "32", "9", "6", "11"], "num_clicks_accrued": [0, 0, 0, 0, 0, 0, 0, 0, 0, 0, 0, 0, 0], "stateRewards": ["", -2, 1, -7, -8, -37, -76, -87, 11, 30, -63, 80, -1, 4, 2, -1, 42, 17, 52, -3, -75, -80, -68, 2, -3, -5, -15, -48, 82, 24, -7, 5, -22, -71], "withholdReward": false, "trial_id": "mdp_trial_21", "block": "test", "trialIndex": 22, "score": 70.1, "costs": -12.9, "simulationMode": [null, null, null, null, null], "rewards": [-2, 1, -7, 11, 80], "path": ["0", "0", "1", "2", "3", "8", "11"], "rt": [21382, 99, 66, 77, 88], "actions": ["up", "up", "up", "left", "left"], "actionTimes": [22503, 23108, 23691, 24287, 24882], "queries": {"click": {"state": {"target": ["21", "5", "32", "9", "6", "11"], "time": [2239, 5568, 8795, 12210, 15082, 18542]}, "edge": {"target": [], "time": []}}, "mouseover": {"state": {"target": ["12", "13", "22", "21", "13", "18", "4", "5", "5", "9", "8", "25", "30", "32", "24", "10", "8", "9", "4", "16", "6", "4", "3", "8", "11", "2", "18", "14", "17"], "time": [1442, 1575, 1758, 2059, 2591, 2609, 2641, 2682, 2957, 6608, 7309, 7442, 7492, 7741, 9179, 9225, 9259, 9491, 13108, 13292, 13692, 16025, 16075, 16175, 16558, 18975, 19042, 19075, 19525]}, "edge": {"target": [], "time": []}}, "mouseout": {"state": {"target": ["19", "22", "0", "12", "13", "22", "21", "13", "18", "4", "5", "5", "9", "8", "25", "30", "32", "24", "10", "8", "9", "4", "16", "6", "4", "3", "8", "11", "2", "18", "14", "17", "15", "12"], "time": [458, 558, 1391, 1542, 1608, 1825, 2526, 2608, 2624, 2680, 2692, 5730, 7291, 7358, 7458, 7541, 9125, 9192, 9241, 9292, 13024, 13158, 13341, 15991, 16060, 16125, 16341, 18910, 18992, 19058, 19108, 25726, 25776, 25858]}, "edge": {"target": [], "time": []}}}, "displayed_time": "25.39", "trialTime": 27309, "trial_type": "mouselab-mdp", "trial_index": 29, "time_elapsed": 3922340, "internal_node_id": "0.0-6.0-1.0-20.0"}}, {"uniqueid": "w48202768:a41687625", "current_trial": 30, "dateTime": 1693664227254, "trialdata": {"revealed_states": [], "clicked_states": ["17", "29", "6", "11", "20", "33"], "num_clicks_accrued": [0, 0, 0, 0, 0, 0, 0, 0, 0, 0, 0, 0, 0], "stateRewards": ["", -2, -3, 4, 1, 33, -53, 15, 9, -12, 61, -6, -2, 4, 6, -11, 47, -43, -7, -11, 46, 23, -28, -1, -1, 3, -10, 11, 76, -76, 10, 18, -38, 87], "withholdReward": false, "trial_id": "mdp_trial_22", "block": "test", "trialIndex": 23, "score": 85.1, "costs": -12.9, "simulationMode": [null, null, null, null, null], "rewards": [-1, -1, 3, 10, 87], "path": ["0", "0", "23", "24", "25", "30", "33"], "rt": [21533, 91, 114, 58, 125], "actions": ["left", "left", "left", "down", "left"], "actionTimes": [22535, 23146, 23779, 24364, 25005], "queries": {"click": {"state": {"target": ["17", "29", "6", "11", "20", "33"], "time": [1742, 5061, 8611, 11871, 15137, 18501]}, "edge": {"target": [], "time": []}}, "mouseover": {"state": {"target": ["12", "13", "17", "15", "18", "1", "28", "26", "29", "26", "28", "2", "7", "6", "4", "3", "8", "11", "10", "1", "12", "21", "20", "19", "22", "31", "30", "33", "30", "31", "21"], "time": [1195, 1262, 1512, 2512, 2612, 2762, 2996, 3129, 3346, 5595, 5646, 5747, 5796, 6963, 9246, 9329, 9430, 9729, 12329, 12379, 12446, 12879, 13063, 15529, 15562, 15929, 16096, 16329, 19146, 19262, 19913]}, "edge": {"target": [], "time": []}}, "mouseout": {"state": {"target": ["0", "12", "13", "17", "15", "18", "1", "28", "26", "29", "26", "28", "2", "7", "6", "4", "3", "8", "11", "11", "10", "1", "12", "21", "20", "19", "22", "31", "30", "33", "30", "31", "21"], "time": [1162, 1212, 1296, 2463, 2579, 2663, 2829, 3080, 3229, 5564, 5629, 5662, 5781, 5845, 9196, 9296, 9396, 9529, 12007, 12302, 12346, 12396, 12466, 12913, 15512, 15546, 15579, 16029, 16212, 18650, 19212, 19295, 25979]}, "edge": {"target": [], "time": []}}}, "displayed_time": "25.51", "trialTime": 26596, "trial_type": "mouselab-mdp", "trial_index": 30, "time_elapsed": 3949106, "internal_node_id": "0.0-6.0-1.0-21.0"}}, {"uniqueid": "w48202768:a41687625", "current_trial": 31, "dateTime": 1693664243498, "trialdata": {"revealed_states": [], "clicked_states": ["17", "29", "20"], "num_clicks_accrued": [0, 0, 0, 0, 0, 0, 0, 0, 0, 0, 0, 0, 0], "stateRewards": ["", -1, -3, 1, -4, -48, -63, -49, -2, -84, -19, 65, 2, -2, -2, -12, -4, 59, 9, 6, 75, 69, -13, -1, -3, -3, -2, -37, -68, -36, 13, 32, 18, -14], "withholdReward": false, "trial_id": "mdp_trial_23", "block": "test", "trialIndex": 24, "score": 72.55, "costs": -6.449999999999999, "simulationMode": [null, null, null, null, null], "rewards": [2, -2, -2, 6, 75], "path": ["0", "0", "12", "13", "14", "19", "20"], "rt": [10997, 73, 63, 53, 55], "actions": ["right", "right", "right", "down", "right"], "actionTimes": [12073, 12655, 13229, 13784, 14353], "queries": {"click": {"state": {"target": ["17", "29", "20"], "time": [1850, 5420, 8668]}, "edge": {"target": [], "time": []}}, "mouseover": {"state": {"target": ["12", "13", "17", "15", "18", "1", "28", "26", "29", "29", "26", "0", "20"], "time": [1381, 1431, 1630, 3264, 3431, 3581, 3715, 3780, 3848, 4064, 5880, 5948, 7114]}, "edge": {"target": [], "time": []}}, "mouseout": {"state": {"target": ["0", "12", "13", "17", "15", "18", "1", "28", "26", "29", "29", "29", "26", "0", "20", "20", "19", "22"], "time": [1364, 1414, 1447, 2898, 3380, 3497, 3614, 3747, 3814, 3897, 5543, 5864, 5898, 5964, 8865, 15415, 15430, 15681]}, "edge": {"target": [], "time": []}}}, "displayed_time": "15.34", "trialTime": 16076, "trial_type": "mouselab-mdp", "trial_index": 31, "time_elapsed": 3965350, "internal_node_id": "0.0-6.0-1.0-22.0"}}, {"uniqueid": "w48202768:a41687625", "current_trial": 32, "dateTime": 1693664259616, "trialdata": {"revealed_states": [], "clicked_states": ["20"], "num_clicks_accrued": [0, 0, 0, 0, 0, 0, 0, 0, 0, 0, 0, 0, 0], "stateRewards": ["", 1, -1, 8, 4, 76, -33, -17, -3, -1, -54, -74, -2, 2, -5, 13, -51, 63, 83, 1, 84, 29, -36, 2, -1, 7, -12, -10, -44, -43, -14, 8, -69, 19], "withholdReward": false, "trial_id": "mdp_trial_24", "block": "test", "trialIndex": 25, "score": 77.85, "costs": -2.15, "simulationMode": [null, null, null, null, null], "rewards": [-2, 2, -5, 1, 84], "path": ["0", "0", "12", "13", "14", "19", "20"], "rt": [4901, 14, 115, 130, 104], "actions": ["right", "right", "right", "down", "right"], "actionTimes": [6009, 6543, 7177, 7827, 8451], "queries": {"click": {"state": {"target": ["20"], "time": [1818]}, "edge": {"target": [], "time": []}}, "mouseover": {"state": {"target": ["12", "19", "20", "19", "22", "30", "33"], "time": [1228, 1396, 1612, 2295, 2379, 2878, 3413]}, "edge": {"target": [], "time": []}}, "mouseout": {"state": {"target": ["0", "0", "12", "19", "20", "19", "22", "30"], "time": [779, 1212, 1262, 1463, 2262, 2346, 2395, 3146]}, "edge": {"target": [], "time": []}}}, "displayed_time": "15.28", "trialTime": 15942, "trial_type": "mouselab-mdp", "trial_index": 32, "time_elapsed": 3981468, "internal_node_id": "0.0-6.0-1.0-23.0"}}, {"uniqueid": "w48202768:a41687625", "current_trial": 33, "dateTime": 1693664286047, "trialdata": {"revealed_states": [], "clicked_states": ["20", "17", "16", "21", "32"], "num_clicks_accrued": [0, 0, 0, 0, 0, 0, 0, 0, 0, 0, 0, 0, 0], "stateRewards": ["", -2, 1, -8, 12, -65, -79, 16, 7, -80, -17, -45, -2, 2, -5, -2, -85, 23, -4, -7, 48, 27, -76, 2, 3, 5, 2, 43, 71, -13, 7, -49, 59, -31], "withholdReward": false, "trial_id": "mdp_trial_25", "block": "test", "trialIndex": 26, "score": 65.25, "costs": -10.75, "simulationMode": [null, null, null, null, null], "rewards": [2, 3, 5, 7, 59], "path": ["0", "0", "23", "24", "25", "30", "32"], "rt": [20570, 102, 103, 114, 138], "actions": ["left", "left", "left", "down", "down"], "actionTimes": [21804, 22424, 23040, 23669, 24324], "queries": {"click": {"state": {"target": ["20", "17", "16", "21", "32"], "time": [1943, 6024, 9811, 13911, 17475]}, "edge": {"target": [], "time": []}}, "mouseover": {"state": {"target": ["19", "20", "17", "16", "14", "19", "21", "21", "31", "30", "32", "33", "33"], "time": [1520, 1588, 5237, 9436, 13419, 13438, 13471, 13720, 16286, 16736, 17236, 18120, 18820]}, "edge": {"target": [], "time": []}}, "mouseout": {"state": {"target": ["33", "30", "0", "0", "19", "20", "17", "17", "17", "16", "14", "19", "21", "21", "31", "30", "32", "33", "33", "30", "31"], "time": [586, 637, 837, 1388, 1536, 4871, 6163, 6308, 6494, 13388, 13436, 13469, 13486, 16103, 16553, 17104, 17903, 18520, 25470, 25520, 25553]}, "edge": {"target": [], "time": []}}}, "displayed_time": "24.84", "trialTime": 26214, "trial_type": "mouselab-mdp", "trial_index": 33, "time_elapsed": 4007899, "internal_node_id": "0.0-6.0-1.0-24.0"}}, {"uniqueid": "w48202768:a41687625", "current_trial": 34, "dateTime": 1693664322781, "trialdata": {"revealed_states": [], "clicked_states": ["17", "5", "9", "32", "20", "21", "27", "29", "33"], "num_clicks_accrued": [0, 0, 0, 0, 0, 0, 0, 0, 0, 0, 0, 0, 0], "stateRewards": ["", -1, 1, -5, -6, -78, 47, -13, 12, 48, -88, 20, 2, -3, -2, 13, -20, 37, -57, 14, -38, 30, 31, -2, -2, 8, 2, -23, 78, 28, 12, -74, -88, 8], "withholdReward": false, "trial_id": "mdp_trial_26", "block": "test", "trialIndex": 27, "score": 35.650000000000006, "costs": -19.349999999999998, "simulationMode": [null, null, null, null, null], "rewards": [-1, 1, -5, 12, 48], "path": ["0", "0", "1", "2", "3", "8", "9"], "rt": [31469, 92, 104, 96, 76], "actions": ["up", "up", "up", "left", "up"], "actionTimes": [32665, 33261, 33874, 34484, 35078], "queries": {"click": {"state": {"target": ["17", "5", "9", "32", "20", "21", "27", "29", "33"], "time": [1977, 5407, 8821, 12719, 16008, 19307, 22787, 26036, 29392]}, "edge": {"target": [], "time": []}}, "mouseover": {"state": {"target": ["15", "17", "17", "15", "6", "5", "9", "8", "26", "25", "30", "32", "20", "21", "21", "22", "24", "25", "29", "27", "10", "2", "10", "29", "26", "28", "25", "33", "30", "31", "12", "6", "5", "5"], "time": [1536, 1569, 1802, 2519, 2735, 3552, 7586, 9419, 9552, 9602, 9752, 10153, 13769, 18602, 19002, 19869, 20319, 20337, 20853, 21203, 23586, 23736, 24652, 25286, 26411, 26470, 27086, 27335, 29665, 29690, 29870, 29953, 30119, 30219]}, "edge": {"target": [], "time": []}}, "mouseout": {"state": {"target": ["19", "0", "15", "17", "17", "15", "6", "5", "9", "8", "26", "25", "30", "32", "20", "21", "21", "22", "24", "25", "29", "27", "10", "2", "10", "29", "26", "28", "25", "33", "30", "31", "12", "6", "5", "5"], "time": [402, 918, 1553, 1585, 2486, 2535, 2819, 6037, 9369, 9435, 9569, 9669, 9936, 12959, 18503, 18719, 19418, 20219, 20336, 20369, 20952, 23485, 23652, 23769, 24669, 26167, 26453, 26785, 27136, 29632, 29675, 29709, 29886, 29986, 30153, 30235]}, "edge": {"target": [], "time": []}}}, "displayed_time": "35.59", "trialTime": 36547, "trial_type": "mouselab-mdp", "trial_index": 34, "time_elapsed": 4044633, "internal_node_id": "0.0-6.0-1.0-25.0"}}, {"uniqueid": "w48202768:a41687625", "current_trial": 35, "dateTime": 1693664342163, "trialdata": {"revealed_states": [], "clicked_states": ["20"], "num_clicks_accrued": [0, 0, 0, 0, 0, 0, 0, 0, 0, 0, 0, 0, 0], "stateRewards": ["", 1, 2, -5, 14, 54, -14, -25, 16, -5, -87, 78, -1, 1, 3, -3, 52, 53, 53, -10, 73, -69, -48, 2, 3, 1, 8, -62, -7, 85, 7, 82, 52, -28], "withholdReward": false, "trial_id": "mdp_trial_27", "block": "test", "trialIndex": 28, "score": 63.85, "costs": -2.15, "simulationMode": [null, null, null, null, null], "rewards": [-1, 1, 3, -10, 73], "path": ["0", "0", "12", "13", "14", "19", "20"], "rt": [4882, 679, 260, 161, 177], "actions": ["right", "right", "right", "down", "right"], "actionTimes": [6160, 7364, 8139, 8805, 9488], "queries": {"click": {"state": {"target": ["20"], "time": [2103]}, "edge": {"target": [], "time": []}}, "mouseover": {"state": {"target": ["12", "13", "14", "20", "19", "31", "30", "33"], "time": [1394, 1412, 1446, 1994, 3294, 3644, 3678, 3778]}, "edge": {"target": [], "time": []}}, "mouseout": {"state": {"target": ["21", "0", "12", "13", "14", "20", "19", "31", "30"], "time": [627, 1379, 1411, 1444, 1478, 3278, 3327, 3661, 3694]}, "edge": {"target": [], "time": []}}}, "displayed_time": "15.53", "trialTime": 19204, "trial_type": "mouselab-mdp", "trial_index": 35, "time_elapsed": 4064015, "internal_node_id": "0.0-6.0-1.0-26.0"}}, {"uniqueid": "w48202768:a41687625", "current_trial": 36, "dateTime": 1693664374556, "trialdata": {"revealed_states": [], "clicked_states": ["20", "6", "11", "33", "17", "29", "21", "32"], "num_clicks_accrued": [0, 0, 0, 0, 0, 0, 0, 0, 0, 0, 0, 0, 0], "stateRewards": ["", 2, -4, 4, 9, 69, 9, -75, 12, -86, 66, 25, -1, 3, 2, -13, -88, -3, 1, 4, -69, 49, -84, 2, -1, 4, 2, -18, -81, -52, -15, -69, -54, 25], "withholdReward": false, "trial_id": "mdp_trial_28", "block": "test", "trialIndex": 29, "score": 39.8, "costs": -17.2, "simulationMode": [null, null, null, null, null], "rewards": [-1, 3, 2, 4, 49], "path": ["0", "0", "12", "13", "14", "19", "21"], "rt": [26958, 17, 102, 95, 106], "actions": ["right", "right", "right", "down", "down"], "actionTimes": [28133, 28666, 29285, 29896, 30505], "queries": {"click": {"state": {"target": ["20", "6", "11", "33", "17", "29", "21", "32"], "time": [1852, 4765, 8185, 11438, 14718, 17927, 21205, 24932]}, "edge": {"target": [], "time": []}}, "mouseover": {"state": {"target": ["12", "13", "14", "20", "14", "6", "4", "3", "8", "11", "25", "30", "33", "33", "18", "15", "17", "17", "15", "18", "1", "28", "26", "29", "26", "23", "0", "22", "21", "23", "28", "27", "3", "3", "10", "24", "32"], "time": [1332, 1365, 1384, 1698, 3499, 4165, 6098, 6316, 6448, 6549, 8765, 8783, 9082, 9448, 11915, 11949, 12032, 12315, 15099, 15135, 15199, 15315, 15399, 15782, 18782, 18882, 18932, 19115, 19399, 21767, 21848, 22399, 22732, 22950, 23015, 23132, 23282]}, "edge": {"target": [], "time": []}}, "mouseout": {"state": {"target": ["33", "30", "23", "23", "12", "13", "14", "20", "14", "6", "4", "3", "8", "11", "25", "30", "33", "33", "18", "15", "17", "17", "15", "18", "1", "28", "26", "29", "26", "23", "0", "22", "21", "23", "28", "27", "3", "3", "10", "24", "32", "21"], "time": [332, 365, 415, 665, 1348, 1383, 1400, 1932, 3583, 6032, 6215, 6399, 6499, 8682, 8782, 8999, 9216, 11754, 11932, 11999, 12099, 15082, 15133, 15149, 15218, 15365, 15448, 18748, 18817, 18915, 18966, 19165, 21617, 21815, 21882, 22549, 22798, 22999, 23049, 23165, 25197, 25499]}, "edge": {"target": [], "time": []}}}, "displayed_time": "31.02", "trialTime": 32135, "trial_type": "mouselab-mdp", "trial_index": 36, "time_elapsed": 4096408, "internal_node_id": "0.0-6.0-1.0-27.0"}}, {"uniqueid": "w48202768:a41687625", "current_trial": 37, "dateTime": 1693664390920, "trialdata": {"revealed_states": [], "clicked_states": ["20"], "num_clicks_accrued": [0, 0, 0, 0, 0, 0, 0, 0, 0, 0, 0, 0, 0], "stateRewards": ["", 1, -1, 4, 5, -32, 18, 20, 6, -88, -74, 9, -2, 1, -2, -14, 34, -77, -38, -1, 80, -36, 73, 2, 3, -8, 10, -48, -73, -71, -11, -22, 20, 54], "withholdReward": false, "trial_id": "mdp_trial_29", "block": "test", "trialIndex": 30, "score": 73.85, "costs": -2.15, "simulationMode": [null, null, null, null, null], "rewards": [-2, 1, -2, -1, 80], "path": ["0", "0", "12", "13", "14", "19", "20"], "rt": [4700, 90, 69, 165, 122], "actions": ["right", "right", "right", "down", "right"], "actionTimes": [5815, 6426, 7003, 7688, 8322], "queries": {"click": {"state": {"target": ["20"], "time": [1803]}, "edge": {"target": [], "time": []}}, "mouseover": {"state": {"target": ["12", "13", "19", "20", "19", "31", "30", "33"], "time": [1216, 1267, 1416, 1666, 2152, 2266, 2383, 2566]}, "edge": {"target": [], "time": []}}, "mouseout": {"state": {"target": ["13", "12", "0", "12", "13", "19", "20", "19", "31", "30"], "time": [582, 650, 1183, 1249, 1333, 1499, 2116, 2167, 2350, 2434]}, "edge": {"target": [], "time": []}}}, "displayed_time": "15.25", "trialTime": 16182, "trial_type": "mouselab-mdp", "trial_index": 37, "time_elapsed": 4112772, "internal_node_id": "0.0-6.0-1.0-28.0"}}, {"uniqueid": "w48202768:a41687625", "current_trial": 38, "dateTime": 1693664424165, "trialdata": {"revealed_states": [], "clicked_states": ["20", "29", "32", "5", "21", "11", "17", "33"], "num_clicks_accrued": [0, 0, 0, 0, 0, 0, 0, 0, 0, 0, 0, 0, 0], "stateRewards": ["", -1, 2, 5, -6, 13, -64, -47, 8, -79, -80, -33, 1, 2, -2, -16, 56, -71, -10, 3, 29, 44, 85, -1, 4, 5, 4, -36, -56, 19, 8, 52, -13, -2], "withholdReward": false, "trial_id": "mdp_trial_30", "block": "test", "trialIndex": 31, "score": 30.8, "costs": -17.2, "simulationMode": [null, null, null, null, null], "rewards": [1, 2, -2, 3, 44], "path": ["0", "0", "12", "13", "14", "19", "21"], "rt": [27856, 88, 134, 100, 114], "actions": ["right", "right", "right", "down", "down"], "actionTimes": [29339, 29932, 30578, 31193, 31826], "queries": {"click": {"state": {"target": ["20", "29", "32", "5", "21", "11", "17", "33"], "time": [2284, 5633, 9116, 12364, 15697, 19141, 22354, 26078]}, "edge": {"target": [], "time": []}}, "mouseover": {"state": {"target": ["12", "20", "12", "23", "24", "29", "29", "26", "28", "1", "15", "18", "12", "0", "31", "32", "31", "2", "4", "5", "3", "13", "21", "22", "12", "8", "9", "11", "8", "3", "4", "6", "17", "15", "18", "1", "28", "33", "30", "33", "30", "31"], "time": [1743, 2059, 2676, 2710, 2729, 2794, 3076, 6043, 6061, 6144, 7961, 8110, 8177, 8210, 8494, 8793, 9379, 9462, 9535, 9910, 13826, 14127, 14727, 15979, 15999, 16075, 16460, 17710, 19382, 19407, 19431, 19448, 21523, 22614, 22656, 22709, 22759, 23377, 23410, 23760, 26338, 26379]}, "edge": {"target": [], "time": []}}, "mouseout": {"state": {"target": ["33", "23", "0", "0", "12", "20", "12", "23", "24", "29", "29", "26", "28", "1", "15", "18", "12", "0", "31", "32", "31", "2", "4", "5", "3", "13", "21", "22", "12", "8", "9", "11", "8", "3", "4", "6", "17", "15", "18", "1", "28", "33", "30", "33", "30", "31"], "time": [676, 976, 1009, 1233, 1776, 2595, 2693, 2728, 2743, 2843, 6026, 6060, 6094, 6160, 8042, 8161, 8193, 8244, 8576, 9190, 9401, 9478, 9610, 13660, 13911, 14227, 15794, 15998, 16022, 16085, 17193, 19357, 19406, 19429, 19447, 19464, 22428, 22655, 22670, 22722, 22772, 23393, 23527, 26136, 26372, 26407]}, "edge": {"target": [], "time": []}}}, "displayed_time": "32.34", "trialTime": 33055, "trial_type": "mouselab-mdp", "trial_index": 38, "time_elapsed": 4146017, "internal_node_id": "0.0-6.0-1.0-29.0"}}, {"uniqueid": "w48202768:a41687625", "current_trial": 39, "dateTime": 1693664440715, "trialdata": {"revealed_states": [], "clicked_states": ["20", "29", "32"], "num_clicks_accrued": [0, 0, 0, 0, 0, 0, 0, 0, 0, 0, 0, 0, 0], "stateRewards": ["", 1, 1, -6, -2, 7, 77, 3, 16, -16, 66, 31, -1, 3, -8, -6, 33, -50, -48, 7, -60, -66, 36, 2, -3, 3, -7, -12, -61, -79, -4, 8, 74, -70], "withholdReward": false, "trial_id": "mdp_trial_31", "block": "test", "trialIndex": 32, "score": 65.55, "costs": -6.449999999999999, "simulationMode": [null, null, null, null, null], "rewards": [2, -3, 3, -4, 74], "path": ["0", "0", "23", "24", "25", "30", "32"], "rt": [11165, 145, 94, 120, 109], "actions": ["left", "left", "left", "down", "down"], "actionTimes": [12257, 12923, 13534, 14173, 14799], "queries": {"click": {"state": {"target": ["20", "29", "32"], "time": [1817, 5050, 8238]}, "edge": {"target": [], "time": []}}, "mouseover": {"state": {"target": ["12", "13", "14", "20", "0", "23", "26", "29", "26", "28", "24", "30", "30", "32", "18", "15", "16"], "time": [1205, 1223, 1256, 1572, 2131, 2156, 2258, 2672, 5805, 5840, 6355, 6555, 7122, 7256, 8572, 8678, 8889]}, "edge": {"target": [], "time": []}}, "mouseout": {"state": {"target": ["0", "12", "13", "14", "20", "0", "23", "26", "29", "26", "28", "24", "30", "30", "32", "18", "15", "16"], "time": [771, 1221, 1255, 1272, 2036, 2142, 2174, 2282, 5174, 5839, 5872, 6371, 6738, 7155, 8401, 8589, 8788, 15572]}, "edge": {"target": [], "time": []}}}, "displayed_time": "15.39", "trialTime": 16366, "trial_type": "mouselab-mdp", "trial_index": 39, "time_elapsed": 4162567, "internal_node_id": "0.0-6.0-1.0-30.0"}}, {"uniqueid": "w48202768:a41687625", "current_trial": 40, "dateTime": 1693664462029, "trialdata": {"revealed_states": [], "clicked_states": ["20", "11", "33", "17"], "num_clicks_accrued": [0, 0, 0, 0, 0, 0, 0, 0, 0, 0, 0, 0, 0], "stateRewards": ["", -1, 1, 8, -3, -24, 11, -65, -6, -77, 48, 44, -2, 1, -2, -7, -55, -35, 33, 8, -28, 19, -53, -1, -1, -5, -5, -70, 10, 44, 8, -58, -70, 51], "withholdReward": false, "trial_id": "mdp_trial_32", "block": "test", "trialIndex": 33, "score": 43.4, "costs": -8.6, "simulationMode": [null, null, null, null, null], "rewards": [-1, -1, -5, 8, 51], "path": ["0", "0", "23", "24", "25", "30", "33"], "rt": [15679, 49, 137, 83, 133], "actions": ["left", "left", "left", "down", "left"], "actionTimes": [16771, 17327, 17981, 18577, 19228], "queries": {"click": {"state": {"target": ["20", "11", "33", "17"], "time": [2263, 5523, 9329, 13601]}, "edge": {"target": [], "time": []}}, "mouseover": {"state": {"target": ["12", "13", "14", "20", "17", "15", "7", "2", "8", "11", "27", "26", "25", "33", "24", "23", "18", "15", "17"], "time": [1412, 1460, 1510, 1812, 2926, 2960, 3010, 3044, 3111, 3277, 6393, 6411, 6460, 7194, 9660, 9682, 9760, 9893, 10010]}, "edge": {"target": [], "time": []}}, "mouseout": {"state": {"target": ["16", "12", "13", "14", "20", "17", "15", "7", "2", "8", "11", "11", "27", "26", "25", "33", "24", "23", "18", "15", "17", "14"], "time": [293, 1443, 1493, 1527, 2368, 2944, 2977, 3027, 3060, 3263, 5623, 6377, 6410, 6444, 6827, 9450, 9680, 9693, 9810, 9977, 20110, 20143]}, "edge": {"target": [], "time": []}}}, "displayed_time": "19.75", "trialTime": 21136, "trial_type": "mouselab-mdp", "trial_index": 40, "time_elapsed": 4183881, "internal_node_id": "0.0-6.0-1.0-31.0"}}, {"uniqueid": "w48202768:a41687625", "current_trial": 41, "dateTime": 1693664485639, "trialdata": {"revealed_states": [], "clicked_states": ["20", "29", "33", "17", "11"], "num_clicks_accrued": [0, 0, 0, 0, 0, 0, 0, 0, 0, 0, 0, 0, 0], "stateRewards": ["", 2, 4, 4, 9, -88, -10, 44, 16, -54, 64, 78, 1, 2, 5, 16, 80, 36, 7, -4, 9, -47, -70, -1, -3, 6, -16, 11, 80, 28, 8, -1, 34, -17], "withholdReward": false, "trial_id": "mdp_trial_33", "block": "test", "trialIndex": 34, "score": 93.25, "costs": -10.75, "simulationMode": [null, null, null, null, null], "rewards": [2, 4, 4, 16, 78], "path": ["0", "0", "1", "2", "3", "8", "11"], "rt": [18304, 64, 78, 113, 114], "actions": ["up", "up", "up", "left", "left"], "actionTimes": [19464, 20046, 20644, 21260, 21879], "queries": {"click": {"state": {"target": ["20", "29", "33", "17", "11"], "time": [1819, 5193, 8626, 11825, 15285]}, "edge": {"target": [], "time": []}}, "mouseover": {"state": {"target": ["12", "13", "20", "19", "0", "23", "26", "29", "33", "24", "1", "2", "7", "6", "16", "17", "15", "7", "3", "8", "11", "25", "30", "32"], "time": [1397, 1447, 1530, 3730, 3797, 3830, 3880, 4446, 7947, 8914, 8965, 9000, 9048, 9330, 10563, 10897, 12380, 12547, 12613, 12697, 12980, 15830, 15914, 16663]}, "edge": {"target": [], "time": []}}, "mouseout": {"state": {"target": ["0", "12", "13", "20", "19", "0", "23", "26", "29", "29", "33", "24", "1", "2", "7", "6", "16", "17", "15", "7", "3", "8", "11", "25", "30", "32"], "time": [930, 1430, 1464, 3713, 3750, 3813, 3847, 3914, 5339, 6863, 8827, 8930, 8983, 9014, 9087, 10547, 10615, 12247, 12397, 12563, 12647, 12763, 15730, 15847, 16364, 23013]}, "edge": {"target": [], "time": []}}}, "displayed_time": "22.40", "trialTime": 23415, "trial_type": "mouselab-mdp", "trial_index": 41, "time_elapsed": 4207491, "internal_node_id": "0.0-6.0-1.0-32.0"}}, {"uniqueid": "w48202768:a41687625", "current_trial": 42, "dateTime": 1693664505508, "trialdata": {"revealed_states": [], "clicked_states": ["6", "32", "17", "29"], "num_clicks_accrued": [0, 0, 0, 0, 0, 0, 0, 0, 0, 0, 0, 0, 0], "stateRewards": ["", -2, -3, -6, -7, 9, 16, 65, 5, -41, 20, -25, -1, -4, 1, -11, -49, -4, 71, 1, 39, -62, 52, -2, -3, 7, -9, -28, -70, 84, 8, 24, -58, 82], "withholdReward": false, "trial_id": "mdp_trial_34", "block": "test", "trialIndex": 35, "score": 68.4, "costs": -8.6, "simulationMode": [null, null, null, null, null], "rewards": [-2, -3, 7, -9, 84], "path": ["0", "0", "23", "24", "25", "26", "29"], "rt": [15018, 67, 37, 98, 71], "actions": ["left", "left", "left", "up", "left"], "actionTimes": [16030, 16605, 17159, 17771, 18359], "queries": {"click": {"state": {"target": ["6", "32", "17", "29"], "time": [1979, 5256, 8544, 11928]}, "edge": {"target": [], "time": []}}, "mouseover": {"state": {"target": ["6", "7", "1", "23", "24", "31", "32", "32", "31", "16", "17", "15", "18", "1", "23", "24", "25", "29", "26", "23", "0", "22", "19", "21"], "time": [1859, 2637, 2690, 2770, 2820, 2937, 3171, 3237, 5704, 5820, 6303, 8953, 9004, 9104, 9221, 9320, 9704, 10187, 12221, 12303, 12337, 12436, 12570, 12987]}, "edge": {"target": [], "time": []}}, "mouseout": {"state": {"target": ["0", "6", "7", "1", "23", "24", "31", "32", "32", "31", "16", "17", "15", "18", "1", "23", "24", "25", "29", "26", "23", "0", "22", "19"], "time": [1220, 2603, 2670, 2720, 2787, 2871, 3004, 3187, 5346, 5721, 5854, 8920, 8988, 9021, 9170, 9270, 9686, 9736, 12186, 12237, 12321, 12371, 12503, 12786]}, "edge": {"target": [], "time": []}}}, "displayed_time": "18.87", "trialTime": 19675, "trial_type": "mouselab-mdp", "trial_index": 42, "time_elapsed": 4227360, "internal_node_id": "0.0-6.0-1.0-33.0"}}, {"uniqueid": "w48202768:a41687625", "current_trial": 43, "dateTime": 1693664536152, "trialdata": {"revealed_states": [], "clicked_states": ["17", "33", "6", "11", "21", "5", "27"], "num_clicks_accrued": [0, 0, 0, 0, 0, 0, 0, 0, 0, 0, 0, 0, 0], "stateRewards": ["", -2, -2, -3, -6, -15, -11, 41, -12, -63, -76, 2, -2, -3, 8, 9, -36, -2, -18, -16, -32, -85, -17, -2, 1, 5, -16, 82, 35, -88, -1, 80, -82, -20], "withholdReward": false, "trial_id": "mdp_trial_35", "block": "test", "trialIndex": 36, "score": 54.95, "costs": -15.05, "simulationMode": [null, null, null, null, null], "rewards": [-2, 1, 5, -16, 82], "path": ["0", "0", "23", "24", "25", "26", "27"], "rt": [25477, 81, 135, 92, 127], "actions": ["left", "left", "left", "up", "up"], "actionTimes": [26687, 27287, 27939, 28547, 29181], "queries": {"click": {"state": {"target": ["17", "33", "6", "11", "21", "5", "27"], "time": [1864, 5359, 8755, 12475, 15900, 19216, 22588]}, "edge": {"target": [], "time": []}}, "mouseover": {"state": {"target": ["12", "13", "17", "15", "12", "0", "23", "24", "25", "33", "24", "23", "1", "7", "6", "4", "3", "8", "11", "11", "2", "22", "19", "21", "19", "4", "5", "2", "24", "26", "29", "27", "26", "28", "12", "13", "14", "20"], "time": [1422, 1454, 1637, 2404, 2488, 2537, 2603, 2904, 3103, 5188, 7694, 7744, 7954, 8121, 8336, 11741, 11903, 11954, 12036, 12236, 12831, 13038, 13104, 13503, 16234, 16391, 16604, 20358, 21104, 21170, 21421, 21635, 23421, 23453, 23553, 23587, 23703, 24120]}, "edge": {"target": [], "time": []}}, "mouseout": {"state": {"target": ["21", "22", "0", "12", "13", "17", "15", "12", "0", "23", "24", "25", "33", "24", "23", "1", "7", "6", "4", "3", "8", "11", "11", "11", "2", "22", "19", "21", "19", "4", "5", "2", "24", "26", "29", "27", "27", "26", "28", "12", "13", "14", "20", "19"], "time": [519, 604, 1405, 1453, 1486, 2390, 2448, 2508, 2553, 2820, 3020, 3420, 5453, 7730, 7787, 7970, 8186, 11670, 11870, 11936, 12004, 12103, 12570, 12762, 12845, 13057, 13303, 16196, 16255, 16454, 19654, 20454, 21120, 21337, 21561, 22705, 23120, 23440, 23469, 23570, 23636, 23737, 30120, 30154]}, "edge": {"target": [], "time": []}}}, "displayed_time": "29.69", "trialTime": 30451, "trial_type": "mouselab-mdp", "trial_index": 43, "time_elapsed": 4258004, "internal_node_id": "0.0-6.0-1.0-34.0"}}, {"uniqueid": "w48202768:a41687625", "current_trial": 44, "dateTime": 1693664566328, "trialdata": {"revealed_states": [], "clicked_states": ["20", "11", "33", "5", "21", "27", "17"], "num_clicks_accrued": [0, 0, 0, 0, 0, 0, 0, 0, 0, 0, 0, 0, 0], "stateRewards": ["", -1, 3, 8, 9, -53, 20, -84, 2, -28, -62, -31, -1, -2, -7, 2, 51, 58, 45, -4, -17, -41, 36, 2, -2, -7, -15, 29, -54, -37, -16, -43, 65, -17], "withholdReward": false, "trial_id": "mdp_trial_36", "block": "test", "trialIndex": 37, "score": 34.95, "costs": -15.05, "simulationMode": [null, null, null, null, null], "rewards": [-1, -2, -7, 2, 58], "path": ["0", "0", "12", "13", "14", "15", "17"], "rt": [25227, 116, 158, 187, 143], "actions": ["right", "right", "right", "up", "right"], "actionTimes": [26188, 26836, 27499, 28193, 28850], "queries": {"click": {"state": {"target": ["20", "11", "33", "5", "21", "27", "17"], "time": [1659, 4977, 8365, 11985, 15184, 18436, 21843]}, "edge": {"target": [], "time": []}}, "mouseover": {"state": {"target": ["20", "14", "13", "8", "11", "26", "25", "30", "33", "25", "2", "3", "5", "7", "13", "19", "21", "22", "0", "28", "26", "29", "27", "7", "16", "17", "15", "13", "12", "32"], "time": [1404, 2089, 2108, 2389, 2539, 5938, 6040, 6139, 7006, 8839, 8939, 8988, 9455, 13155, 13238, 13305, 13639, 15574, 15623, 15711, 15755, 15988, 16355, 19588, 19638, 19889, 22172, 22223, 22241, 23139]}, "edge": {"target": [], "time": []}}, "mouseout": {"state": {"target": ["22", "0", "20", "14", "13", "8", "11", "26", "25", "30", "33", "25", "2", "3", "5", "7", "13", "19", "21", "22", "0", "28", "26", "29", "27", "7", "16", "17", "15", "13", "12"], "time": [405, 1242, 1756, 2107, 2147, 2438, 5689, 5989, 6106, 6438, 8486, 8855, 8956, 9155, 12772, 13191, 13272, 13355, 15532, 15589, 15640, 15722, 15939, 16125, 19522, 19605, 19672, 22162, 22214, 22239, 22272]}, "edge": {"target": [], "time": []}}}, "displayed_time": "29.36", "trialTime": 29979, "trial_type": "mouselab-mdp", "trial_index": 44, "time_elapsed": 4288180, "internal_node_id": "0.0-6.0-1.0-35.0"}}, {"uniqueid": "w48202768:a41687625", "current_trial": 45, "dateTime": 1693664584568, "trialdata": {"revealed_states": [], "clicked_states": ["21", "9", "14", "20"], "num_clicks_accrued": [0, 0, 0, 0, 0, 0, 0, 0, 0, 0, 0, 0, 0], "stateRewards": ["", -1, -4, -1, -5, -28, -23, -15, -15, -38, 59, -87, 2, 2, -5, 9, -55, -39, -71, -6, 85, -85, -11, -1, -2, 5, -10, 1, 25, 41, -4, 69, -35, 86], "withholdReward": false, "trial_id": "mdp_trial_37", "block": "test", "trialIndex": 38, "score": 70.6, "costs": -7.4, "simulationMode": [null, null, null, null, null], "rewards": [2, 2, -5, -6, 85], "path": ["0", "0", "12", "13", "14", "19", "20"], "rt": [12969, 115, 122, 181, 129], "actions": ["right", "right", "right", "down", "right"], "actionTimes": [14036, 14673, 15309, 16004, 16649], "queries": {"click": {"state": {"target": ["21", "9", "14", "20"], "time": [1846, 5173, 8720, 10084]}, "edge": {"target": [], "time": []}}, "mouseover": {"state": {"target": ["12", "19", "21", "13", "3", "9", "2", "18", "13", "14", "20", "14", "20", "19", "22", "22"], "time": [1218, 1318, 1702, 2752, 2885, 3076, 7102, 7168, 7235, 7268, 7635, 8502, 9885, 10602, 12368, 13140]}, "edge": {"target": [], "time": []}}, "mouseout": {"state": {"target": ["32", "0", "12", "19", "21", "13", "3", "9", "2", "18", "13", "14", "20", "14", "20", "19", "22", "22"], "time": [485, 1201, 1268, 1485, 1943, 2769, 2968, 7036, 7118, 7185, 7251, 7308, 8352, 9435, 10535, 10686, 12836, 17635]}, "edge": {"target": [], "time": []}}}, "displayed_time": "17.15", "trialTime": 18049, "trial_type": "mouselab-mdp", "trial_index": 45, "time_elapsed": 4306420, "internal_node_id": "0.0-6.0-1.0-36.0"}}, {"uniqueid": "w48202768:a41687625", "current_trial": 46, "dateTime": 1693664600832, "trialdata": {"revealed_states": [], "clicked_states": ["17"], "num_clicks_accrued": [0, 0, 0, 0, 0, 0, 0, 0, 0, 0, 0, 0, 0], "stateRewards": ["", -1, -4, -6, -15, 21, -67, -63, 9, 51, 69, -14, -1, 3, 8, -8, 39, 72, 63, 15, 19, 47, 15, 1, 4, 5, 16, -18, 34, 35, -14, -80, 40, 1], "withholdReward": false, "trial_id": "mdp_trial_38", "block": "test", "trialIndex": 39, "score": 71.85, "costs": -2.15, "simulationMode": [null, null, null, null, null], "rewards": [-1, 3, 8, -8, 72], "path": ["0", "0", "12", "13", "14", "15", "17"], "rt": [5175, 69, 185, 202, 161], "actions": ["right", "right", "right", "up", "right"], "actionTimes": [6265, 6860, 7551, 8266, 8946], "queries": {"click": {"state": {"target": ["17"], "time": [1968]}, "edge": {"target": [], "time": []}}, "mouseover": {"state": {"target": ["18", "15", "17", "15", "18", "23", "24", "30", "32"], "time": [1280, 1329, 1696, 2447, 2480, 2563, 2780, 3697, 4197]}, "edge": {"target": [], "time": []}}, "mouseout": {"state": {"target": ["0", "18", "15", "17", "15", "18", "23", "24", "30", "32"], "time": [1213, 1297, 1363, 2446, 2464, 2497, 2713, 2946, 3847, 15799]}, "edge": {"target": [], "time": []}}}, "displayed_time": "15.23", "trialTime": 16075, "trial_type": "mouselab-mdp", "trial_index": 46, "time_elapsed": 4322684, "internal_node_id": "0.0-6.0-1.0-37.0"}}, {"uniqueid": "w48202768:a41687625", "current_trial": 47, "dateTime": 1693664618256, "trialdata": {"revealed_states": [], "clicked_states": ["20"], "num_clicks_accrued": [0, 0, 0, 0, 0, 0, 0, 0, 0, 0, 0, 0, 0], "stateRewards": ["", -2, 1, -5, 2, -68, 80, 33, 10, 67, -59, 20, -1, -3, 3, 14, 74, -2, 24, -16, 63, 80, 46, -1, 4, 6, 12, 83, -38, -43, -4, 43, 14, -79], "withholdReward": false, "trial_id": "mdp_trial_39", "block": "test", "trialIndex": 40, "score": 43.85, "costs": -2.15, "simulationMode": [null, null, null, null, null], "rewards": [-1, -3, 3, -16, 63], "path": ["0", "0", "12", "13", "14", "19", "20"], "rt": [4702, 72, 79, 101, 164], "actions": ["right", "right", "right", "down", "right"], "actionTimes": [5887, 6477, 7066, 7673, 8352], "queries": {"click": {"state": {"target": ["20"], "time": [1910]}, "edge": {"target": [], "time": []}}, "mouseover": {"state": {"target": ["12", "13", "20", "13", "10", "11"], "time": [1303, 1337, 1686, 2288, 2408, 2770]}, "edge": {"target": [], "time": []}}, "mouseout": {"state": {"target": ["0", "12", "13", "20", "13", "10", "11"], "time": [1286, 1321, 1354, 2221, 2303, 2438, 9403]}, "edge": {"target": [], "time": []}}}, "displayed_time": "15.32", "trialTime": 17155, "trial_type": "mouselab-mdp", "trial_index": 47, "time_elapsed": 4340108, "internal_node_id": "0.0-6.0-1.0-38.0"}}, {"uniqueid": "w48202768:a41687625", "current_trial": 48, "dateTime": 1693664638866, "trialdata": {"revealed_states": [], "clicked_states": ["17", "33", "6", "11"], "num_clicks_accrued": [0, 0, 0, 0, 0, 0, 0, 0, 0, 0, 0, 0, 0], "stateRewards": ["", -2, 2, 8, -6, -25, 3, 87, 2, -62, -2, 74, -2, -1, 2, -1, 79, 49, -37, -14, 5, 67, -9, -1, 2, -2, 5, 15, 38, 32, -14, -38, -38, 30], "withholdReward": false, "trial_id": "mdp_trial_40", "block": "test", "trialIndex": 41, "score": 75.4, "costs": -8.6, "simulationMode": [null, null, null, null, null], "rewards": [-2, 2, 8, 2, 74], "path": ["0", "0", "1", "2", "3", "8", "11"], "rt": [14747, 84, 63, 101, 79], "actions": ["up", "up", "up", "left", "left"], "actionTimes": [16017, 16616, 17191, 17795, 18394], "queries": {"click": {"state": {"target": ["17", "33", "6", "11"], "time": [1941, 5415, 8750, 12014]}, "edge": {"target": [], "time": []}}, "mouseover": {"state": {"target": ["12", "13", "14", "17", "15", "18", "31", "30", "33", "25", "10", "3", "6", "4", "11", "8", "13", "19", "21"], "time": [1394, 1444, 1477, 1694, 2280, 2353, 2559, 2674, 3161, 5964, 6047, 6129, 7110, 9211, 10594, 12323, 12420, 12476, 12861]}, "edge": {"target": [], "time": []}}, "mouseout": {"state": {"target": ["10", "1", "12", "13", "14", "17", "15", "18", "31", "30", "33", "25", "10", "3", "6", "4", "11", "11", "8", "13", "19", "21"], "time": [627, 743, 1411, 1461, 1527, 2237, 2335, 2375, 2637, 2711, 5536, 5997, 6063, 6278, 8883, 9227, 12145, 12310, 12341, 12438, 12717, 19494]}, "edge": {"target": [], "time": []}}}, "displayed_time": "18.91", "trialTime": 20390, "trial_type": "mouselab-mdp", "trial_index": 48, "time_elapsed": 4360718, "internal_node_id": "0.0-6.0-1.0-39.0"}}, {"uniqueid": "w48202768:a41687625", "current_trial": 49, "dateTime": 1693664673475, "trialdata": {"rt": 34606, "response": {"Q0": "$-2 to $2", "Q1": "$-16 to $16", "Q2": "$-88 to $88", "Q3": "The cost for clicking on nodes varied between nodes.", "Q4": "Very motivated"}, "question_order": [0, 1, 2, 3, 4], "trial_id": "final_quiz_control", "trial_type": "survey-multi-choice", "trial_index": 49, "time_elapsed": 4395327, "internal_node_id": "0.0-6.0-2.0"}}, {"uniqueid": "w48202768:a41687625", "current_trial": 50, "dateTime": 1693664916758, "trialdata": {"rt": 243271, "response": {"Q0": "I tried at first to find a path from the beginning but I then saw the bonuses further along the nodes were higher so then I started to inspect the nodes at the end only. I tended to only go for bonuses over $45 dollars to try to minimise the amount lost from inspecting.", "Q1": "Yes, I stopped inspecting the first nodes as it wasn't worthwhile doing as the bigger bonuses were on the furthest nodes. I also tried to stop inspecting all the nodes at the ends as I felt I was losing too much money so whenever I saw a decent enough bonus I cut losses and chose the node.", "Q2": "It was quite difficult not inspecting all the nodes but I felt as if due to the randomness of the game I couldn't find a solid strategy to get a big bonus so I opted to cut losses where I could."}, "trial_id": "self_report_control", "trial_type": "survey-text", "trial_index": 50, "time_elapsed": 4638610, "internal_node_id": "0.0-6.0-3.0"}}, {"uniqueid": "w48202768:a41687625", "current_trial": 51, "dateTime": 1693664958878, "trialdata": {"rt": 42117, "response": {"Q0": "Strongly disagree", "Q1": "Disagree", "Q2": "Neither disagree nor agree", "Q3": "Disagree", "Q4": "Agree", "Q5": "Agree", "Q6": "Disagree"}, "question_order": [0, 1, 2, 3, 4, 5, 6], "trial_id": "self_report_2", "trial_type": "survey-multi-choice", "trial_index": 51, "time_elapsed": 4680730, "internal_node_id": "0.0-6.0-4.0"}}, {"uniqueid": "w48202768:a41687625", "current_trial": 52, "dateTime": 1693664982281, "trialdata": {"rt": 23394, "response": {"gender": "male", "age": "21", "colorblind": "0", "effort": "0"}, "trial_type": "survey-html-form", "trial_index": 52, "time_elapsed": 4704133, "internal_node_id": "0.0-6.0-5.0"}}, {"uniqueid": "w48202768:a41687625", "current_trial": 53, "dateTime": 1693665087533, "trialdata": {"rt": 105248, "response": {"Q0": "The only thing I would say is the delay between clicking the node on the furthest ones made it a bit offputting.", "Q1": "No", "Q2": "I hope my explanations have been useful if there is anything for me to clarify in terms of strategies please let me know."}, "trial_type": "survey-text", "trial_index": 53, "time_elapsed": 4809385, "internal_node_id": "0.0-6.0-6.0"}}, {"uniqueid": "w48202768:a41687625", "current_trial": 54, "dateTime": 1693665112359, "trialdata": {"rt": 24824, "stimulus": "<h1>Completion Code Instructions (1/2)</h1>\n<br><br><br><br>\nYou have reached the end of the experiment! The completion code consists of two parts: (1) a code with 2 characters (2) a code with 6 characters. On this page, you will receive the second part of the code. The first part of the completion code will be on the next page.\n<br><br>\nThe second part of your completion code is: <b>EWEK22</b>\n<br><br>\nPlease note this down. Then, press 'Next' in order to find the first part of your completion code. Once the data has been saved, you will receive this code either in this window or in the original browser window where you started the experiment.\n <br><br>\n<h2 style='color: red;'>Note: this is <strong>NOT</strong> the full completion code. Copy this down and click 'Next' to get the full completion code on the next page.</h2>", "response": 0, "trial_type": "html-button-response", "trial_index": 54, "time_elapsed": 4834211, "internal_node_id": "0.0-6.0-7.0"}}, {"uniqueid": "w48202768:a41687625", "current_trial": 55, "dateTime": 1693665113368, "trialdata": {"success": true, "trial_type": "fullscreen", "trial_index": 55, "time_elapsed": 4835220, "internal_node_id": "0.0-7.0"}}], "questiondata": {"params": {"CODE": "C6DMOQA6", "MIN_TIME": 14, "inspectCost": 1, "startTime": "Sat Sep 02 2023 14:11:17 GMT+0100 (British Summer Time)", "bonusRate": 0.002, "variance": "1_2_4_8_44", "branching": "31123"}, "final_score": 2207.65}, "eventdata": [{"eventtype": "initialized", "value": null, "timestamp": 1693660277181, "interval": 0}, {"eventtype": "window_resize", "value": [1024, 768], "timestamp": 1693660277181, "interval": 0}, {"eventtype": "focus", "value": "on", "timestamp": 1693660277278, "interval": 97}, {"eventtype": "window_resize", "value": [1024, 768], "timestamp": 1693660277489, "interval": 211}, {"eventtype": "focus", "value": "off", "timestamp": 1693660281228, "interval": 3739}, {"eventtype": "focus", "value": "on", "timestamp": 1693661574035, "interval": 1292807}, {"eventtype": "focus", "value": "off", "timestamp": 1693661575278, "interval": 1243}, {"eventtype": "focus", "value": "on", "timestamp": 1693663177773, "interval": 1602495}, {"eventtype": "window_resize", "value": [1920, 1080], "timestamp": 1693663180026, "interval": 2253}, {"eventtype": "window_resize", "value": [1024, 768], "timestamp": 1693665112794, "interval": 1932768}], "useragent": "Mozilla/5.0 (Windows NT 10.0; Win64; x64; rv:109.0) Gecko/20100101 Firefox/117.0", "mode": "live", "id": "w48202768:a41687625", "status": "user data saved", "Beginhit": "2023-09-02 13:11:16.036944", "Beginexp": "2023-09-02 13:59:40.814383", "Endhit": "2023-09-02 14:31:54.139409", "psiturkStatus": 3, "browser": "<redacted>", "platform": "windows", "language": "en-GB"}