{"condition": 0, "counterbalance": 0, "assignmentId": "a15710716", "workerId": "w41472627", "hitId": "h49853970", "currenttrial": 54, "bonus": 0, "data": [{"uniqueid": "w41472627:a15710716", "current_trial": 0, "dateTime": 1693580274888, "trialdata": {"success": true, "trial_type": "fullscreen", "trial_index": 0, "time_elapsed": 7899, "internal_node_id": "0.0-0.0"}}, {"uniqueid": "w41472627:a15710716", "current_trial": 1, "dateTime": 1693580306058, "trialdata": {"view_history": [{"page_index": 0, "viewing_time": 31154}], "rt": 31155, "trial_id": "exp_instructions_control", "trial_type": "instructions", "trial_index": 1, "time_elapsed": 39069, "internal_node_id": "0.0-1.0"}}, {"uniqueid": "w41472627:a15710716", "current_trial": 2, "dateTime": 1693580594321, "trialdata": {"view_history": [{"page_index": 0, "viewing_time": 94007}, {"page_index": 1, "viewing_time": 113777}, {"page_index": 2, "viewing_time": 32622}, {"page_index": 3, "viewing_time": 47853}], "rt": 288259, "trial_id": "mouselab_instructions_1_control", "trial_type": "instructions", "trial_index": 2, "time_elapsed": 327332, "internal_node_id": "0.0-2.0-1.0"}}, {"uniqueid": "w41472627:a15710716", "current_trial": 3, "dateTime": 1693580706806, "trialdata": {"revealed_states": [], "clicked_states": ["12", "13", "14", "19", "15", "18", "21", "23", "1", "2", "3", "8", "11", "9", "5"], "num_clicks_accrued": [0, 0, 0, 0, 0, 0, 0, 0, 0, 0, 0, 0, 0], "stateRewards": ["", -10, -10, 10, 10, 10, -10, -10, 10, 10, -10, 10, -10, 10, 10, 10, 10, 10, 10, 10, -10, -10, -10, -10, 10, -10, -10, -10, -10, -10, -10, 10, 10, 10], "withholdReward": false, "trial_id": "practice_1", "block": "test", "trialIndex": 0, "score": 6, "costs": -7.5, "simulationMode": [null, null, null, null, null], "rewards": [-10, 10, 10, 10, -10], "path": ["0", "0", "12", "13", "14", "19", "21"], "rt": [78932, 9189, 5980, 799, 786], "actions": ["right", "right", "right", "down", "down"], "actionTimes": [81819, 91507, 98013, 99347, 100648], "queries": {"click": {"state": {"target": ["12", "13", "14", "19", "15", "18", "21", "23", "1", "2", "3", "8", "11", "9", "5"], "time": [7661, 11597, 13828, 15861, 18644, 22621, 28873, 33028, 35006, 36617, 41081, 44511, 46707, 49706, 53530]}, "edge": {"target": [], "time": []}}, "mouseover": {"state": {"target": ["1", "1", "0", "12", "13", "14", "19", "15", "15", "16", "18", "15", "16", "15", "14", "21", "0", "23", "1", "2", "3", "2", "2", "8", "11", "9", "4", "6", "4", "5", "4", "7", "1", "1", "2", "23", "24", "23", "22", "21", "17", "17", "13", "12", "12"], "time": [2913, 4679, 6127, 7114, 10496, 13277, 15029, 17812, 18147, 21510, 22078, 26377, 26777, 27948, 27973, 28362, 31880, 32497, 34460, 36073, 40309, 43250, 43636, 43995, 45678, 48380, 51726, 51828, 52093, 53043, 54338, 56727, 57076, 57863, 63327, 64559, 64793, 70012, 72777, 72994, 73344, 75176, 78709, 80493, 80942]}, "edge": {"target": [], "time": []}}, "mouseout": {"state": {"target": ["0", "1", "1", "0", "12", "13", "14", "14", "19", "19", "15", "15", "16", "18", "15", "16", "15", "14", "21", "0", "23", "1", "2", "3", "2", "2", "8", "11", "9", "4", "6", "4", "5", "4", "7", "1", "1", "2", "23", "24", "23", "22", "21", "17", "17", "13", "12", "12", "13", "0", "0", "12", "13", "13"], "time": [1544, 3280, 5998, 6479, 10396, 12898, 14575, 14979, 16966, 17761, 17846, 21167, 21711, 25827, 26410, 27930, 27966, 27989, 30580, 31977, 33756, 35125, 39978, 43215, 43280, 43662, 45487, 48321, 51660, 51804, 52045, 52877, 54264, 54438, 56761, 57267, 63022, 64461, 64592, 66143, 70044, 72877, 73016, 74631, 78662, 78743, 80540, 84208, 85524, 86992, 89442, 89776, 89864, 109293]}, "edge": {"target": [], "time": []}}}, "displayed_time": "101.16", "trialTime": 110432, "trial_type": "mouselab-mdp", "trial_index": 3, "time_elapsed": 439815, "internal_node_id": "0.0-2.0-2.0-0.0"}}, {"uniqueid": "w41472627:a15710716", "current_trial": 4, "dateTime": 1693580796024, "trialdata": {"revealed_states": [], "clicked_states": ["1", "2", "3", "8", "9", "11", "4", "6", "7", "12", "13", "14", "19", "21", "23", "24", "25", "26", "27", "30", "32", "33", "31", "28", "29", "10", "5", "16", "15", "18", "17", "20", "22"], "num_clicks_accrued": [0, 0, 0, 0, 0, 0, 0, 0, 0, 0, 0, 0, 0], "stateRewards": ["", -10, -10, -10, -10, 10, 10, 10, -10, 10, -10, -10, 10, 10, -10, 10, 10, -10, 10, -10, 10, 10, 10, -10, 10, -10, 10, -10, 10, 10, 10, -10, -10, -10], "withholdReward": false, "trial_id": "practice_2", "block": "test", "trialIndex": 1, "score": 17, "costs": -16.5, "simulationMode": [null, null, null, null, null], "rewards": [10, 10, -10, 10, 10], "path": ["0", "0", "12", "13", "14", "15", "16"], "rt": [65059, 2226, 1655, 940, 333], "actions": ["right", "right", "right", "up", "up"], "actionTimes": [74427, 77180, 79359, 80827, 81689], "queries": {"click": {"state": {"target": ["1", "2", "3", "8", "9", "11", "4", "6", "7", "12", "13", "14", "19", "21", "23", "24", "25", "26", "27", "30", "32", "33", "31", "28", "29", "10", "5", "16", "15", "18", "17", "20", "22"], "time": [11922, 14250, 16430, 18495, 20705, 25649, 27590, 29742, 31124, 32832, 34388, 35730, 37740, 38931, 41163, 42519, 43769, 44921, 46076, 47436, 49002, 51218, 52994, 54726, 56211, 58562, 61264, 62584, 63726, 64938, 66050, 67305, 68779]}, "edge": {"target": [], "time": []}}, "mouseover": {"state": {"target": ["0", "0", "1", "2", "3", "8", "9", "8", "11", "11", "3", "4", "7", "6", "7", "12", "12", "13", "14", "19", "21", "23", "28", "23", "24", "25", "26", "27", "30", "32", "33", "33", "31", "24", "28", "26", "29", "2", "10", "10", "11", "8", "3", "6", "5", "6", "16", "15", "18", "17", "17", "20", "19", "22", "12"], "time": [9685, 10220, 11177, 13136, 15786, 17835, 19917, 22819, 23184, 24687, 26684, 26835, 28435, 29035, 30535, 31647, 32097, 33902, 35191, 37185, 38486, 40000, 40349, 40766, 42042, 43200, 44527, 45530, 46736, 48366, 50037, 50466, 52331, 53805, 54166, 55259, 55754, 57381, 57612, 58018, 59349, 59950, 59976, 60317, 60799, 61791, 62138, 62961, 64562, 65305, 65604, 66893, 67847, 68251, 73567]}, "edge": {"target": [], "time": []}}, "mouseout": {"state": {"target": ["0", "0", "0", "1", "2", "3", "8", "9", "8", "11", "11", "3", "4", "7", "4", "6", "7", "12", "12", "13", "14", "19", "21", "23", "28", "23", "24", "25", "26", "27", "26", "25", "30", "30", "32", "33", "33", "31", "24", "28", "26", "29", "2", "10", "10", "11", "8", "3", "6", "5", "6", "16", "15", "18", "15", "17", "17", "20", "19", "22", "12", "12"], "time": [8184, 9787, 10253, 12985, 15691, 17736, 19770, 22769, 22985, 23767, 26563, 26734, 28307, 28867, 28985, 30231, 31585, 31701, 33758, 35023, 37017, 38213, 39924, 40018, 40384, 41290, 43068, 44219, 45362, 46506, 46603, 46663, 47569, 48278, 49974, 50068, 51846, 53104, 53864, 55207, 55312, 56688, 57591, 57634, 59171, 59932, 59967, 60001, 60366, 61722, 61819, 62922, 64299, 65232, 65274, 65369, 66455, 67787, 67970, 70559, 84163, 85289]}, "edge": {"target": [], "time": []}}}, "displayed_time": "82.21", "trialTime": 88513, "trial_type": "mouselab-mdp", "trial_index": 4, "time_elapsed": 529033, "internal_node_id": "0.0-2.0-2.0-1.0"}}, {"uniqueid": "w41472627:a15710716", "current_trial": 5, "dateTime": 1693580864763, "trialdata": {"view_history": [{"page_index": 0, "viewing_time": 52689}, {"page_index": 1, "viewing_time": 16040}], "rt": 68729, "trial_id": "mouselab_instructions_2_control", "trial_type": "instructions", "trial_index": 5, "time_elapsed": 597774, "internal_node_id": "0.0-2.0-3.0"}}, {"uniqueid": "w41472627:a15710716", "current_trial": 6, "dateTime": 1693580923663, "trialdata": {"rt": 58891, "response": {"Q0": "The cost for clicking on nodes may vary between nodes.", "Q1": "The better I perform the higher my bonus will be.", "Q2": "No, the amount of cash at each node of the web may be different each time.", "Q3": "To get the highest total score.", "Q4": "Only before moving the spider.", "Q5": "3 seconds"}, "question_order": [0, 1, 2, 3, 4, 5], "correct": {"Q0": "The cost for clicking on nodes may vary between nodes.", "Q1": "The better I perform the higher my bonus will be.", "Q2": "No, the amount of cash at each node of the web may be different each time.", "Q3": "To get the highest total score.", "Q4": "Only before moving the spider.", "Q5": "3 seconds"}, "trial_id": "mouselab_quiz_control", "trial_type": "survey-multi-choice", "trial_index": 6, "time_elapsed": 656674, "internal_node_id": "0.0-2.0-4.0"}}, {"uniqueid": "w41472627:a15710716", "current_trial": 7, "dateTime": 1693580936344, "trialdata": {"rt": 12663, "response": {"Q0": "No"}, "question_order": [0], "trial_id": "repeat_check", "trial_type": "survey-multi-choice", "trial_index": 7, "time_elapsed": 669354, "internal_node_id": "0.0-4.0-0.0"}}, {"uniqueid": "w41472627:a15710716", "current_trial": 8, "dateTime": 1693580966184, "trialdata": {"rt": 29829, "stimulus": "\n<h1> Get ready to start the game! </h1>\n\nThank you for reading the instructions. Get ready start with the 40 rounds of this game.\n<br><br>\nIf you need to take a break, feel free to take one after the end of a round, before continuing to the next one.\n<br><br>\nRemember, the more money the spider gets, the bigger your bonus will be!\n<br><br>\n<div style='text-align: center;'>Press <code>space</code> to begin.</div>\n\n<br><br>\n(If, at any point, the <code>space</code> key does not take you to the next page, click once on the text and try again.)", "response": " ", "trial_id": "mdp_ready", "trial_type": "html-keyboard-response", "trial_index": 8, "time_elapsed": 699195, "internal_node_id": "0.0-6.0-0.0"}}, {"uniqueid": "w41472627:a15710716", "current_trial": 9, "dateTime": 1693581011006, "trialdata": {"revealed_states": [], "clicked_states": ["1", "3", "11", "4", "12", "13", "14", "19", "21", "23", "24", "25", "26", "27", "30"], "num_clicks_accrued": [0, 0, 0, 0, 0, 0, 0, 0, 0, 0, 0, 0, 0], "stateRewards": ["", 2, 3, -3, 12, -43, 81, -82, -15, 58, -7, -75, -1, -1, 3, -5, 50, -25, -8, 4, 66, 65, -66, 2, -4, 2, -1, -10, 10, 37, 11, 88, -37, 8], "withholdReward": false, "trial_id": "mdp_trial_1", "block": "test", "trialIndex": 2, "score": 49, "costs": -20.999999999999996, "simulationMode": [null, null, null, null, null], "rewards": [-1, -1, 3, 4, 65], "path": ["0", "0", "12", "13", "14", "19", "21"], "rt": [32080, 266, 1015, 533, 313], "actions": ["right", "right", "right", "down", "down"], "actionTimes": [34152, 34944, 36459, 37493, 38325], "queries": {"click": {"state": {"target": ["1", "3", "11", "4", "12", "13", "14", "19", "21", "23", "24", "25", "26", "27", "30"], "time": [3662, 6158, 8935, 10516, 12607, 14708, 16318, 18744, 20577, 22644, 24551, 26339, 28264, 29841, 31396]}, "edge": {"target": [], "time": []}}, "mouseover": {"state": {"target": ["1", "2", "3", "8", "11", "8", "4", "6", "6", "4", "7", "12", "13", "14", "19", "21", "23", "24", "25", "26", "27", "30", "30", "32", "12"], "time": [3140, 4306, 5539, 6855, 8356, 9483, 9571, 9604, 9902, 10080, 11530, 12021, 13116, 15144, 16964, 19323, 21552, 23409, 25180, 27016, 28793, 30552, 30925, 32218, 33605]}, "edge": {"target": [], "time": []}}, "mouseout": {"state": {"target": ["28", "23", "1", "2", "3", "8", "11", "8", "3", "4", "6", "6", "4", "4", "7", "12", "13", "14", "19", "21", "23", "24", "25", "26", "27", "25", "30", "30", "32"], "time": [604, 854, 4137, 5357, 6689, 8222, 9453, 9528, 9560, 9596, 9673, 9953, 10638, 10977, 11601, 12722, 15078, 16813, 19219, 21101, 23222, 25095, 26918, 28734, 30435, 30513, 30581, 32089, 33022]}, "edge": {"target": [], "time": []}}}, "displayed_time": "38.83", "trialTime": 43781, "trial_type": "mouselab-mdp", "trial_index": 9, "time_elapsed": 744016, "internal_node_id": "0.0-6.0-1.0-0.0"}}, {"uniqueid": "w41472627:a15710716", "current_trial": 10, "dateTime": 1693581034530, "trialdata": {"revealed_states": [], "clicked_states": ["12"], "num_clicks_accrued": [0, 0, 0, 0, 0, 0, 0, 0, 0, 0, 0, 0, 0], "stateRewards": ["", -1, 3, 2, 9, 41, 4, -46, -12, -54, -87, -25, 2, 3, -1, 11, -77, 12, -33, -9, -32, 35, 72, 1, 3, -7, 4, 37, 65, -73, 6, 77, -43, 8], "withholdReward": false, "trial_id": "mdp_trial_2", "block": "test", "trialIndex": 3, "score": 28.6, "costs": -1.4, "simulationMode": [null, null, null, null, null], "rewards": [2, 3, -1, -9, 35], "path": ["0", "0", "12", "13", "14", "19", "21"], "rt": [3321, 1795, 8672, 508, 750], "actions": ["right", "right", "right", "down", "down"], "actionTimes": [5304, 7653, 16844, 17857, 19133], "queries": {"click": {"state": {"target": ["12"], "time": [3624]}, "edge": {"target": [], "time": []}}, "mouseover": {"state": {"target": ["12"], "time": [2895]}, "edge": {"target": [], "time": []}}, "mouseout": {"state": {"target": ["0", "12", "14", "13", "12", "1"], "time": [2703, 8735, 12673, 12713, 12744, 15614]}, "edge": {"target": [], "time": []}}}, "displayed_time": "19.63", "trialTime": 22546, "trial_type": "mouselab-mdp", "trial_index": 10, "time_elapsed": 767540, "internal_node_id": "0.0-6.0-1.0-1.0"}}, {"uniqueid": "w41472627:a15710716", "current_trial": 11, "dateTime": 1693581052955, "trialdata": {"revealed_states": [], "clicked_states": [], "num_clicks_accrued": [0, 0, 0, 0, 0, 0, 0, 0, 0, 0, 0, 0, 0], "stateRewards": ["", 1, -3, -4, -11, -56, 61, -47, -16, -28, -9, 69, -2, -3, -4, -8, 40, -86, 59, -4, 80, 27, 54, -1, 3, -1, 8, 67, 23, 50, 6, 83, -43, -29], "withholdReward": false, "trial_id": "mdp_trial_3", "block": "test", "trialIndex": 4, "score": 14, "costs": 0, "simulationMode": [null, null, null, null, null], "rewards": [-2, -3, -4, -4, 27], "path": ["0", "0", "12", "13", "14", "19", "21"], "rt": [6679, 395, 1991, 1251, 368], "actions": ["right", "right", "right", "down", "down"], "actionTimes": [8995, 9894, 12401, 14178, 15075], "queries": {"click": {"state": {"target": [], "time": []}, "edge": {"target": [], "time": []}}, "mouseover": {"state": {"target": ["0", "12"], "time": [4696, 7258]}, "edge": {"target": [], "time": []}}, "mouseout": {"state": {"target": ["0"], "time": [4939]}, "edge": {"target": [], "time": []}}}, "displayed_time": "16.31", "trialTime": 17532, "trial_type": "mouselab-mdp", "trial_index": 11, "time_elapsed": 785964, "internal_node_id": "0.0-6.0-1.0-2.0"}}, {"uniqueid": "w41472627:a15710716", "current_trial": 12, "dateTime": 1693581083343, "trialdata": {"revealed_states": [], "clicked_states": [], "num_clicks_accrued": [0, 0, 0, 0, 0, 0, 0, 0, 0, 0, 0, 0, 0], "stateRewards": ["", 1, -4, -6, 11, -20, 8, -30, 1, -38, 88, 42, 2, 3, 5, -12, -8, -74, 30, -8, 67, -19, 42, 2, -1, 4, 13, 50, -68, 2, -8, -15, 87, -46], "withholdReward": false, "trial_id": "mdp_trial_4", "block": "test", "trialIndex": 5, "score": 34, "costs": 0, "simulationMode": [null, null, null, null, null], "rewards": [1, -4, -6, 1, 42], "path": ["0", "0", "1", "2", "3", "8", "11"], "rt": [4715, 375, 306, 750, 567], "actions": ["up", "up", "up", "left", "left"], "actionTimes": [13048, 13941, 14770, 16030, 17103], "queries": {"click": {"state": {"target": [], "time": []}, "edge": {"target": [], "time": []}}, "mouseover": {"state": {"target": [], "time": []}, "edge": {"target": [], "time": []}}, "mouseout": {"state": {"target": ["0", "22", "19", "22"], "time": [10326, 24644, 25258, 25323]}, "edge": {"target": [], "time": []}}}, "displayed_time": "22.34", "trialTime": 29641, "trial_type": "mouselab-mdp", "trial_index": 12, "time_elapsed": 816353, "internal_node_id": "0.0-6.0-1.0-3.0"}}, {"uniqueid": "w41472627:a15710716", "current_trial": 13, "dateTime": 1693581104557, "trialdata": {"revealed_states": [], "clicked_states": [], "num_clicks_accrued": [0, 0, 0, 0, 0, 0, 0, 0, 0, 0, 0, 0, 0], "stateRewards": ["", 2, 3, 3, 10, 19, -21, 6, 9, 54, 68, 16, 2, 2, -6, -8, 40, -2, -75, -2, -42, 55, 59, -1, 2, 4, -14, 11, -34, -30, -6, 61, -53, 13], "withholdReward": false, "trial_id": "mdp_trial_5", "block": "test", "trialIndex": 6, "score": -3, "costs": 0, "simulationMode": [null, null, null, null, null], "rewards": [2, 3, 3, 10, -21], "path": ["0", "0", "1", "2", "3", "4", "6"], "rt": [2435, 1423, 717, 595, 679], "actions": ["up", "up", "up", "right", "right"], "actionTimes": [5268, 7222, 8450, 9547, 10759], "queries": {"click": {"state": {"target": [], "time": []}, "edge": {"target": [], "time": []}}, "mouseover": {"state": {"target": [], "time": []}, "edge": {"target": [], "time": []}}, "mouseout": {"state": {"target": ["0"], "time": [3893]}, "edge": {"target": [], "time": []}}}, "displayed_time": "16.84", "trialTime": 19990, "trial_type": "mouselab-mdp", "trial_index": 13, "time_elapsed": 837566, "internal_node_id": "0.0-6.0-1.0-4.0"}}, {"uniqueid": "w41472627:a15710716", "current_trial": 14, "dateTime": 1693581123330, "trialdata": {"revealed_states": [], "clicked_states": [], "num_clicks_accrued": [0, 0, 0, 0, 0, 0, 0, 0, 0, 0, 0, 0, 0], "stateRewards": ["", 2, -2, -3, 10, -4, -1, -11, -8, -9, -36, -78, 2, 1, 7, -7, 44, -1, -31, -1, 26, 47, 83, 2, -4, -4, -6, -52, -76, -81, -1, -59, 45, 67], "withholdReward": false, "trial_id": "mdp_trial_6", "block": "test", "trialIndex": 7, "score": 38, "costs": 0, "simulationMode": [null, null, null, null, null], "rewards": [2, -4, -4, -1, 45], "path": ["0", "0", "23", "24", "25", "30", "32"], "rt": [1469, 557, 442, 752, 818], "actions": ["left", "left", "left", "down", "down"], "actionTimes": [3009, 4074, 5029, 6305, 7669], "queries": {"click": {"state": {"target": [], "time": []}, "edge": {"target": [], "time": []}}, "mouseover": {"state": {"target": [], "time": []}, "edge": {"target": [], "time": []}}, "mouseout": {"state": {"target": ["0"], "time": [9145]}, "edge": {"target": [], "time": []}}}, "displayed_time": "15.54", "trialTime": 17616, "trial_type": "mouselab-mdp", "trial_index": 14, "time_elapsed": 856340, "internal_node_id": "0.0-6.0-1.0-5.0"}}, {"uniqueid": "w41472627:a15710716", "current_trial": 15, "dateTime": 1693581148670, "trialdata": {"revealed_states": [], "clicked_states": [], "num_clicks_accrued": [0, 0, 0, 0, 0, 0, 0, 0, 0, 0, 0, 0, 0], "stateRewards": ["", 2, -4, 1, -12, -59, -53, -74, 16, -88, -66, 66, 1, -2, 8, -9, -14, 22, 25, -1, -39, 47, -14, -1, -1, -2, 1, -4, 52, -26, 15, -7, 46, 43], "withholdReward": false, "trial_id": "mdp_trial_7", "block": "test", "trialIndex": 8, "score": 53, "costs": 0, "simulationMode": [null, null, null, null, null], "rewards": [1, -2, 8, -1, 47], "path": ["0", "0", "12", "13", "14", "19", "21"], "rt": [1836, 733, 397, 483, 415], "actions": ["right", "right", "right", "down", "down"], "actionTimes": [5957, 7189, 8104, 9116, 10039], "queries": {"click": {"state": {"target": [], "time": []}, "edge": {"target": [], "time": []}}, "mouseover": {"state": {"target": [], "time": []}, "edge": {"target": [], "time": []}}, "mouseout": {"state": {"target": ["0", "0", "0"], "time": [653, 4366, 11805]}, "edge": {"target": [], "time": []}}}, "displayed_time": "18.12", "trialTime": 24031, "trial_type": "mouselab-mdp", "trial_index": 15, "time_elapsed": 881680, "internal_node_id": "0.0-6.0-1.0-6.0"}}, {"uniqueid": "w41472627:a15710716", "current_trial": 16, "dateTime": 1693581170298, "trialdata": {"revealed_states": [], "clicked_states": ["23", "24"], "num_clicks_accrued": [0, 0, 0, 0, 0, 0, 0, 0, 0, 0, 0, 0, 0], "stateRewards": ["", -2, 2, -5, -6, 10, -66, -58, -10, -11, -63, -70, -1, -4, -5, 7, 66, -64, -43, -3, 45, -37, 4, -2, -2, -6, -4, -30, 33, 43, 15, -32, -65, -59], "withholdReward": false, "trial_id": "mdp_trial_8", "block": "test", "trialIndex": 9, "score": -46.8, "costs": -2.8, "simulationMode": [null, null, null, null, null], "rewards": [-2, -2, -6, -4, -30], "path": ["0", "0", "23", "24", "25", "26", "27"], "rt": [6653, 482, 488, 1515, 131], "actions": ["left", "left", "left", "up", "up"], "actionTimes": [9194, 10206, 11195, 13219, 13892], "queries": {"click": {"state": {"target": ["23", "24"], "time": [4157, 5938]}, "edge": {"target": [], "time": []}}, "mouseover": {"state": {"target": ["23", "24"], "time": [3666, 5554]}, "edge": {"target": [], "time": []}}, "mouseout": {"state": {"target": ["0", "23", "24", "24"], "time": [1199, 5237, 6617, 8231]}, "edge": {"target": [], "time": []}}}, "displayed_time": "16.54", "trialTime": 19344, "trial_type": "mouselab-mdp", "trial_index": 16, "time_elapsed": 903308, "internal_node_id": "0.0-6.0-1.0-7.0"}}, {"uniqueid": "w41472627:a15710716", "current_trial": 17, "dateTime": 1693581190252, "trialdata": {"revealed_states": [], "clicked_states": [], "num_clicks_accrued": [0, 0, 0, 0, 0, 0, 0, 0, 0, 0, 0, 0, 0], "stateRewards": ["", -2, 3, -1, 2, -72, 63, 20, -1, 62, -66, 39, -2, 3, -6, 14, 22, 47, 1, 8, -49, -1, -41, 2, 2, -6, -16, -64, -60, -34, 16, 54, 22, -7], "withholdReward": false, "trial_id": "mdp_trial_9", "block": "test", "trialIndex": 10, "score": 2, "costs": 0, "simulationMode": [null, null, null, null, null], "rewards": [-2, 3, -6, 8, -1], "path": ["0", "0", "12", "13", "14", "19", "21"], "rt": [1553, 730, 328, 484, 344], "actions": ["right", "right", "right", "down", "down"], "actionTimes": [3497, 5015, 5941, 6970, 7832], "queries": {"click": {"state": {"target": [], "time": []}, "edge": {"target": [], "time": []}}, "mouseover": {"state": {"target": [], "time": []}, "edge": {"target": [], "time": []}}, "mouseout": {"state": {"target": ["0", "0"], "time": [825, 9313]}, "edge": {"target": [], "time": []}}}, "displayed_time": "15.95", "trialTime": 18127, "trial_type": "mouselab-mdp", "trial_index": 17, "time_elapsed": 923262, "internal_node_id": "0.0-6.0-1.0-8.0"}}, {"uniqueid": "w41472627:a15710716", "current_trial": 18, "dateTime": 1693581211719, "trialdata": {"revealed_states": [], "clicked_states": [], "num_clicks_accrued": [0, 0, 0, 0, 0, 0, 0, 0, 0, 0, 0, 0, 0], "stateRewards": ["", 2, 4, 4, -8, -36, -33, 38, 16, -51, 57, 57, 1, 3, 4, -6, 45, 68, 87, 1, 63, 24, -55, -2, 2, -6, -13, -63, -50, 8, 2, 80, 6, 60], "withholdReward": false, "trial_id": "mdp_trial_10", "block": "test", "trialIndex": 11, "score": 33, "costs": 0, "simulationMode": [null, null, null, null, null], "rewards": [1, 3, 4, 1, 24], "path": ["0", "0", "12", "13", "14", "19", "21"], "rt": [3106, 236, 348, 476, 72], "actions": ["right", "right", "right", "down", "down"], "actionTimes": [7376, 8153, 9000, 9993, 10590], "queries": {"click": {"state": {"target": [], "time": []}, "edge": {"target": [], "time": []}}, "mouseover": {"state": {"target": ["12", "0"], "time": [4302, 4583]}, "edge": {"target": [], "time": []}}, "mouseout": {"state": {"target": ["0", "0", "12", "0"], "time": [2412, 2695, 4444, 5096]}, "edge": {"target": [], "time": []}}}, "displayed_time": "18.27", "trialTime": 20164, "trial_type": "mouselab-mdp", "trial_index": 18, "time_elapsed": 944729, "internal_node_id": "0.0-6.0-1.0-9.0"}}, {"uniqueid": "w41472627:a15710716", "current_trial": 19, "dateTime": 1693581233444, "trialdata": {"revealed_states": [], "clicked_states": [], "num_clicks_accrued": [0, 0, 0, 0, 0, 0, 0, 0, 0, 0, 0, 0, 0], "stateRewards": ["", 2, -3, 5, -14, -63, -9, -24, -11, -54, -43, 68, 2, -2, -4, 7, -64, 30, 47, 12, -74, 11, 86, 1, -3, 3, 10, -71, -42, -52, -1, -29, -16, 69], "withholdReward": false, "trial_id": "mdp_trial_11", "block": "test", "trialIndex": 12, "score": 19, "costs": 0, "simulationMode": [null, null, null, null, null], "rewards": [2, -2, -4, 12, 11], "path": ["0", "0", "12", "13", "14", "19", "21"], "rt": [2079, 175, 248, 432, 575], "actions": ["right", "right", "right", "down", "down"], "actionTimes": [5510, 6213, 6970, 7921, 9012], "queries": {"click": {"state": {"target": [], "time": []}, "edge": {"target": [], "time": []}}, "mouseover": {"state": {"target": [], "time": []}, "edge": {"target": [], "time": []}}, "mouseout": {"state": {"target": ["0"], "time": [10332]}, "edge": {"target": [], "time": []}}}, "displayed_time": "17.43", "trialTime": 20275, "trial_type": "mouselab-mdp", "trial_index": 19, "time_elapsed": 966454, "internal_node_id": "0.0-6.0-1.0-10.0"}}, {"uniqueid": "w41472627:a15710716", "current_trial": 20, "dateTime": 1693581258300, "trialdata": {"revealed_states": [], "clicked_states": [], "num_clicks_accrued": [0, 0, 0, 0, 0, 0, 0, 0, 0, 0, 0, 0, 0], "stateRewards": ["", 2, -1, 4, -9, -43, 7, 54, -13, 38, -40, -83, -1, 2, -8, -10, 34, -33, 11, -14, -79, 65, 26, 1, 2, 4, 10, 21, 1, 86, 4, -53, 28, -29], "withholdReward": false, "trial_id": "mdp_trial_12", "block": "test", "trialIndex": 13, "score": 44, "costs": 0, "simulationMode": [null, null, null, null, null], "rewards": [-1, 2, -8, -14, 65], "path": ["0", "0", "12", "13", "14", "19", "21"], "rt": [1829, 335, 354, 287, 6], "actions": ["right", "right", "right", "down", "down"], "actionTimes": [7062, 7902, 8753, 9538, 10095], "queries": {"click": {"state": {"target": [], "time": []}, "edge": {"target": [], "time": []}}, "mouseover": {"state": {"target": ["0"], "time": [5271]}, "edge": {"target": [], "time": []}}, "mouseout": {"state": {"target": ["0", "0"], "time": [3159, 11394]}, "edge": {"target": [], "time": []}}}, "displayed_time": "19.25", "trialTime": 22676, "trial_type": "mouselab-mdp", "trial_index": 20, "time_elapsed": 991309, "internal_node_id": "0.0-6.0-1.0-11.0"}}, {"uniqueid": "w41472627:a15710716", "current_trial": 21, "dateTime": 1693581279321, "trialdata": {"revealed_states": [], "clicked_states": [], "num_clicks_accrued": [0, 0, 0, 0, 0, 0, 0, 0, 0, 0, 0, 0, 0], "stateRewards": ["", 1, 2, -8, 9, 18, -83, -11, 6, -64, -48, 17, -2, -2, -5, -3, -24, -3, -86, -2, 48, -41, -22, -2, 4, 7, 8, 81, 13, -48, 10, 61, 19, 57], "withholdReward": false, "trial_id": "mdp_trial_13", "block": "test", "trialIndex": 14, "score": -52, "costs": 0, "simulationMode": [null, null, null, null, null], "rewards": [-2, -2, -5, -2, -41], "path": ["0", "0", "12", "13", "14", "19", "21"], "rt": [1556, 120, 211, 439, 237], "actions": ["right", "right", "right", "down", "down"], "actionTimes": [4231, 4887, 5687, 6654, 7430], "queries": {"click": {"state": {"target": [], "time": []}, "edge": {"target": [], "time": []}}, "mouseover": {"state": {"target": [], "time": []}, "edge": {"target": [], "time": []}}, "mouseout": {"state": {"target": ["0"], "time": [1458]}, "edge": {"target": [], "time": []}}}, "displayed_time": "16.68", "trialTime": 18728, "trial_type": "mouselab-mdp", "trial_index": 21, "time_elapsed": 1012329, "internal_node_id": "0.0-6.0-1.0-12.0"}}, {"uniqueid": "w41472627:a15710716", "current_trial": 22, "dateTime": 1693581367416, "trialdata": {"revealed_states": [], "clicked_states": [], "num_clicks_accrued": [0, 0, 0, 0, 0, 0, 0, 0, 0, 0, 0, 0, 0], "stateRewards": ["", 2, -2, 7, -11, -76, -65, -23, 16, -58, 30, 81, 1, 2, 7, 14, 9, 55, -2, 6, 11, -15, 31, -1, -1, -3, 2, 15, 2, 46, 15, 18, 45, -34], "withholdReward": false, "trial_id": "mdp_trial_14", "block": "test", "trialIndex": 15, "score": 55, "costs": 0, "simulationMode": [null, null, null, null, null], "rewards": [-1, -1, -3, 15, 45], "path": ["0", "0", "23", "24", "25", "30", "32"], "rt": [2385, 287, 190, 428, 298], "actions": ["left", "left", "left", "down", "down"], "actionTimes": [4970, 5777, 6474, 7407, 8255], "queries": {"click": {"state": {"target": [], "time": []}, "edge": {"target": [], "time": []}}, "mouseover": {"state": {"target": ["23"], "time": [3742]}, "edge": {"target": [], "time": []}}, "mouseout": {"state": {"target": ["0", "23"], "time": [1451, 9693]}, "edge": {"target": [], "time": []}}}, "displayed_time": "16.59", "trialTime": 86671, "trial_type": "mouselab-mdp", "trial_index": 22, "time_elapsed": 1100426, "internal_node_id": "0.0-6.0-1.0-13.0"}}, {"uniqueid": "w41472627:a15710716", "current_trial": 23, "dateTime": 1693581437112, "trialdata": {"revealed_states": [], "clicked_states": [], "num_clicks_accrued": [0, 0, 0, 0, 0, 0, 0, 0, 0, 0, 0, 0, 0], "stateRewards": ["", 2, -4, 4, 9, 69, 9, -75, 12, -86, 66, 25, -1, 3, 2, -13, -88, -3, 1, 4, -69, 49, -84, 2, -1, 4, 2, -18, -81, -52, -15, -69, -54, 25], "withholdReward": false, "trial_id": "mdp_trial_15", "block": "test", "trialIndex": 16, "score": 57, "costs": 0, "simulationMode": [null, null, null, null, null], "rewards": [-1, 3, 2, 4, 49], "path": ["0", "0", "12", "13", "14", "19", "21"], "rt": [2090, 625, 329, 1755, 122], "actions": ["right", "right", "right", "down", "down"], "actionTimes": [4431, 5558, 6416, 8670, 9303], "queries": {"click": {"state": {"target": [], "time": []}, "edge": {"target": [], "time": []}}, "mouseover": {"state": {"target": [], "time": []}, "edge": {"target": [], "time": []}}, "mouseout": {"state": {"target": ["24", "0", "0", "22"], "time": [175, 1191, 11775, 49511]}, "edge": {"target": [], "time": []}}}, "displayed_time": "16.34", "trialTime": 68327, "trial_type": "mouselab-mdp", "trial_index": 23, "time_elapsed": 1170121, "internal_node_id": "0.0-6.0-1.0-14.0"}}, {"uniqueid": "w41472627:a15710716", "current_trial": 24, "dateTime": 1693581456754, "trialdata": {"revealed_states": [], "clicked_states": [], "num_clicks_accrued": [0, 0, 0, 0, 0, 0, 0, 0, 0, 0, 0, 0, 0], "stateRewards": ["", 1, -1, 4, -2, -75, -75, 84, -9, -60, -79, 59, 2, -4, 8, 9, -17, -82, 80, 14, -4, 49, 49, -1, 3, 6, -11, -33, 34, 55, 9, -57, 5, 59], "withholdReward": false, "trial_id": "mdp_trial_16", "block": "test", "trialIndex": 17, "score": 69, "costs": 0, "simulationMode": [null, null, null, null, null], "rewards": [2, -4, 8, 14, 49], "path": ["0", "0", "12", "13", "14", "19", "21"], "rt": [1735, 2135, 395, 358, 471], "actions": ["right", "right", "right", "down", "down"], "actionTimes": [3837, 6483, 7379, 8243, 9221], "queries": {"click": {"state": {"target": [], "time": []}, "edge": {"target": [], "time": []}}, "mouseover": {"state": {"target": [], "time": []}, "edge": {"target": [], "time": []}}, "mouseout": {"state": {"target": ["0", "0"], "time": [900, 5176]}, "edge": {"target": [], "time": []}}}, "displayed_time": "16.10", "trialTime": 18290, "trial_type": "mouselab-mdp", "trial_index": 24, "time_elapsed": 1189764, "internal_node_id": "0.0-6.0-1.0-15.0"}}, {"uniqueid": "w41472627:a15710716", "current_trial": 25, "dateTime": 1693581477357, "trialdata": {"revealed_states": [], "clicked_states": [], "num_clicks_accrued": [0, 0, 0, 0, 0, 0, 0, 0, 0, 0, 0, 0, 0], "stateRewards": ["", -1, -3, 4, -10, -5, 79, -87, -2, 53, 29, -20, -2, -1, -5, 10, 27, 86, 46, -16, -29, 40, 3, 2, 4, -1, -6, 37, 79, -29, 7, 86, -62, 29], "withholdReward": false, "trial_id": "mdp_trial_17", "block": "test", "trialIndex": 18, "score": 16, "costs": 0, "simulationMode": [null, null, null, null, null], "rewards": [-2, -1, -5, -16, 40], "path": ["0", "0", "12", "13", "14", "19", "21"], "rt": [1624, 486, 165, 387, 471], "actions": ["right", "right", "right", "down", "down"], "actionTimes": [4766, 5756, 6432, 7324, 8311], "queries": {"click": {"state": {"target": [], "time": []}, "edge": {"target": [], "time": []}}, "mouseover": {"state": {"target": [], "time": []}, "edge": {"target": [], "time": []}}, "mouseout": {"state": {"target": ["2", "1", "0", "1"], "time": [1077, 1123, 1498, 1807]}, "edge": {"target": [], "time": []}}}, "displayed_time": "17.14", "trialTime": 19261, "trial_type": "mouselab-mdp", "trial_index": 25, "time_elapsed": 1210367, "internal_node_id": "0.0-6.0-1.0-16.0"}}, {"uniqueid": "w41472627:a15710716", "current_trial": 26, "dateTime": 1693581517808, "trialdata": {"revealed_states": [], "clicked_states": [], "num_clicks_accrued": [0, 0, 0, 0, 0, 0, 0, 0, 0, 0, 0, 0, 0], "stateRewards": ["", 1, -4, -6, -1, -21, 17, -72, 10, 77, 67, -46, -1, 4, -2, 14, -66, -49, -45, -15, -52, 23, -67, 2, -2, -2, 15, -3, 45, -64, 5, -44, 83, 61], "withholdReward": false, "trial_id": "mdp_trial_18", "block": "test", "trialIndex": 19, "score": 9, "costs": 0, "simulationMode": [null, null, null, null, null], "rewards": [-1, 4, -2, -15, 23], "path": ["0", "0", "12", "13", "14", "19", "21"], "rt": [1929, 331, 222, 499, 304], "actions": ["right", "right", "right", "down", "down"], "actionTimes": [23282, 24144, 24869, 25879, 26682], "queries": {"click": {"state": {"target": [], "time": []}, "edge": {"target": [], "time": []}}, "mouseover": {"state": {"target": [], "time": []}, "edge": {"target": [], "time": []}}, "mouseout": {"state": {"target": ["0", "0", "0"], "time": [1358, 19659, 19955]}, "edge": {"target": [], "time": []}}}, "displayed_time": "35.35", "trialTime": 38994, "trial_type": "mouselab-mdp", "trial_index": 26, "time_elapsed": 1250817, "internal_node_id": "0.0-6.0-1.0-17.0"}}, {"uniqueid": "w41472627:a15710716", "current_trial": 27, "dateTime": 1693581539092, "trialdata": {"revealed_states": [], "clicked_states": [], "num_clicks_accrued": [0, 0, 0, 0, 0, 0, 0, 0, 0, 0, 0, 0, 0], "stateRewards": ["", 2, -1, 5, 6, 10, 86, 55, 10, -45, 63, -71, 1, -2, 5, -8, -50, -72, 36, 15, 61, 12, 33, -1, -4, 6, 5, 79, -56, -21, -16, -87, 60, -81], "withholdReward": false, "trial_id": "mdp_trial_19", "block": "test", "trialIndex": 20, "score": 31, "costs": 0, "simulationMode": [null, null, null, null, null], "rewards": [1, -2, 5, 15, 12], "path": ["0", "0", "12", "13", "14", "19", "21"], "rt": [3220, 167, 5, 463, 154], "actions": ["right", "right", "right", "down", "down"], "actionTimes": [6956, 7621, 8168, 9164, 9878], "queries": {"click": {"state": {"target": [], "time": []}, "edge": {"target": [], "time": []}}, "mouseover": {"state": {"target": [], "time": []}, "edge": {"target": [], "time": []}}, "mouseout": {"state": {"target": ["0"], "time": [12228]}, "edge": {"target": [], "time": []}}}, "displayed_time": "17.73", "trialTime": 19870, "trial_type": "mouselab-mdp", "trial_index": 27, "time_elapsed": 1272102, "internal_node_id": "0.0-6.0-1.0-18.0"}}, {"uniqueid": "w41472627:a15710716", "current_trial": 28, "dateTime": 1693581561480, "trialdata": {"revealed_states": [], "clicked_states": [], "num_clicks_accrued": [0, 0, 0, 0, 0, 0, 0, 0, 0, 0, 0, 0, 0], "stateRewards": ["", -1, -2, -1, -10, -57, 73, -72, -16, 75, -14, -46, -2, -3, -7, -1, -61, -60, 76, -4, 50, 4, 14, 2, 2, -7, 12, -65, -32, 15, -8, -76, -25, -61], "withholdReward": false, "trial_id": "mdp_trial_20", "block": "test", "trialIndex": 21, "score": -12, "costs": 0, "simulationMode": [null, null, null, null, null], "rewards": [-2, -3, -7, -4, 4], "path": ["0", "0", "12", "13", "14", "19", "21"], "rt": [1971, 269, 240, 598, 65], "actions": ["right", "right", "right", "down", "down"], "actionTimes": [6926, 7695, 8449, 9574, 10160], "queries": {"click": {"state": {"target": [], "time": []}, "edge": {"target": [], "time": []}}, "mouseover": {"state": {"target": [], "time": []}, "edge": {"target": [], "time": []}}, "mouseout": {"state": {"target": ["0"], "time": [12320]}, "edge": {"target": [], "time": []}}}, "displayed_time": "18.96", "trialTime": 20934, "trial_type": "mouselab-mdp", "trial_index": 28, "time_elapsed": 1294490, "internal_node_id": "0.0-6.0-1.0-19.0"}}, {"uniqueid": "w41472627:a15710716", "current_trial": 29, "dateTime": 1693581582213, "trialdata": {"revealed_states": [], "clicked_states": [], "num_clicks_accrued": [0, 0, 0, 0, 0, 0, 0, 0, 0, 0, 0, 0, 0], "stateRewards": ["", 2, -1, 5, 8, 75, -35, -77, 1, -9, -81, -58, 1, 2, -7, 5, 77, -16, 19, 16, -10, -18, 40, -2, 3, 7, -5, 64, 1, -62, 10, 27, 10, 65], "withholdReward": false, "trial_id": "mdp_trial_21", "block": "test", "trialIndex": 22, "score": 67, "costs": 0, "simulationMode": [null, null, null, null, null], "rewards": [-2, 3, 7, -5, 64], "path": ["0", "0", "23", "24", "25", "26", "27"], "rt": [2024, 372, 241, 799, 8], "actions": ["left", "left", "left", "up", "up"], "actionTimes": [4359, 5261, 6068, 7391, 7899], "queries": {"click": {"state": {"target": [], "time": []}, "edge": {"target": [], "time": []}}, "mouseover": {"state": {"target": [], "time": []}, "edge": {"target": [], "time": []}}, "mouseout": {"state": {"target": ["0", "0"], "time": [1191, 10065]}, "edge": {"target": [], "time": []}}}, "displayed_time": "16.34", "trialTime": 19278, "trial_type": "mouselab-mdp", "trial_index": 29, "time_elapsed": 1315222, "internal_node_id": "0.0-6.0-1.0-20.0"}}, {"uniqueid": "w41472627:a15710716", "current_trial": 30, "dateTime": 1693581609726, "trialdata": {"revealed_states": [], "clicked_states": [], "num_clicks_accrued": [0, 0, 0, 0, 0, 0, 0, 0, 0, 0, 0, 0, 0], "stateRewards": ["", 1, -1, 1, -14, -10, 67, -28, -11, 72, 40, -65, -1, 1, 1, -2, 8, -55, 34, -10, 61, 33, -15, 2, -4, 7, 4, -75, 63, -21, -16, 61, 19, 21], "withholdReward": false, "trial_id": "mdp_trial_22", "block": "test", "trialIndex": 23, "score": -66, "costs": 0, "simulationMode": [null, null, null, null, null], "rewards": [2, -4, 7, 4, -75], "path": ["0", "0", "23", "24", "25", "26", "27"], "rt": [1495, 21, 55, 497, 99], "actions": ["left", "left", "left", "up", "up"], "actionTimes": [8704, 9257, 9879, 10877, 11480], "queries": {"click": {"state": {"target": [], "time": []}, "edge": {"target": [], "time": []}}, "mouseover": {"state": {"target": [], "time": []}, "edge": {"target": [], "time": []}}, "mouseout": {"state": {"target": ["0", "0"], "time": [3813, 13626]}, "edge": {"target": [], "time": []}}}, "displayed_time": "21.21", "trialTime": 25668, "trial_type": "mouselab-mdp", "trial_index": 30, "time_elapsed": 1342735, "internal_node_id": "0.0-6.0-1.0-21.0"}}, {"uniqueid": "w41472627:a15710716", "current_trial": 31, "dateTime": 1693581641762, "trialdata": {"revealed_states": [], "clicked_states": [], "num_clicks_accrued": [0, 0, 0, 0, 0, 0, 0, 0, 0, 0, 0, 0, 0], "stateRewards": ["", -2, 3, -1, -9, 44, 48, -37, -3, 71, -39, 87, -1, 3, -4, 4, -21, 59, -15, -8, -1, 28, -38, 2, 4, 4, 8, -85, -72, -63, 14, 58, 63, -46], "withholdReward": false, "trial_id": "mdp_trial_23", "block": "test", "trialIndex": 24, "score": 18, "costs": 0, "simulationMode": [null, null, null, null, null], "rewards": [-1, 3, -4, -8, 28], "path": ["0", "0", "12", "13", "14", "19", "21"], "rt": [4162, 94, 180, 149, 129], "actions": ["right", "right", "right", "down", "down"], "actionTimes": [17544, 18192, 18933, 19736, 20386], "queries": {"click": {"state": {"target": [], "time": []}, "edge": {"target": [], "time": []}}, "mouseover": {"state": {"target": [], "time": []}, "edge": {"target": [], "time": []}}, "mouseout": {"state": {"target": ["0"], "time": [16138]}, "edge": {"target": [], "time": []}}}, "displayed_time": "27.38", "trialTime": 29238, "trial_type": "mouselab-mdp", "trial_index": 31, "time_elapsed": 1374772, "internal_node_id": "0.0-6.0-1.0-22.0"}}, {"uniqueid": "w41472627:a15710716", "current_trial": 32, "dateTime": 1693581665094, "trialdata": {"revealed_states": [], "clicked_states": [], "num_clicks_accrued": [0, 0, 0, 0, 0, 0, 0, 0, 0, 0, 0, 0, 0], "stateRewards": ["", 2, 4, 7, -6, -76, -81, 2, 5, -66, -3, 36, -2, -4, 6, -2, -69, 4, -49, -6, 67, 38, -67, 2, 1, 1, 6, -68, -21, 52, -16, -16, 6, -70], "withholdReward": false, "trial_id": "mdp_trial_24", "block": "test", "trialIndex": 25, "score": 32, "costs": 0, "simulationMode": [null, null, null, null, null], "rewards": [-2, -4, 6, -6, 38], "path": ["0", "0", "12", "13", "14", "19", "21"], "rt": [1815, 159, 230, 327, 57], "actions": ["right", "right", "right", "down", "down"], "actionTimes": [7694, 8394, 9140, 9968, 10548], "queries": {"click": {"state": {"target": [], "time": []}, "edge": {"target": [], "time": []}}, "mouseover": {"state": {"target": [], "time": []}, "edge": {"target": [], "time": []}}, "mouseout": {"state": {"target": ["0", "0", "0"], "time": [4066, 4584, 11653]}, "edge": {"target": [], "time": []}}}, "displayed_time": "19.88", "trialTime": 22051, "trial_type": "mouselab-mdp", "trial_index": 32, "time_elapsed": 1398104, "internal_node_id": "0.0-6.0-1.0-23.0"}}, {"uniqueid": "w41472627:a15710716", "current_trial": 33, "dateTime": 1693581689325, "trialdata": {"revealed_states": [], "clicked_states": [], "num_clicks_accrued": [0, 0, 0, 0, 0, 0, 0, 0, 0, 0, 0, 0, 0], "stateRewards": ["", -1, 3, -4, -14, 78, 67, 2, 13, -32, 28, 39, -2, 1, -4, -4, -4, -42, -86, 11, 64, -29, -32, -1, -4, 2, -7, 5, 68, -61, 2, -21, 85, 50], "withholdReward": false, "trial_id": "mdp_trial_25", "block": "test", "trialIndex": 26, "score": 51, "costs": 0, "simulationMode": [null, null, null, null, null], "rewards": [-1, 3, -4, -14, 67], "path": ["0", "0", "1", "2", "3", "4", "6"], "rt": [1595, 58, 10, 506, 335], "actions": ["up", "up", "up", "right", "right"], "actionTimes": [7803, 8392, 8923, 9968, 10837], "queries": {"click": {"state": {"target": [], "time": []}, "edge": {"target": [], "time": []}}, "mouseover": {"state": {"target": [], "time": []}, "edge": {"target": [], "time": []}}, "mouseout": {"state": {"target": ["0", "0"], "time": [1573, 12191]}, "edge": {"target": [], "time": []}}}, "displayed_time": "20.21", "trialTime": 22403, "trial_type": "mouselab-mdp", "trial_index": 33, "time_elapsed": 1422334, "internal_node_id": "0.0-6.0-1.0-24.0"}}, {"uniqueid": "w41472627:a15710716", "current_trial": 34, "dateTime": 1693581721321, "trialdata": {"revealed_states": [], "clicked_states": [], "num_clicks_accrued": [0, 0, 0, 0, 0, 0, 0, 0, 0, 0, 0, 0, 0], "stateRewards": ["", -1, 3, 1, -7, 56, 76, 57, 3, 11, -9, 14, 1, -2, 2, 8, -77, -3, 79, -5, 88, 24, -66, -2, -1, 7, -7, -30, 14, -76, 11, -36, 28, -6], "withholdReward": false, "trial_id": "mdp_trial_26", "block": "test", "trialIndex": 27, "score": 72, "costs": 0, "simulationMode": [null, null, null, null, null], "rewards": [-1, 3, 1, -7, 76], "path": ["0", "0", "1", "2", "3", "4", "6"], "rt": [2036, 2276, 46, 640, 292], "actions": ["up", "up", "up", "right", "right"], "actionTimes": [14146, 16944, 17525, 18693, 19551], "queries": {"click": {"state": {"target": [], "time": []}, "edge": {"target": [], "time": []}}, "mouseover": {"state": {"target": [], "time": []}, "edge": {"target": [], "time": []}}, "mouseout": {"state": {"target": ["0", "0"], "time": [10335, 26481]}, "edge": {"target": [], "time": []}}}, "displayed_time": "26.11", "trialTime": 29641, "trial_type": "mouselab-mdp", "trial_index": 34, "time_elapsed": 1454330, "internal_node_id": "0.0-6.0-1.0-25.0"}}, {"uniqueid": "w41472627:a15710716", "current_trial": 35, "dateTime": 1693581746742, "trialdata": {"revealed_states": [], "clicked_states": [], "num_clicks_accrued": [0, 0, 0, 0, 0, 0, 0, 0, 0, 0, 0, 0, 0], "stateRewards": ["", -1, 2, -7, -12, -62, 12, -13, 5, 77, -71, 83, 1, -4, 7, 15, -42, -87, -4, 5, -25, 44, 88, -1, 4, -5, -8, 14, 51, 8, -5, 83, -24, -19], "withholdReward": false, "trial_id": "mdp_trial_27", "block": "test", "trialIndex": 28, "score": 82, "costs": 0, "simulationMode": [null, null, null, null, null], "rewards": [-1, 2, -7, 5, 83], "path": ["0", "0", "1", "2", "3", "8", "11"], "rt": [1658, 122, 516, 485, 235], "actions": ["up", "up", "up", "left", "left"], "actionTimes": [6833, 7470, 8506, 9489, 10245], "queries": {"click": {"state": {"target": [], "time": []}, "edge": {"target": [], "time": []}}, "mouseover": {"state": {"target": [], "time": []}, "edge": {"target": [], "time": []}}, "mouseout": {"state": {"target": ["0", "0"], "time": [3047, 21884]}, "edge": {"target": [], "time": []}}}, "displayed_time": "19.18", "trialTime": 22383, "trial_type": "mouselab-mdp", "trial_index": 35, "time_elapsed": 1479752, "internal_node_id": "0.0-6.0-1.0-26.0"}}, {"uniqueid": "w41472627:a15710716", "current_trial": 36, "dateTime": 1693581770140, "trialdata": {"revealed_states": [], "clicked_states": [], "num_clicks_accrued": [0, 0, 0, 0, 0, 0, 0, 0, 0, 0, 0, 0, 0], "stateRewards": ["", -1, 1, -2, 5, 73, 15, 61, 8, 7, 38, 76, 2, 2, -4, -6, -6, -26, 43, -5, -45, -85, -35, -2, 1, -4, 15, -10, 69, 72, -11, 84, -49, -38], "withholdReward": false, "trial_id": "mdp_trial_28", "block": "test", "trialIndex": 29, "score": 13, "costs": 0, "simulationMode": [null, null, null, null, null], "rewards": [-1, 1, -2, 8, 7], "path": ["0", "0", "1", "2", "3", "8", "9"], "rt": [1651, 131, 133, 1660, 911], "actions": ["up", "up", "up", "left", "up"], "actionTimes": [7097, 7748, 8387, 10548, 11966], "queries": {"click": {"state": {"target": [], "time": []}, "edge": {"target": [], "time": []}}, "mouseover": {"state": {"target": [], "time": []}, "edge": {"target": [], "time": []}}, "mouseout": {"state": {"target": ["0"], "time": [1198]}, "edge": {"target": [], "time": []}}}, "displayed_time": "19.45", "trialTime": 21815, "trial_type": "mouselab-mdp", "trial_index": 36, "time_elapsed": 1503150, "internal_node_id": "0.0-6.0-1.0-27.0"}}, {"uniqueid": "w41472627:a15710716", "current_trial": 37, "dateTime": 1693581792247, "trialdata": {"revealed_states": [], "clicked_states": [], "num_clicks_accrued": [0, 0, 0, 0, 0, 0, 0, 0, 0, 0, 0, 0, 0], "stateRewards": ["", 2, 3, 6, -5, -74, -53, 17, -12, 46, 44, 18, -2, 4, 1, -8, 22, -23, -49, 9, -45, 55, 81, 1, -1, -7, -16, -83, -71, -45, 2, 51, 82, 61], "withholdReward": false, "trial_id": "mdp_trial_29", "block": "test", "trialIndex": 30, "score": 17, "costs": 0, "simulationMode": [null, null, null, null, null], "rewards": [2, 3, 6, -12, 18], "path": ["0", "0", "1", "2", "3", "8", "11"], "rt": [2670, 182, 179, 464, 265], "actions": ["up", "up", "up", "left", "left"], "actionTimes": [6365, 7069, 7843, 8837, 9624], "queries": {"click": {"state": {"target": [], "time": []}, "edge": {"target": [], "time": []}}, "mouseover": {"state": {"target": [], "time": []}, "edge": {"target": [], "time": []}}, "mouseout": {"state": {"target": ["0", "0"], "time": [1365, 12680]}, "edge": {"target": [], "time": []}}}, "displayed_time": "17.70", "trialTime": 20104, "trial_type": "mouselab-mdp", "trial_index": 37, "time_elapsed": 1525257, "internal_node_id": "0.0-6.0-1.0-28.0"}}, {"uniqueid": "w41472627:a15710716", "current_trial": 38, "dateTime": 1693581814019, "trialdata": {"revealed_states": [], "clicked_states": [], "num_clicks_accrued": [0, 0, 0, 0, 0, 0, 0, 0, 0, 0, 0, 0, 0], "stateRewards": ["", 1, 1, -5, 8, -6, 45, 16, -6, -7, -22, -38, -1, -4, 8, -11, -16, 21, -45, -15, -59, -32, 42, -1, 3, 6, 11, -7, 34, -27, -8, 85, 43, -9], "withholdReward": false, "trial_id": "mdp_trial_30", "block": "test", "trialIndex": 31, "score": -24, "costs": 0, "simulationMode": [null, null, null, null, null], "rewards": [-1, -4, 8, -11, -16], "path": ["0", "0", "12", "13", "14", "15", "16"], "rt": [1398, 429, 224, 524, 104], "actions": ["right", "right", "right", "up", "up"], "actionTimes": [4414, 5379, 6125, 7193, 7842], "queries": {"click": {"state": {"target": [], "time": []}, "edge": {"target": [], "time": []}}, "mouseover": {"state": {"target": [], "time": []}, "edge": {"target": [], "time": []}}, "mouseout": {"state": {"target": ["0"], "time": [1040]}, "edge": {"target": [], "time": []}}}, "displayed_time": "17.02", "trialTime": 18924, "trial_type": "mouselab-mdp", "trial_index": 38, "time_elapsed": 1547029, "internal_node_id": "0.0-6.0-1.0-29.0"}}, {"uniqueid": "w41472627:a15710716", "current_trial": 39, "dateTime": 1693581842094, "trialdata": {"revealed_states": [], "clicked_states": [], "num_clicks_accrued": [0, 0, 0, 0, 0, 0, 0, 0, 0, 0, 0, 0, 0], "stateRewards": ["", 1, 3, 1, -13, 52, -28, 67, -14, 3, 63, -70, -1, -4, 7, -11, -10, 47, -18, 6, 69, -9, -61, 2, 3, -6, 10, 63, -34, 40, -6, -79, -35, -32], "withholdReward": false, "trial_id": "mdp_trial_31", "block": "test", "trialIndex": 32, "score": -1, "costs": 0, "simulationMode": [null, null, null, null, null], "rewards": [-1, -4, 7, 6, -9], "path": ["0", "0", "12", "13", "14", "19", "21"], "rt": [1469, 478, 101, 401, 377], "actions": ["right", "right", "right", "down", "down"], "actionTimes": [9212, 10202, 10832, 11753, 12657], "queries": {"click": {"state": {"target": [], "time": []}, "edge": {"target": [], "time": []}}, "mouseover": {"state": {"target": [], "time": []}, "edge": {"target": [], "time": []}}, "mouseout": {"state": {"target": ["0", "0"], "time": [3051, 16851]}, "edge": {"target": [], "time": []}}}, "displayed_time": "21.75", "trialTime": 24574, "trial_type": "mouselab-mdp", "trial_index": 39, "time_elapsed": 1575103, "internal_node_id": "0.0-6.0-1.0-30.0"}}, {"uniqueid": "w41472627:a15710716", "current_trial": 40, "dateTime": 1693581867679, "trialdata": {"revealed_states": [], "clicked_states": [], "num_clicks_accrued": [0, 0, 0, 0, 0, 0, 0, 0, 0, 0, 0, 0, 0], "stateRewards": ["", -2, -4, 6, 14, -34, 49, 36, -8, -3, 32, -4, 1, -2, 1, -8, -20, -71, -57, -7, -86, -62, -16, -2, -3, -5, 11, 23, -21, 53, 5, -5, 85, 73], "withholdReward": false, "trial_id": "mdp_trial_32", "block": "test", "trialIndex": 33, "score": -12, "costs": 0, "simulationMode": [null, null, null, null, null], "rewards": [-2, -4, 6, -8, -4], "path": ["0", "0", "1", "2", "3", "8", "11"], "rt": [2289, 11, 18, 733, 311], "actions": ["up", "up", "up", "left", "left"], "actionTimes": [9244, 9780, 10343, 11617, 12457], "queries": {"click": {"state": {"target": [], "time": []}, "edge": {"target": [], "time": []}}, "mouseover": {"state": {"target": [], "time": []}, "edge": {"target": [], "time": []}}, "mouseout": {"state": {"target": ["0", "0"], "time": [1444, 15925]}, "edge": {"target": [], "time": []}}}, "displayed_time": "20.96", "trialTime": 23519, "trial_type": "mouselab-mdp", "trial_index": 40, "time_elapsed": 1600688, "internal_node_id": "0.0-6.0-1.0-31.0"}}, {"uniqueid": "w41472627:a15710716", "current_trial": 41, "dateTime": 1693581896957, "trialdata": {"revealed_states": [], "clicked_states": [], "num_clicks_accrued": [0, 0, 0, 0, 0, 0, 0, 0, 0, 0, 0, 0, 0], "stateRewards": ["", -2, -1, -1, 5, -54, -87, 35, 2, -8, 20, -22, 1, 3, 6, 13, -75, -32, -55, -3, 56, 62, -22, -1, -4, -1, -7, -51, 84, 70, 7, -15, 5, 55], "withholdReward": false, "trial_id": "mdp_trial_33", "block": "test", "trialIndex": 34, "score": 69, "costs": 0, "simulationMode": [null, null, null, null, null], "rewards": [1, 3, 6, -3, 62], "path": ["0", "0", "12", "13", "14", "19", "21"], "rt": [3866, 301, 72, 383, 196], "actions": ["right", "right", "right", "down", "down"], "actionTimes": [12903, 13719, 14292, 15204, 15915], "queries": {"click": {"state": {"target": [], "time": []}, "edge": {"target": [], "time": []}}, "mouseover": {"state": {"target": ["0", "0", "23", "24"], "time": [9116, 9690, 10335, 10393]}, "edge": {"target": [], "time": []}}, "mouseout": {"state": {"target": ["0", "0", "23", "24", "12", "13", "13"], "time": [9520, 10313, 10358, 19664, 25596, 25641, 26362]}, "edge": {"target": [], "time": []}}}, "displayed_time": "23.05", "trialTime": 26903, "trial_type": "mouselab-mdp", "trial_index": 41, "time_elapsed": 1629966, "internal_node_id": "0.0-6.0-1.0-32.0"}}, {"uniqueid": "w41472627:a15710716", "current_trial": 42, "dateTime": 1693581924247, "trialdata": {"revealed_states": [], "clicked_states": [], "num_clicks_accrued": [0, 0, 0, 0, 0, 0, 0, 0, 0, 0, 0, 0, 0], "stateRewards": ["", -1, -4, -3, 1, -45, -67, -24, 14, 32, 22, 22, -1, 1, -5, -7, 72, 84, -79, -5, 19, -40, -2, -1, -2, 8, -3, 84, -25, -28, 11, 64, -66, 77], "withholdReward": false, "trial_id": "mdp_trial_34", "block": "test", "trialIndex": 35, "score": -50, "costs": 0, "simulationMode": [null, null, null, null, null], "rewards": [-1, 1, -5, -5, -40], "path": ["0", "0", "12", "13", "14", "19", "21"], "rt": [1583, 216, 207, 332, 486], "actions": ["right", "right", "right", "down", "down"], "actionTimes": [10167, 10911, 11633, 12505, 13527], "queries": {"click": {"state": {"target": [], "time": []}, "edge": {"target": [], "time": []}}, "mouseover": {"state": {"target": [], "time": []}, "edge": {"target": [], "time": []}}, "mouseout": {"state": {"target": ["0", "0"], "time": [1659, 14985]}, "edge": {"target": [], "time": []}}}, "displayed_time": "22.59", "trialTime": 25119, "trial_type": "mouselab-mdp", "trial_index": 42, "time_elapsed": 1657257, "internal_node_id": "0.0-6.0-1.0-33.0"}}, {"uniqueid": "w41472627:a15710716", "current_trial": 43, "dateTime": 1693581946837, "trialdata": {"revealed_states": [], "clicked_states": [], "num_clicks_accrued": [0, 0, 0, 0, 0, 0, 0, 0, 0, 0, 0, 0, 0], "stateRewards": ["", -2, -3, 8, 14, -73, 73, 84, -12, -2, -50, -17, 2, 1, -2, -9, -44, -27, -33, 16, -63, -47, -66, -2, 1, 4, -5, -33, -11, 50, 9, 38, -79, 31], "withholdReward": false, "trial_id": "mdp_trial_35", "block": "test", "trialIndex": 36, "score": 90, "costs": 0, "simulationMode": [null, null, null, null, null], "rewards": [-2, -3, 8, 14, 73], "path": ["0", "0", "1", "2", "3", "4", "6"], "rt": [1603, 303, 388, 649, 377], "actions": ["up", "up", "up", "right", "right"], "actionTimes": [4224, 5053, 5974, 7166, 8051], "queries": {"click": {"state": {"target": [], "time": []}, "edge": {"target": [], "time": []}}, "mouseover": {"state": {"target": [], "time": []}, "edge": {"target": [], "time": []}}, "mouseout": {"state": {"target": ["0", "0", "0"], "time": [841, 1095, 19625]}, "edge": {"target": [], "time": []}}}, "displayed_time": "16.62", "trialTime": 20864, "trial_type": "mouselab-mdp", "trial_index": 43, "time_elapsed": 1679847, "internal_node_id": "0.0-6.0-1.0-34.0"}}, {"uniqueid": "w41472627:a15710716", "current_trial": 44, "dateTime": 1693581970673, "trialdata": {"revealed_states": [], "clicked_states": [], "num_clicks_accrued": [0, 0, 0, 0, 0, 0, 0, 0, 0, 0, 0, 0, 0], "stateRewards": ["", 1, -4, 6, -3, 40, 76, -51, 5, -24, -63, 44, -2, -2, 8, 1, 76, -85, -58, 10, 59, 20, 11, -2, 3, -3, 3, -82, -10, 54, -7, -57, -6, -32], "withholdReward": false, "trial_id": "mdp_trial_36", "block": "test", "trialIndex": 37, "score": 76, "costs": 0, "simulationMode": [null, null, null, null, null], "rewards": [1, -4, 6, -3, 76], "path": ["0", "0", "1", "2", "3", "4", "6"], "rt": [1764, 10, 226, 435, 57], "actions": ["up", "up", "up", "right", "right"], "actionTimes": [5887, 6429, 7208, 8190, 8775], "queries": {"click": {"state": {"target": [], "time": []}, "edge": {"target": [], "time": []}}, "mouseover": {"state": {"target": [], "time": []}, "edge": {"target": [], "time": []}}, "mouseout": {"state": {"target": ["0", "0", "0"], "time": [2264, 10434, 20798]}, "edge": {"target": [], "time": []}}}, "displayed_time": "18.13", "trialTime": 21675, "trial_type": "mouselab-mdp", "trial_index": 44, "time_elapsed": 1703683, "internal_node_id": "0.0-6.0-1.0-35.0"}}, {"uniqueid": "w41472627:a15710716", "current_trial": 45, "dateTime": 1693581993963, "trialdata": {"revealed_states": [], "clicked_states": [], "num_clicks_accrued": [0, 0, 0, 0, 0, 0, 0, 0, 0, 0, 0, 0, 0], "stateRewards": ["", 1, 1, -7, -9, -44, 24, -83, -15, 44, -24, 72, -2, -3, 4, -5, 57, 55, 29, -11, 22, 12, -25, -1, 2, 7, 12, 33, -8, 47, -4, 8, 50, -4], "withholdReward": false, "trial_id": "mdp_trial_37", "block": "test", "trialIndex": 38, "score": 10, "costs": 0, "simulationMode": [null, null, null, null, null], "rewards": [1, 1, -7, -9, 24], "path": ["0", "0", "1", "2", "3", "4", "6"], "rt": [1812, 318, 49, 856, 280], "actions": ["up", "up", "up", "right", "right"], "actionTimes": [5858, 6706, 7295, 8686, 9506], "queries": {"click": {"state": {"target": [], "time": []}, "edge": {"target": [], "time": []}}, "mouseover": {"state": {"target": [], "time": []}, "edge": {"target": [], "time": []}}, "mouseout": {"state": {"target": ["0", "0"], "time": [1409, 14962]}, "edge": {"target": [], "time": []}}}, "displayed_time": "18.05", "trialTime": 20563, "trial_type": "mouselab-mdp", "trial_index": 45, "time_elapsed": 1726973, "internal_node_id": "0.0-6.0-1.0-36.0"}}, {"uniqueid": "w41472627:a15710716", "current_trial": 46, "dateTime": 1693582021100, "trialdata": {"revealed_states": [], "clicked_states": [], "num_clicks_accrued": [0, 0, 0, 0, 0, 0, 0, 0, 0, 0, 0, 0, 0], "stateRewards": ["", -2, 2, -1, -6, 22, 6, 6, -5, 70, -42, 65, 1, 3, 5, -6, -67, -9, 3, 14, 7, -62, -13, -2, 4, 1, 16, 42, -21, -52, -8, 32, 53, 81], "withholdReward": false, "trial_id": "mdp_trial_38", "block": "test", "trialIndex": 39, "score": 48, "costs": 0, "simulationMode": [null, null, null, null, null], "rewards": [-2, 4, 1, -8, 53], "path": ["0", "0", "23", "24", "25", "30", "32"], "rt": [2050, 146, 173, 1129, 247], "actions": ["left", "left", "left", "down", "down"], "actionTimes": [10431, 11135, 11843, 13497, 14246], "queries": {"click": {"state": {"target": [], "time": []}, "edge": {"target": [], "time": []}}, "mouseover": {"state": {"target": [], "time": []}, "edge": {"target": [], "time": []}}, "mouseout": {"state": {"target": ["0", "0", "0", "0"], "time": [4813, 4974, 6657, 16442]}, "edge": {"target": [], "time": []}}}, "displayed_time": "22.38", "trialTime": 24847, "trial_type": "mouselab-mdp", "trial_index": 46, "time_elapsed": 1754109, "internal_node_id": "0.0-6.0-1.0-37.0"}}, {"uniqueid": "w41472627:a15710716", "current_trial": 47, "dateTime": 1693582044518, "trialdata": {"revealed_states": [], "clicked_states": [], "num_clicks_accrued": [0, 0, 0, 0, 0, 0, 0, 0, 0, 0, 0, 0, 0], "stateRewards": ["", -1, 4, -5, 9, 29, -75, -42, -16, 24, -28, -41, 2, -3, 1, 10, 60, 47, 55, -1, -53, 22, -40, 2, -3, -6, 4, -26, 44, 54, 15, -76, 42, 14], "withholdReward": false, "trial_id": "mdp_trial_39", "block": "test", "trialIndex": 40, "score": 50, "costs": 0, "simulationMode": [null, null, null, null, null], "rewards": [2, -3, -6, 15, 42], "path": ["0", "0", "23", "24", "25", "30", "32"], "rt": [4136, 102, 369, 524, 130], "actions": ["left", "left", "left", "down", "down"], "actionTimes": [8928, 9582, 10484, 11533, 12264], "queries": {"click": {"state": {"target": [], "time": []}, "edge": {"target": [], "time": []}}, "mouseover": {"state": {"target": [], "time": []}, "edge": {"target": [], "time": []}}, "mouseout": {"state": {"target": ["0", "0", "12", "13"], "time": [2566, 20386, 20500, 20750]}, "edge": {"target": [], "time": []}}}, "displayed_time": "18.79", "trialTime": 21260, "trial_type": "mouselab-mdp", "trial_index": 47, "time_elapsed": 1777527, "internal_node_id": "0.0-6.0-1.0-38.0"}}, {"uniqueid": "w41472627:a15710716", "current_trial": 48, "dateTime": 1693582067963, "trialdata": {"revealed_states": [], "clicked_states": [], "num_clicks_accrued": [0, 0, 0, 0, 0, 0, 0, 0, 0, 0, 0, 0, 0], "stateRewards": ["", -1, -3, -7, -4, -85, -70, 79, 8, 84, -66, 42, 2, -2, -3, -16, -54, -66, 68, -3, 21, -14, 7, -2, -1, -3, -8, 75, 80, 86, -7, -84, 73, -16], "withholdReward": false, "trial_id": "mdp_trial_40", "block": "test", "trialIndex": 41, "score": -20, "costs": 0, "simulationMode": [null, null, null, null, null], "rewards": [2, -2, -3, -3, -14], "path": ["0", "0", "12", "13", "14", "19", "21"], "rt": [2526, 274, 730, 441, 156], "actions": ["right", "right", "right", "down", "down"], "actionTimes": [5924, 6746, 8002, 8966, 9641], "queries": {"click": {"state": {"target": [], "time": []}, "edge": {"target": [], "time": []}}, "mouseover": {"state": {"target": [], "time": []}, "edge": {"target": [], "time": []}}, "mouseout": {"state": {"target": ["0", "0"], "time": [1260, 11895]}, "edge": {"target": [], "time": []}}}, "displayed_time": "17.40", "trialTime": 20904, "trial_type": "mouselab-mdp", "trial_index": 48, "time_elapsed": 1800973, "internal_node_id": "0.0-6.0-1.0-39.0"}}, {"uniqueid": "w41472627:a15710716", "current_trial": 49, "dateTime": 1693582150366, "trialdata": {"rt": 82390, "response": {"Q0": "$-2 to $2", "Q1": "$-32 to $32", "Q2": "$-88 to $88", "Q3": "The cost for clicking on nodes varied between nodes.", "Q4": "Very motivated"}, "question_order": [0, 1, 2, 3, 4], "trial_id": "final_quiz_control", "trial_type": "survey-multi-choice", "trial_index": 49, "time_elapsed": 1883376, "internal_node_id": "0.0-6.0-2.0"}}, {"uniqueid": "w41472627:a15710716", "current_trial": 50, "dateTime": 1693582416992, "trialdata": {"rt": 265952, "response": {"Q0": "My strategy for this web of cash game was to focus on the previous score and plan my next move to ensure I could get a more significant score.", "Q1": "Yes, I did improve, what I did was place my focus on scoring more score.", "Q2": "It was not difficult to improve my performance as my goal was to score more."}, "trial_id": "self_report_control", "trial_type": "survey-text", "trial_index": 50, "time_elapsed": 2150001, "internal_node_id": "0.0-6.0-3.0"}}, {"uniqueid": "w41472627:a15710716", "current_trial": 51, "dateTime": 1693582463124, "trialdata": {"rt": 46043, "response": {"gender": "female", "age": "24", "colorblind": "0", "effort": "0"}, "trial_type": "survey-html-form", "trial_index": 51, "time_elapsed": 2196135, "internal_node_id": "0.0-6.0-4.0"}}, {"uniqueid": "w41472627:a15710716", "current_trial": 52, "dateTime": 1693582568223, "trialdata": {"rt": 105054, "response": {"Q0": "Nothing was confusing, I actually play the game.", "Q1": "I have not participated in a web of cash before.", "Q2": ""}, "trial_type": "survey-text", "trial_index": 52, "time_elapsed": 2301233, "internal_node_id": "0.0-6.0-5.0"}}, {"uniqueid": "w41472627:a15710716", "current_trial": 53, "dateTime": 1693582629388, "trialdata": {"rt": 61133, "stimulus": "<h1>Completion Code Instructions (1/2)</h1>\n<br><br><br><br>\nYou have reached the end of the experiment! The completion code consists of two parts: (1) a code with 2 characters (2) a code with 6 characters. On this page, you will receive the second part of the code. The first part of the completion code will be on the next page.\n<br><br>\nThe second part of your completion code is: <b>EWEK22</b>\n<br><br>\nPlease note this down. Then, press 'Next' in order to find the first part of your completion code. Once the data has been saved, you will receive this code either in this window or in the original browser window where you started the experiment.\n <br><br>\n<h2 style='color: red;'>Note: this is <strong>NOT</strong> the full completion code. Copy this down and click 'Next' to get the full completion code on the next page.</h2>", "response": 0, "trial_type": "html-button-response", "trial_index": 53, "time_elapsed": 2362399, "internal_node_id": "0.0-6.0-6.0"}}], "questiondata": {"params": {"CODE": "C6DMOQA6", "MIN_TIME": 14, "inspectCost": 1, "startTime": "Fri Sep 01 2023 16:57:38 GMT+0200 (South Africa Standard Time)", "bonusRate": 0.002, "variance": "1_2_4_8_44", "branching": "31123"}}, "eventdata": [{"eventtype": "initialized", "value": null, "timestamp": 1693580257833, "interval": 0}, {"eventtype": "window_resize", "value": [1026, 637], "timestamp": 1693580257834, "interval": 1}, {"eventtype": "window_resize", "value": [1026, 637], "timestamp": 1693580258506, "interval": 672}, {"eventtype": "window_resize", "value": [1327, 747], "timestamp": 1693580274706, "interval": 16200}], "useragent": "Mozilla/5.0 (Windows NT 10.0; Win64; x64) AppleWebKit/537.36 (KHTML, like Gecko) Chrome/116.0.0.0 Safari/537.36", "mode": "live", "id": "w41472627:a15710716", "status": "user data saved", "Beginhit": "2023-09-01 14:57:17.328712", "Beginexp": "2023-09-01 14:57:55.246345", "Endhit": "2023-09-01 15:37:27.115132", "psiturkStatus": 3, "browser": "<redacted>", "platform": "windows", "language": "en-GB"}