{"condition": 0, "counterbalance": 0, "assignmentId": "a31853610", "workerId": "w97503360", "hitId": "h45756656", "currenttrial": 55, "bonus": 0, "data": [{"uniqueid": "w97503360:a31853610", "current_trial": 0, "dateTime": 1693481115170, "trialdata": {"success": true, "trial_type": "fullscreen", "trial_index": 0, "time_elapsed": 7293, "internal_node_id": "0.0-0.0"}}, {"uniqueid": "w97503360:a31853610", "current_trial": 1, "dateTime": 1693481131059, "trialdata": {"view_history": [{"page_index": 0, "viewing_time": 15875}], "rt": 15877, "trial_id": "exp_instructions_control", "trial_type": "instructions", "trial_index": 1, "time_elapsed": 23181, "internal_node_id": "0.0-1.0"}}, {"uniqueid": "w97503360:a31853610", "current_trial": 2, "dateTime": 1693481342065, "trialdata": {"view_history": [{"page_index": 0, "viewing_time": 59735}, {"page_index": 1, "viewing_time": 92333}, {"page_index": 2, "viewing_time": 18741}, {"page_index": 3, "viewing_time": 40194}], "rt": 211003, "trial_id": "mouselab_instructions_1_control", "trial_type": "instructions", "trial_index": 2, "time_elapsed": 234188, "internal_node_id": "0.0-2.0-1.0"}}, {"uniqueid": "w97503360:a31853610", "current_trial": 3, "dateTime": 1693481406692, "trialdata": {"revealed_states": [], "clicked_states": ["1", "2", "12", "13", "23", "24"], "num_clicks_accrued": [0, 0, 0, 0, 0, 0, 0, 0, 0, 0, 0, 0, 0], "stateRewards": ["", 10, -10, -10, -10, 10, 10, 10, -10, -10, 10, -10, -10, -10, -10, -10, -10, -10, -10, 10, -10, 10, -10, -10, -10, 10, 10, 10, -10, -10, -10, -10, 10, -10], "withholdReward": false, "trial_id": "practice_1", "block": "test", "trialIndex": 0, "score": -9.5, "costs": -3, "simulationMode": [null, null, null, null, null], "rewards": [10, -10, -10, -10, 10], "path": ["0", "0", "1", "2", "3", "4", "7"], "rt": [41172, 1275, 4227, 837, 5208], "actions": ["up", "up", "up", "right", "down"], "actionTimes": [44080, 45893, 50660, 52037, 57775], "queries": {"click": {"state": {"target": ["1", "2", "12", "13", "23", "24"], "time": [5199, 9210, 14634, 16681, 24030, 25562]}, "edge": {"target": [], "time": []}}, "mouseover": {"state": {"target": ["1", "2", "1", "1", "12", "13", "13", "14", "1", "1", "2", "7", "18", "14", "2", "14", "13", "13", "12", "23", "24", "12", "0", "0", "1", "1", "1"], "time": [4879, 8879, 10247, 12095, 14346, 15779, 16430, 17201, 17995, 19363, 19847, 20063, 20129, 20261, 21112, 21811, 22312, 22813, 22929, 23579, 24624, 26762, 33131, 33612, 37195, 39261, 40163]}, "edge": {"target": [], "time": []}}, "mouseout": {"state": {"target": ["0", "1", "2", "1", "1", "12", "13", "13", "14", "1", "1", "2", "7", "18", "14", "2", "14", "13", "13", "12", "23", "23", "24", "24", "23", "12", "0", "0", "1", "1", "1", "1", "2", "6", "4"], "time": [4629, 8562, 9954, 10879, 14296, 15063, 16179, 17165, 17897, 18195, 19379, 20046, 20080, 20163, 20645, 21629, 21959, 22546, 22863, 23241, 24043, 24559, 25578, 26017, 26098, 33030, 33165, 35066, 38963, 39393, 40831, 48663, 48831, 53831, 54196]}, "edge": {"target": [], "time": []}}}, "displayed_time": "58.30", "trialTime": 63164, "trial_type": "mouselab-mdp", "trial_index": 3, "time_elapsed": 298813, "internal_node_id": "0.0-2.0-2.0-0.0"}}, {"uniqueid": "w97503360:a31853610", "current_trial": 4, "dateTime": 1693481427136, "trialdata": {"revealed_states": [], "clicked_states": [], "num_clicks_accrued": [0, 0, 0, 0, 0, 0, 0, 0, 0, 0, 0, 0, 0], "stateRewards": ["", 10, -10, -10, 10, -10, 10, -10, 10, -10, 10, -10, 10, -10, 10, 10, 10, -10, 10, -10, -10, 10, 10, 10, 10, -10, -10, -10, 10, 10, -10, 10, 10, -10], "withholdReward": false, "trial_id": "practice_2", "block": "test", "trialIndex": 1, "score": -6.5, "costs": 0, "simulationMode": [null, null, null, null, null], "rewards": [10, -10, -10, 10, -10], "path": ["0", "0", "1", "2", "3", "8", "11"], "rt": [1318, 6041, 800, 993, 518], "actions": ["up", "up", "up", "left", "left"], "actionTimes": [5377, 11953, 13279, 14804, 15864], "queries": {"click": {"state": {"target": [], "time": []}, "edge": {"target": [], "time": []}}, "mouseover": {"state": {"target": ["12"], "time": [4438]}, "edge": {"target": [], "time": []}}, "mouseout": {"state": {"target": ["4", "2", "23", "0", "12", "1", "2", "3", "2", "3"], "time": [2852, 2891, 3092, 3222, 8143, 8192, 8258, 8275, 16833, 17557]}, "edge": {"target": [], "time": []}}}, "displayed_time": "16.41", "trialTime": 19469, "trial_type": "mouselab-mdp", "trial_index": 4, "time_elapsed": 319257, "internal_node_id": "0.0-2.0-2.0-1.0"}}, {"uniqueid": "w97503360:a31853610", "current_trial": 5, "dateTime": 1693481464340, "trialdata": {"view_history": [{"page_index": 0, "viewing_time": 30005}, {"page_index": 1, "viewing_time": 7186}], "rt": 37192, "trial_id": "mouselab_instructions_2_control", "trial_type": "instructions", "trial_index": 5, "time_elapsed": 356462, "internal_node_id": "0.0-2.0-3.0"}}, {"uniqueid": "w97503360:a31853610", "current_trial": 6, "dateTime": 1693481501732, "trialdata": {"rt": 37373, "response": {"Q0": "The cost for clicking on nodes may vary between nodes.", "Q1": "The better I perform the higher my bonus will be.", "Q2": "No, the amount of cash at each node of the web may be different each time.", "Q3": "To get the highest total score.", "Q4": "Only before moving the spider.", "Q5": "3 seconds"}, "question_order": [0, 1, 2, 3, 4, 5], "correct": {"Q0": "The cost for clicking on nodes may vary between nodes.", "Q1": "The better I perform the higher my bonus will be.", "Q2": "No, the amount of cash at each node of the web may be different each time.", "Q3": "To get the highest total score.", "Q4": "Only before moving the spider.", "Q5": "3 seconds"}, "trial_id": "mouselab_quiz_control", "trial_type": "survey-multi-choice", "trial_index": 6, "time_elapsed": 393855, "internal_node_id": "0.0-2.0-4.0"}}, {"uniqueid": "w97503360:a31853610", "current_trial": 7, "dateTime": 1693481507490, "trialdata": {"rt": 5740, "response": {"Q0": "No"}, "question_order": [0], "trial_id": "repeat_check", "trial_type": "survey-multi-choice", "trial_index": 7, "time_elapsed": 399612, "internal_node_id": "0.0-4.0-0.0"}}, {"uniqueid": "w97503360:a31853610", "current_trial": 8, "dateTime": 1693481519010, "trialdata": {"rt": 11503, "stimulus": "\n<h1> Get ready to start the game! </h1>\n\nThank you for reading the instructions. Get ready start with the 40 rounds of this game.\n<br><br>\nIf you need to take a break, feel free to take one after the end of a round, before continuing to the next one.\n<br><br>\nRemember, the more money the spider gets, the bigger your bonus will be!\n<br><br>\n<div style='text-align: center;'>Press <code>space</code> to begin.</div>\n\n<br><br>\n(If, at any point, the <code>space</code> key does not take you to the next page, click once on the text and try again.)", "response": " ", "trial_id": "mdp_ready", "trial_type": "html-keyboard-response", "trial_index": 8, "time_elapsed": 411133, "internal_node_id": "0.0-6.0-0.0"}}, {"uniqueid": "w97503360:a31853610", "current_trial": 9, "dateTime": 1693481549564, "trialdata": {"revealed_states": [], "clicked_states": ["1", "2", "7", "10", "12"], "num_clicks_accrued": [0, 0, 0, 0, 0, 0, 0, 0, 0, 0, 0, 0, 0], "stateRewards": ["", 2, 4, -5, 7, 81, 35, 6, 11, 14, -72, 42, -1, 2, 3, -7, -77, -44, -40, -15, -85, 51, -32, -2, -1, -5, 7, -74, 47, 52, 16, -49, 48, -46], "withholdReward": false, "trial_id": "mdp_trial_1", "block": "test", "trialIndex": 2, "score": 7, "costs": -7, "simulationMode": [null, null, null, null, null], "rewards": [2, 4, -5, 7, 6], "path": ["0", "0", "1", "2", "3", "4", "7"], "rt": [17320, 365, 951, 185, 435], "actions": ["up", "up", "up", "right", "down"], "actionTimes": [21649, 22537, 24023, 24739, 25706], "queries": {"click": {"state": {"target": ["1", "2", "7", "10", "12"], "time": [5981, 7555, 9391, 11832, 15811]}, "edge": {"target": [], "time": []}}, "mouseover": {"state": {"target": ["1", "2", "7", "10", "1", "12", "12", "23", "23", "23"], "time": [5218, 6520, 8784, 10448, 12273, 12571, 15052, 16378, 16536, 19802]}, "edge": {"target": [], "time": []}}, "mouseout": {"state": {"target": ["24", "23", "0", "1", "2", "7", "2", "10", "10", "1", "12", "12", "23", "23"], "time": [2933, 3100, 3582, 6273, 8599, 10175, 10288, 11882, 12192, 12454, 14651, 16320, 16399, 17568]}, "edge": {"target": [], "time": []}}}, "displayed_time": "26.24", "trialTime": 29405, "trial_type": "mouselab-mdp", "trial_index": 9, "time_elapsed": 441685, "internal_node_id": "0.0-6.0-1.0-0.0"}}, {"uniqueid": "w97503360:a31853610", "current_trial": 10, "dateTime": 1693481572868, "trialdata": {"revealed_states": [], "clicked_states": [], "num_clicks_accrued": [0, 0, 0, 0, 0, 0, 0, 0, 0, 0, 0, 0, 0], "stateRewards": ["", 1, -1, 4, 5, -32, 18, 20, 6, -88, -74, 9, -2, 1, -2, -14, 34, -77, -38, -1, 80, -36, 73, 2, 3, -8, 10, -48, -73, -71, -11, -22, 20, 54], "withholdReward": false, "trial_id": "mdp_trial_2", "block": "test", "trialIndex": 3, "score": 6, "costs": 0, "simulationMode": [null, null, null, null, null], "rewards": [2, 3, -8, -11, 20], "path": ["0", "0", "23", "24", "25", "30", "32"], "rt": [7970, 419, 395, 161, 6963], "actions": ["left", "left", "left", "down", "down"], "actionTimes": [9741, 10695, 11620, 12320, 19820], "queries": {"click": {"state": {"target": [], "time": []}, "edge": {"target": [], "time": []}}, "mouseover": {"state": {"target": ["1", "23", "24", "23"], "time": [4421, 4638, 5421, 6172]}, "edge": {"target": [], "time": []}}, "mouseout": {"state": {"target": ["23", "0", "0", "1", "23", "24", "23", "23", "24", "25", "30", "30", "31", "23", "24", "31"], "time": [603, 769, 1954, 4571, 5254, 6071, 6289, 14322, 14488, 14537, 15180, 16821, 18739, 18938, 19038, 19122]}, "edge": {"target": [], "time": []}}}, "displayed_time": "20.36", "trialTime": 22280, "trial_type": "mouselab-mdp", "trial_index": 10, "time_elapsed": 464989, "internal_node_id": "0.0-6.0-1.0-1.0"}}, {"uniqueid": "w97503360:a31853610", "current_trial": 11, "dateTime": 1693481604500, "trialdata": {"revealed_states": [], "clicked_states": ["1", "23", "24", "30", "32", "12"], "num_clicks_accrued": [0, 0, 0, 0, 0, 0, 0, 0, 0, 0, 0, 0, 0], "stateRewards": ["", 1, -1, 1, -14, -10, 67, -28, -11, 72, 40, -65, -1, 1, 1, -2, 8, -55, 34, -10, 61, 33, -15, 2, -4, 7, 4, -75, 63, -21, -16, 61, 19, 21], "withholdReward": false, "trial_id": "mdp_trial_3", "block": "test", "trialIndex": 4, "score": -0.3999999999999986, "costs": -8.4, "simulationMode": [null, null, null, null, null], "rewards": [2, -4, 7, -16, 19], "path": ["0", "0", "23", "24", "25", "30", "32"], "rt": [17821, 64, 335, 617, 459], "actions": ["left", "left", "left", "down", "down"], "actionTimes": [22829, 23426, 24348, 25495, 26486], "queries": {"click": {"state": {"target": ["1", "23", "24", "30", "32", "12"], "time": [6958, 9222, 11536, 13787, 16967, 19724]}, "edge": {"target": [], "time": []}}, "mouseover": {"state": {"target": ["1", "2", "23", "24", "25", "30", "31", "31", "32", "32", "12"], "time": [6774, 8059, 9108, 9698, 12135, 13291, 14845, 15558, 16475, 16758, 18441]}, "edge": {"target": [], "time": []}}, "mouseout": {"state": {"target": ["31", "0", "1", "2", "23", "24", "25", "30", "31", "31", "30", "32", "32"], "time": [1823, 6207, 7610, 8524, 9578, 12030, 13026, 14145, 15314, 16125, 16441, 16609, 17279]}, "edge": {"target": [], "time": []}}}, "displayed_time": "27.01", "trialTime": 30468, "trial_type": "mouselab-mdp", "trial_index": 11, "time_elapsed": 496623, "internal_node_id": "0.0-6.0-1.0-2.0"}}, {"uniqueid": "w97503360:a31853610", "current_trial": 12, "dateTime": 1693481624826, "trialdata": {"revealed_states": [], "clicked_states": [], "num_clicks_accrued": [0, 0, 0, 0, 0, 0, 0, 0, 0, 0, 0, 0, 0], "stateRewards": ["", -1, -3, -6, -2, -7, 80, -45, -3, -38, -72, 76, 2, 1, 7, 4, -62, 14, -74, 14, -87, -21, -88, -2, 1, -7, -10, 66, 56, -76, 10, -29, -72, -70], "withholdReward": false, "trial_id": "mdp_trial_4", "block": "test", "trialIndex": 5, "score": -85, "costs": 0, "simulationMode": [null, null, null, null, null], "rewards": [-1, -3, -6, -3, -72], "path": ["0", "0", "1", "2", "3", "8", "10"], "rt": [3209, 507, 2576, 289, 284], "actions": ["up", "up", "up", "left", "down"], "actionTimes": [6812, 7842, 10942, 11757, 12577], "queries": {"click": {"state": {"target": [], "time": []}, "edge": {"target": [], "time": []}}, "mouseover": {"state": {"target": [], "time": []}, "edge": {"target": [], "time": []}}, "mouseout": {"state": {"target": ["12", "0"], "time": [2595, 9797]}, "edge": {"target": [], "time": []}}}, "displayed_time": "17.60", "trialTime": 19348, "trial_type": "mouselab-mdp", "trial_index": 12, "time_elapsed": 516948, "internal_node_id": "0.0-6.0-1.0-3.0"}}, {"uniqueid": "w97503360:a31853610", "current_trial": 13, "dateTime": 1693481649834, "trialdata": {"revealed_states": [], "clicked_states": ["14", "19", "21", "22"], "num_clicks_accrued": [0, 0, 0, 0, 0, 0, 0, 0, 0, 0, 0, 0, 0], "stateRewards": ["", -2, 3, 8, -9, 59, 41, -50, -1, 82, 66, 33, 2, -2, 7, 8, 1, -38, 12, -16, 24, -37, 67, 1, 4, -2, 5, 35, -83, 28, 8, -27, 69, -64], "withholdReward": false, "trial_id": "mdp_trial_5", "block": "test", "trialIndex": 6, "score": 52.4, "costs": -5.6, "simulationMode": [null, null, null, null, null], "rewards": [2, -2, 7, -16, 67], "path": ["0", "0", "12", "13", "14", "19", "22"], "rt": [12557, 93, 249, 107, 498], "actions": ["right", "right", "right", "down", "left"], "actionTimes": [16011, 16642, 17468, 18106, 19130], "queries": {"click": {"state": {"target": ["14", "19", "21", "22"], "time": [6108, 7984, 9900, 12601]}, "edge": {"target": [], "time": []}}, "mouseover": {"state": {"target": ["12", "14", "15", "19", "19", "21", "22"], "time": [5580, 5962, 6683, 7544, 7867, 8449, 12428]}, "edge": {"target": [], "time": []}}, "mouseout": {"state": {"target": ["1", "0", "12", "14", "15", "14", "19", "19", "21", "21", "22"], "time": [2328, 5561, 5596, 6466, 7464, 7520, 7608, 8364, 10216, 12145, 12900]}, "edge": {"target": [], "time": []}}}, "displayed_time": "19.67", "trialTime": 23951, "trial_type": "mouselab-mdp", "trial_index": 13, "time_elapsed": 541955, "internal_node_id": "0.0-6.0-1.0-4.0"}}, {"uniqueid": "w97503360:a31853610", "current_trial": 14, "dateTime": 1693481670729, "trialdata": {"revealed_states": [], "clicked_states": ["1", "6", "22"], "num_clicks_accrued": [0, 0, 0, 0, 0, 0, 0, 0, 0, 0, 0, 0, 0], "stateRewards": ["", -2, -4, -2, 10, -8, -15, -47, 7, -84, 53, 5, -1, 2, -7, 3, 83, 31, 47, -1, 30, -8, 69, 2, -4, -1, 8, -7, 12, -8, -8, -13, 30, -84], "withholdReward": false, "trial_id": "mdp_trial_6", "block": "test", "trialIndex": 7, "score": 57.8, "costs": -4.199999999999999, "simulationMode": [null, null, null, null, null], "rewards": [-1, 2, -7, -1, 69], "path": ["0", "0", "12", "13", "14", "19", "22"], "rt": [8879, 1210, 690, 88, 430], "actions": ["right", "right", "right", "down", "left"], "actionTimes": [10945, 15140, 16369, 16983, 17941], "queries": {"click": {"state": {"target": ["1", "6", "22"], "time": [2695, 5099, 6989]}, "edge": {"target": [], "time": []}}, "mouseover": {"state": {"target": ["1", "7", "2", "7", "6", "16", "15", "14", "19", "22", "21", "19"], "time": [2487, 3686, 3926, 4201, 4691, 5331, 5387, 5430, 5611, 5687, 9044, 9542]}, "edge": {"target": [], "time": []}}, "mouseout": {"state": {"target": ["19", "0", "1", "1", "7", "2", "7", "6", "16", "15", "14", "19", "22", "21", "19", "20"], "time": [673, 2093, 2722, 3180, 3799, 4178, 4228, 5278, 5355, 5409, 5469, 5634, 7382, 9492, 13327, 13918]}, "edge": {"target": [], "time": []}}}, "displayed_time": "18.48", "trialTime": 19759, "trial_type": "mouselab-mdp", "trial_index": 14, "time_elapsed": 562850, "internal_node_id": "0.0-6.0-1.0-5.0"}}, {"uniqueid": "w97503360:a31853610", "current_trial": 15, "dateTime": 1693481698395, "trialdata": {"revealed_states": [], "clicked_states": ["25", "30", "32"], "num_clicks_accrued": [0, 0, 0, 0, 0, 0, 0, 0, 0, 0, 0, 0, 0], "stateRewards": ["", -2, 1, 6, -2, -10, -78, -69, 14, -15, 7, -1, 1, -1, -2, 13, 77, 32, 87, 5, -74, 30, -26, 1, 3, 4, 12, 39, 54, -43, 2, 10, 23, 13], "withholdReward": false, "trial_id": "mdp_trial_7", "block": "test", "trialIndex": 8, "score": -27.2, "costs": -4.199999999999999, "simulationMode": [null, null, null, null, null], "rewards": [1, 3, 4, 12, -43], "path": ["0", "0", "23", "24", "25", "26", "29"], "rt": [8140, 283, 324, 252, 10627], "actions": ["left", "left", "left", "up", "left"], "actionTimes": [9784, 10599, 11457, 12253, 23411], "queries": {"click": {"state": {"target": ["25", "30", "32"], "time": [2513, 4553, 6472]}, "edge": {"target": [], "time": []}}, "mouseover": {"state": {"target": ["0", "23", "24", "25", "30", "32"], "time": [1913, 2031, 2067, 2099, 2784, 4933]}, "edge": {"target": [], "time": []}}, "mouseout": {"state": {"target": ["22", "12", "0", "0", "23", "24", "25", "30", "32", "31", "31", "24", "26", "26", "25", "30", "30"], "time": [412, 512, 1674, 2026, 2048, 2083, 2716, 4866, 6735, 18682, 18814, 18848, 19263, 19480, 19731, 20414, 22127]}, "edge": {"target": [], "time": []}}}, "displayed_time": "23.95", "trialTime": 25995, "trial_type": "mouselab-mdp", "trial_index": 15, "time_elapsed": 590516, "internal_node_id": "0.0-6.0-1.0-6.0"}}, {"uniqueid": "w97503360:a31853610", "current_trial": 16, "dateTime": 1693481729692, "trialdata": {"revealed_states": [], "clicked_states": ["32", "23", "24", "25"], "num_clicks_accrued": [0, 0, 0, 0, 0, 0, 0, 0, 0, 0, 0, 0, 0], "stateRewards": ["", 1, 4, -8, -13, -13, -87, -77, -10, -44, 54, 42, 2, -3, -4, 12, -9, -80, 52, 9, 84, -2, -65, 1, -4, -5, -6, 8, 80, 32, 13, -59, -5, -13], "withholdReward": false, "trial_id": "mdp_trial_8", "block": "test", "trialIndex": 9, "score": -13.6, "costs": -5.6, "simulationMode": [null, null, null, null, null], "rewards": [1, -4, -5, 13, -13], "path": ["0", "0", "23", "24", "25", "30", "33"], "rt": [10566, 11059, 458, 133, 209], "actions": ["left", "left", "left", "down", "left"], "actionTimes": [12401, 23986, 24985, 25660, 26535], "queries": {"click": {"state": {"target": ["32", "23", "24", "25"], "time": [2946, 5201, 7476, 9524]}, "edge": {"target": [], "time": []}}, "mouseover": {"state": {"target": ["31", "32", "31", "24", "23", "24", "24", "25"], "time": [2322, 2505, 4538, 4772, 4988, 5645, 6950, 8057]}, "edge": {"target": [], "time": []}}, "mouseout": {"state": {"target": ["0", "31", "32", "31", "24", "23", "24", "24", "25", "24"], "time": [1003, 2340, 3159, 4638, 4856, 5556, 5694, 7893, 17294, 17339]}, "edge": {"target": [], "time": []}}}, "displayed_time": "27.07", "trialTime": 30134, "trial_type": "mouselab-mdp", "trial_index": 16, "time_elapsed": 621813, "internal_node_id": "0.0-6.0-1.0-7.0"}}, {"uniqueid": "w97503360:a31853610", "current_trial": 17, "dateTime": 1693481749026, "trialdata": {"revealed_states": [], "clicked_states": ["5", "6", "7"], "num_clicks_accrued": [0, 0, 0, 0, 0, 0, 0, 0, 0, 0, 0, 0, 0], "stateRewards": ["", 1, 1, -7, -9, -44, 24, -83, -15, 44, -24, 72, -2, -3, 4, -5, 57, 55, 29, -11, 22, 12, -25, -1, 2, 7, 12, 33, -8, 47, -4, 8, 50, -4], "withholdReward": false, "trial_id": "mdp_trial_9", "block": "test", "trialIndex": 10, "score": 5.800000000000001, "costs": -4.199999999999999, "simulationMode": [null, null, null, null, null], "rewards": [1, 1, -7, -9, 24], "path": ["0", "0", "1", "2", "3", "4", "6"], "rt": [8347, 331, 279, 654, 148], "actions": ["up", "up", "up", "right", "right"], "actionTimes": [10061, 10925, 11738, 12930, 13608], "queries": {"click": {"state": {"target": ["5", "6", "7"], "time": [2762, 4853, 7318]}, "edge": {"target": [], "time": []}}, "mouseover": {"state": {"target": ["14", "15", "16", "6", "5", "5", "6", "7"], "time": [1936, 1973, 2073, 2157, 2205, 2623, 3130, 5891]}, "edge": {"target": [], "time": []}}, "mouseout": {"state": {"target": ["23", "0", "14", "15", "16", "6", "5", "5", "6"], "time": [null, 1742, 1955, 2039, 2122, 2175, 2306, 3043, 5362]}, "edge": {"target": [], "time": []}}}, "displayed_time": "15.72", "trialTime": 18068, "trial_type": "mouselab-mdp", "trial_index": 17, "time_elapsed": 641147, "internal_node_id": "0.0-6.0-1.0-8.0"}}, {"uniqueid": "w97503360:a31853610", "current_trial": 18, "dateTime": 1693481799606, "trialdata": {"revealed_states": [], "clicked_states": ["26", "24", "25", "28"], "num_clicks_accrued": [0, 0, 0, 0, 0, 0, 0, 0, 0, 0, 0, 0, 0], "stateRewards": ["", 1, 4, 5, 8, -55, -11, 8, 16, -37, 77, -22, -2, 3, -8, -10, 45, 87, -67, 4, 17, -33, -22, -1, -3, 7, 6, -39, -85, 75, -1, 7, -48, 45], "withholdReward": false, "trial_id": "mdp_trial_10", "block": "test", "trialIndex": 11, "score": -81.6, "costs": -5.6, "simulationMode": [null, null, null, null, null], "rewards": [-1, -3, 7, 6, -85], "path": ["0", "0", "23", "24", "25", "26", "28"], "rt": [12596, 407, 120, 24224, 1029], "actions": ["left", "left", "left", "up", "right"], "actionTimes": [19419, 20363, 21010, 45764, 47318], "queries": {"click": {"state": {"target": ["26", "24", "25", "28"], "time": [9231, 11376, 13444, 16513]}, "edge": {"target": [], "time": []}}, "mouseover": {"state": {"target": ["28", "24", "26", "24", "23", "24", "25", "26", "28"], "time": [7552, 8486, 8902, 9782, 10159, 10523, 12455, 13992, 16135]}, "edge": {"target": [], "time": []}}, "mouseout": {"state": {"target": ["7", "1", "12", "28", "24", "26", "24", "23", "24", "25", "26", "28", "28", "28", "28", "26", "31"], "time": [951, 1851, 3716, 8035, 8668, 9593, 9972, 10390, 12037, 13807, 14016, 16884, 29869, 39219, 40018, 40836, 40953]}, "edge": {"target": [], "time": []}}}, "displayed_time": "47.86", "trialTime": 49309, "trial_type": "mouselab-mdp", "trial_index": 18, "time_elapsed": 691727, "internal_node_id": "0.0-6.0-1.0-9.0"}}, {"uniqueid": "w97503360:a31853610", "current_trial": 19, "dateTime": 1693481820509, "trialdata": {"revealed_states": [], "clicked_states": ["13", "14", "19", "20"], "num_clicks_accrued": [0, 0, 0, 0, 0, 0, 0, 0, 0, 0, 0, 0, 0], "stateRewards": ["", -1, 2, -2, 13, -56, -28, 10, 14, 53, -80, -29, 1, -3, -3, -14, 14, 9, -40, -9, 18, 18, 48, 1, 1, 1, -9, 64, -39, -9, 7, -52, -78, 7], "withholdReward": false, "trial_id": "mdp_trial_11", "block": "test", "trialIndex": 12, "score": -1.6000000000000014, "costs": -5.6, "simulationMode": [null, null, null, null, null], "rewards": [1, -3, -3, -9, 18], "path": ["0", "0", "12", "13", "14", "19", "20"], "rt": [11634, 348, 279, 224, 319], "actions": ["right", "right", "right", "down", "right"], "actionTimes": [13691, 14601, 15414, 16173, 17020], "queries": {"click": {"state": {"target": ["13", "14", "19", "20"], "time": [4463, 6448, 8309, 10403]}, "edge": {"target": [], "time": []}}, "mouseover": {"state": {"target": ["14", "15", "13", "13", "14", "13", "14", "19", "20", "21"], "time": [2380, 2780, 3496, 3730, 4080, 4164, 4734, 7381, 9098, 11414]}, "edge": {"target": [], "time": []}}, "mouseout": {"state": {"target": ["0", "14", "15", "13", "13", "14", "13", "14", "19", "20", "21"], "time": [2083, 2546, 3314, 3578, 3795, 4146, 4685, 7100, 8917, 11029, 12812]}, "edge": {"target": [], "time": []}}}, "displayed_time": "17.56", "trialTime": 19540, "trial_type": "mouselab-mdp", "trial_index": 19, "time_elapsed": 712629, "internal_node_id": "0.0-6.0-1.0-10.0"}}, {"uniqueid": "w97503360:a31853610", "current_trial": 20, "dateTime": 1693481844089, "trialdata": {"revealed_states": [], "clicked_states": ["21", "19", "14", "13", "12"], "num_clicks_accrued": [0, 0, 0, 0, 0, 0, 0, 0, 0, 0, 0, 0, 0], "stateRewards": ["", 2, -4, 7, 3, 23, -42, 4, 7, -81, -33, 7, -2, -4, 5, -1, 50, -57, -14, -13, -14, 44, 55, -2, -2, 5, -2, 33, 1, 57, -13, -7, 58, 87], "withholdReward": false, "trial_id": "mdp_trial_12", "block": "test", "trialIndex": 13, "score": 23, "costs": -7, "simulationMode": [null, null, null, null, null], "rewards": [-2, -4, 5, -13, 44], "path": ["0", "0", "12", "13", "14", "19", "21"], "rt": [13429, 103, 363, 385, 374], "actions": ["right", "right", "right", "down", "down"], "actionTimes": [16470, 17156, 18075, 19012, 19936], "queries": {"click": {"state": {"target": ["21", "19", "14", "13", "12"], "time": [5241, 7679, 9729, 11703, 14076]}, "edge": {"target": [], "time": []}}, "mouseover": {"state": {"target": ["21", "13", "14", "19", "21", "19", "22", "22", "19", "14", "13", "12"], "time": [3094, 4155, 4571, 4704, 4855, 5810, 6590, 7006, 7090, 8191, 10426, 13950]}, "edge": {"target": [], "time": []}}, "mouseout": {"state": {"target": ["0", "21", "13", "14", "19", "21", "19", "22", "22", "19", "14", "13", "12", "13"], "time": [3088, 3806, 4423, 4639, 4739, 5525, 6546, 6700, 7056, 7740, 10280, 12556, 14377, 14454]}, "edge": {"target": [], "time": []}}}, "displayed_time": "20.48", "trialTime": 22333, "trial_type": "mouselab-mdp", "trial_index": 20, "time_elapsed": 736212, "internal_node_id": "0.0-6.0-1.0-11.0"}}, {"uniqueid": "w97503360:a31853610", "current_trial": 21, "dateTime": 1693481867283, "trialdata": {"revealed_states": [], "clicked_states": ["23", "24", "25", "30", "33"], "num_clicks_accrued": [0, 0, 0, 0, 0, 0, 0, 0, 0, 0, 0, 0, 0], "stateRewards": ["", -2, -3, 7, -13, 60, 9, 37, -6, 37, 20, 1, 2, -2, -8, 6, -80, -31, -10, -7, 70, -65, -44, -1, 1, 7, 6, -11, 73, -85, 16, -21, 47, 34], "withholdReward": false, "trial_id": "mdp_trial_13", "block": "test", "trialIndex": 14, "score": 50, "costs": -7, "simulationMode": [null, null, null, null, null], "rewards": [-1, 1, 7, 16, 34], "path": ["0", "0", "23", "24", "25", "30", "33"], "rt": [14272, 227, 126, 784, 198], "actions": ["left", "left", "left", "down", "left"], "actionTimes": [16339, 17120, 17782, 19121, 19901], "queries": {"click": {"state": {"target": ["23", "24", "25", "30", "33"], "time": [4126, 6622, 8447, 11540, 13754]}, "edge": {"target": [], "time": []}}, "mouseover": {"state": {"target": ["24", "23", "24", "12", "24", "25", "30", "33"], "time": [3680, 3930, 4384, 6181, 6449, 7074, 8724, 12004]}, "edge": {"target": [], "time": []}}, "mouseout": {"state": {"target": ["13", "12", "0", "24", "23", "24", "12", "24", "25", "30", "33", "30"], "time": [1062, 1095, 2155, 3864, 4249, 5769, 6314, 7015, 8679, 11886, 14169, 14254]}, "edge": {"target": [], "time": []}}}, "displayed_time": "20.44", "trialTime": 21898, "trial_type": "mouselab-mdp", "trial_index": 21, "time_elapsed": 759404, "internal_node_id": "0.0-6.0-1.0-12.0"}}, {"uniqueid": "w97503360:a31853610", "current_trial": 22, "dateTime": 1693481894900, "trialdata": {"revealed_states": [], "clicked_states": ["1", "2", "3", "8", "10", "11"], "num_clicks_accrued": [0, 0, 0, 0, 0, 0, 0, 0, 0, 0, 0, 0, 0], "stateRewards": ["", -1, -3, -3, 1, -38, 2, -53, -2, -1, -81, 70, -1, 1, -5, -9, 46, 15, 35, -1, -22, 38, 59, -2, 4, -8, 13, 1, -83, -43, 4, 76, 13, 48], "withholdReward": false, "trial_id": "mdp_trial_14", "block": "test", "trialIndex": 15, "score": 52.6, "costs": -8.4, "simulationMode": [null, null, null, null, null], "rewards": [-1, -3, -3, -2, 70], "path": ["0", "0", "1", "2", "3", "8", "11"], "rt": [18713, 130, 313, 710, 132], "actions": ["up", "up", "up", "left", "left"], "actionTimes": [20801, 21464, 22329, 23577, 24249], "queries": {"click": {"state": {"target": ["1", "2", "3", "8", "10", "11"], "time": [4713, 7297, 9512, 11517, 13809, 17238]}, "edge": {"target": [], "time": []}}, "mouseover": {"state": {"target": ["12", "0", "23", "24", "24", "24", "23", "0", "1", "2", "3", "8", "8", "10", "11", "11", "8", "3", "4"], "time": [2138, 2846, 3065, 3116, 3497, 4080, 4119, 4160, 4613, 5199, 7823, 10428, 10662, 13533, 14834, 17035, 17998, 18046, 18212]}, "edge": {"target": [], "time": []}}, "mouseout": {"state": {"target": ["0", "12", "0", "23", "24", "24", "24", "23", "0", "1", "2", "3", "8", "8", "10", "11", "11", "8", "3"], "time": [1194, 2630, 3047, 3097, 3246, 3846, 4099, 4141, 4230, 4918, 7651, 10354, 10468, 13431, 14416, 16779, 17974, 18021, 18140]}, "edge": {"target": [], "time": []}}}, "displayed_time": "24.82", "trialTime": 26431, "trial_type": "mouselab-mdp", "trial_index": 22, "time_elapsed": 787021, "internal_node_id": "0.0-6.0-1.0-13.0"}}, {"uniqueid": "w97503360:a31853610", "current_trial": 23, "dateTime": 1693481933545, "trialdata": {"revealed_states": [], "clicked_states": ["1", "2", "3", "4", "7", "5", "6"], "num_clicks_accrued": [0, 0, 0, 0, 0, 0, 0, 0, 0, 0, 0, 0, 0], "stateRewards": ["", -1, 2, -6, 6, -82, -19, -39, -16, -83, 11, -33, -2, -2, 4, -6, -82, -1, -19, -6, -10, -67, -41, -2, 1, -7, 16, -23, -78, -52, 14, 31, -71, 74], "withholdReward": false, "trial_id": "mdp_trial_15", "block": "test", "trialIndex": 16, "score": -27.8, "costs": -9.8, "simulationMode": [null, null, null, null, null], "rewards": [-1, 2, -6, 6, -19], "path": ["0", "0", "1", "2", "3", "4", "6"], "rt": [17511, 237, 242, 13642, 425], "actions": ["up", "up", "up", "right", "right"], "actionTimes": [19280, 20055, 20819, 34996, 35961], "queries": {"click": {"state": {"target": ["1", "2", "3", "4", "7", "5", "6"], "time": [3017, 4777, 7058, 9455, 11585, 14265, 16531]}, "edge": {"target": [], "time": []}}, "mouseover": {"state": {"target": ["2", "1", "2", "2", "3", "4", "4", "7", "4", "7", "5", "6"], "time": [2501, 2841, 3393, 4548, 5070, 7568, 8268, 8671, 9305, 9763, 13989, 16349]}, "edge": {"target": [], "time": []}}, "mouseout": {"state": {"target": ["4", "7", "1", "0", "2", "1", "2", "2", "3", "4", "4", "7", "4", "7", "4", "5", "6"], "time": [576, 662, 716, 1797, 2772, 3251, 4080, 4927, 7561, 7862, 8606, 9233, 9702, 13831, 13883, 14669, 17061]}, "edge": {"target": [], "time": []}}}, "displayed_time": "36.54", "trialTime": 37542, "trial_type": "mouselab-mdp", "trial_index": 23, "time_elapsed": 825666, "internal_node_id": "0.0-6.0-1.0-14.0"}}, {"uniqueid": "w97503360:a31853610", "current_trial": 24, "dateTime": 1693481955980, "trialdata": {"revealed_states": [], "clicked_states": [], "num_clicks_accrued": [0, 0, 0, 0, 0, 0, 0, 0, 0, 0, 0, 0, 0], "stateRewards": ["", -1, 3, 8, 9, -53, 20, -84, 2, -28, -62, -31, -1, -2, -7, 2, 51, 58, 45, -4, -17, -41, 36, 2, -2, -7, -15, 29, -54, -37, -16, -43, 65, -17], "withholdReward": false, "trial_id": "mdp_trial_16", "block": "test", "trialIndex": 17, "score": -31, "costs": 0, "simulationMode": [null, null, null, null, null], "rewards": [-1, -2, -7, -4, -17], "path": ["0", "0", "12", "13", "14", "19", "20"], "rt": [5782, 79, 338, 2670, 642], "actions": ["right", "right", "right", "down", "right"], "actionTimes": [10831, 11449, 12351, 15560, 16729], "queries": {"click": {"state": {"target": [], "time": []}, "edge": {"target": [], "time": []}}, "mouseover": {"state": {"target": ["12", "12", "13"], "time": [8384, 8583, 8984]}, "edge": {"target": [], "time": []}}, "mouseout": {"state": {"target": ["7", "12", "12", "13"], "time": [3700, 8500, 8949, 9885]}, "edge": {"target": [], "time": []}}}, "displayed_time": "19.05", "trialTime": 21113, "trial_type": "mouselab-mdp", "trial_index": 24, "time_elapsed": 848101, "internal_node_id": "0.0-6.0-1.0-15.0"}}, {"uniqueid": "w97503360:a31853610", "current_trial": 25, "dateTime": 1693481981252, "trialdata": {"revealed_states": [], "clicked_states": ["12", "13", "14", "15", "18"], "num_clicks_accrued": [0, 0, 0, 0, 0, 0, 0, 0, 0, 0, 0, 0, 0], "stateRewards": ["", 1, 1, 1, -3, -7, -1, -41, -10, 20, -72, -63, 1, -4, -2, 2, -66, 30, -84, -2, 49, 23, 71, -1, -4, 4, -12, 67, 5, 18, -16, 88, 56, -5], "withholdReward": false, "trial_id": "mdp_trial_17", "block": "test", "trialIndex": 18, "score": 20, "costs": -7, "simulationMode": [null, null, null, null, null], "rewards": [1, -4, -2, 2, 30], "path": ["0", "0", "12", "13", "14", "15", "17"], "rt": [14857, 291, 359, 889, 168], "actions": ["right", "right", "right", "up", "right"], "actionTimes": [17589, 18416, 19301, 20732, 21426], "queries": {"click": {"state": {"target": ["12", "13", "14", "15", "18"], "time": [4369, 7765, 9745, 12265, 14520]}, "edge": {"target": [], "time": []}}, "mouseover": {"state": {"target": ["0", "23", "23", "0", "12", "13", "14", "15", "17", "18"], "time": [3091, 3205, 3438, 3823, 3861, 4570, 8124, 12137, 13521, 14284]}, "edge": {"target": [], "time": []}}, "mouseout": {"state": {"target": ["0", "0", "23", "23", "0", "12", "13", "14", "15", "17", "15"], "time": [1936, 3154, 3287, 3804, 3855, 4510, 8062, 11922, 13384, 14121, 14254]}, "edge": {"target": [], "time": []}}}, "displayed_time": "21.96", "trialTime": 23889, "trial_type": "mouselab-mdp", "trial_index": 25, "time_elapsed": 873373, "internal_node_id": "0.0-6.0-1.0-16.0"}}, {"uniqueid": "w97503360:a31853610", "current_trial": 26, "dateTime": 1693482002035, "trialdata": {"revealed_states": [], "clicked_states": ["1", "2", "3", "4", "5"], "num_clicks_accrued": [0, 0, 0, 0, 0, 0, 0, 0, 0, 0, 0, 0, 0], "stateRewards": ["", 2, 3, -1, 6, 44, -4, -59, -14, -3, 64, 16, 1, -3, 3, 6, 3, 49, 19, 3, -49, -14, -86, 1, 2, -3, -8, -33, 14, 32, -13, -77, -47, -67], "withholdReward": false, "trial_id": "mdp_trial_18", "block": "test", "trialIndex": 19, "score": 47, "costs": -7, "simulationMode": [null, null, null, null, null], "rewards": [2, 3, -1, 6, 44], "path": ["0", "0", "1", "2", "3", "4", "5"], "rt": [12221, 4, 388, 163, 199], "actions": ["up", "up", "up", "right", "up"], "actionTimes": [14646, 15186, 16103, 16799, 17547], "queries": {"click": {"state": {"target": ["1", "2", "3", "4", "5"], "time": [3585, 5679, 7248, 9193, 11410]}, "edge": {"target": [], "time": []}}, "mouseover": {"state": {"target": ["0", "23", "23", "1", "2", "7", "2", "3", "4", "5"], "time": [2447, 2862, 3045, 3362, 3846, 4767, 5295, 6467, 7780, 9765]}, "edge": {"target": [], "time": []}}, "mouseout": {"state": {"target": ["18", "1", "10", "1", "0", "23", "23", "1", "2", "7", "2", "3", "4"], "time": [815, 942, 960, 1377, 2829, 2894, 3079, 3713, 4605, 5261, 6169, 7636, 9634]}, "edge": {"target": [], "time": []}}}, "displayed_time": "18.10", "trialTime": 19363, "trial_type": "mouselab-mdp", "trial_index": 26, "time_elapsed": 894157, "internal_node_id": "0.0-6.0-1.0-17.0"}}, {"uniqueid": "w97503360:a31853610", "current_trial": 27, "dateTime": 1693482023099, "trialdata": {"revealed_states": [], "clicked_states": ["23", "24", "25", "30", "33"], "num_clicks_accrued": [0, 0, 0, 0, 0, 0, 0, 0, 0, 0, 0, 0, 0], "stateRewards": ["", 2, -4, 1, -12, -59, -53, -74, 16, -88, -66, 66, 1, -2, 8, -9, -14, 22, 25, -1, -39, 47, -14, -1, -1, -2, 1, -4, 52, -26, 15, -7, 46, 43], "withholdReward": false, "trial_id": "mdp_trial_19", "block": "test", "trialIndex": 20, "score": 47, "costs": -7, "simulationMode": [null, null, null, null, null], "rewards": [-1, -1, -2, 15, 43], "path": ["0", "0", "23", "24", "25", "30", "33"], "rt": [12511, 26, 428, 247, 328], "actions": ["left", "left", "left", "down", "left"], "actionTimes": [15179, 15744, 16718, 17521, 18384], "queries": {"click": {"state": {"target": ["23", "24", "25", "30", "33"], "time": [3824, 5715, 7814, 9853, 12164]}, "edge": {"target": [], "time": []}}, "mouseover": {"state": {"target": ["23", "24", "25", "30", "33"], "time": [3581, 4118, 6133, 8200, 10376]}, "edge": {"target": [], "time": []}}, "mouseout": {"state": {"target": ["5", "4", "12", "0", "23", "24", "25", "30", "33", "30"], "time": [1413, 1445, 1645, 1894, 4087, 6041, 8131, 10266, 12609, 12724]}, "edge": {"target": [], "time": []}}}, "displayed_time": "18.92", "trialTime": 19944, "trial_type": "mouselab-mdp", "trial_index": 27, "time_elapsed": 915220, "internal_node_id": "0.0-6.0-1.0-18.0"}}, {"uniqueid": "w97503360:a31853610", "current_trial": 28, "dateTime": 1693482046934, "trialdata": {"revealed_states": [], "clicked_states": ["23", "24", "25", "26", "28", "29"], "num_clicks_accrued": [0, 0, 0, 0, 0, 0, 0, 0, 0, 0, 0, 0, 0], "stateRewards": ["", 2, 2, 3, -15, 23, -14, 73, -7, -32, -20, -6, 1, 1, -5, -12, 73, 6, -84, 11, -81, -57, 13, -2, -1, -4, -8, -52, -58, 49, 13, 5, -41, -41], "withholdReward": false, "trial_id": "mdp_trial_20", "block": "test", "trialIndex": 21, "score": 25.6, "costs": -8.4, "simulationMode": [null, null, null, null, null], "rewards": [-2, -1, -4, -8, 49], "path": ["0", "0", "23", "24", "25", "26", "29"], "rt": [15478, 46, 20, 628, 81], "actions": ["left", "left", "left", "up", "left"], "actionTimes": [17746, 18326, 18889, 20029, 20651], "queries": {"click": {"state": {"target": ["23", "24", "25", "26", "28", "29"], "time": [4377, 6504, 8549, 10562, 12742, 14785]}, "edge": {"target": [], "time": []}}, "mouseover": {"state": {"target": ["23", "24", "23", "24", "25", "26", "28", "29", "26"], "time": [3810, 4009, 4176, 4683, 6909, 9169, 11022, 14215, 16912]}, "edge": {"target": [], "time": []}}, "mouseout": {"state": {"target": ["31", "0", "23", "24", "23", "24", "25", "26", "28", "26", "29", "26"], "time": [976, 3728, 3977, 4078, 4617, 6815, 9040, 10927, 13977, 14010, 16878, 16945]}, "edge": {"target": [], "time": []}}}, "displayed_time": "21.18", "trialTime": 22643, "trial_type": "mouselab-mdp", "trial_index": 28, "time_elapsed": 939055, "internal_node_id": "0.0-6.0-1.0-19.0"}}, {"uniqueid": "w97503360:a31853610", "current_trial": 29, "dateTime": 1693482069121, "trialdata": {"revealed_states": [], "clicked_states": ["23", "24", "25", "26", "27"], "num_clicks_accrued": [0, 0, 0, 0, 0, 0, 0, 0, 0, 0, 0, 0, 0], "stateRewards": ["", -1, 3, -4, -14, 78, 67, 2, 13, -32, 28, 39, -2, 1, -4, -4, -4, -42, -86, 11, 64, -29, -32, -1, -4, 2, -7, 5, 68, -61, 2, -21, 85, 50], "withholdReward": false, "trial_id": "mdp_trial_21", "block": "test", "trialIndex": 22, "score": -12, "costs": -7, "simulationMode": [null, null, null, null, null], "rewards": [-1, -4, 2, -7, 5], "path": ["0", "0", "23", "24", "25", "26", "27"], "rt": [12649, 168, 333, 1235, 786], "actions": ["left", "left", "left", "up", "up"], "actionTimes": [14697, 15399, 16255, 18039, 19351], "queries": {"click": {"state": {"target": ["23", "24", "25", "26", "27"], "time": [3580, 5591, 7598, 9878, 11808]}, "edge": {"target": [], "time": []}}, "mouseover": {"state": {"target": ["0", "1", "23", "24", "25", "26", "26", "28", "27", "28"], "time": [2328, 2609, 3144, 3812, 5986, 8189, 8530, 10262, 11467, 13955]}, "edge": {"target": [], "time": []}}, "mouseout": {"state": {"target": ["23", "0", "0", "1", "23", "24", "25", "26", "26", "28", "27", "27"], "time": [625, 2074, 2494, 2894, 3764, 5672, 7676, 8268, 10162, 11316, 11885, 12183]}, "edge": {"target": [], "time": []}}}, "displayed_time": "19.90", "trialTime": 20929, "trial_type": "mouselab-mdp", "trial_index": 29, "time_elapsed": 961242, "internal_node_id": "0.0-6.0-1.0-20.0"}}, {"uniqueid": "w97503360:a31853610", "current_trial": 30, "dateTime": 1693482087912, "trialdata": {"revealed_states": [], "clicked_states": ["12", "13", "14"], "num_clicks_accrued": [0, 0, 0, 0, 0, 0, 0, 0, 0, 0, 0, 0, 0], "stateRewards": ["", 1, -2, -8, -13, 4, 34, -84, -4, -49, 88, -70, -1, 3, -4, 10, -77, 13, -34, 15, -21, -16, 27, 1, -2, 8, -8, -6, 38, -26, 6, -15, 66, -3], "withholdReward": false, "trial_id": "mdp_trial_22", "block": "test", "trialIndex": 23, "score": 35.8, "costs": -4.199999999999999, "simulationMode": [null, null, null, null, null], "rewards": [-1, 3, -4, 15, 27], "path": ["0", "0", "12", "13", "14", "19", "22"], "rt": [6824, 14, 2471, 152, 968], "actions": ["right", "right", "right", "down", "left"], "actionTimes": [8422, 8971, 11997, 12677, 14174], "queries": {"click": {"state": {"target": ["12", "13", "14"], "time": [2513, 4263, 5909]}, "edge": {"target": [], "time": []}}, "mouseover": {"state": {"target": ["13", "12", "13", "14"], "time": [1986, 2271, 3139, 5117]}, "edge": {"target": [], "time": []}}, "mouseout": {"state": {"target": ["28", "13", "12", "12", "13"], "time": [151, 2252, 2585, 2936, 4771]}, "edge": {"target": [], "time": []}}}, "displayed_time": "15.60", "trialTime": 17213, "trial_type": "mouselab-mdp", "trial_index": 30, "time_elapsed": 980033, "internal_node_id": "0.0-6.0-1.0-21.0"}}, {"uniqueid": "w97503360:a31853610", "current_trial": 31, "dateTime": 1693482107465, "trialdata": {"revealed_states": [], "clicked_states": [], "num_clicks_accrued": [0, 0, 0, 0, 0, 0, 0, 0, 0, 0, 0, 0, 0], "stateRewards": ["", -1, -2, -1, -10, -57, 73, -72, -16, 75, -14, -46, -2, -3, -7, -1, -61, -60, 76, -4, 50, 4, 14, 2, 2, -7, 12, -65, -32, 15, -8, -76, -25, -61], "withholdReward": false, "trial_id": "mdp_trial_23", "block": "test", "trialIndex": 24, "score": -66, "costs": 0, "simulationMode": [null, null, null, null, null], "rewards": [-1, -2, -1, -16, -46], "path": ["0", "0", "1", "2", "3", "8", "11"], "rt": [3789, 155, 318, 100, 106], "actions": ["up", "up", "up", "left", "left"], "actionTimes": [6979, 7660, 8503, 9135, 9779], "queries": {"click": {"state": {"target": [], "time": []}, "edge": {"target": [], "time": []}}, "mouseover": {"state": {"target": [], "time": []}, "edge": {"target": [], "time": []}}, "mouseout": {"state": {"target": ["14"], "time": [1106]}, "edge": {"target": [], "time": []}}}, "displayed_time": "17.19", "trialTime": 18344, "trial_type": "mouselab-mdp", "trial_index": 31, "time_elapsed": 999586, "internal_node_id": "0.0-6.0-1.0-22.0"}}, {"uniqueid": "w97503360:a31853610", "current_trial": 32, "dateTime": 1693482127631, "trialdata": {"revealed_states": [], "clicked_states": [], "num_clicks_accrued": [0, 0, 0, 0, 0, 0, 0, 0, 0, 0, 0, 0, 0], "stateRewards": ["", -1, -1, 4, -16, -75, 81, -51, -7, -84, 73, -30, -2, 1, -3, -16, -77, 33, 14, 1, 45, 87, -66, 2, 2, -5, -7, -19, -17, 79, -3, 8, 49, 47], "withholdReward": false, "trial_id": "mdp_trial_24", "block": "test", "trialIndex": 25, "score": -65, "costs": 0, "simulationMode": [null, null, null, null, null], "rewards": [-1, -1, 4, -16, -51], "path": ["0", "0", "1", "2", "3", "4", "7"], "rt": [3631, 170, 240, 744, 80], "actions": ["up", "up", "up", "right", "down"], "actionTimes": [7253, 7959, 8728, 9999, 10617], "queries": {"click": {"state": {"target": [], "time": []}, "edge": {"target": [], "time": []}}, "mouseover": {"state": {"target": ["12"], "time": [3646]}, "edge": {"target": [], "time": []}}, "mouseout": {"state": {"target": ["12", "0"], "time": [2199, 2671]}, "edge": {"target": [], "time": []}}}, "displayed_time": "17.62", "trialTime": 18796, "trial_type": "mouselab-mdp", "trial_index": 32, "time_elapsed": 1019752, "internal_node_id": "0.0-6.0-1.0-23.0"}}, {"uniqueid": "w97503360:a31853610", "current_trial": 33, "dateTime": 1693482148667, "trialdata": {"revealed_states": [], "clicked_states": ["23", "24", "25", "30", "32"], "num_clicks_accrued": [0, 0, 0, 0, 0, 0, 0, 0, 0, 0, 0, 0, 0], "stateRewards": ["", -1, 3, 8, 10, -86, 61, -36, 10, 17, -60, 24, -1, -3, 3, 11, 50, 60, 33, -3, -20, 58, -6, 1, -4, -4, 13, -70, -71, 43, 14, 52, 82, -11], "withholdReward": false, "trial_id": "mdp_trial_25", "block": "test", "trialIndex": 26, "score": 82, "costs": -7, "simulationMode": [null, null, null, null, null], "rewards": [1, -4, -4, 14, 82], "path": ["0", "0", "23", "24", "25", "30", "32"], "rt": [12383, 43, 72, 273, 311], "actions": ["left", "left", "left", "down", "down"], "actionTimes": [14239, 14802, 15433, 16269, 17235], "queries": {"click": {"state": {"target": ["23", "24", "25", "30", "32"], "time": [3402, 5422, 7393, 9188, 11181]}, "edge": {"target": [], "time": []}}, "mouseover": {"state": {"target": ["1", "23", "24", "25", "30", "32"], "time": [2959, 3164, 3718, 5704, 7867, 9624]}, "edge": {"target": [], "time": []}}, "mouseout": {"state": {"target": ["12", "0", "1", "23", "24", "25", "30", "32"], "time": [null, 635, 3011, 3648, 5635, 7670, 9574, 11558]}, "edge": {"target": [], "time": []}}}, "displayed_time": "17.78", "trialTime": 19184, "trial_type": "mouselab-mdp", "trial_index": 33, "time_elapsed": 1040788, "internal_node_id": "0.0-6.0-1.0-24.0"}}, {"uniqueid": "w97503360:a31853610", "current_trial": 34, "dateTime": 1693482174241, "trialdata": {"revealed_states": [], "clicked_states": ["12", "13", "14", "21", "19", "20"], "num_clicks_accrued": [0, 0, 0, 0, 0, 0, 0, 0, 0, 0, 0, 0, 0], "stateRewards": ["", 2, 4, 7, 7, -79, -2, -21, -5, -53, 47, -21, 1, -3, -1, 7, 83, 7, 84, -7, 80, -37, 69, 2, -4, 5, 2, 4, -20, -30, 7, 71, 44, -81], "withholdReward": false, "trial_id": "mdp_trial_26", "block": "test", "trialIndex": 27, "score": 61.6, "costs": -8.4, "simulationMode": [null, null, null, null, null], "rewards": [1, -3, -1, -7, 80], "path": ["0", "0", "12", "13", "14", "19", "20"], "rt": [15773, 22, 384, 177, 298], "actions": ["right", "right", "right", "down", "right"], "actionTimes": [18546, 19103, 20025, 20743, 21583], "queries": {"click": {"state": {"target": ["12", "13", "14", "21", "19", "20"], "time": [4057, 6278, 8559, 10865, 13158, 15341]}, "edge": {"target": [], "time": []}}, "mouseover": {"state": {"target": ["12", "12", "13", "14", "20", "21", "19", "20"], "time": [3476, 3814, 4330, 6655, 10542, 10659, 11505, 13728]}, "edge": {"target": [], "time": []}}, "mouseout": {"state": {"target": ["0", "12", "12", "13", "14", "20", "21", "19", "20"], "time": [3433, 3524, 4263, 6575, 8833, 10593, 11268, 13629, 17409]}, "edge": {"target": [], "time": []}}}, "displayed_time": "22.12", "trialTime": 23967, "trial_type": "mouselab-mdp", "trial_index": 34, "time_elapsed": 1066364, "internal_node_id": "0.0-6.0-1.0-25.0"}}, {"uniqueid": "w97503360:a31853610", "current_trial": 35, "dateTime": 1693482193380, "trialdata": {"revealed_states": [], "clicked_states": [], "num_clicks_accrued": [0, 0, 0, 0, 0, 0, 0, 0, 0, 0, 0, 0, 0], "stateRewards": ["", 1, 2, -3, -5, 66, -50, -47, -5, 1, 28, -27, 1, 1, -1, -6, 37, -25, 56, 1, -82, -66, -40, -1, -4, -7, 15, -61, -23, 26, 10, 14, -56, 29], "withholdReward": false, "trial_id": "mdp_trial_27", "block": "test", "trialIndex": 28, "score": 29, "costs": 0, "simulationMode": [null, null, null, null, null], "rewards": [-1, -4, -7, 15, 26], "path": ["0", "0", "23", "24", "25", "26", "29"], "rt": [3536, 210, 372, 170, 97], "actions": ["left", "left", "left", "up", "left"], "actionTimes": [6046, 6795, 7708, 8439, 9066], "queries": {"click": {"state": {"target": [], "time": []}, "edge": {"target": [], "time": []}}, "mouseover": {"state": {"target": [], "time": []}, "edge": {"target": [], "time": []}}, "mouseout": {"state": {"target": ["19", "12", "0"], "time": [1247, 1447, 2536]}, "edge": {"target": [], "time": []}}}, "displayed_time": "16.51", "trialTime": 17808, "trial_type": "mouselab-mdp", "trial_index": 35, "time_elapsed": 1085501, "internal_node_id": "0.0-6.0-1.0-26.0"}}, {"uniqueid": "w97503360:a31853610", "current_trial": 36, "dateTime": 1693482216294, "trialdata": {"revealed_states": [], "clicked_states": [], "num_clicks_accrued": [0, 0, 0, 0, 0, 0, 0, 0, 0, 0, 0, 0, 0], "stateRewards": ["", 1, -3, -1, 9, -34, -40, 22, -7, 45, 53, -11, 2, 4, 5, 15, 21, 37, -49, -3, 80, -28, -34, 1, -3, 1, 1, -40, -6, -5, -16, -85, -86, 59], "withholdReward": false, "trial_id": "mdp_trial_28", "block": "test", "trialIndex": 29, "score": -23, "costs": 0, "simulationMode": [null, null, null, null, null], "rewards": [2, 4, 5, 15, -49], "path": ["0", "0", "12", "13", "14", "15", "18"], "rt": [1023, 7, 803, 589, 185], "actions": ["right", "right", "right", "up", "left"], "actionTimes": [4066, 4606, 5934, 7055, 7775], "queries": {"click": {"state": {"target": [], "time": []}, "edge": {"target": [], "time": []}}, "mouseover": {"state": {"target": ["12"], "time": [3094]}, "edge": {"target": [], "time": []}}, "mouseout": {"state": {"target": ["14", "1", "0"], "time": [1277, 1625, 3089]}, "edge": {"target": [], "time": []}}}, "displayed_time": "17.06", "trialTime": 21650, "trial_type": "mouselab-mdp", "trial_index": 36, "time_elapsed": 1108416, "internal_node_id": "0.0-6.0-1.0-27.0"}}, {"uniqueid": "w97503360:a31853610", "current_trial": 37, "dateTime": 1693482237914, "trialdata": {"revealed_states": [], "clicked_states": ["12", "13", "14", "15", "18"], "num_clicks_accrued": [0, 0, 0, 0, 0, 0, 0, 0, 0, 0, 0, 0, 0], "stateRewards": ["", -1, -2, -8, 8, -27, -82, 19, -14, -62, 4, 1, -2, 2, 6, 10, 73, -51, -2, 2, 73, -48, 54, -1, 2, -4, 11, -25, 47, 86, 15, 33, 43, -42], "withholdReward": false, "trial_id": "mdp_trial_29", "block": "test", "trialIndex": 30, "score": 82, "costs": -7, "simulationMode": [null, null, null, null, null], "rewards": [-2, 2, 6, 10, 73], "path": ["0", "0", "12", "13", "14", "15", "16"], "rt": [11847, 89, 68, 805, 172], "actions": ["right", "right", "right", "up", "up"], "actionTimes": [13623, 14245, 14844, 16181, 16896], "queries": {"click": {"state": {"target": ["12", "13", "14", "15", "18"], "time": [3125, 4760, 6630, 8561, 10443]}, "edge": {"target": [], "time": []}}, "mouseover": {"state": {"target": ["19", "12", "13", "14", "15", "18"], "time": [2056, 2883, 3528, 5138, 7206, 9529]}, "edge": {"target": [], "time": []}}, "mouseout": {"state": {"target": ["12", "0", "19", "12", "13", "14", "15"], "time": [447, 714, 2790, 3439, 5061, 7048, 9398]}, "edge": {"target": [], "time": []}}}, "displayed_time": "17.45", "trialTime": 19342, "trial_type": "mouselab-mdp", "trial_index": 37, "time_elapsed": 1130035, "internal_node_id": "0.0-6.0-1.0-28.0"}}, {"uniqueid": "w97503360:a31853610", "current_trial": 38, "dateTime": 1693482256177, "trialdata": {"revealed_states": [], "clicked_states": [], "num_clicks_accrued": [0, 0, 0, 0, 0, 0, 0, 0, 0, 0, 0, 0, 0], "stateRewards": ["", 2, -1, -1, 7, 11, -40, -22, -2, 69, 37, 8, -2, 4, -8, -12, -2, -72, -3, -12, 17, 63, 12, 1, 3, -7, 6, 25, 61, 61, -9, 28, -17, 27], "withholdReward": false, "trial_id": "mdp_trial_30", "block": "test", "trialIndex": 31, "score": 18, "costs": 0, "simulationMode": [null, null, null, null, null], "rewards": [2, -1, -1, 7, 11], "path": ["0", "0", "1", "2", "3", "4", "5"], "rt": [4663, 156, 194, 1525, 188], "actions": ["up", "up", "up", "right", "up"], "actionTimes": [6679, 7372, 8109, 10172, 10889], "queries": {"click": {"state": {"target": [], "time": []}, "edge": {"target": [], "time": []}}, "mouseover": {"state": {"target": [], "time": []}, "edge": {"target": [], "time": []}}, "mouseout": {"state": {"target": ["18", "12"], "time": [776, 826]}, "edge": {"target": [], "time": []}}}, "displayed_time": "16.02", "trialTime": 16798, "trial_type": "mouselab-mdp", "trial_index": 38, "time_elapsed": 1148298, "internal_node_id": "0.0-6.0-1.0-29.0"}}, {"uniqueid": "w97503360:a31853610", "current_trial": 39, "dateTime": 1693482274381, "trialdata": {"revealed_states": [], "clicked_states": [], "num_clicks_accrued": [0, 0, 0, 0, 0, 0, 0, 0, 0, 0, 0, 0, 0], "stateRewards": ["", -2, -3, -7, 7, -54, -69, -4, -14, -77, 22, 40, -2, -1, 5, 6, -35, 50, -60, 10, -28, 75, 57, 1, -4, -2, 2, 68, 34, -18, 12, 3, -21, -43], "withholdReward": false, "trial_id": "mdp_trial_31", "block": "test", "trialIndex": 32, "score": -36, "costs": 0, "simulationMode": [null, null, null, null, null], "rewards": [1, -4, -2, 12, -43], "path": ["0", "0", "23", "24", "25", "30", "33"], "rt": [1238, 338, 375, 1240, 559], "actions": ["left", "left", "left", "down", "left"], "actionTimes": [3413, 4283, 5185, 7970, 9068], "queries": {"click": {"state": {"target": [], "time": []}, "edge": {"target": [], "time": []}}, "mouseover": {"state": {"target": [], "time": []}, "edge": {"target": [], "time": []}}, "mouseout": {"state": {"target": ["0"], "time": [1340]}, "edge": {"target": [], "time": []}}}, "displayed_time": "16.18", "trialTime": 16868, "trial_type": "mouselab-mdp", "trial_index": 39, "time_elapsed": 1166503, "internal_node_id": "0.0-6.0-1.0-30.0"}}, {"uniqueid": "w97503360:a31853610", "current_trial": 40, "dateTime": 1693482307811, "trialdata": {"revealed_states": [], "clicked_states": [], "num_clicks_accrued": [0, 0, 0, 0, 0, 0, 0, 0, 0, 0, 0, 0, 0], "stateRewards": ["", 1, 1, -2, 7, -31, -6, 76, 1, -36, -16, -53, 2, 1, 7, 13, -47, -10, 47, -7, 72, 46, -56, -2, -2, -2, 11, -80, 44, 38, 16, 67, 85, -78], "withholdReward": false, "trial_id": "mdp_trial_32", "block": "test", "trialIndex": 33, "score": 75, "costs": 0, "simulationMode": [null, null, null, null, null], "rewards": [2, 1, 7, -7, 72], "path": ["0", "0", "12", "13", "14", "19", "20"], "rt": [7809, 9, 541, 383, 212], "actions": ["right", "right", "right", "down", "right"], "actionTimes": [10633, 11185, 12234, 13161, 13905], "queries": {"click": {"state": {"target": [], "time": []}, "edge": {"target": [], "time": []}}, "mouseover": {"state": {"target": [], "time": []}, "edge": {"target": [], "time": []}}, "mouseout": {"state": {"target": ["0"], "time": [1281]}, "edge": {"target": [], "time": []}}}, "displayed_time": "16.82", "trialTime": 31643, "trial_type": "mouselab-mdp", "trial_index": 40, "time_elapsed": 1199933, "internal_node_id": "0.0-6.0-1.0-31.0"}}, {"uniqueid": "w97503360:a31853610", "current_trial": 41, "dateTime": 1693482327252, "trialdata": {"revealed_states": [], "clicked_states": [], "num_clicks_accrued": [0, 0, 0, 0, 0, 0, 0, 0, 0, 0, 0, 0, 0], "stateRewards": ["", -2, -3, 8, 14, -73, 73, 84, -12, -2, -50, -17, 2, 1, -2, -9, -44, -27, -33, 16, -63, -47, -66, -2, 1, 4, -5, -33, -11, 50, 9, 38, -79, 31], "withholdReward": false, "trial_id": "mdp_trial_33", "block": "test", "trialIndex": 34, "score": -41, "costs": 0, "simulationMode": [null, null, null, null, null], "rewards": [2, 1, -2, -9, -33], "path": ["0", "0", "12", "13", "14", "15", "18"], "rt": [1885, 86, 699, 752, 85], "actions": ["right", "right", "right", "up", "left"], "actionTimes": [4635, 5249, 6476, 7766, 8381], "queries": {"click": {"state": {"target": [], "time": []}, "edge": {"target": [], "time": []}}, "mouseover": {"state": {"target": [], "time": []}, "edge": {"target": [], "time": []}}, "mouseout": {"state": {"target": ["0"], "time": [1531]}, "edge": {"target": [], "time": []}}}, "displayed_time": "16.75", "trialTime": 17703, "trial_type": "mouselab-mdp", "trial_index": 41, "time_elapsed": 1219373, "internal_node_id": "0.0-6.0-1.0-32.0"}}, {"uniqueid": "w97503360:a31853610", "current_trial": 42, "dateTime": 1693482348634, "trialdata": {"revealed_states": [], "clicked_states": ["23", "24", "25", "30", "31"], "num_clicks_accrued": [0, 0, 0, 0, 0, 0, 0, 0, 0, 0, 0, 0, 0], "stateRewards": ["", -1, 2, 7, 8, 75, 67, -11, 6, 52, -17, 38, -1, 4, -8, 14, 74, -37, -17, -12, 52, 55, 71, -2, -1, -5, 2, 21, 6, -88, -14, 64, -61, -47], "withholdReward": false, "trial_id": "mdp_trial_34", "block": "test", "trialIndex": 35, "score": 35, "costs": -7, "simulationMode": [null, null, null, null, null], "rewards": [-2, -1, -5, -14, 64], "path": ["0", "0", "23", "24", "25", "30", "31"], "rt": [11476, 191, 302, 135, 313], "actions": ["left", "left", "left", "down", "right"], "actionTimes": [13735, 14459, 15280, 15954, 16806], "queries": {"click": {"state": {"target": ["23", "24", "25", "30", "31"], "time": [3516, 5488, 7562, 9316, 11251]}, "edge": {"target": [], "time": []}}, "mouseover": {"state": {"target": ["14", "13", "0", "23", "24", "23", "24", "25", "30", "31", "30", "31"], "time": [2289, 2721, 2880, 2933, 3072, 3306, 3890, 5936, 8161, 8745, 9067, 9725]}, "edge": {"target": [], "time": []}}, "mouseout": {"state": {"target": ["0", "1", "0", "14", "13", "0", "23", "24", "23", "24", "25", "30", "31", "30", "31"], "time": [274, 571, 890, 2690, 2770, 2907, 3022, 3256, 3772, 5903, 8034, 8659, 8933, 9619, 11693]}, "edge": {"target": [], "time": []}}}, "displayed_time": "17.34", "trialTime": 19816, "trial_type": "mouselab-mdp", "trial_index": 42, "time_elapsed": 1240755, "internal_node_id": "0.0-6.0-1.0-33.0"}}, {"uniqueid": "w97503360:a31853610", "current_trial": 43, "dateTime": 1693482388185, "trialdata": {"revealed_states": [], "clicked_states": [], "num_clicks_accrued": [0, 0, 0, 0, 0, 0, 0, 0, 0, 0, 0, 0, 0], "stateRewards": ["", 1, -4, -6, -1, -21, 17, -72, 10, 77, 67, -46, -1, 4, -2, 14, -66, -49, -45, -15, -52, 23, -67, 2, -2, -2, 15, -3, 45, -64, 5, -44, 83, 61], "withholdReward": false, "trial_id": "mdp_trial_35", "block": "test", "trialIndex": 36, "score": -30, "costs": 0, "simulationMode": [null, null, null, null, null], "rewards": [-1, 4, -2, 14, -45], "path": ["0", "0", "12", "13", "14", "15", "18"], "rt": [3762, 481, 333, 102, 831], "actions": ["right", "right", "right", "up", "left"], "actionTimes": [24771, 25842, 26700, 27417, 28765], "queries": {"click": {"state": {"target": [], "time": []}, "edge": {"target": [], "time": []}}, "mouseover": {"state": {"target": ["0"], "time": [21721]}, "edge": {"target": [], "time": []}}, "mouseout": {"state": {"target": ["0"], "time": [19862]}, "edge": {"target": [], "time": []}}}, "displayed_time": "35.01", "trialTime": 38125, "trial_type": "mouselab-mdp", "trial_index": 43, "time_elapsed": 1280306, "internal_node_id": "0.0-6.0-1.0-34.0"}}, {"uniqueid": "w97503360:a31853610", "current_trial": 44, "dateTime": 1693482411921, "trialdata": {"revealed_states": [], "clicked_states": [], "num_clicks_accrued": [0, 0, 0, 0, 0, 0, 0, 0, 0, 0, 0, 0, 0], "stateRewards": ["", 2, 3, 8, 14, 69, -27, 17, 2, -71, -65, -10, 2, -3, 7, 8, 65, -10, 65, -12, 73, -12, 13, -2, -2, 6, 10, -79, -69, -18, 10, -85, 67, 74], "withholdReward": false, "trial_id": "mdp_trial_36", "block": "test", "trialIndex": 37, "score": -6, "costs": 0, "simulationMode": [null, null, null, null, null], "rewards": [-2, -2, 6, 10, -18], "path": ["0", "0", "23", "24", "25", "26", "29"], "rt": [5161, 120, 258, 162, 12], "actions": ["left", "left", "left", "up", "left"], "actionTimes": [7692, 8323, 9095, 9797, 10349], "queries": {"click": {"state": {"target": [], "time": []}, "edge": {"target": [], "time": []}}, "mouseover": {"state": {"target": [], "time": []}, "edge": {"target": [], "time": []}}, "mouseout": {"state": {"target": [], "time": []}, "edge": {"target": [], "time": []}}}, "displayed_time": "16.53", "trialTime": 22144, "trial_type": "mouselab-mdp", "trial_index": 44, "time_elapsed": 1304042, "internal_node_id": "0.0-6.0-1.0-35.0"}}, {"uniqueid": "w97503360:a31853610", "current_trial": 45, "dateTime": 1693482431547, "trialdata": {"revealed_states": [], "clicked_states": [], "num_clicks_accrued": [0, 0, 0, 0, 0, 0, 0, 0, 0, 0, 0, 0, 0], "stateRewards": ["", -2, 4, -3, -13, 63, -36, 62, 11, 78, 34, -51, 2, -2, 8, -6, -40, -18, 31, 9, 64, 39, 79, 1, 4, -4, 15, -12, 76, 73, -10, -77, 86, -4], "withholdReward": false, "trial_id": "mdp_trial_37", "block": "test", "trialIndex": 38, "score": 77, "costs": 0, "simulationMode": [null, null, null, null, null], "rewards": [1, 4, -4, -10, 86], "path": ["0", "0", "23", "24", "25", "30", "32"], "rt": [5193, 140, 320, 131, 574], "actions": ["left", "left", "left", "down", "down"], "actionTimes": [7626, 8296, 9157, 9819, 10913], "queries": {"click": {"state": {"target": [], "time": []}, "edge": {"target": [], "time": []}}, "mouseover": {"state": {"target": [], "time": []}, "edge": {"target": [], "time": []}}, "mouseout": {"state": {"target": [], "time": []}, "edge": {"target": [], "time": []}}}, "displayed_time": "16.43", "trialTime": 17756, "trial_type": "mouselab-mdp", "trial_index": 45, "time_elapsed": 1323668, "internal_node_id": "0.0-6.0-1.0-36.0"}}, {"uniqueid": "w97503360:a31853610", "current_trial": 46, "dateTime": 1693482455286, "trialdata": {"revealed_states": [], "clicked_states": [], "num_clicks_accrued": [0, 0, 0, 0, 0, 0, 0, 0, 0, 0, 0, 0, 0], "stateRewards": ["", 1, 2, -5, 14, 54, -14, -25, 16, -5, -87, 78, -1, 1, 3, -3, 52, 53, 53, -10, 73, -69, -48, 2, 3, 1, 8, -62, -7, 85, 7, 82, 52, -28], "withholdReward": false, "trial_id": "mdp_trial_38", "block": "test", "trialIndex": 39, "score": 66, "costs": 0, "simulationMode": [null, null, null, null, null], "rewards": [1, 2, -5, 14, 54], "path": ["0", "0", "1", "2", "3", "4", "5"], "rt": [5633, 171, 318, 85, 157], "actions": ["up", "up", "up", "right", "up"], "actionTimes": [8532, 9237, 10063, 10686, 11370], "queries": {"click": {"state": {"target": [], "time": []}, "edge": {"target": [], "time": []}}, "mouseover": {"state": {"target": [], "time": []}, "edge": {"target": [], "time": []}}, "mouseout": {"state": {"target": ["0", "12", "0"], "time": [1455, 1665, 1925]}, "edge": {"target": [], "time": []}}}, "displayed_time": "16.90", "trialTime": 22053, "trial_type": "mouselab-mdp", "trial_index": 46, "time_elapsed": 1347407, "internal_node_id": "0.0-6.0-1.0-37.0"}}, {"uniqueid": "w97503360:a31853610", "current_trial": 47, "dateTime": 1693482475284, "trialdata": {"revealed_states": [], "clicked_states": [], "num_clicks_accrued": [0, 0, 0, 0, 0, 0, 0, 0, 0, 0, 0, 0, 0], "stateRewards": ["", 1, -4, -6, 11, -20, 8, -30, 1, -38, 88, 42, 2, 3, 5, -12, -8, -74, 30, -8, 67, -19, 42, 2, -1, 4, 13, 50, -68, 2, -8, -15, 87, -46], "withholdReward": false, "trial_id": "mdp_trial_39", "block": "test", "trialIndex": 40, "score": 44, "costs": 0, "simulationMode": [null, null, null, null, null], "rewards": [2, 3, 5, -8, 42], "path": ["0", "0", "12", "13", "14", "19", "22"], "rt": [1146, 133, 315, 741, 132], "actions": ["right", "right", "right", "down", "left"], "actionTimes": [4104, 4770, 5602, 6862, 7535], "queries": {"click": {"state": {"target": [], "time": []}, "edge": {"target": [], "time": []}}, "mouseover": {"state": {"target": [], "time": []}, "edge": {"target": [], "time": []}}, "mouseout": {"state": {"target": ["0", "13", "0", "23"], "time": [1185, 1371, 1432, 1624]}, "edge": {"target": [], "time": []}}}, "displayed_time": "16.96", "trialTime": 18140, "trial_type": "mouselab-mdp", "trial_index": 47, "time_elapsed": 1367405, "internal_node_id": "0.0-6.0-1.0-38.0"}}, {"uniqueid": "w97503360:a31853610", "current_trial": 48, "dateTime": 1693482494341, "trialdata": {"revealed_states": [], "clicked_states": [], "num_clicks_accrued": [0, 0, 0, 0, 0, 0, 0, 0, 0, 0, 0, 0, 0], "stateRewards": ["", -1, 2, -2, 5, 80, -61, -27, 12, 44, -26, -75, -2, -4, 1, -16, 42, -49, -50, 4, -44, 2, 80, -2, -2, 5, -2, 59, 10, 24, 7, -48, -86, -44], "withholdReward": false, "trial_id": "mdp_trial_40", "block": "test", "trialIndex": 41, "score": 55, "costs": 0, "simulationMode": [null, null, null, null, null], "rewards": [-1, 2, -2, 12, 44], "path": ["0", "0", "1", "2", "3", "8", "9"], "rt": [1041, 2392, 849, 442, 112], "actions": ["up", "up", "up", "left", "up"], "actionTimes": [3264, 6176, 7563, 8540, 9193], "queries": {"click": {"state": {"target": [], "time": []}, "edge": {"target": [], "time": []}}, "mouseover": {"state": {"target": [], "time": []}, "edge": {"target": [], "time": []}}, "mouseout": {"state": {"target": [], "time": []}, "edge": {"target": [], "time": []}}}, "displayed_time": "16.22", "trialTime": 17375, "trial_type": "mouselab-mdp", "trial_index": 48, "time_elapsed": 1386462, "internal_node_id": "0.0-6.0-1.0-39.0"}}, {"uniqueid": "w97503360:a31853610", "current_trial": 49, "dateTime": 1693482538827, "trialdata": {"rt": 43843, "response": {"Q0": "$-2 to $2", "Q1": "$-16 to $16", "Q2": "$-88 to $88", "Q3": "The cost for clicking on nodes varied between nodes.", "Q4": "Slightly motivated"}, "question_order": [0, 1, 2, 3, 4], "trial_id": "final_quiz_control", "trial_type": "survey-multi-choice", "trial_index": 49, "time_elapsed": 1430935, "internal_node_id": "0.0-6.0-2.0"}}, {"uniqueid": "w97503360:a31853610", "current_trial": 50, "dateTime": 1693482598855, "trialdata": {"rt": 59431, "response": {"Q0": "Some I inspected the nodes but was unlucky.", "Q1": "Not inspecting the nodes as a greater reward.", "Q2": "Not difficult"}, "trial_id": "self_report_control", "trial_type": "survey-text", "trial_index": 50, "time_elapsed": 1490977, "internal_node_id": "0.0-6.0-3.0"}}, {"uniqueid": "w97503360:a31853610", "current_trial": 51, "dateTime": 1693482625608, "trialdata": {"rt": 26705, "response": {"gender": "female", "age": "27", "colorblind": "1", "effort": "0"}, "trial_type": "survey-html-form", "trial_index": 51, "time_elapsed": 1517731, "internal_node_id": "0.0-6.0-4.0"}}, {"uniqueid": "w97503360:a31853610", "current_trial": 52, "dateTime": 1693482651675, "trialdata": {"rt": 25997, "response": {"Q0": "No", "Q1": "First time participating", "Q2": "None"}, "trial_type": "survey-text", "trial_index": 52, "time_elapsed": 1543798, "internal_node_id": "0.0-6.0-5.0"}}, {"uniqueid": "w97503360:a31853610", "current_trial": 53, "dateTime": 1693482700805, "trialdata": {"rt": 49110, "stimulus": "<h1>Completion Code Instructions (1/2)</h1>\n<br><br><br><br>\nYou have reached the end of the experiment! The completion code consists of two parts: (1) a code with 2 characters (2) a code with 6 characters. On this page, you will receive the second part of the code. The first part of the completion code will be on the next page.\n<br><br>\nThe second part of your completion code is: <b>EWEK22</b>\n<br><br>\nPlease note this down. Then, press 'Finish HIT' in order to find the first part of your completion code. Once the data has been saved, you will receive this code either in this window or in the original browser window where you started the experiment.\n", "response": 0, "trial_type": "html-button-response", "trial_index": 53, "time_elapsed": 1592928, "internal_node_id": "0.0-6.0-6.0"}}, {"uniqueid": "w97503360:a31853610", "current_trial": 54, "dateTime": 1693482701828, "trialdata": {"success": true, "trial_type": "fullscreen", "trial_index": 54, "time_elapsed": 1593951, "internal_node_id": "0.0-7.0"}}], "questiondata": {"params": {"CODE": "C6DMOQA6", "MIN_TIME": 14, "inspectCost": 1, "startTime": "Thu Aug 31 2023 13:25:05 GMT+0200 (GMT+02:00)", "bonusRate": 0.002, "variance": "1_2_4_8_44", "branching": "31123"}, "final_score": 507.4}, "eventdata": [{"eventtype": "initialized", "value": null, "timestamp": 1693481104222, "interval": 0}, {"eventtype": "window_resize", "value": [1028, 752], "timestamp": 1693481104223, "interval": 1}, {"eventtype": "window_resize", "value": [1028, 752], "timestamp": 1693481105239, "interval": 1016}, {"eventtype": "window_resize", "value": [1536, 864], "timestamp": 1693481114581, "interval": 9342}], "useragent": "Mozilla/5.0 (Windows NT 10.0; Win64; x64) AppleWebKit/537.36 (KHTML, like Gecko) Chrome/116.0.0.0 Safari/537.36", "mode": "live", "id": "w97503360:a31853610", "status": "user data saved", "Beginhit": "2023-08-31 11:25:01.022026", "Beginexp": "2023-08-31 11:25:15.58979", "Endhit": "2023-08-31 11:51:48.969504", "psiturkStatus": 3, "browser": "<redacted>", "platform": "windows", "language": "en-GB"}