{"condition": 0, "counterbalance": 0, "assignmentId": "a16777496", "workerId": "w89979755", "hitId": "h46133402", "currenttrial": 67, "bonus": 0, "data": [{"uniqueid": "w89979755:a16777496", "current_trial": 0, "dateTime": 1693480567675, "trialdata": {"success": true, "trial_type": "fullscreen", "trial_index": 0, "time_elapsed": 2613, "internal_node_id": "0.0-0.0"}}, {"uniqueid": "w89979755:a16777496", "current_trial": 1, "dateTime": 1693480574943, "trialdata": {"view_history": [{"page_index": 0, "viewing_time": 7265}], "rt": 7265, "trial_id": "exp_instructions_control", "trial_type": "instructions", "trial_index": 1, "time_elapsed": 9882, "internal_node_id": "0.0-1.0"}}, {"uniqueid": "w89979755:a16777496", "current_trial": 2, "dateTime": 1693480638035, "trialdata": {"view_history": [{"page_index": 0, "viewing_time": 22389}, {"page_index": 1, "viewing_time": 21839}, {"page_index": 2, "viewing_time": 9324}, {"page_index": 3, "viewing_time": 9538}], "rt": 63090, "trial_id": "mouselab_instructions_1_control", "trial_type": "instructions", "trial_index": 2, "time_elapsed": 72974, "internal_node_id": "0.0-2.0-1.0"}}, {"uniqueid": "w89979755:a16777496", "current_trial": 3, "dateTime": 1693480691152, "trialdata": {"revealed_states": [], "clicked_states": ["1", "2", "3", "8", "9", "11", "4", "6", "7", "12", "13", "14", "15", "16", "17", "19", "22", "23", "24", "25"], "num_clicks_accrued": [0, 0, 0, 0, 0, 0, 0, 0, 0, 0, 0, 0, 0], "stateRewards": ["", -10, -10, 10, 10, 10, 10, -10, -10, -10, 10, 10, -10, -10, 10, -10, 10, 10, 10, 10, -10, -10, 10, 10, 10, -10, -10, 10, -10, -10, -10, -10, -10, 10], "withholdReward": false, "trial_id": "practice_1", "block": "test", "trialIndex": 0, "score": 3.5, "costs": -10, "simulationMode": [null, null, null, null, null], "rewards": [-10, -10, 10, 10, 10], "path": ["0", "0", "1", "2", "3", "4", "6"], "rt": [44495, 462, 365, 501, 57], "actions": ["up", "up", "up", "right", "right"], "actionTimes": [46080, 47055, 47919, 48943, 49517], "queries": {"click": {"state": {"target": ["1", "2", "3", "8", "9", "11", "4", "6", "7", "12", "13", "14", "15", "16", "17", "19", "22", "23", "24", "25"], "time": [3713, 5458, 6856, 8616, 9993, 13273, 17190, 19245, 21416, 25084, 26547, 27578, 28686, 29928, 33456, 35127, 36443, 40917, 42346, 43868]}, "edge": {"target": [], "time": []}}, "mouseover": {"state": {"target": ["1", "2", "3", "3", "8", "8", "9", "11", "8", "10", "4", "4", "6", "7", "1", "0", "12", "13", "14", "15", "16", "15", "17", "21", "19", "21", "22", "23", "24", "24", "25"], "time": [3542, 5209, 6525, 6782, 7622, 8517, 9785, 12433, 14500, 15859, 15888, 17093, 17831, 21267, 23481, 23763, 24771, 25606, 26901, 28275, 29809, 33202, 33361, 34167, 34307, 35755, 36355, 40824, 41690, 42118, 43762]}, "edge": {"target": [], "time": []}}, "mouseout": {"state": {"target": ["23", "23", "0", "1", "2", "3", "3", "8", "8", "8", "9", "8", "11", "8", "10", "4", "4", "6", "7", "1", "0", "12", "13", "14", "15", "16", "15", "17", "21", "19", "21", "19", "22", "23", "24", "24", "25"], "time": [303, 1114, 1373, 5137, 6137, 6559, 6882, 8406, 9515, 9750, 11964, 12225, 13849, 14676, 15873, 16100, 17263, 20519, 23340, 23639, 24754, 25588, 26883, 27973, 29613, 33119, 33219, 33799, 34236, 35683, 36107, 36196, 38496, 41654, 41902, 43302, 43978]}, "edge": {"target": [], "time": []}}}, "displayed_time": "50.04", "trialTime": 52686, "trial_type": "mouselab-mdp", "trial_index": 3, "time_elapsed": 126089, "internal_node_id": "0.0-2.0-2.0-0.0"}}, {"uniqueid": "w89979755:a16777496", "current_trial": 4, "dateTime": 1693480739243, "trialdata": {"revealed_states": [], "clicked_states": ["23", "12", "13", "14", "15", "16"], "num_clicks_accrued": [0, 0, 0, 0, 0, 0, 0, 0, 0, 0, 0, 0, 0], "stateRewards": ["", -10, -10, 10, 10, 10, 10, 10, 10, -10, -10, -10, 10, 10, -10, -10, -10, -10, 10, 10, -10, 10, 10, -10, 10, 10, -10, 10, -10, -10, 10, -10, -10, 10], "withholdReward": false, "trial_id": "practice_2", "block": "test", "trialIndex": 1, "score": -9.5, "costs": -3, "simulationMode": [null, null, null, null, null], "rewards": [10, 10, -10, -10, -10], "path": ["0", "0", "12", "13", "14", "15", "16"], "rt": [9613, 278, 57, 15, 74], "actions": ["right", "right", "right", "up", "up"], "actionTimes": [11472, 12253, 12813, 13355, 13948], "queries": {"click": {"state": {"target": ["23", "12", "13", "14", "15", "16"], "time": [3451, 4890, 6296, 7707, 9067, 10248]}, "edge": {"target": [], "time": []}}, "mouseover": {"state": {"target": ["23", "0", "12", "13", "14", "15", "16", "18"], "time": [3180, 4520, 4749, 5849, 6984, 8968, 10060, 10540]}, "edge": {"target": [], "time": []}}, "mouseout": {"state": {"target": ["25", "30", "23", "0", "12", "13", "14", "15", "16", "18", "12"], "time": [1230, 1247, 4486, 4626, 5814, 6967, 8703, 9972, 10523, 10557, 15752]}, "edge": {"target": [], "time": []}}}, "displayed_time": "14.45", "trialTime": 47883, "trial_type": "mouselab-mdp", "trial_index": 4, "time_elapsed": 174181, "internal_node_id": "0.0-2.0-2.0-1.0"}}, {"uniqueid": "w89979755:a16777496", "current_trial": 5, "dateTime": 1693480753708, "trialdata": {"view_history": [{"page_index": 0, "viewing_time": 10995}, {"page_index": 1, "viewing_time": 3468}], "rt": 14463, "trial_id": "mouselab_instructions_2_control", "trial_type": "instructions", "trial_index": 5, "time_elapsed": 188647, "internal_node_id": "0.0-2.0-3.0"}}, {"uniqueid": "w89979755:a16777496", "current_trial": 6, "dateTime": 1693480776964, "trialdata": {"rt": 23251, "response": {"Q0": "The cost for clicking on nodes may vary between nodes.", "Q1": "The better I perform the higher my bonus will be.", "Q2": "No, the amount of cash at each node of the web may be different each time.", "Q3": "To get the highest total score.", "Q4": "Only before moving the spider.", "Q5": "10 seconds"}, "question_order": [0, 1, 2, 3, 4, 5], "correct": {"Q0": "The cost for clicking on nodes may vary between nodes.", "Q1": "The better I perform the higher my bonus will be.", "Q2": "No, the amount of cash at each node of the web may be different each time.", "Q3": "To get the highest total score.", "Q4": "Only before moving the spider.", "Q5": "3 seconds"}, "trial_id": "mouselab_quiz_control", "trial_type": "survey-multi-choice", "trial_index": 6, "time_elapsed": 211903, "internal_node_id": "0.0-2.0-4.0"}}, {"uniqueid": "w89979755:a16777496", "current_trial": 7, "dateTime": 1693480782370, "trialdata": {"success": true, "trial_type": "fullscreen", "trial_index": 7, "time_elapsed": 217309, "internal_node_id": "0.0-2.1-0.1-0.1"}}, {"uniqueid": "w89979755:a16777496", "current_trial": 8, "dateTime": 1693480818737, "trialdata": {"view_history": [{"page_index": 0, "viewing_time": 13375}, {"page_index": 1, "viewing_time": 8319}, {"page_index": 2, "viewing_time": 3488}, {"page_index": 3, "viewing_time": 11184}], "rt": 36366, "trial_id": "mouselab_instructions_1_control", "trial_type": "instructions", "trial_index": 8, "time_elapsed": 253676, "internal_node_id": "0.0-2.1-1.1"}}, {"uniqueid": "w89979755:a16777496", "current_trial": 9, "dateTime": 1693480846667, "trialdata": {"revealed_states": [], "clicked_states": ["23", "24", "25", "30", "32", "12", "13", "14", "19", "21", "26", "1", "2", "3", "8", "11"], "num_clicks_accrued": [0, 0, 0, 0, 0, 0, 0, 0, 0, 0, 0, 0, 0], "stateRewards": ["", -10, -10, 10, 10, 10, 10, -10, -10, -10, 10, 10, -10, -10, 10, -10, 10, 10, 10, 10, -10, -10, 10, 10, 10, -10, -10, 10, -10, -10, -10, -10, -10, 10], "withholdReward": false, "trial_id": "practice_1", "block": "test", "trialIndex": 2, "score": -14.5, "costs": -8, "simulationMode": [null, null, null, null, null], "rewards": [-10, -10, 10, -10, 10], "path": ["0", "0", "1", "2", "3", "8", "11"], "rt": [21678, 28, 43, 249, 45], "actions": ["up", "up", "up", "left", "left"], "actionTimes": [23136, 23664, 24240, 25007, 25568], "queries": {"click": {"state": {"target": ["23", "24", "25", "30", "32", "12", "13", "14", "19", "21", "26", "1", "2", "3", "8", "11"], "time": [2221, 3870, 5407, 6727, 7841, 9141, 10311, 11505, 12647, 14100, 15673, 16817, 17826, 19201, 20674, 21808]}, "edge": {"target": [], "time": []}}, "mouseover": {"state": {"target": ["23", "24", "25", "25", "30", "32", "12", "13", "13", "14", "14", "19", "19", "21", "22", "0", "28", "1", "28", "26", "26", "28", "1", "2", "4", "3", "8", "11"], "time": [1975, 3081, 4466, 5322, 5582, 7029, 8449, 9421, 9614, 10583, 10836, 11726, 11996, 12991, 14396, 14431, 14783, 15064, 15329, 15363, 15616, 16088, 16388, 17146, 18410, 18499, 19659, 21355]}, "edge": {"target": [], "time": []}}, "mouseout": {"state": {"target": ["23", "27", "27", "1", "0", "23", "24", "25", "25", "30", "32", "12", "13", "13", "14", "14", "19", "19", "21", "22", "0", "28", "1", "28", "26", "26", "28", "1", "2", "4", "3", "8"], "time": [38, 73, 913, 1103, 1565, 3063, 4202, 5126, 5564, 6993, 8183, 9385, 9455, 10566, 10653, 11708, 11744, 12973, 14378, 14414, 14449, 14854, 15298, 15345, 15416, 16071, 16106, 16857, 18199, 18463, 19475, 21037]}, "edge": {"target": [], "time": []}}}, "displayed_time": "26.09", "trialTime": 27631, "trial_type": "mouselab-mdp", "trial_index": 9, "time_elapsed": 281605, "internal_node_id": "0.0-2.1-2.1-0.1"}}, {"uniqueid": "w89979755:a16777496", "current_trial": 10, "dateTime": 1693480860769, "trialdata": {"revealed_states": [], "clicked_states": ["12", "1", "14", "17", "15"], "num_clicks_accrued": [0, 0, 0, 0, 0, 0, 0, 0, 0, 0, 0, 0, 0], "stateRewards": ["", -10, -10, 10, 10, 10, 10, 10, 10, -10, -10, -10, 10, 10, -10, -10, -10, -10, 10, 10, -10, 10, 10, -10, 10, 10, -10, 10, -10, -10, 10, -10, -10, 10], "withholdReward": false, "trial_id": "practice_2", "block": "test", "trialIndex": 3, "score": 11, "costs": -2.5, "simulationMode": [null, null, null, null, null], "rewards": [10, 10, -10, 10, -10], "path": ["0", "0", "12", "13", "14", "19", "20"], "rt": [7593, 148, 188, 300, 152], "actions": ["right", "right", "right", "down", "right"], "actionTimes": [8848, 9503, 10205, 11022, 11693], "queries": {"click": {"state": {"target": ["12", "1", "14", "17", "15"], "time": [2175, 3342, 4626, 5948, 7453]}, "edge": {"target": [], "time": []}}, "mouseover": {"state": {"target": ["12", "13", "1", "13", "14", "15", "17", "15", "15"], "time": [1806, 2426, 3129, 3789, 4051, 5036, 5787, 6308, 6435]}, "edge": {"target": [], "time": []}}, "mouseout": {"state": {"target": ["11", "0", "0", "12", "13", "1", "13", "14", "15", "17", "15"], "time": [722, 812, 1624, 2408, 2971, 3649, 3965, 5000, 5527, 6291, 6325]}, "edge": {"target": [], "time": []}}}, "displayed_time": "12.19", "trialTime": 13902, "trial_type": "mouselab-mdp", "trial_index": 10, "time_elapsed": 295706, "internal_node_id": "0.0-2.1-2.1-1.1"}}, {"uniqueid": "w89979755:a16777496", "current_trial": 11, "dateTime": 1693480868710, "trialdata": {"view_history": [{"page_index": 0, "viewing_time": 6386}, {"page_index": 1, "viewing_time": 1547}], "rt": 7934, "trial_id": "mouselab_instructions_2_control", "trial_type": "instructions", "trial_index": 11, "time_elapsed": 303649, "internal_node_id": "0.0-2.1-3.1"}}, {"uniqueid": "w89979755:a16777496", "current_trial": 12, "dateTime": 1693480886947, "trialdata": {"rt": 18233, "response": {"Q0": "The cost is always $2.", "Q1": "The better I perform the higher my bonus will be.", "Q2": "No, the amount of cash at each node of the web may be different each time.", "Q3": "To get the highest total score.", "Q4": "Only before moving the spider.", "Q5": "3 seconds"}, "question_order": [0, 1, 2, 3, 4, 5], "correct": {"Q0": "The cost for clicking on nodes may vary between nodes.", "Q1": "The better I perform the higher my bonus will be.", "Q2": "No, the amount of cash at each node of the web may be different each time.", "Q3": "To get the highest total score.", "Q4": "Only before moving the spider.", "Q5": "3 seconds"}, "trial_id": "mouselab_quiz_control", "trial_type": "survey-multi-choice", "trial_index": 12, "time_elapsed": 321886, "internal_node_id": "0.0-2.1-4.1"}}, {"uniqueid": "w89979755:a16777496", "current_trial": 13, "dateTime": 1693480891406, "trialdata": {"success": true, "trial_type": "fullscreen", "trial_index": 13, "time_elapsed": 326345, "internal_node_id": "0.0-2.2-0.2-0.2"}}, {"uniqueid": "w89979755:a16777496", "current_trial": 14, "dateTime": 1693480963727, "trialdata": {"view_history": [{"page_index": 0, "viewing_time": 36492}, {"page_index": 1, "viewing_time": 10064}, {"page_index": 2, "viewing_time": 9934}, {"page_index": 3, "viewing_time": 15823}], "rt": 72314, "trial_id": "mouselab_instructions_1_control", "trial_type": "instructions", "trial_index": 14, "time_elapsed": 398665, "internal_node_id": "0.0-2.2-1.2"}}, {"uniqueid": "w89979755:a16777496", "current_trial": 15, "dateTime": 1693480973408, "trialdata": {"revealed_states": [], "clicked_states": ["1", "3", "2"], "num_clicks_accrued": [0, 0, 0, 0, 0, 0, 0, 0, 0, 0, 0, 0, 0], "stateRewards": ["", -10, -10, 10, 10, 10, 10, -10, -10, -10, 10, 10, -10, -10, 10, -10, 10, 10, 10, 10, -10, -10, 10, 10, 10, -10, -10, 10, -10, -10, -10, -10, -10, 10], "withholdReward": false, "trial_id": "practice_1", "block": "test", "trialIndex": 4, "score": -8, "costs": -1.5, "simulationMode": [null, null, null, null, null], "rewards": [-10, -10, 10, 10, -10], "path": ["0", "0", "1", "2", "3", "4", "7"], "rt": [3548, 12, 832, 299, 7], "actions": ["up", "up", "up", "right", "down"], "actionTimes": [4864, 5388, 6735, 7551, 8077], "queries": {"click": {"state": {"target": ["1", "3", "2"], "time": [1753, 2786, 3858]}, "edge": {"target": [], "time": []}}, "mouseover": {"state": {"target": ["1", "2", "3", "2", "7"], "time": [1586, 2187, 2624, 3154, 4127]}, "edge": {"target": [], "time": []}}, "mouseout": {"state": {"target": ["1", "2", "3", "2", "7"], "time": [2082, 2589, 2977, 4125, 4143]}, "edge": {"target": [], "time": []}}}, "displayed_time": "8.60", "trialTime": 9423, "trial_type": "mouselab-mdp", "trial_index": 15, "time_elapsed": 408346, "internal_node_id": "0.0-2.2-2.2-0.2"}}, {"uniqueid": "w89979755:a16777496", "current_trial": 16, "dateTime": 1693480981457, "trialdata": {"revealed_states": [], "clicked_states": ["23"], "num_clicks_accrued": [0, 0, 0, 0, 0, 0, 0, 0, 0, 0, 0, 0, 0], "stateRewards": ["", -10, -10, 10, 10, 10, 10, 10, 10, -10, -10, -10, 10, 10, -10, -10, -10, -10, 10, 10, -10, 10, 10, -10, 10, 10, -10, 10, -10, -10, 10, -10, -10, 10], "withholdReward": false, "trial_id": "practice_2", "block": "test", "trialIndex": 5, "score": 13, "costs": -0.5, "simulationMode": [null, null, null, null, null, null], "rewards": [-10, 10, 10, 10, -10], "path": ["0", "0", "23", "24", "25", "30", "32"], "rt": [1236, 428, 191, 350, 252, 253], "actions": ["left", "left", "left", "left", "down", "down"], "actionTimes": [2887, 3319, 4006, 4855, 5623, 6393], "queries": {"click": {"state": {"target": ["23"], "time": [2072]}, "edge": {"target": [], "time": []}}, "mouseover": {"state": {"target": ["23", "0"], "time": [1998, 2369]}, "edge": {"target": [], "time": []}}, "mouseout": {"state": {"target": ["15", "14", "19", "0", "23", "0"], "time": [1024, 1040, 1058, 1985, 2316, 2422]}, "edge": {"target": [], "time": []}}}, "displayed_time": "6.91", "trialTime": 7833, "trial_type": "mouselab-mdp", "trial_index": 16, "time_elapsed": 416394, "internal_node_id": "0.0-2.2-2.2-1.2"}}, {"uniqueid": "w89979755:a16777496", "current_trial": 17, "dateTime": 1693480993838, "trialdata": {"view_history": [{"page_index": 0, "viewing_time": 11550}, {"page_index": 1, "viewing_time": 825}], "rt": 12375, "trial_id": "mouselab_instructions_2_control", "trial_type": "instructions", "trial_index": 17, "time_elapsed": 428777, "internal_node_id": "0.0-2.2-3.2"}}, {"uniqueid": "w89979755:a16777496", "current_trial": 18, "dateTime": 1693481029992, "trialdata": {"rt": 36149, "response": {"Q0": "The cost for clicking on nodes may vary between nodes.", "Q1": "The better I perform the higher my bonus will be.", "Q2": "No, the amount of cash at each node of the web may be different each time.", "Q3": "To get the highest total score.", "Q4": "Only before moving the spider.", "Q5": "3 seconds"}, "question_order": [0, 1, 2, 3, 4, 5], "correct": {"Q0": "The cost for clicking on nodes may vary between nodes.", "Q1": "The better I perform the higher my bonus will be.", "Q2": "No, the amount of cash at each node of the web may be different each time.", "Q3": "To get the highest total score.", "Q4": "Only before moving the spider.", "Q5": "3 seconds"}, "trial_id": "mouselab_quiz_control", "trial_type": "survey-multi-choice", "trial_index": 18, "time_elapsed": 464931, "internal_node_id": "0.0-2.2-4.2"}}, {"uniqueid": "w89979755:a16777496", "current_trial": 19, "dateTime": 1693481032960, "trialdata": {"rt": 2959, "response": {"Q0": "No"}, "question_order": [0], "trial_id": "repeat_check", "trial_type": "survey-multi-choice", "trial_index": 19, "time_elapsed": 467899, "internal_node_id": "0.0-4.0-0.0"}}, {"uniqueid": "w89979755:a16777496", "current_trial": 20, "dateTime": 1693481084175, "trialdata": {"rt": 51207, "stimulus": "\n<h1> Get ready to start the game! </h1>\n\nThank you for reading the instructions. Get ready start with the 40 rounds of this game.\n<br><br>\nIf you need to take a break, feel free to take one after the end of a round, before continuing to the next one.\n<br><br>\nRemember, the more money the spider gets, the bigger your bonus will be!\n<br><br>\n<div style='text-align: center;'>Press <code>space</code> to begin.</div>\n\n<br><br>\n(If, at any point, the <code>space</code> key does not take you to the next page, click once on the text and try again.)", "response": " ", "trial_id": "mdp_ready", "trial_type": "html-keyboard-response", "trial_index": 20, "time_elapsed": 519112, "internal_node_id": "0.0-6.0-0.0"}}, {"uniqueid": "w89979755:a16777496", "current_trial": 21, "dateTime": 1693481101217, "trialdata": {"revealed_states": [], "clicked_states": ["23", "1", "2", "3"], "num_clicks_accrued": [0, 0, 0, 0, 0, 0, 0, 0, 0, 0, 0, 0, 0], "stateRewards": ["", 1, 1, 6, -14, -40, 37, 16, -13, 33, -68, 49, 2, 4, 3, 6, 55, 27, 32, 10, -65, 20, -87, 2, 1, -6, -5, -42, 12, 29, -8, 16, 76, -33], "withholdReward": false, "trial_id": "mdp_trial_1", "block": "test", "trialIndex": 6, "score": 64.4, "costs": -5.6, "simulationMode": [null, null, null, null, null, null], "rewards": [2, 4, 3, 6, 55], "path": ["0", "0", "12", "13", "14", "15", "16"], "rt": [7612, 640, 309, 316, 157, 155], "actions": ["right", "right", "right", "right", "up", "up"], "actionTimes": [9272, 9914, 10728, 11545, 12218, 12871], "queries": {"click": {"state": {"target": ["23", "1", "2", "3"], "time": [2976, 4744, 6307, 7982]}, "edge": {"target": [], "time": []}}, "mouseover": {"state": {"target": ["23", "1", "2", "7", "12", "3", "27"], "time": [2876, 4144, 5517, 6625, 7138, 7898, 8321]}, "edge": {"target": [], "time": []}}, "mouseout": {"state": {"target": ["0", "23", "1", "2", "7", "1", "12", "2", "3", "27"], "time": [2504, 3970, 5447, 6608, 6836, 6891, 7509, 7827, 8250, 8409]}, "edge": {"target": [], "time": []}}}, "displayed_time": "15.68", "trialTime": 16778, "trial_type": "mouselab-mdp", "trial_index": 21, "time_elapsed": 536154, "internal_node_id": "0.0-6.0-1.0-0.0"}}, {"uniqueid": "w89979755:a16777496", "current_trial": 22, "dateTime": 1693481118221, "trialdata": {"revealed_states": [], "clicked_states": ["23", "21", "32", "11"], "num_clicks_accrued": [0, 0, 0, 0, 0, 0, 0, 0, 0, 0, 0, 0, 0], "stateRewards": ["", -1, 2, -6, 6, -82, -19, -39, -16, -83, 11, -33, -2, -2, 4, -6, -82, -1, -19, -6, -10, -67, -41, -2, 1, -7, 16, -23, -78, -52, 14, 31, -71, 74], "withholdReward": false, "trial_id": "mdp_trial_2", "block": "test", "trialIndex": 7, "score": -43.6, "costs": -5.6, "simulationMode": [null, null, null, null, null], "rewards": [-1, 2, -6, 6, -39], "path": ["0", "0", "1", "2", "3", "4", "7"], "rt": [7934, 166, 347, 26, 523], "actions": ["up", "up", "up", "right", "down"], "actionTimes": [9722, 10389, 11256, 11798, 12824], "queries": {"click": {"state": {"target": ["23", "21", "32", "11"], "time": [2866, 4699, 6496, 8037]}, "edge": {"target": [], "time": []}}, "mouseover": {"state": {"target": ["23", "24", "23", "22", "21", "21", "21", "32", "26", "27", "8", "11", "8", "2", "1"], "time": [2260, 2313, 2731, 3284, 3496, 4377, 4633, 5586, 6888, 7136, 7276, 7504, 8399, 8453, 8540]}, "edge": {"target": [], "time": []}}, "mouseout": {"state": {"target": ["27", "28", "23", "0", "0", "23", "24", "23", "22", "21", "21", "21", "32", "26", "27", "8", "11", "8", "2"], "time": [1075, 1110, 1146, 1310, 2241, 2277, 2477, 3230, 3390, 4180, 4409, 5217, 6835, 6905, 7206, 7486, 8381, 8417, 8523]}, "edge": {"target": [], "time": []}}}, "displayed_time": "15.79", "trialTime": 16790, "trial_type": "mouselab-mdp", "trial_index": 22, "time_elapsed": 553159, "internal_node_id": "0.0-6.0-1.0-1.0"}}, {"uniqueid": "w89979755:a16777496", "current_trial": 23, "dateTime": 1693481139586, "trialdata": {"revealed_states": [], "clicked_states": ["23", "24", "25", "30", "32"], "num_clicks_accrued": [0, 0, 0, 0, 0, 0, 0, 0, 0, 0, 0, 0, 0], "stateRewards": ["", -1, 3, -7, 16, -32, -74, -48, 2, 10, 15, -30, 1, 1, -2, 10, 12, -83, 67, 13, -66, 47, 65, -2, 4, 2, -14, -8, -57, 24, 9, 65, 12, 46], "withholdReward": false, "trial_id": "mdp_trial_3", "block": "test", "trialIndex": 8, "score": 53, "costs": -7, "simulationMode": [null, null, null, null, null, null], "rewards": [1, 1, -2, 13, 47], "path": ["0", "0", "12", "13", "14", "19", "21"], "rt": [8503, 623, 136, 283, 184, 281], "actions": ["right", "right", "right", "right", "down", "down"], "actionTimes": [14237, 14863, 15518, 16303, 17005, 17805], "queries": {"click": {"state": {"target": ["23", "24", "25", "30", "32"], "time": [6619, 8273, 9980, 11517, 13135]}, "edge": {"target": [], "time": []}}, "mouseover": {"state": {"target": ["23", "24", "25", "30", "30", "32"], "time": [6471, 7272, 8804, 10345, 10574, 12225]}, "edge": {"target": [], "time": []}}, "mouseout": {"state": {"target": ["1", "23", "1", "1", "0", "0", "23", "24", "25", "30", "30"], "time": [2445, 3054, 5038, 5144, 5286, 5499, 7149, 8593, 10327, 10399, 11962]}, "edge": {"target": [], "time": []}}}, "displayed_time": "19.73", "trialTime": 21151, "trial_type": "mouselab-mdp", "trial_index": 23, "time_elapsed": 574523, "internal_node_id": "0.0-6.0-1.0-2.0"}}, {"uniqueid": "w89979755:a16777496", "current_trial": 24, "dateTime": 1693481184995, "trialdata": {"revealed_states": [], "clicked_states": ["16", "17", "27"], "num_clicks_accrued": [0, 0, 0, 0, 0, 0, 0, 0, 0, 0, 0, 0, 0], "stateRewards": ["", -2, 4, -3, -13, 63, -36, 62, 11, 78, 34, -51, 2, -2, 8, -6, -40, -18, 31, 9, 64, 39, 79, 1, 4, -4, 15, -12, 76, 73, -10, -77, 86, -4], "withholdReward": false, "trial_id": "mdp_trial_4", "block": "test", "trialIndex": 9, "score": 83.8, "costs": -4.199999999999999, "simulationMode": [null, null, null, null, null], "rewards": [-2, 4, -3, 11, 78], "path": ["0", "0", "1", "2", "3", "8", "9"], "rt": [6347, 112, 693, 58, 39], "actions": ["up", "up", "up", "left", "up"], "actionTimes": [7769, 8392, 9594, 10153, 10713], "queries": {"click": {"state": {"target": ["16", "17", "27"], "time": [2821, 4365, 6016]}, "edge": {"target": [], "time": []}}, "mouseover": {"state": {"target": ["0", "12", "14", "15", "16", "17", "17", "12", "27", "27", "26", "25"], "time": [1763, 2074, 2421, 2509, 2739, 3238, 3362, 5192, 5244, 5647, 6573, 6644]}, "edge": {"target": [], "time": []}}, "mouseout": {"state": {"target": ["32", "12", "0", "12", "14", "15", "16", "17", "17", "12", "27", "27", "26", "25", "32", "0", "12"], "time": [800, 1131, 2057, 2092, 2492, 2703, 3201, 3272, 4911, 5210, 5262, 6503, 6626, 6662, 41782, 44488, 44758]}, "edge": {"target": [], "time": []}}}, "displayed_time": "15.42", "trialTime": 45166, "trial_type": "mouselab-mdp", "trial_index": 24, "time_elapsed": 619932, "internal_node_id": "0.0-6.0-1.0-3.0"}}, {"uniqueid": "w89979755:a16777496", "current_trial": 25, "dateTime": 1693481200848, "trialdata": {"revealed_states": [], "clicked_states": ["2", "3", "25", "12"], "num_clicks_accrued": [0, 0, 0, 0, 0, 0, 0, 0, 0, 0, 0, 0, 0], "stateRewards": ["", -2, 1, -8, 12, -65, -79, 16, 7, -80, -17, -45, -2, 2, -5, -2, -85, 23, -4, -7, 48, 27, -76, 2, 3, 5, 2, 43, 71, -13, 7, -49, 59, -31], "withholdReward": false, "trial_id": "mdp_trial_5", "block": "test", "trialIndex": 10, "score": -16.6, "costs": -5.6, "simulationMode": [null, null, null, null, null, null], "rewards": [-2, 2, -5, -2, -4], "path": ["0", "0", "12", "13", "14", "15", "18"], "rt": [6611, 505, 13, 123, 619, 14], "actions": ["right", "right", "right", "right", "up", "left"], "actionTimes": [7415, 7924, 8466, 9123, 10243, 10771], "queries": {"click": {"state": {"target": ["2", "3", "25", "12"], "time": [1491, 3224, 4806, 6498]}, "edge": {"target": [], "time": []}}, "mouseover": {"state": {"target": ["1", "2", "3", "23", "24", "25", "24", "23", "0", "12"], "time": [1168, 1221, 2263, 3620, 3833, 3955, 6144, 6179, 6267, 6425]}, "edge": {"target": [], "time": []}}, "mouseout": {"state": {"target": ["0", "1", "2", "3", "23", "24", "25", "24", "23", "0", "12"], "time": [542, 1186, 2210, 3571, 3637, 3920, 6125, 6162, 6197, 6355, 14671]}, "edge": {"target": [], "time": []}}}, "displayed_time": "14.80", "trialTime": 15603, "trial_type": "mouselab-mdp", "trial_index": 25, "time_elapsed": 635786, "internal_node_id": "0.0-6.0-1.0-4.0"}}, {"uniqueid": "w89979755:a16777496", "current_trial": 26, "dateTime": 1693481218040, "trialdata": {"revealed_states": [], "clicked_states": [], "num_clicks_accrued": [0, 0, 0, 0, 0, 0, 0, 0, 0, 0, 0, 0, 0], "stateRewards": ["", 2, -4, 1, -12, -59, -53, -74, 16, -88, -66, 66, 1, -2, 8, -9, -14, 22, 25, -1, -39, 47, -14, -1, -1, -2, 1, -4, 52, -26, 15, -7, 46, 43], "withholdReward": false, "trial_id": "mdp_trial_6", "block": "test", "trialIndex": 11, "score": -87, "costs": 0, "simulationMode": [null, null, null, null, null], "rewards": [2, -4, 1, -12, -74], "path": ["0", "0", "1", "2", "3", "4", "7"], "rt": [1040, 141, 654, 554, 110], "actions": ["up", "up", "up", "right", "down"], "actionTimes": [2176, 2846, 3998, 5068, 5678], "queries": {"click": {"state": {"target": [], "time": []}, "edge": {"target": [], "time": []}}, "mouseover": {"state": {"target": [], "time": []}, "edge": {"target": [], "time": []}}, "mouseout": {"state": {"target": ["0", "3", "31"], "time": [1291, 12426, 15793]}, "edge": {"target": [], "time": []}}}, "displayed_time": "15.14", "trialTime": 16949, "trial_type": "mouselab-mdp", "trial_index": 26, "time_elapsed": 652979, "internal_node_id": "0.0-6.0-1.0-5.0"}}, {"uniqueid": "w89979755:a16777496", "current_trial": 27, "dateTime": 1693481285831, "trialdata": {"revealed_states": [], "clicked_states": [], "num_clicks_accrued": [0, 0, 0, 0, 0, 0, 0, 0, 0, 0, 0, 0, 0], "stateRewards": ["", -1, -3, -6, -2, -7, 80, -45, -3, -38, -72, 76, 2, 1, 7, 4, -62, 14, -74, 14, -87, -21, -88, -2, 1, -7, -10, 66, 56, -76, 10, -29, -72, -70], "withholdReward": false, "trial_id": "mdp_trial_7", "block": "test", "trialIndex": 12, "score": -70, "costs": 0, "simulationMode": [null, null, null, null, null], "rewards": [-2, 1, -7, 10, -72], "path": ["0", "0", "23", "24", "25", "30", "32"], "rt": [1095, 12, 108, 97, 72], "actions": ["left", "left", "left", "down", "down"], "actionTimes": [2229, 2756, 3380, 3989, 4579], "queries": {"click": {"state": {"target": [], "time": []}, "edge": {"target": [], "time": []}}, "mouseover": {"state": {"target": ["31", "31"], "time": [1505, 1682]}, "edge": {"target": [], "time": []}}, "mouseout": {"state": {"target": ["0", "31", "31"], "time": [1434, 1522, 6209]}, "edge": {"target": [], "time": []}}}, "displayed_time": "15.13", "trialTime": 67531, "trial_type": "mouselab-mdp", "trial_index": 27, "time_elapsed": 720769, "internal_node_id": "0.0-6.0-1.0-6.0"}}, {"uniqueid": "w89979755:a16777496", "current_trial": 28, "dateTime": 1693481351017, "trialdata": {"revealed_states": [], "clicked_states": ["1"], "num_clicks_accrued": [0, 0, 0, 0, 0, 0, 0, 0, 0, 0, 0, 0, 0], "stateRewards": ["", 2, -4, 7, 3, 23, -42, 4, 7, -81, -33, 7, -2, -4, 5, -1, 50, -57, -14, -13, -14, 44, 55, -2, -2, 5, -2, 33, 1, 57, -13, -7, 58, 87], "withholdReward": false, "trial_id": "mdp_trial_8", "block": "test", "trialIndex": 13, "score": -22.4, "costs": -1.4, "simulationMode": [null, null, null, null, null, null], "rewards": [2, -4, 7, 7, -33], "path": ["0", "0", "1", "2", "3", "8", "10"], "rt": [2477, 268, 141, 300, 316, 107], "actions": ["up", "up", "up", "up", "left", "down"], "actionTimes": [3571, 3841, 4501, 5300, 6132, 6755], "queries": {"click": {"state": {"target": ["1"], "time": [2520]}, "edge": {"target": [], "time": []}}, "mouseover": {"state": {"target": ["1"], "time": [2453]}, "edge": {"target": [], "time": []}}, "mouseout": {"state": {"target": ["0", "1", "1", "1"], "time": [2344, 3275, 8634, 64463]}, "edge": {"target": [], "time": []}}}, "displayed_time": "15.10", "trialTime": 64904, "trial_type": "mouselab-mdp", "trial_index": 28, "time_elapsed": 785956, "internal_node_id": "0.0-6.0-1.0-7.0"}}, {"uniqueid": "w89979755:a16777496", "current_trial": 29, "dateTime": 1693481396795, "trialdata": {"revealed_states": [], "clicked_states": ["12", "16", "28"], "num_clicks_accrued": [0, 0, 0, 0, 0, 0, 0, 0, 0, 0, 0, 0, 0], "stateRewards": ["", -1, 3, -5, -2, -13, -9, -34, -7, -81, 32, 35, -2, -2, 1, -14, -32, 81, 7, 4, 82, 56, -8, -1, 3, -8, 6, -24, -24, -53, 2, 38, 61, 54], "withholdReward": false, "trial_id": "mdp_trial_9", "block": "test", "trialIndex": 14, "score": -18.2, "costs": -4.199999999999999, "simulationMode": [null, null, null, null, null, null], "rewards": [-1, 3, -5, -2, -9], "path": ["0", "0", "1", "2", "3", "4", "6"], "rt": [5205, 572, 139, 109, 360, 47], "actions": ["up", "up", "up", "up", "right", "right"], "actionTimes": [6094, 6669, 7310, 7920, 8781, 9325], "queries": {"click": {"state": {"target": ["12", "16", "28"], "time": [1573, 3205, 4849]}, "edge": {"target": [], "time": []}}, "mouseover": {"state": {"target": ["12", "15", "16", "18", "23", "28", "26", "28"], "time": [1498, 1953, 2202, 3891, 4068, 4156, 4436, 4750]}, "edge": {"target": [], "time": []}}, "mouseout": {"state": {"target": ["0", "0", "12", "15", "16", "18", "23", "28", "26", "28", "0", "1"], "time": [404, 1234, 1918, 2006, 3838, 3909, 4086, 4191, 4579, 10635, 43072, 43107]}, "edge": {"target": [], "time": []}}}, "displayed_time": "44.89", "trialTime": 45488, "trial_type": "mouselab-mdp", "trial_index": 29, "time_elapsed": 831733, "internal_node_id": "0.0-6.0-1.0-8.0"}}, {"uniqueid": "w89979755:a16777496", "current_trial": 30, "dateTime": 1693481414110, "trialdata": {"revealed_states": [], "clicked_states": ["23", "12", "22", "21"], "num_clicks_accrued": [0, 0, 0, 0, 0, 0, 0, 0, 0, 0, 0, 0, 0], "stateRewards": ["", 1, -2, -3, 14, -42, -87, -37, -11, -50, 33, -44, -2, 4, -7, 13, 48, -75, -66, 12, 23, -2, 82, 1, -4, 3, 12, 51, -15, -26, -11, -52, -29, 82], "withholdReward": false, "trial_id": "mdp_trial_10", "block": "test", "trialIndex": 15, "score": -63.6, "costs": -5.6, "simulationMode": [null, null, null, null, null, null], "rewards": [-2, 4, -7, 13, -66], "path": ["0", "0", "12", "13", "14", "15", "18"], "rt": [7074, 571, 54, 19, 385, 750], "actions": ["right", "right", "right", "right", "up", "left"], "actionTimes": [8308, 8883, 9445, 9988, 10883, 12149], "queries": {"click": {"state": {"target": ["23", "12", "22", "21"], "time": [2701, 4210, 5725, 7298]}, "edge": {"target": [], "time": []}}, "mouseover": {"state": {"target": ["0", "23", "0", "12", "22", "21"], "time": [2639, 2673, 2884, 3818, 5526, 6871]}, "edge": {"target": [], "time": []}}, "mouseout": {"state": {"target": ["0", "0", "23", "0", "12", "22", "21"], "time": [2364, 2655, 2747, 3762, 4841, 6695, 7376]}, "edge": {"target": [], "time": []}}}, "displayed_time": "15.24", "trialTime": 17028, "trial_type": "mouselab-mdp", "trial_index": 30, "time_elapsed": 849048, "internal_node_id": "0.0-6.0-1.0-9.0"}}, {"uniqueid": "w89979755:a16777496", "current_trial": 31, "dateTime": 1693481448513, "trialdata": {"revealed_states": [], "clicked_states": ["23", "30"], "num_clicks_accrued": [0, 0, 0, 0, 0, 0, 0, 0, 0, 0, 0, 0, 0], "stateRewards": ["", -1, 4, 3, 12, -27, 34, -33, 3, -63, 1, 6, 2, 2, -6, -11, -77, -85, 68, -6, 51, 81, -60, -2, -2, 1, 15, 20, 15, 68, -10, -14, 6, -4], "withholdReward": false, "trial_id": "mdp_trial_11", "block": "test", "trialIndex": 16, "score": -56.8, "costs": -2.8, "simulationMode": [null, null, null, null, null, null], "rewards": [-1, 4, 3, 3, -63], "path": ["0", "0", "1", "2", "3", "8", "9"], "rt": [3477, 479, 120, 106, 97, 77], "actions": ["up", "up", "up", "up", "left", "up"], "actionTimes": [4882, 5363, 5987, 6609, 7219, 7810], "queries": {"click": {"state": {"target": ["23", "30"], "time": [1960, 3648]}, "edge": {"target": [], "time": []}}, "mouseover": {"state": {"target": ["23", "31", "32", "30", "30", "30"], "time": [1757, 2331, 2543, 2859, 3005, 3181]}, "edge": {"target": [], "time": []}}, "mouseout": {"state": {"target": ["21", "22", "0", "23", "31", "32", "30", "30", "30", "33", "24", "28"], "time": [766, 921, 1740, 2313, 2348, 2842, 2877, 3073, 9018, 9112, 12146, 12501]}, "edge": {"target": [], "time": []}}}, "displayed_time": "16.41", "trialTime": 34166, "trial_type": "mouselab-mdp", "trial_index": 31, "time_elapsed": 883450, "internal_node_id": "0.0-6.0-1.0-10.0"}}, {"uniqueid": "w89979755:a16777496", "current_trial": 32, "dateTime": 1693481476923, "trialdata": {"revealed_states": [], "clicked_states": ["16"], "num_clicks_accrued": [0, 0, 0, 0, 0, 0, 0, 0, 0, 0, 0, 0, 0], "stateRewards": ["", 2, 3, 6, -12, -29, 12, 87, 4, 35, -30, 67, 2, 3, -5, -9, 44, 69, -8, 1, 45, -8, 28, -2, -1, -8, 11, -12, -5, 81, 9, 87, 82, 88], "withholdReward": false, "trial_id": "mdp_trial_12", "block": "test", "trialIndex": 17, "score": -8.4, "costs": -1.4, "simulationMode": [null, null, null, null, null, null], "rewards": [2, 3, -5, 1, -8], "path": ["0", "0", "12", "13", "14", "19", "21"], "rt": [2683, 477, 133, 175, 60, 183], "actions": ["right", "right", "right", "right", "down", "down"], "actionTimes": [3740, 4220, 4876, 5567, 6125, 6830], "queries": {"click": {"state": {"target": ["16"], "time": [2644]}, "edge": {"target": [], "time": []}}, "mouseover": {"state": {"target": ["23", "0", "12", "15", "16", "15", "14", "19"], "time": [1584, 1960, 1980, 2067, 2519, 3027, 3080, 3117]}, "edge": {"target": [], "time": []}}, "mouseout": {"state": {"target": ["0", "23", "0", "12", "15", "16", "15", "14", "19", "22", "31", "30", "32", "0"], "time": [1387, 1944, 1978, 1996, 2121, 3009, 3064, 3098, 8970, 9089, 9363, 14108, 14655, 27339]}, "edge": {"target": [], "time": []}}}, "displayed_time": "15.06", "trialTime": 28140, "trial_type": "mouselab-mdp", "trial_index": 32, "time_elapsed": 911861, "internal_node_id": "0.0-6.0-1.0-11.0"}}, {"uniqueid": "w89979755:a16777496", "current_trial": 33, "dateTime": 1693481516589, "trialdata": {"revealed_states": [], "clicked_states": ["23", "12", "1"], "num_clicks_accrued": [0, 0, 0, 0, 0, 0, 0, 0, 0, 0, 0, 0, 0], "stateRewards": ["", 2, -3, 5, 11, -79, 54, 11, -9, -78, 33, 22, -2, -1, 2, 14, 43, 34, 1, 10, 49, -65, 39, -1, 1, -1, 3, -16, -2, 11, 2, 12, 48, -65], "withholdReward": false, "trial_id": "mdp_trial_13", "block": "test", "trialIndex": 18, "score": 21.8, "costs": -4.199999999999999, "simulationMode": [null, null, null, null, null, null], "rewards": [2, -3, 5, 11, 11], "path": ["0", "0", "1", "2", "3", "4", "7"], "rt": [4555, 447, 62, 6, 120, 70], "actions": ["up", "up", "up", "up", "right", "down"], "actionTimes": [5309, 5759, 6349, 6876, 7518, 8093], "queries": {"click": {"state": {"target": ["23", "12", "1"], "time": [1199, 2788, 4333]}, "edge": {"target": [], "time": []}}, "mouseover": {"state": {"target": ["0", "23", "1", "0", "0", "1", "12", "1", "1"], "time": [928, 1087, 1723, 1759, 2197, 2287, 2447, 3433, 3645]}, "edge": {"target": [], "time": []}}, "mouseout": {"state": {"target": ["0", "0", "23", "1", "0", "0", "1", "12", "1", "1", "29", "24"], "time": [539, 1015, 1529, 1741, 1776, 2215, 2339, 3398, 3450, 4982, 38811, 38828]}, "edge": {"target": [], "time": []}}}, "displayed_time": "14.76", "trialTime": 39375, "trial_type": "mouselab-mdp", "trial_index": 33, "time_elapsed": 951527, "internal_node_id": "0.0-6.0-1.0-12.0"}}, {"uniqueid": "w89979755:a16777496", "current_trial": 34, "dateTime": 1693481532545, "trialdata": {"revealed_states": [], "clicked_states": ["32", "27", "29", "33", "20"], "num_clicks_accrued": [0, 0, 0, 0, 0, 0, 0, 0, 0, 0, 0, 0, 0], "stateRewards": ["", 2, 3, -6, -5, -3, 55, 40, 11, 61, 11, 51, 2, -4, -6, 9, -25, 29, -15, -6, 7, -77, -2, -2, -4, 1, 14, -43, -1, 56, -12, -54, 41, -74], "withholdReward": false, "trial_id": "mdp_trial_14", "block": "test", "trialIndex": 19, "score": 14, "costs": -7, "simulationMode": [null, null, null, null, null, null], "rewards": [2, 3, -6, 11, 11], "path": ["0", "0", "1", "2", "3", "8", "10"], "rt": [9243, 507, 56, 36, 49, 26], "actions": ["up", "up", "up", "up", "left", "down"], "actionTimes": [10009, 10519, 11077, 11638, 12213, 12758], "queries": {"click": {"state": {"target": ["32", "27", "29", "33", "20"], "time": [1534, 3421, 5160, 6979, 8816]}, "edge": {"target": [], "time": []}}, "mouseover": {"state": {"target": ["31", "32", "30", "25", "26", "27", "29", "33", "30", "31", "22", "19", "20"], "time": [1111, 1287, 2089, 2125, 2300, 2551, 3745, 5469, 7290, 7308, 7377, 7396, 7835]}, "edge": {"target": [], "time": []}}, "mouseout": {"state": {"target": ["0", "31", "32", "30", "25", "26", "27", "29", "33", "30", "31", "22", "19", "20", "22", "31", "30"], "time": [1059, 1234, 2036, 2107, 2142, 2334, 3728, 5416, 7288, 7306, 7324, 7394, 7412, 14297, 14349, 14455, 14490]}, "edge": {"target": [], "time": []}}}, "displayed_time": "14.78", "trialTime": 15671, "trial_type": "mouselab-mdp", "trial_index": 34, "time_elapsed": 967482, "internal_node_id": "0.0-6.0-1.0-13.0"}}, {"uniqueid": "w89979755:a16777496", "current_trial": 35, "dateTime": 1693481550351, "trialdata": {"revealed_states": [], "clicked_states": ["12", "17"], "num_clicks_accrued": [0, 0, 0, 0, 0, 0, 0, 0, 0, 0, 0, 0, 0], "stateRewards": ["", -2, -3, 7, -13, 60, 9, 37, -6, 37, 20, 1, 2, -2, -8, 6, -80, -31, -10, -7, 70, -65, -44, -1, 1, 7, 6, -11, 73, -85, 16, -21, 47, 34], "withholdReward": false, "trial_id": "mdp_trial_15", "block": "test", "trialIndex": 20, "score": -74.8, "costs": -2.8, "simulationMode": [null, null, null, null, null, null], "rewards": [-1, 1, 7, 6, -85], "path": ["0", "0", "23", "24", "25", "26", "29"], "rt": [3072, 491, 537, 106, 90, 58], "actions": ["left", "left", "left", "left", "up", "left"], "actionTimes": [4086, 4580, 5652, 6259, 6851, 7410], "queries": {"click": {"state": {"target": ["12", "17"], "time": [1514, 3116]}, "edge": {"target": [], "time": []}}, "mouseover": {"state": {"target": ["12", "14", "17"], "time": [1449, 2139, 2384]}, "edge": {"target": [], "time": []}}, "mouseout": {"state": {"target": ["0", "12", "14", "17", "32", "32"], "time": [1432, 1979, 2174, 16083, 17135, 17246]}, "edge": {"target": [], "time": []}}}, "displayed_time": "15.02", "trialTime": 17540, "trial_type": "mouselab-mdp", "trial_index": 35, "time_elapsed": 985289, "internal_node_id": "0.0-6.0-1.0-14.0"}}, {"uniqueid": "w89979755:a16777496", "current_trial": 36, "dateTime": 1693481576731, "trialdata": {"revealed_states": [], "clicked_states": ["21", "9"], "num_clicks_accrued": [0, 0, 0, 0, 0, 0, 0, 0, 0, 0, 0, 0, 0], "stateRewards": ["", 2, -3, -4, -1, 25, -16, 16, 10, -71, -20, -55, 1, 3, -4, -9, 1, 32, 11, -6, 32, -50, -41, -1, 4, 4, -8, 7, -81, 70, 2, -52, 45, -10], "withholdReward": false, "trial_id": "mdp_trial_16", "block": "test", "trialIndex": 21, "score": -24.8, "costs": -2.8, "simulationMode": [null, null, null, null, null, null], "rewards": [2, -3, -4, -1, -16], "path": ["0", "0", "1", "2", "3", "4", "6"], "rt": [3899, 716, 13, 528, 13, 42], "actions": ["up", "up", "up", "up", "right", "right"], "actionTimes": [4877, 5597, 6125, 7167, 7677, 8237], "queries": {"click": {"state": {"target": ["21", "9"], "time": [1703, 3698]}, "edge": {"target": [], "time": []}}, "mouseover": {"state": {"target": ["0", "21", "21", "16", "6", "4", "9", "2", "1"], "time": [1105, 1428, 1665, 2295, 2686, 2704, 3127, 4135, 4171]}, "edge": {"target": [], "time": []}}, "mouseout": {"state": {"target": ["0", "0", "21", "21", "16", "6", "4", "9", "2", "1", "1", "25", "30"], "time": [792, 1358, 1462, 2082, 2650, 2703, 2721, 4065, 4153, 4206, 9327, 25602, 25637]}, "edge": {"target": [], "time": []}}}, "displayed_time": "14.98", "trialTime": 26109, "trial_type": "mouselab-mdp", "trial_index": 36, "time_elapsed": 1011669, "internal_node_id": "0.0-6.0-1.0-15.0"}}, {"uniqueid": "w89979755:a16777496", "current_trial": 37, "dateTime": 1693481593042, "trialdata": {"revealed_states": [], "clicked_states": ["23", "24", "25", "30", "32"], "num_clicks_accrued": [0, 0, 0, 0, 0, 0, 0, 0, 0, 0, 0, 0, 0], "stateRewards": ["", 2, 2, 3, -15, 23, -14, 73, -7, -32, -20, -6, 1, 1, -5, -12, 73, 6, -84, 11, -81, -57, 13, -2, -1, -4, -8, -52, -58, 49, 13, 5, -41, -41], "withholdReward": false, "trial_id": "mdp_trial_17", "block": "test", "trialIndex": 22, "score": 4, "costs": -7, "simulationMode": [null, null, null, null, null], "rewards": [-2, -1, -4, 13, 5], "path": ["0", "0", "23", "24", "25", "30", "31"], "rt": [9712, 165, 104, 89, 140], "actions": ["left", "left", "left", "down", "right"], "actionTimes": [10438, 11136, 11761, 12354, 12993], "queries": {"click": {"state": {"target": ["23", "24", "25", "30", "32"], "time": [1301, 3437, 5112, 6837, 8633]}, "edge": {"target": [], "time": []}}, "mouseover": {"state": {"target": ["23", "24", "24", "25", "30", "32", "32"], "time": [1215, 1812, 3395, 3977, 6387, 7127, 7320]}, "edge": {"target": [], "time": []}}, "mouseout": {"state": {"target": ["0", "23", "24", "24", "25", "30", "32", "32", "32", "32"], "time": [1197, 1724, 3151, 3818, 6335, 7107, 7144, 8666, 8941, 15369]}, "edge": {"target": [], "time": []}}}, "displayed_time": "14.73", "trialTime": 15970, "trial_type": "mouselab-mdp", "trial_index": 37, "time_elapsed": 1027979, "internal_node_id": "0.0-6.0-1.0-16.0"}}, {"uniqueid": "w89979755:a16777496", "current_trial": 38, "dateTime": 1693481639263, "trialdata": {"revealed_states": [], "clicked_states": ["12", "13", "14", "23", "24", "1", "2", "10", "3", "8"], "num_clicks_accrued": [0, 0, 0, 0, 0, 0, 0, 0, 0, 0, 0, 0, 0], "stateRewards": ["", 1, 1, 1, 15, -76, 52, -32, 14, -57, 37, 49, 1, -4, -3, 6, 83, -76, 25, 9, 36, -1, -17, -1, 4, 4, -2, -22, -21, 58, -15, -57, 49, -24], "withholdReward": false, "trial_id": "mdp_trial_18", "block": "test", "trialIndex": 23, "score": 40, "costs": -14.000000000000002, "simulationMode": [null, null, null, null, null], "rewards": [1, 1, 1, 14, 37], "path": ["0", "0", "1", "2", "3", "8", "10"], "rt": [18905, 137, 77, 90, 122], "actions": ["up", "up", "up", "left", "down"], "actionTimes": [19604, 20243, 20819, 21412, 22035], "queries": {"click": {"state": {"target": ["12", "13", "14", "23", "24", "1", "2", "10", "3", "8"], "time": [1208, 3008, 4997, 6641, 8197, 9985, 12555, 14327, 16077, 17734]}, "edge": {"target": [], "time": []}}, "mouseover": {"state": {"target": ["0", "12", "22", "13", "14", "12", "0", "23", "24", "25", "1", "1", "2", "2", "0", "10", "3", "8", "24"], "time": [849, 1145, 1744, 2485, 3362, 6112, 6163, 6322, 7239, 8532, 9220, 9503, 10590, 12448, 12768, 13196, 15233, 17138, 18422]}, "edge": {"target": [], "time": []}}, "mouseout": {"state": {"target": ["0", "0", "12", "22", "13", "14", "13", "12", "0", "23", "24", "25", "1", "1", "2", "2", "0", "10", "2", "3", "8", "10", "24", "24", "33", "25", "31"], "time": [481, 1025, 1656, 1886, 3293, 6074, 6110, 6145, 6304, 7186, 8514, 9188, 9238, 10537, 11957, 12715, 12786, 15144, 15179, 17012, 18175, 18228, 18441, 24501, 24536, 45249, 45337]}, "edge": {"target": [], "time": []}}}, "displayed_time": "22.54", "trialTime": 45957, "trial_type": "mouselab-mdp", "trial_index": 38, "time_elapsed": 1074200, "internal_node_id": "0.0-6.0-1.0-17.0"}}, {"uniqueid": "w89979755:a16777496", "current_trial": 39, "dateTime": 1693481676669, "trialdata": {"revealed_states": [], "clicked_states": ["23", "24", "25", "26", "30", "12", "13", "14"], "num_clicks_accrued": [0, 0, 0, 0, 0, 0, 0, 0, 0, 0, 0, 0, 0], "stateRewards": ["", 2, 1, -3, 7, 46, 11, -36, 16, 71, 5, 1, 2, -2, -8, -3, -4, 6, 55, 7, 68, -54, 2, 1, 1, 6, -6, 42, -4, -84, -11, -65, 63, 25], "withholdReward": false, "trial_id": "mdp_trial_19", "block": "test", "trialIndex": 24, "score": -40.2, "costs": -11.200000000000001, "simulationMode": [null, null, null, null, null], "rewards": [2, 1, -3, 7, -36], "path": ["0", "0", "1", "2", "3", "4", "7"], "rt": [17687, 10, 344, 588, 30], "actions": ["up", "up", "up", "right", "down"], "actionTimes": [18916, 19424, 20287, 21376, 21920], "queries": {"click": {"state": {"target": ["23", "24", "25", "26", "30", "12", "13", "14"], "time": [1741, 3598, 5387, 7185, 9663, 12695, 14528, 16330]}, "edge": {"target": [], "time": []}}, "mouseover": {"state": {"target": ["23", "24", "25", "26", "26", "29", "29", "30", "32", "33", "31", "23", "0", "12", "13", "14", "15", "18"], "time": [1550, 3051, 4057, 5845, 6196, 7706, 8180, 9559, 10433, 10998, 11729, 12313, 12366, 12532, 13148, 14898, 17007, 18297]}, "edge": {"target": [], "time": []}}, "mouseout": {"state": {"target": ["0", "23", "24", "25", "26", "26", "26", "29", "29", "30", "30", "32", "33", "30", "31", "23", "0", "12", "13", "14", "15", "18", "27", "28", "23"], "time": [1477, 2185, 4003, 5810, 5880, 7219, 7688, 7742, 9365, 9726, 10065, 10911, 11683, 11712, 12017, 12348, 12401, 13113, 14863, 16936, 18279, 25584, 25707, 36293, 36328]}, "edge": {"target": [], "time": []}}}, "displayed_time": "22.42", "trialTime": 37120, "trial_type": "mouselab-mdp", "trial_index": 39, "time_elapsed": 1111607, "internal_node_id": "0.0-6.0-1.0-18.0"}}, {"uniqueid": "w89979755:a16777496", "current_trial": 40, "dateTime": 1693481699213, "trialdata": {"revealed_states": [], "clicked_states": ["1", "2", "7", "3", "10", "8", "9", "24"], "num_clicks_accrued": [0, 0, 0, 0, 0, 0, 0, 0, 0, 0, 0, 0, 0], "stateRewards": ["", 2, -1, 1, 10, -52, 86, -22, -2, -14, -63, 38, 1, 3, 7, -8, 11, -32, -27, 9, -71, 40, -87, -2, -1, 5, -7, 12, 31, -57, 13, 86, -58, 29], "withholdReward": false, "trial_id": "mdp_trial_20", "block": "test", "trialIndex": 25, "score": 48.8, "costs": -11.200000000000001, "simulationMode": [null, null, null, null, null, null], "rewards": [1, 3, 7, 9, 40], "path": ["0", "0", "12", "13", "14", "19", "21"], "rt": [15029, 1052, 77, 172, 429, 286], "actions": ["left", "right", "right", "right", "down", "down"], "actionTimes": [15471, 16526, 17100, 17773, 18703, 19486], "queries": {"click": {"state": {"target": ["1", "2", "7", "3", "10", "8", "9", "24"], "time": [1408, 3286, 5323, 7143, 8956, 10960, 12730, 14493]}, "edge": {"target": [], "time": []}}, "mouseover": {"state": {"target": ["1", "0", "2", "10", "7", "7", "3", "8", "10", "8", "8", "9", "5", "3", "28", "24"], "time": [1320, 2006, 2715, 3902, 4518, 4644, 6042, 7686, 7756, 9461, 9617, 11549, 13057, 13817, 14071, 14099]}, "edge": {"target": [], "time": []}}, "mouseout": {"state": {"target": ["0", "1", "1", "0", "2", "10", "7", "7", "3", "8", "10", "8", "8", "9", "5", "3", "28", "24", "23", "0"], "time": [678, 1462, 1972, 2172, 3849, 4131, 4556, 5708, 7510, 7704, 9408, 9478, 11233, 13006, 13782, 13834, 14086, 14829, 21023, 21434]}, "edge": {"target": [], "time": []}}}, "displayed_time": "20.00", "trialTime": 22204, "trial_type": "mouselab-mdp", "trial_index": 40, "time_elapsed": 1134152, "internal_node_id": "0.0-6.0-1.0-19.0"}}, {"uniqueid": "w89979755:a16777496", "current_trial": 41, "dateTime": 1693481715710, "trialdata": {"revealed_states": [], "clicked_states": ["21", "20", "6"], "num_clicks_accrued": [0, 0, 0, 0, 0, 0, 0, 0, 0, 0, 0, 0, 0], "stateRewards": ["", -1, -3, -7, -7, -76, 30, -49, 11, -70, 56, 2, 1, 4, -3, -14, -59, -83, -25, -9, -21, -67, -73, -2, 4, 4, -9, -11, -32, 60, 9, -87, 22, -64], "withholdReward": false, "trial_id": "mdp_trial_21", "block": "test", "trialIndex": 26, "score": 7.800000000000001, "costs": -4.199999999999999, "simulationMode": [null, null, null, null, null], "rewards": [-1, -3, -7, -7, 30], "path": ["0", "0", "1", "2", "3", "4", "6"], "rt": [8151, 108, 139, 77, 364], "actions": ["up", "up", "up", "right", "right"], "actionTimes": [9425, 10031, 10668, 11246, 12111], "queries": {"click": {"state": {"target": ["21", "20", "6"], "time": [1961, 4244, 6633]}, "edge": {"target": [], "time": []}}, "mouseover": {"state": {"target": ["22", "21", "20", "31", "30", "23", "6", "26", "29", "26", "28", "2"], "time": [1555, 1819, 4188, 5402, 5438, 6126, 6549, 7731, 7907, 8784, 8835, 8922]}, "edge": {"target": [], "time": []}}, "mouseout": {"state": {"target": ["0", "22", "21", "20", "31", "30", "23", "6", "6", "26", "29", "26", "28", "2", "7", "7"], "time": [1519, 1573, 2015, 4665, 5420, 6091, 6143, 6696, 7009, 7749, 8764, 8820, 8852, 13934, 13987, 15280]}, "edge": {"target": [], "time": []}}}, "displayed_time": "15.27", "trialTime": 16253, "trial_type": "mouselab-mdp", "trial_index": 41, "time_elapsed": 1150649, "internal_node_id": "0.0-6.0-1.0-20.0"}}, {"uniqueid": "w89979755:a16777496", "current_trial": 42, "dateTime": 1693481786286, "trialdata": {"revealed_states": [], "clicked_states": ["29", "33"], "num_clicks_accrued": [0, 0, 0, 0, 0, 0, 0, 0, 0, 0, 0, 0, 0], "stateRewards": ["", -2, 1, -7, -8, -37, -76, -87, 11, 30, -63, 80, -1, 4, 2, -1, 42, 17, 52, -3, -75, -80, -68, 2, -3, -5, -15, -48, 82, 24, -7, 5, -22, -71], "withholdReward": false, "trial_id": "mdp_trial_22", "block": "test", "trialIndex": 27, "score": 0.1999999999999993, "costs": -2.8, "simulationMode": [null, null, null, null, null], "rewards": [2, -3, -5, -15, 24], "path": ["0", "0", "23", "24", "25", "26", "29"], "rt": [4729, 14, 94, 111, 59], "actions": ["left", "left", "left", "up", "left"], "actionTimes": [5572, 6083, 6693, 7302, 7860], "queries": {"click": {"state": {"target": ["29", "33"], "time": [1508, 3407]}, "edge": {"target": [], "time": []}}, "mouseover": {"state": {"target": ["25", "29", "33"], "time": [1230, 1363, 1997]}, "edge": {"target": [], "time": []}}, "mouseout": {"state": {"target": ["0", "25", "29", "33", "31"], "time": [683, 1243, 1768, 3818, 69732]}, "edge": {"target": [], "time": []}}}, "displayed_time": "14.85", "trialTime": 70325, "trial_type": "mouselab-mdp", "trial_index": 42, "time_elapsed": 1221225, "internal_node_id": "0.0-6.0-1.0-21.0"}}, {"uniqueid": "w89979755:a16777496", "current_trial": 43, "dateTime": 1693481813645, "trialdata": {"revealed_states": [], "clicked_states": ["21"], "num_clicks_accrued": [0, 0, 0, 0, 0, 0, 0, 0, 0, 0, 0, 0, 0], "stateRewards": ["", -1, 3, 1, -7, 56, 76, 57, 3, 11, -9, 14, 1, -2, 2, 8, -77, -3, 79, -5, 88, 24, -66, -2, -1, 7, -7, -30, 14, -76, 11, -36, 28, -6], "withholdReward": false, "trial_id": "mdp_trial_23", "block": "test", "trialIndex": 28, "score": 18.6, "costs": -1.4, "simulationMode": [null, null, null, null, null], "rewards": [1, -2, 2, -5, 24], "path": ["0", "0", "12", "13", "14", "19", "21"], "rt": [3356, 54, 98, 59, 111], "actions": ["right", "right", "right", "down", "down"], "actionTimes": [3987, 4543, 5168, 5743, 6352], "queries": {"click": {"state": {"target": ["21"], "time": [1536]}, "edge": {"target": [], "time": []}}, "mouseover": {"state": {"target": ["21", "21", "33", "30", "20"], "time": [1016, 1351, 1982, 2317, 2387]}, "edge": {"target": [], "time": []}}, "mouseout": {"state": {"target": ["0", "21", "21", "33", "30", "20"], "time": [877, 1034, 1824, 2017, 2335, 2405]}, "edge": {"target": [], "time": []}}}, "displayed_time": "14.64", "trialTime": 27038, "trial_type": "mouselab-mdp", "trial_index": 43, "time_elapsed": 1248584, "internal_node_id": "0.0-6.0-1.0-22.0"}}, {"uniqueid": "w89979755:a16777496", "current_trial": 44, "dateTime": 1693481841806, "trialdata": {"revealed_states": [], "clicked_states": ["9", "5"], "num_clicks_accrued": [0, 0, 0, 0, 0, 0, 0, 0, 0, 0, 0, 0, 0], "stateRewards": ["", -2, 3, 3, -14, 62, 36, 49, 16, 11, 17, -84, 2, -1, 6, 2, -82, -73, 49, -6, -87, 48, 50, -1, -2, -1, -16, -11, 37, -44, 4, 55, 73, -10], "withholdReward": false, "trial_id": "mdp_trial_24", "block": "test", "trialIndex": 29, "score": 49.2, "costs": -2.8, "simulationMode": [null, null, null, null, null], "rewards": [-2, 3, 3, -14, 62], "path": ["0", "0", "1", "2", "3", "4", "5"], "rt": [5191, 88, 93, 28, 24], "actions": ["up", "up", "up", "right", "up"], "actionTimes": [5939, 6546, 7137, 7664, 8208], "queries": {"click": {"state": {"target": ["9", "5"], "time": [1297, 4026]}, "edge": {"target": [], "time": []}}, "mouseover": {"state": {"target": ["1", "8", "9", "23", "5", "5", "10", "26", "25", "25"], "time": [874, 1050, 1208, 2073, 3367, 3993, 4288, 4323, 4377, 4464]}, "edge": {"target": [], "time": []}}, "mouseout": {"state": {"target": ["0", "1", "8", "9", "9", "23", "5", "5", "5", "10", "26", "25", "25", "31"], "time": [588, 890, 1084, 1371, 1543, 3230, 3385, 4182, 4253, 4305, 4341, 4412, 4482, 27321]}, "edge": {"target": [], "time": []}}}, "displayed_time": "14.75", "trialTime": 27825, "trial_type": "mouselab-mdp", "trial_index": 44, "time_elapsed": 1276745, "internal_node_id": "0.0-6.0-1.0-23.0"}}, {"uniqueid": "w89979755:a16777496", "current_trial": 45, "dateTime": 1693481858947, "trialdata": {"revealed_states": [], "clicked_states": ["14", "20", "29", "9"], "num_clicks_accrued": [0, 0, 0, 0, 0, 0, 0, 0, 0, 0, 0, 0, 0], "stateRewards": ["", -1, -3, -3, 1, -38, 2, -53, -2, -1, -81, 70, -1, 1, -5, -9, 46, 15, 35, -1, -22, 38, 59, -2, 4, -8, 13, 1, -83, -43, 4, 76, 13, 48], "withholdReward": false, "trial_id": "mdp_trial_25", "block": "test", "trialIndex": 30, "score": -95.6, "costs": -5.6, "simulationMode": [null, null, null, null, null], "rewards": [-1, -3, -3, -2, -81], "path": ["0", "0", "1", "2", "3", "8", "10"], "rt": [10599, 586, 37, 20, 15], "actions": ["up", "up", "up", "left", "down"], "actionTimes": [12046, 13132, 13674, 14202, 14730], "queries": {"click": {"state": {"target": ["14", "20", "29", "9"], "time": [2268, 4413, 6266, 9704]}, "edge": {"target": [], "time": []}}, "mouseover": {"state": {"target": ["0", "12", "13", "14", "15", "17", "15", "20", "19", "22", "25", "29", "25", "33", "25", "26", "8", "8", "9"], "time": [1549, 1735, 1964, 1999, 3574, 3753, 4072, 4144, 4657, 4675, 4887, 5151, 6592, 6752, 9155, 9174, 9383, 9437, 9632]}, "edge": {"target": [], "time": []}}, "mouseout": {"state": {"target": ["0", "0", "12", "13", "14", "15", "17", "15", "20", "19", "22", "25", "29", "25", "33", "25", "26", "8", "8", "9"], "time": [1230, 1718, 1753, 1982, 2741, 3592, 3859, 4108, 4458, 4674, 4692, 4922, 6575, 6612, 6769, 9172, 9207, 9401, 9489, 10032]}, "edge": {"target": [], "time": []}}}, "displayed_time": "15.45", "trialTime": 16828, "trial_type": "mouselab-mdp", "trial_index": 45, "time_elapsed": 1293885, "internal_node_id": "0.0-6.0-1.0-24.0"}}, {"uniqueid": "w89979755:a16777496", "current_trial": 46, "dateTime": 1693481883618, "trialdata": {"revealed_states": [], "clicked_states": ["21", "32"], "num_clicks_accrued": [0, 0, 0, 0, 0, 0, 0, 0, 0, 0, 0, 0, 0], "stateRewards": ["", 1, 2, -5, 14, 54, -14, -25, 16, -5, -87, 78, -1, 1, 3, -3, 52, 53, 53, -10, 73, -69, -48, 2, 3, 1, 8, -62, -7, 85, 7, 82, 52, -28], "withholdReward": false, "trial_id": "mdp_trial_26", "block": "test", "trialIndex": 31, "score": 62.2, "costs": -2.8, "simulationMode": [null, null, null, null, null], "rewards": [2, 3, 1, 7, 52], "path": ["0", "0", "23", "24", "25", "30", "32"], "rt": [5162, 140, 617, 429, 94], "actions": ["left", "left", "left", "down", "down"], "actionTimes": [9446, 10085, 11202, 12147, 12739], "queries": {"click": {"state": {"target": ["21", "32"], "time": [5097, 7004]}, "edge": {"target": [], "time": []}}, "mouseover": {"state": {"target": ["12", "21", "32", "33"], "time": [4710, 5040, 6381, 7906]}, "edge": {"target": [], "time": []}}, "mouseout": {"state": {"target": ["0", "12", "21", "32", "33", "25"], "time": [4693, 4743, 5392, 7286, 8978, 13990]}, "edge": {"target": [], "time": []}}}, "displayed_time": "18.28", "trialTime": 24356, "trial_type": "mouselab-mdp", "trial_index": 46, "time_elapsed": 1318556, "internal_node_id": "0.0-6.0-1.0-25.0"}}, {"uniqueid": "w89979755:a16777496", "current_trial": 47, "dateTime": 1693481930225, "trialdata": {"revealed_states": [], "clicked_states": ["9", "10", "7"], "num_clicks_accrued": [0, 0, 0, 0, 0, 0, 0, 0, 0, 0, 0, 0, 0], "stateRewards": ["", -2, -3, 1, -14, 48, -49, 67, -1, -35, -48, 3, -2, 1, -4, -5, 86, -84, 39, 1, 48, 41, -42, -1, -4, 2, -7, 18, -86, 17, 7, -9, 57, -69], "withholdReward": false, "trial_id": "mdp_trial_27", "block": "test", "trialIndex": 32, "score": 44.8, "costs": -4.199999999999999, "simulationMode": [null, null, null, null, null], "rewards": [-2, -3, 1, -14, 67], "path": ["0", "0", "1", "2", "3", "4", "7"], "rt": [6800, 504, 172, 101, 240], "actions": ["up", "up", "up", "right", "down"], "actionTimes": [7506, 8513, 9201, 9807, 10560], "queries": {"click": {"state": {"target": ["9", "10", "7"], "time": [1446, 3310, 5183]}, "edge": {"target": [], "time": []}}, "mouseover": {"state": {"target": ["23", "8", "9", "8", "11", "11", "10", "7", "18"], "time": [1051, 1104, 1211, 1817, 1904, 2205, 2471, 4094, 6059]}, "edge": {"target": [], "time": []}}, "mouseout": {"state": {"target": ["0", "23", "8", "9", "8", "11", "11", "10", "7", "18", "27", "24", "23"], "time": [712, 1069, 1175, 1764, 1887, 2063, 2381, 3566, 5833, 12300, 12380, 45617, 45635]}, "edge": {"target": [], "time": []}}}, "displayed_time": "14.71", "trialTime": 46288, "trial_type": "mouselab-mdp", "trial_index": 47, "time_elapsed": 1365163, "internal_node_id": "0.0-6.0-1.0-26.0"}}, {"uniqueid": "w89979755:a16777496", "current_trial": 48, "dateTime": 1693481947295, "trialdata": {"revealed_states": [], "clicked_states": ["22", "17", "10", "5", "6"], "num_clicks_accrued": [0, 0, 0, 0, 0, 0, 0, 0, 0, 0, 0, 0, 0], "stateRewards": ["", 2, -1, -3, 16, -3, -16, -62, -1, 13, -26, 43, -1, 4, 3, -9, -54, -37, -3, -12, -71, -68, -57, 1, -3, 2, -9, 2, -2, -9, -11, 84, -52, 55], "withholdReward": false, "trial_id": "mdp_trial_28", "block": "test", "trialIndex": 33, "score": -18, "costs": -7, "simulationMode": [null, null, null, null, null], "rewards": [1, -3, 2, -9, -2], "path": ["0", "0", "23", "24", "25", "26", "28"], "rt": [11896, 135, 8, 90, 30], "actions": ["left", "left", "left", "up", "right"], "actionTimes": [12963, 13617, 14142, 14752, 15279], "queries": {"click": {"state": {"target": ["22", "17", "10", "5", "6"], "time": [1501, 3762, 5731, 8319, 10542]}, "edge": {"target": [], "time": []}}, "mouseover": {"state": {"target": ["22", "13", "17", "15", "1", "2", "10", "10", "27", "9", "5", "9", "4", "6", "4", "3", "8"], "time": [1450, 3484, 3536, 3944, 3980, 4423, 4456, 4869, 6048, 7711, 8265, 10217, 10289, 10498, 10814, 10834, 10852]}, "edge": {"target": [], "time": []}}, "mouseout": {"state": {"target": ["23", "0", "0", "22", "22", "13", "17", "15", "1", "2", "10", "10", "27", "9", "5", "9", "4", "6", "4", "3", "8"], "time": [140, 331, 1076, 1564, 1779, 3501, 3927, 3962, 4050, 4439, 4474, 6013, 6439, 7763, 8508, 10235, 10446, 10796, 10832, 10850, 10868]}, "edge": {"target": [], "time": []}}}, "displayed_time": "15.79", "trialTime": 16751, "trial_type": "mouselab-mdp", "trial_index": 48, "time_elapsed": 1382233, "internal_node_id": "0.0-6.0-1.0-27.0"}}, {"uniqueid": "w89979755:a16777496", "current_trial": 49, "dateTime": 1693481976240, "trialdata": {"revealed_states": [], "clicked_states": ["32"], "num_clicks_accrued": [0, 0, 0, 0, 0, 0, 0, 0, 0, 0, 0, 0, 0], "stateRewards": ["", -1, 3, 8, 9, -53, 20, -84, 2, -28, -62, -31, -1, -2, -7, 2, 51, 58, 45, -4, -17, -41, 36, 2, -2, -7, -15, 29, -54, -37, -16, -43, 65, -17], "withholdReward": false, "trial_id": "mdp_trial_29", "block": "test", "trialIndex": 34, "score": 40.6, "costs": -1.4, "simulationMode": [null, null, null, null, null], "rewards": [2, -2, -7, -16, 65], "path": ["0", "0", "23", "24", "25", "30", "32"], "rt": [2980, 412, 173, 174, 59], "actions": ["left", "left", "left", "down", "down"], "actionTimes": [4024, 4954, 5626, 6298, 6857], "queries": {"click": {"state": {"target": ["32"], "time": [1641]}, "edge": {"target": [], "time": []}}, "mouseover": {"state": {"target": ["32"], "time": [1568]}, "edge": {"target": [], "time": []}}, "mouseout": {"state": {"target": ["8", "2", "1", "0", "12", "0", "32", "31", "23"], "time": [77, 129, 164, 550, 773, 1111, 2025, 8677, 28053]}, "edge": {"target": [], "time": []}}}, "displayed_time": "15.05", "trialTime": 28665, "trial_type": "mouselab-mdp", "trial_index": 49, "time_elapsed": 1411179, "internal_node_id": "0.0-6.0-1.0-28.0"}}, {"uniqueid": "w89979755:a16777496", "current_trial": 50, "dateTime": 1693482017457, "trialdata": {"revealed_states": [], "clicked_states": ["27", "7", "18", "20"], "num_clicks_accrued": [0, 0, 0, 0, 0, 0, 0, 0, 0, 0, 0, 0, 0], "stateRewards": ["", 1, -3, -2, 14, 49, -40, -39, 2, 26, -61, 73, 1, -4, -8, 12, 79, 29, -65, -13, 55, -26, 27, -1, 3, 3, 9, -17, -60, -18, -8, 35, -88, 69], "withholdReward": false, "trial_id": "mdp_trial_30", "block": "test", "trialIndex": 35, "score": 25.4, "costs": -5.6, "simulationMode": [null, null, null, null, null], "rewards": [1, -4, -8, -13, 55], "path": ["0", "0", "12", "13", "14", "19", "20"], "rt": [8402, 120, 123, 86, 233], "actions": ["right", "right", "right", "down", "right"], "actionTimes": [9479, 10132, 10756, 11346, 12099], "queries": {"click": {"state": {"target": ["27", "7", "18", "20"], "time": [1579, 3464, 5274, 7089]}, "edge": {"target": [], "time": []}}, "mouseover": {"state": {"target": ["1", "27", "28", "11", "10", "2", "7", "6", "18", "18", "17", "19", "20", "21", "31", "31", "23"], "time": [1250, 1383, 1845, 2624, 2719, 3099, 3328, 3956, 4238, 4415, 5907, 6118, 6277, 7458, 8061, 8324, 9098]}, "edge": {"target": [], "time": []}}, "mouseout": {"state": {"target": ["0", "1", "27", "28", "11", "10", "2", "7", "6", "18", "18", "17", "19", "20", "20", "21", "31", "31", "23", "28"], "time": [1216, 1268, 1827, 2005, 2678, 3082, 3299, 3903, 4132, 4254, 5574, 5960, 6188, 7136, 7370, 7795, 8081, 9066, 13719, 39932]}, "edge": {"target": [], "time": []}}}, "displayed_time": "15.08", "trialTime": 40820, "trial_type": "mouselab-mdp", "trial_index": 50, "time_elapsed": 1452396, "internal_node_id": "0.0-6.0-1.0-29.0"}}, {"uniqueid": "w89979755:a16777496", "current_trial": 51, "dateTime": 1693482058898, "trialdata": {"revealed_states": [], "clicked_states": ["9", "7"], "num_clicks_accrued": [0, 0, 0, 0, 0, 0, 0, 0, 0, 0, 0, 0, 0], "stateRewards": ["", 2, -3, -2, 14, -4, 85, 46, 15, -28, 41, 31, -1, -1, -1, 5, 62, 79, 57, 12, -73, -64, 86, -1, 1, -3, -5, 68, 11, -32, 8, -80, -21, -56], "withholdReward": false, "trial_id": "mdp_trial_31", "block": "test", "trialIndex": 36, "score": 54.2, "costs": -2.8, "simulationMode": [null, null, null, null, null], "rewards": [2, -3, -2, 14, 46], "path": ["0", "0", "1", "2", "3", "4", "7"], "rt": [4866, 93, 22, 60, 78], "actions": ["up", "up", "up", "right", "down"], "actionTimes": [5861, 6471, 6997, 7574, 8149], "queries": {"click": {"state": {"target": ["9", "7"], "time": [1656, 3477]}, "edge": {"target": [], "time": []}}, "mouseover": {"state": {"target": ["1", "2", "9", "3", "7", "13", "18"], "time": [1304, 1324, 1538, 1924, 2456, 4210, 4405]}, "edge": {"target": [], "time": []}}, "mouseout": {"state": {"target": ["23", "0", "1", "2", "9", "3", "7", "13", "18"], "time": [525, 667, 1322, 1341, 1889, 1942, 3750, 4388, 8719]}, "edge": {"target": [], "time": []}}}, "displayed_time": "15.00", "trialTime": 41062, "trial_type": "mouselab-mdp", "trial_index": 51, "time_elapsed": 1493836, "internal_node_id": "0.0-6.0-1.0-30.0"}}, {"uniqueid": "w89979755:a16777496", "current_trial": 52, "dateTime": 1693482081903, "trialdata": {"revealed_states": [], "clicked_states": ["31"], "num_clicks_accrued": [0, 0, 0, 0, 0, 0, 0, 0, 0, 0, 0, 0, 0], "stateRewards": ["", -2, -1, -4, -15, -14, -67, 32, -3, -59, 63, 31, 2, -1, -7, -15, 71, -66, -27, -3, -54, -39, 72, 2, 1, 1, -13, 77, -40, 35, -9, 35, 75, 57], "withholdReward": false, "trial_id": "mdp_trial_32", "block": "test", "trialIndex": 37, "score": 28.6, "costs": -1.4, "simulationMode": [null, null, null, null, null], "rewards": [2, 1, 1, -9, 35], "path": ["0", "0", "23", "24", "25", "30", "31"], "rt": [3842, 484, 212, 46, 60], "actions": ["left", "left", "left", "down", "right"], "actionTimes": [4597, 5584, 6305, 6847, 7408], "queries": {"click": {"state": {"target": ["31"], "time": [1854]}, "edge": {"target": [], "time": []}}, "mouseover": {"state": {"target": ["23", "24", "25", "30", "31", "31", "12", "13", "14", "15", "17", "15", "23", "30", "30"], "time": [1203, 1273, 1361, 1504, 1626, 1750, 2921, 2950, 3039, 3092, 3163, 3839, 3891, 3927, 3998]}, "edge": {"target": [], "time": []}}, "mouseout": {"state": {"target": ["0", "23", "24", "25", "30", "31", "31", "12", "13", "14", "15", "17", "15", "23", "30", "30", "24", "33"], "time": [1167, 1238, 1326, 1486, 1609, 1644, 2154, 2936, 2985, 3075, 3110, 3830, 3856, 3909, 3945, 4034, 8746, 21872]}, "edge": {"target": [], "time": []}}}, "displayed_time": "14.75", "trialTime": 22543, "trial_type": "mouselab-mdp", "trial_index": 52, "time_elapsed": 1516842, "internal_node_id": "0.0-6.0-1.0-31.0"}}, {"uniqueid": "w89979755:a16777496", "current_trial": 53, "dateTime": 1693482115840, "trialdata": {"revealed_states": [], "clicked_states": ["11", "7", "20"], "num_clicks_accrued": [0, 0, 0, 0, 0, 0, 0, 0, 0, 0, 0, 0, 0], "stateRewards": ["", 1, 1, -3, 7, 49, 78, 26, -5, 26, 48, -43, -1, -3, 2, -5, 4, -1, -60, 10, -35, 51, 81, -2, 1, -7, -5, -39, -86, -54, 4, -3, 74, 77], "withholdReward": false, "trial_id": "mdp_trial_33", "block": "test", "trialIndex": 38, "score": 27.8, "costs": -4.199999999999999, "simulationMode": [null, null, null, null, null], "rewards": [1, 1, -3, 7, 26], "path": ["0", "0", "1", "2", "3", "4", "7"], "rt": [6176, 66, 90, 17, 93], "actions": ["up", "up", "up", "right", "down"], "actionTimes": [7133, 7709, 8302, 8828, 9454], "queries": {"click": {"state": {"target": ["11", "7", "20"], "time": [1526, 3355, 5166]}, "edge": {"target": [], "time": []}}, "mouseover": {"state": {"target": ["1", "10", "11", "10", "12", "0", "1", "7", "18", "13", "20", "20"], "time": [1117, 1187, 1435, 1804, 1857, 2606, 2642, 2837, 3613, 3789, 4212, 4411]}, "edge": {"target": [], "time": []}}, "mouseout": {"state": {"target": ["0", "1", "1", "10", "11", "10", "12", "0", "1", "7", "18", "13", "20", "20", "25", "0"], "time": [460, 619, 1133, 1223, 1787, 1821, 1875, 2624, 2712, 3595, 3648, 4000, 4230, 5559, 11393, 32857]}, "edge": {"target": [], "time": []}}}, "displayed_time": "14.96", "trialTime": 33596, "trial_type": "mouselab-mdp", "trial_index": 53, "time_elapsed": 1550778, "internal_node_id": "0.0-6.0-1.0-32.0"}}, {"uniqueid": "w89979755:a16777496", "current_trial": 54, "dateTime": 1693482135681, "trialdata": {"revealed_states": [], "clicked_states": ["31"], "num_clicks_accrued": [0, 0, 0, 0, 0, 0, 0, 0, 0, 0, 0, 0, 0], "stateRewards": ["", -1, -4, -3, 1, -45, -67, -24, 14, 32, 22, 22, -1, 1, -5, -7, 72, 84, -79, -5, 19, -40, -2, -1, -2, 8, -3, 84, -25, -28, 11, 64, -66, 77], "withholdReward": false, "trial_id": "mdp_trial_34", "block": "test", "trialIndex": 39, "score": 78.6, "costs": -1.4, "simulationMode": [null, null, null, null, null], "rewards": [-1, -2, 8, 11, 64], "path": ["0", "0", "23", "24", "25", "30", "31"], "rt": [3475, 38, 86, 111, 172], "actions": ["left", "left", "left", "down", "right"], "actionTimes": [4921, 5476, 6069, 6694, 7366], "queries": {"click": {"state": {"target": ["31"], "time": [2242]}, "edge": {"target": [], "time": []}}, "mouseover": {"state": {"target": ["31", "31", "32"], "time": [1755, 1998, 2971]}, "edge": {"target": [], "time": []}}, "mouseout": {"state": {"target": ["23", "31", "31", "32", "32", "30"], "time": [747, 1773, 2387, 7827, 7914, 18866]}, "edge": {"target": [], "time": []}}}, "displayed_time": "15.45", "trialTime": 19510, "trial_type": "mouselab-mdp", "trial_index": 54, "time_elapsed": 1570619, "internal_node_id": "0.0-6.0-1.0-33.0"}}, {"uniqueid": "w89979755:a16777496", "current_trial": 55, "dateTime": 1693482197617, "trialdata": {"revealed_states": [], "clicked_states": ["9"], "num_clicks_accrued": [0, 0, 0, 0, 0, 0, 0, 0, 0, 0, 0, 0, 0], "stateRewards": ["", 1, 1, -3, 2, 22, -25, -11, -5, 50, 49, 3, 1, -1, 8, 14, -85, -30, 57, -6, -39, -16, 59, -2, -1, 5, 5, 59, -16, 8, 4, 67, 56, -9], "withholdReward": false, "trial_id": "mdp_trial_35", "block": "test", "trialIndex": 40, "score": 42.6, "costs": -1.4, "simulationMode": [null, null, null, null, null], "rewards": [1, 1, -3, -5, 50], "path": ["0", "0", "1", "2", "3", "8", "9"], "rt": [4892, 44, 172, 110, 170], "actions": ["up", "up", "up", "left", "up"], "actionTimes": [5843, 6387, 7061, 7668, 8339], "queries": {"click": {"state": {"target": ["9"], "time": [1378]}, "edge": {"target": [], "time": []}}, "mouseover": {"state": {"target": ["1", "2", "8", "9", "1", "0", "0", "23", "26", "8", "3", "2", "1"], "time": [1028, 1048, 1226, 1331, 1671, 1707, 2679, 2715, 3711, 3835, 3994, 4063, 5465]}, "edge": {"target": [], "time": []}}, "mouseout": {"state": {"target": ["0", "1", "2", "8", "9", "1", "0", "0", "23", "26", "8", "3", "2", "1", "27", "27", "23", "23"], "time": [691, 1046, 1082, 1278, 1617, 1689, 1724, 2697, 2732, 3728, 3908, 4048, 5411, 5547, 9260, 60876, 61017, 61140]}, "edge": {"target": [], "time": []}}}, "displayed_time": "14.95", "trialTime": 61507, "trial_type": "mouselab-mdp", "trial_index": 55, "time_elapsed": 1632556, "internal_node_id": "0.0-6.0-1.0-34.0"}}, {"uniqueid": "w89979755:a16777496", "current_trial": 56, "dateTime": 1693482262081, "trialdata": {"revealed_states": [], "clicked_states": ["17", "20", "10"], "num_clicks_accrued": [0, 0, 0, 0, 0, 0, 0, 0, 0, 0, 0, 0, 0], "stateRewards": ["", 1, -1, 8, -3, 38, 85, -20, -4, 8, 23, 73, 2, -4, 6, -13, 44, 7, -28, -11, -77, 45, -69, 1, -1, -7, -11, 75, -51, -87, 7, 36, -53, -26], "withholdReward": false, "trial_id": "mdp_trial_36", "block": "test", "trialIndex": 41, "score": 22.8, "costs": -4.199999999999999, "simulationMode": [null, null, null, null, null], "rewards": [1, -1, 8, -4, 23], "path": ["0", "0", "1", "2", "3", "8", "10"], "rt": [7614, 170, 46, 89, 106], "actions": ["up", "up", "up", "left", "down"], "actionTimes": [8199, 8870, 9416, 10024, 10632], "queries": {"click": {"state": {"target": ["17", "20", "10"], "time": [1377, 3752, 5619]}, "edge": {"target": [], "time": []}}, "mouseover": {"state": {"target": ["0", "12", "18", "15", "17", "20", "15", "7", "2", "8", "10", "27"], "time": [710, 886, 940, 1065, 1294, 3688, 4093, 4235, 4428, 4693, 4941, 6054]}, "edge": {"target": [], "time": []}}, "mouseout": {"state": {"target": ["0", "0", "12", "18", "15", "17", "20", "15", "7", "2", "8", "10", "27", "2", "10", "3", "4", "7"], "time": [356, 763, 904, 975, 1100, 1418, 4059, 4112, 4270, 4658, 4729, 5984, 6106, 12236, 12868, 63546, 63581, 63686]}, "edge": {"target": [], "time": []}}}, "displayed_time": "14.59", "trialTime": 64087, "trial_type": "mouselab-mdp", "trial_index": 56, "time_elapsed": 1697019, "internal_node_id": "0.0-6.0-1.0-35.0"}}, {"uniqueid": "w89979755:a16777496", "current_trial": 57, "dateTime": 1693482371589, "trialdata": {"revealed_states": [], "clicked_states": ["10", "18"], "num_clicks_accrued": [0, 0, 0, 0, 0, 0, 0, 0, 0, 0, 0, 0, 0], "stateRewards": ["", -1, 4, -5, 9, 29, -75, -42, -16, 24, -28, -41, 2, -3, 1, 10, 60, 47, 55, -1, -53, 22, -40, 2, -3, -6, 4, -26, 44, 54, 15, -76, 42, 14], "withholdReward": false, "trial_id": "mdp_trial_37", "block": "test", "trialIndex": 42, "score": 62.2, "costs": -2.8, "simulationMode": [null, null, null, null, null], "rewards": [2, -3, 1, 10, 55], "path": ["0", "0", "12", "13", "14", "15", "18"], "rt": [4836, 39, 68, 92, 59], "actions": ["right", "right", "right", "up", "left"], "actionTimes": [6051, 6606, 7198, 7807, 8367], "queries": {"click": {"state": {"target": ["10", "18"], "time": [1860, 3691]}, "edge": {"target": [], "time": []}}, "mouseover": {"state": {"target": ["1", "2", "8", "10", "18", "18", "13", "22", "22"], "time": [1451, 1486, 1522, 1811, 2426, 2797, 3937, 3957, 4467]}, "edge": {"target": [], "time": []}}, "mouseout": {"state": {"target": ["23", "0", "1", "2", "8", "10", "18", "18", "13", "22", "22", "33", "0", "0"], "time": [861, 1421, 1469, 1504, 1792, 2129, 2603, 3920, 3955, 3972, 8944, 108223, 108311, 108722]}, "edge": {"target": [], "time": []}}}, "displayed_time": "15.21", "trialTime": 109073, "trial_type": "mouselab-mdp", "trial_index": 57, "time_elapsed": 1806527, "internal_node_id": "0.0-6.0-1.0-36.0"}}, {"uniqueid": "w89979755:a16777496", "current_trial": 58, "dateTime": 1693482457858, "trialdata": {"revealed_states": [], "clicked_states": ["9", "7", "20"], "num_clicks_accrued": [0, 0, 0, 0, 0, 0, 0, 0, 0, 0, 0, 0, 0], "stateRewards": ["", 1, 1, -5, 10, -31, 73, 14, -8, -23, 63, -70, -1, 2, 8, 7, 25, -59, 27, -10, -40, -71, -15, -2, 3, -8, -5, -19, 77, -34, 7, 67, 63, 19], "withholdReward": false, "trial_id": "mdp_trial_38", "block": "test", "trialIndex": 43, "score": 16.8, "costs": -4.199999999999999, "simulationMode": [null, null, null, null, null], "rewards": [1, 1, -5, 10, 14], "path": ["0", "0", "1", "2", "3", "4", "7"], "rt": [6144, 7, 91, 46, 45], "actions": ["up", "up", "up", "right", "down"], "actionTimes": [7668, 8191, 8800, 9344, 9887], "queries": {"click": {"state": {"target": ["9", "7", "20"], "time": [1900, 3841, 5749]}, "edge": {"target": [], "time": []}}, "mouseover": {"state": {"target": ["1", "8", "9", "8", "2", "1", "7", "20", "20", "21"], "time": [1615, 1686, 1738, 2156, 2367, 2649, 2932, 4556, 4731, 6106]}, "edge": {"target": [], "time": []}}, "mouseout": {"state": {"target": ["1", "1", "1", "1", "1", "8", "9", "8", "2", "1", "7", "20", "20", "21"], "time": [331, 461, 962, 1226, 1633, 1703, 2137, 2331, 2402, 2897, 4060, 4572, 6070, 6141]}, "edge": {"target": [], "time": []}}}, "displayed_time": "15.52", "trialTime": 85887, "trial_type": "mouselab-mdp", "trial_index": 58, "time_elapsed": 1892797, "internal_node_id": "0.0-6.0-1.0-37.0"}}, {"uniqueid": "w89979755:a16777496", "current_trial": 59, "dateTime": 1693482615012, "trialdata": {"revealed_states": [], "clicked_states": ["22"], "num_clicks_accrued": [0, 0, 0, 0, 0, 0, 0, 0, 0, 0, 0, 0, 0], "stateRewards": ["", -2, 2, 5, -14, -56, 64, 84, -5, 52, 39, 85, -2, 1, 7, 8, 21, 29, -78, -9, -10, -69, 10, -2, -1, -7, 15, 72, 20, 41, -2, 52, 80, 22], "withholdReward": false, "trial_id": "mdp_trial_39", "block": "test", "trialIndex": 44, "score": 5.6, "costs": -1.4, "simulationMode": [null, null, null, null, null], "rewards": [-2, 1, 7, -9, 10], "path": ["0", "0", "12", "13", "14", "19", "22"], "rt": [2979, 505, 159, 126, 93], "actions": ["right", "right", "right", "down", "left"], "actionTimes": [3666, 4690, 5344, 5970, 6561], "queries": {"click": {"state": {"target": ["22"], "time": [1106]}, "edge": {"target": [], "time": []}}, "mouseover": {"state": {"target": ["22", "19", "22"], "time": [753, 949, 1057]}, "edge": {"target": [], "time": []}}, "mouseout": {"state": {"target": ["0", "22", "19", "22", "31", "0"], "time": [274, 772, 1039, 1518, 7128, 155649]}, "edge": {"target": [], "time": []}}}, "displayed_time": "14.69", "trialTime": 156722, "trial_type": "mouselab-mdp", "trial_index": 59, "time_elapsed": 2049950, "internal_node_id": "0.0-6.0-1.0-38.0"}}, {"uniqueid": "w89979755:a16777496", "current_trial": 60, "dateTime": 1693482649019, "trialdata": {"revealed_states": [], "clicked_states": ["33", "32"], "num_clicks_accrued": [0, 0, 0, 0, 0, 0, 0, 0, 0, 0, 0, 0, 0], "stateRewards": ["", -1, -3, 1, 13, -64, -29, 12, -4, -33, 50, 56, 2, -3, 4, 11, -64, -58, -55, 12, 47, 38, -25, -2, 2, 5, -15, 85, 7, 84, 10, 8, 57, 26], "withholdReward": false, "trial_id": "mdp_trial_40", "block": "test", "trialIndex": 45, "score": 69.2, "costs": -2.8, "simulationMode": [null, null, null, null, null], "rewards": [-2, 2, 5, 10, 57], "path": ["0", "0", "23", "24", "25", "30", "32"], "rt": [5632, 74, 94, 46, 59], "actions": ["left", "left", "left", "down", "down"], "actionTimes": [7317, 7892, 8486, 9029, 9588], "queries": {"click": {"state": {"target": ["33", "32"], "time": [3174, 5425]}, "edge": {"target": [], "time": []}}, "mouseover": {"state": {"target": ["23", "24", "25", "33", "31", "30", "32"], "time": [2392, 2463, 2709, 3080, 5124, 5161, 5336]}, "edge": {"target": [], "time": []}}, "mouseout": {"state": {"target": ["21", "0", "23", "24", "25", "33", "31", "30", "32"], "time": [1065, 1244, 2426, 2551, 2902, 3483, 5141, 5229, 10525]}, "edge": {"target": [], "time": []}}}, "displayed_time": "18.69", "trialTime": 33610, "trial_type": "mouselab-mdp", "trial_index": 60, "time_elapsed": 2083956, "internal_node_id": "0.0-6.0-1.0-39.0"}}, {"uniqueid": "w89979755:a16777496", "current_trial": 61, "dateTime": 1693482675049, "trialdata": {"rt": 26016, "response": {"Q0": "$-2 to $2", "Q1": "$-16 to $16", "Q2": "$-88 to $88", "Q3": "The cost was always $1.4.", "Q4": "Very motivated"}, "question_order": [0, 1, 2, 3, 4], "trial_id": "final_quiz_control", "trial_type": "survey-multi-choice", "trial_index": 61, "time_elapsed": 2109987, "internal_node_id": "0.0-6.0-2.0"}}, {"uniqueid": "w89979755:a16777496", "current_trial": 62, "dateTime": 1693482718688, "trialdata": {"rt": 43627, "response": {"Q0": "I clicked the last steps to see where the game was worth ending. ", "Q1": "I was confident if I clicked a \"green\" amount in my final node that I would stick with that if it was over 20", "Q2": "The randomness, there didn't seem to be any logic."}, "trial_id": "self_report_control", "trial_type": "survey-text", "trial_index": 62, "time_elapsed": 2153626, "internal_node_id": "0.0-6.0-3.0"}}, {"uniqueid": "w89979755:a16777496", "current_trial": 63, "dateTime": 1693482734114, "trialdata": {"rt": 15418, "response": {"gender": "female", "age": "33", "colorblind": "0", "effort": "1"}, "trial_type": "survey-html-form", "trial_index": 63, "time_elapsed": 2169053, "internal_node_id": "0.0-6.0-4.0"}}, {"uniqueid": "w89979755:a16777496", "current_trial": 64, "dateTime": 1693482754974, "trialdata": {"rt": 20852, "response": {"Q0": "The rules at first, but I got used to it.", "Q1": "No, I had never completed one before.", "Q2": "None."}, "trial_type": "survey-text", "trial_index": 64, "time_elapsed": 2189913, "internal_node_id": "0.0-6.0-5.0"}}, {"uniqueid": "w89979755:a16777496", "current_trial": 65, "dateTime": 1693482757817, "trialdata": {"rt": 2837, "stimulus": "<h1>Completion Code Instructions (1/2)</h1>\n<br><br><br><br>\nYou have reached the end of the experiment! The completion code consists of two parts: (1) a code with 2 characters (2) a code with 6 characters. On this page, you will receive the second part of the code. The first part of the completion code will be on the next page.\n<br><br>\nThe second part of your completion code is: <b>EWEK22</b>\n<br><br>\nPlease note this down. Then, press 'Finish HIT' in order to find the first part of your completion code. Once the data has been saved, you will receive this code either in this window or in the original browser window where you started the experiment.\n", "response": 0, "trial_type": "html-button-response", "trial_index": 65, "time_elapsed": 2192756, "internal_node_id": "0.0-6.0-6.0"}}, {"uniqueid": "w89979755:a16777496", "current_trial": 66, "dateTime": 1693482758823, "trialdata": {"success": true, "trial_type": "fullscreen", "trial_index": 66, "time_elapsed": 2193762, "internal_node_id": "0.0-7.0"}}], "questiondata": {"params": {"CODE": "C6DMOQA6", "MIN_TIME": 14, "inspectCost": 1, "startTime": "Thu Aug 31 2023 12:16:02 GMT+0100 (British Summer Time)", "bonusRate": 0.002, "variance": "1_2_4_8_44", "branching": "31123"}, "final_score": 347}, "eventdata": [{"eventtype": "initialized", "value": null, "timestamp": 1693480562183, "interval": 0}, {"eventtype": "window_resize", "value": [1030, 784], "timestamp": 1693480562183, "interval": 0}, {"eventtype": "window_resize", "value": [958, 973], "timestamp": 1693480562680, "interval": 497}, {"eventtype": "window_resize", "value": [1920, 1080], "timestamp": 1693480566891, "interval": 4211}, {"eventtype": "window_resize", "value": [958, 973], "timestamp": 1693480568094, "interval": 1203}, {"eventtype": "focus", "value": "off", "timestamp": 1693480584920, "interval": 16826}, {"eventtype": "focus", "value": "on", "timestamp": 1693480593609, "interval": 8689}, {"eventtype": "focus", "value": "off", "timestamp": 1693480778945, "interval": 185336}, {"eventtype": "focus", "value": "on", "timestamp": 1693480778945, "interval": 0}, {"eventtype": "window_resize", "value": [1920, 1080], "timestamp": 1693480781588, "interval": 2643}, {"eventtype": "window_resize", "value": [958, 973], "timestamp": 1693480783164, "interval": 1576}, {"eventtype": "focus", "value": "off", "timestamp": 1693480889368, "interval": 106204}, {"eventtype": "focus", "value": "on", "timestamp": 1693480889369, "interval": 1}, {"eventtype": "window_resize", "value": [1920, 1080], "timestamp": 1693480890625, "interval": 1256}, {"eventtype": "window_resize", "value": [958, 973], "timestamp": 1693480892020, "interval": 1395}, {"eventtype": "focus", "value": "off", "timestamp": 1693480907854, "interval": 15834}, {"eventtype": "focus", "value": "on", "timestamp": 1693480914576, "interval": 6722}, {"eventtype": "focus", "value": "off", "timestamp": 1693480915389, "interval": 813}, {"eventtype": "focus", "value": "on", "timestamp": 1693480921386, "interval": 5997}, {"eventtype": "focus", "value": "off", "timestamp": 1693480924546, "interval": 3160}, {"eventtype": "focus", "value": "on", "timestamp": 1693480927837, "interval": 3291}, {"eventtype": "focus", "value": "off", "timestamp": 1693480931651, "interval": 3814}, {"eventtype": "focus", "value": "on", "timestamp": 1693480937942, "interval": 6291}, {"eventtype": "focus", "value": "off", "timestamp": 1693480941587, "interval": 3645}, {"eventtype": "focus", "value": "on", "timestamp": 1693480947852, "interval": 6265}, {"eventtype": "focus", "value": "off", "timestamp": 1693480960338, "interval": 12486}, {"eventtype": "focus", "value": "on", "timestamp": 1693480963681, "interval": 3343}, {"eventtype": "focus", "value": "off", "timestamp": 1693480985948, "interval": 22267}, {"eventtype": "focus", "value": "on", "timestamp": 1693480988325, "interval": 2377}, {"eventtype": "focus", "value": "off", "timestamp": 1693480990326, "interval": 2001}, {"eventtype": "focus", "value": "on", "timestamp": 1693480992544, "interval": 2218}, {"eventtype": "focus", "value": "off", "timestamp": 1693480995181, "interval": 2637}, {"eventtype": "focus", "value": "on", "timestamp": 1693481007740, "interval": 12559}, {"eventtype": "focus", "value": "off", "timestamp": 1693481010799, "interval": 3059}, {"eventtype": "focus", "value": "on", "timestamp": 1693481015963, "interval": 5164}, {"eventtype": "focus", "value": "off", "timestamp": 1693481017549, "interval": 1586}, {"eventtype": "focus", "value": "on", "timestamp": 1693481018600, "interval": 1051}, {"eventtype": "focus", "value": "off", "timestamp": 1693481025420, "interval": 6820}, {"eventtype": "focus", "value": "on", "timestamp": 1693481029367, "interval": 3947}, {"eventtype": "focus", "value": "off", "timestamp": 1693481033615, "interval": 4248}, {"eventtype": "focus", "value": "on", "timestamp": 1693481035798, "interval": 2183}, {"eventtype": "focus", "value": "off", "timestamp": 1693481038020, "interval": 2222}, {"eventtype": "focus", "value": "on", "timestamp": 1693481083812, "interval": 45792}, {"eventtype": "focus", "value": "off", "timestamp": 1693481121939, "interval": 38127}, {"eventtype": "focus", "value": "on", "timestamp": 1693481123980, "interval": 2041}, {"eventtype": "focus", "value": "off", "timestamp": 1693481158069, "interval": 34089}, {"eventtype": "focus", "value": "on", "timestamp": 1693481182982, "interval": 24913}, {"eventtype": "focus", "value": "off", "timestamp": 1693481209427, "interval": 26445}, {"eventtype": "focus", "value": "on", "timestamp": 1693481217803, "interval": 8376}, {"eventtype": "focus", "value": "off", "timestamp": 1693481226354, "interval": 8551}, {"eventtype": "focus", "value": "on", "timestamp": 1693481285409, "interval": 59055}, {"eventtype": "focus", "value": "off", "timestamp": 1693481295310, "interval": 9901}, {"eventtype": "focus", "value": "on", "timestamp": 1693481348976, "interval": 53666}, {"eventtype": "focus", "value": "off", "timestamp": 1693481362397, "interval": 13421}, {"eventtype": "focus", "value": "on", "timestamp": 1693481393599, "interval": 31202}, {"eventtype": "focus", "value": "off", "timestamp": 1693481424230, "interval": 30631}, {"eventtype": "focus", "value": "on", "timestamp": 1693481426522, "interval": 2292}, {"eventtype": "focus", "value": "off", "timestamp": 1693481427719, "interval": 1197}, {"eventtype": "focus", "value": "on", "timestamp": 1693481447845, "interval": 20126}, {"eventtype": "focus", "value": "off", "timestamp": 1693481460728, "interval": 12883}, {"eventtype": "focus", "value": "on", "timestamp": 1693481463132, "interval": 2404}, {"eventtype": "focus", "value": "off", "timestamp": 1693481464053, "interval": 921}, {"eventtype": "focus", "value": "on", "timestamp": 1693481476170, "interval": 12117}, {"eventtype": "focus", "value": "off", "timestamp": 1693481505005, "interval": 28835}, {"eventtype": "focus", "value": "on", "timestamp": 1693481516351, "interval": 11346}, {"eventtype": "focus", "value": "off", "timestamp": 1693481560907, "interval": 44556}, {"eventtype": "focus", "value": "on", "timestamp": 1693481576344, "interval": 15437}, {"eventtype": "focus", "value": "off", "timestamp": 1693481618984, "interval": 42640}, {"eventtype": "focus", "value": "on", "timestamp": 1693481638840, "interval": 19856}, {"eventtype": "focus", "value": "off", "timestamp": 1693481672253, "interval": 33413}, {"eventtype": "focus", "value": "on", "timestamp": 1693481676179, "interval": 3926}, {"eventtype": "focus", "value": "off", "timestamp": 1693481724980, "interval": 48801}, {"eventtype": "focus", "value": "on", "timestamp": 1693481786022, "interval": 61042}, {"eventtype": "focus", "value": "off", "timestamp": 1693481794300, "interval": 8278}, {"eventtype": "focus", "value": "on", "timestamp": 1693481813385, "interval": 19085}, {"eventtype": "focus", "value": "off", "timestamp": 1693481831056, "interval": 17671}, {"eventtype": "focus", "value": "on", "timestamp": 1693481840964, "interval": 9908}, {"eventtype": "focus", "value": "off", "timestamp": 1693481861180, "interval": 20216}, {"eventtype": "focus", "value": "on", "timestamp": 1693481862858, "interval": 1678}, {"eventtype": "focus", "value": "off", "timestamp": 1693481874034, "interval": 11176}, {"eventtype": "focus", "value": "on", "timestamp": 1693481882443, "interval": 8409}, {"eventtype": "window_resize", "value": [961, 973], "timestamp": 1693481897886, "interval": 15443}, {"eventtype": "focus", "value": "off", "timestamp": 1693481898138, "interval": 252}, {"eventtype": "focus", "value": "on", "timestamp": 1693481929887, "interval": 31749}, {"eventtype": "focus", "value": "off", "timestamp": 1693481956774, "interval": 26887}, {"eventtype": "focus", "value": "on", "timestamp": 1693481975994, "interval": 19220}, {"eventtype": "focus", "value": "off", "timestamp": 1693481992102, "interval": 16108}, {"eventtype": "focus", "value": "on", "timestamp": 1693482016940, "interval": 24838}, {"eventtype": "focus", "value": "off", "timestamp": 1693482027738, "interval": 10798}, {"eventtype": "focus", "value": "on", "timestamp": 1693482058628, "interval": 30890}, {"eventtype": "focus", "value": "off", "timestamp": 1693482068921, "interval": 10293}, {"eventtype": "focus", "value": "on", "timestamp": 1693482081688, "interval": 12767}, {"eventtype": "focus", "value": "off", "timestamp": 1693482094476, "interval": 12788}, {"eventtype": "focus", "value": "on", "timestamp": 1693482115288, "interval": 20812}, {"eventtype": "focus", "value": "off", "timestamp": 1693482124620, "interval": 9332}, {"eventtype": "focus", "value": "on", "timestamp": 1693482135345, "interval": 10725}, {"eventtype": "focus", "value": "off", "timestamp": 1693482139429, "interval": 4084}, {"eventtype": "focus", "value": "on", "timestamp": 1693482141688, "interval": 2259}, {"eventtype": "focus", "value": "off", "timestamp": 1693482152559, "interval": 10871}, {"eventtype": "focus", "value": "on", "timestamp": 1693482197402, "interval": 44843}, {"eventtype": "focus", "value": "off", "timestamp": 1693482212344, "interval": 14942}, {"eventtype": "focus", "value": "on", "timestamp": 1693482261829, "interval": 49485}, {"eventtype": "focus", "value": "off", "timestamp": 1693482287352, "interval": 25523}, {"eventtype": "focus", "value": "on", "timestamp": 1693482371360, "interval": 84008}, {"eventtype": "focus", "value": "off", "timestamp": 1693482383026, "interval": 11666}, {"eventtype": "focus", "value": "on", "timestamp": 1693482457312, "interval": 74286}, {"eventtype": "focus", "value": "off", "timestamp": 1693482492445, "interval": 35133}, {"eventtype": "focus", "value": "on", "timestamp": 1693482614329, "interval": 121884}, {"eventtype": "focus", "value": "off", "timestamp": 1693482615998, "interval": 1669}, {"eventtype": "focus", "value": "on", "timestamp": 1693482616145, "interval": 147}, {"eventtype": "focus", "value": "off", "timestamp": 1693482626362, "interval": 10217}, {"eventtype": "focus", "value": "on", "timestamp": 1693482626841, "interval": 479}, {"eventtype": "focus", "value": "off", "timestamp": 1693482628990, "interval": 2149}, {"eventtype": "focus", "value": "on", "timestamp": 1693482632885, "interval": 3895}], "useragent": "Mozilla/5.0 (Windows NT 10.0; Win64; x64) AppleWebKit/537.36 (KHTML, like Gecko) Chrome/116.0.0.0 Safari/537.36", "mode": "live", "id": "w89979755:a16777496", "status": "user data saved", "Beginhit": "2023-08-31 11:16:01.01205", "Beginexp": "2023-08-31 11:16:07.796406", "Endhit": "2023-08-31 11:52:39.642132", "psiturkStatus": 3, "browser": "<redacted>", "platform": "windows", "language": "en"}