{"condition": 0, "counterbalance": 0, "assignmentId": "a95589070", "workerId": "w42065376", "hitId": "h97391612", "currenttrial": 61, "bonus": 0, "data": [{"uniqueid": "w42065376:a95589070", "current_trial": 0, "dateTime": 1693389122086, "trialdata": {"success": true, "trial_type": "fullscreen", "trial_index": 0, "time_elapsed": 17938, "internal_node_id": "0.0-0.0"}}, {"uniqueid": "w42065376:a95589070", "current_trial": 1, "dateTime": 1693389155340, "trialdata": {"view_history": [{"page_index": 0, "viewing_time": 33232}], "rt": 33233, "trial_id": "exp_instructions_control", "trial_type": "instructions", "trial_index": 1, "time_elapsed": 51193, "internal_node_id": "0.0-1.0"}}, {"uniqueid": "w42065376:a95589070", "current_trial": 2, "dateTime": 1693389379812, "trialdata": {"view_history": [{"page_index": 0, "viewing_time": 64795}, {"page_index": 1, "viewing_time": 85575}, {"page_index": 2, "viewing_time": 24948}, {"page_index": 3, "viewing_time": 49151}], "rt": 224470, "trial_id": "mouselab_instructions_1_control", "trial_type": "instructions", "trial_index": 2, "time_elapsed": 275665, "internal_node_id": "0.0-2.0-1.0"}}, {"uniqueid": "w42065376:a95589070", "current_trial": 3, "dateTime": 1693389447661, "trialdata": {"revealed_states": [], "clicked_states": ["1", "2", "3", "12", "23", "24"], "num_clicks_accrued": [0, 0, 0, 0, 0, 0, 0, 0, 0, 0, 0, 0, 0], "stateRewards": ["", 10, -10, 10, 10, -10, 10, 10, 10, -10, -10, -10, -10, 10, 10, -10, -10, -10, -10, -10, 10, -10, -10, -10, -10, -10, 10, 10, 10, -10, -10, 10, -10, 10], "withholdReward": false, "trial_id": "practice_1", "block": "test", "trialIndex": 0, "score": -9.5, "costs": -3, "simulationMode": [null, null, null, null, null], "rewards": [-10, 10, 10, -10, -10], "path": ["0", "0", "12", "13", "14", "15", "16"], "rt": [42138, 418, 524, 12700, 559], "actions": ["right", "right", "right", "up", "up"], "actionTimes": [45567, 46507, 47531, 60753, 61810], "queries": {"click": {"state": {"target": ["1", "2", "3", "12", "23", "24"], "time": [7421, 10719, 13426, 22570, 24743, 26496]}, "edge": {"target": [], "time": []}}, "mouseover": {"state": {"target": ["1", "2", "1", "2", "10", "2", "3", "7", "4", "7", "0", "12", "13", "23", "24", "23", "24", "0", "12", "1", "12", "12", "0"], "time": [6459, 6610, 6926, 8908, 9559, 10142, 11398, 15042, 16206, 17873, 18690, 22074, 23409, 23739, 23773, 24290, 26042, 27425, 28355, 32336, 34035, 38842, 43733]}, "edge": {"target": [], "time": []}}, "mouseout": {"state": {"target": ["0", "1", "2", "1", "2", "10", "2", "3", "7", "4", "7", "0", "12", "13", "12", "23", "24", "23", "24", "23", "0", "12", "1", "12", "12", "0", "0", "12", "13", "14"], "time": [862, 6576, 6864, 7537, 9509, 10008, 11145, 14963, 16156, 17826, 17906, 18906, 23292, 23673, 23707, 23758, 24109, 25691, 27324, 27393, 27510, 30206, 33873, 34436, 38854, 43767, 50390, 50465, 50515, 52633]}, "edge": {"target": [], "time": []}}}, "displayed_time": "62.33", "trialTime": 67032, "trial_type": "mouselab-mdp", "trial_index": 3, "time_elapsed": 343512, "internal_node_id": "0.0-2.0-2.0-0.0"}}, {"uniqueid": "w42065376:a95589070", "current_trial": 4, "dateTime": 1693389468520, "trialdata": {"revealed_states": [], "clicked_states": ["1", "12", "23"], "num_clicks_accrued": [0, 0, 0, 0, 0, 0, 0, 0, 0, 0, 0, 0, 0], "stateRewards": ["", -10, -10, 10, 10, 10, -10, -10, 10, 10, -10, 10, -10, 10, 10, -10, -10, -10, -10, -10, -10, -10, -10, -10, -10, 10, 10, -10, 10, 10, 10, 10, -10, 10], "withholdReward": false, "trial_id": "practice_2", "block": "test", "trialIndex": 1, "score": -8, "costs": -1.5, "simulationMode": [null, null, null, null, null], "rewards": [-10, 10, 10, -10, -10], "path": ["0", "0", "12", "13", "14", "19", "21"], "rt": [7894, 731, 356, 1289, 613], "actions": ["right", "right", "right", "down", "down"], "actionTimes": [11986, 13229, 14102, 15904, 17012], "queries": {"click": {"state": {"target": ["1", "12", "23"], "time": [6214, 8166, 9633]}, "edge": {"target": [], "time": []}}, "mouseover": {"state": {"target": ["1", "2", "0", "12", "23"], "time": [5245, 6932, 7375, 7725, 8882]}, "edge": {"target": [], "time": []}}, "mouseout": {"state": {"target": ["0", "1", "2", "1", "0", "12", "23"], "time": [3162, 6731, 7313, 7360, 7383, 8302, 9752]}, "edge": {"target": [], "time": []}}}, "displayed_time": "17.53", "trialTime": 20526, "trial_type": "mouselab-mdp", "trial_index": 4, "time_elapsed": 364371, "internal_node_id": "0.0-2.0-2.0-1.0"}}, {"uniqueid": "w42065376:a95589070", "current_trial": 5, "dateTime": 1693389542460, "trialdata": {"view_history": [{"page_index": 0, "viewing_time": 12420}, {"page_index": 1, "viewing_time": 15979}, {"page_index": 0, "viewing_time": 43202}, {"page_index": 1, "viewing_time": 2332}], "rt": 73933, "trial_id": "mouselab_instructions_2_control", "trial_type": "instructions", "trial_index": 5, "time_elapsed": 438313, "internal_node_id": "0.0-2.0-3.0"}}, {"uniqueid": "w42065376:a95589070", "current_trial": 6, "dateTime": 1693389610860, "trialdata": {"rt": 68393, "response": {"Q0": "There is no cost for clicking on nodes.", "Q1": "The better I perform the higher my bonus will be.", "Q2": "No, the amount of cash at each node of the web may be different each time.", "Q3": "To get the highest total score.", "Q4": "Any time during the round.", "Q5": "3 seconds"}, "question_order": [0, 1, 2, 3, 4, 5], "correct": {"Q0": "The cost for clicking on nodes may vary between nodes.", "Q1": "The better I perform the higher my bonus will be.", "Q2": "No, the amount of cash at each node of the web may be different each time.", "Q3": "To get the highest total score.", "Q4": "Only before moving the spider.", "Q5": "3 seconds"}, "trial_id": "mouselab_quiz_control", "trial_type": "survey-multi-choice", "trial_index": 6, "time_elapsed": 506712, "internal_node_id": "0.0-2.0-4.0"}}, {"uniqueid": "w42065376:a95589070", "current_trial": 7, "dateTime": 1693389625576, "trialdata": {"success": true, "trial_type": "fullscreen", "trial_index": 7, "time_elapsed": 521429, "internal_node_id": "0.0-2.1-0.1-0.1"}}, {"uniqueid": "w42065376:a95589070", "current_trial": 8, "dateTime": 1693389774687, "trialdata": {"view_history": [{"page_index": 0, "viewing_time": 36265}, {"page_index": 1, "viewing_time": 81328}, {"page_index": 2, "viewing_time": 22727}, {"page_index": 3, "viewing_time": 8781}], "rt": 149101, "trial_id": "mouselab_instructions_1_control", "trial_type": "instructions", "trial_index": 8, "time_elapsed": 670540, "internal_node_id": "0.0-2.1-1.1"}}, {"uniqueid": "w42065376:a95589070", "current_trial": 9, "dateTime": 1693389789424, "trialdata": {"revealed_states": [], "clicked_states": [], "num_clicks_accrued": [0, 0, 0, 0, 0, 0, 0, 0, 0, 0, 0, 0, 0], "stateRewards": ["", 10, -10, 10, 10, -10, 10, 10, 10, -10, -10, -10, -10, 10, 10, -10, -10, -10, -10, -10, 10, -10, -10, -10, -10, -10, 10, 10, 10, -10, -10, 10, -10, 10], "withholdReward": false, "trial_id": "practice_1", "block": "test", "trialIndex": 2, "score": -6.5, "costs": 0, "simulationMode": [null, null, null, null, null], "rewards": [-10, 10, 10, -10, -10], "path": ["0", "0", "12", "13", "14", "15", "16"], "rt": [1436, 593, 344, 4371, 116], "actions": ["right", "right", "right", "up", "up"], "actionTimes": [4425, 5533, 6398, 11290, 11920], "queries": {"click": {"state": {"target": [], "time": []}, "edge": {"target": [], "time": []}}, "mouseover": {"state": {"target": [], "time": []}, "edge": {"target": [], "time": []}}, "mouseout": {"state": {"target": ["0"], "time": [2421]}, "edge": {"target": [], "time": []}}}, "displayed_time": "12.45", "trialTime": 14424, "trial_type": "mouselab-mdp", "trial_index": 9, "time_elapsed": 685276, "internal_node_id": "0.0-2.1-2.1-0.1"}}, {"uniqueid": "w42065376:a95589070", "current_trial": 10, "dateTime": 1693389806351, "trialdata": {"revealed_states": [], "clicked_states": ["12", "1", "23"], "num_clicks_accrued": [0, 0, 0, 0, 0, 0, 0, 0, 0, 0, 0, 0, 0], "stateRewards": ["", -10, -10, 10, 10, 10, -10, -10, 10, 10, -10, 10, -10, 10, 10, -10, -10, -10, -10, -10, -10, -10, -10, -10, -10, 10, 10, -10, 10, 10, 10, 10, -10, 10], "withholdReward": false, "trial_id": "practice_2", "block": "test", "trialIndex": 3, "score": 12, "costs": -1.5, "simulationMode": [null, null, null, null, null], "rewards": [-10, -10, 10, 10, 10], "path": ["0", "0", "1", "2", "3", "4", "5"], "rt": [7151, 364, 350, 625, 306], "actions": ["up", "up", "up", "right", "up"], "actionTimes": [9690, 10572, 11436, 12574, 13398], "queries": {"click": {"state": {"target": ["12", "1", "23"], "time": [4105, 5887, 8134]}, "edge": {"target": [], "time": []}}, "mouseover": {"state": {"target": ["12", "12", "1", "23"], "time": [3299, 3615, 5396, 7122]}, "edge": {"target": [], "time": []}}, "mouseout": {"state": {"target": ["0", "12", "12", "1"], "time": [1745, 3365, 4877, 6588]}, "edge": {"target": [], "time": []}}}, "displayed_time": "13.93", "trialTime": 16587, "trial_type": "mouselab-mdp", "trial_index": 10, "time_elapsed": 702204, "internal_node_id": "0.0-2.1-2.1-1.1"}}, {"uniqueid": "w42065376:a95589070", "current_trial": 11, "dateTime": 1693389837583, "trialdata": {"view_history": [{"page_index": 0, "viewing_time": 28338}, {"page_index": 1, "viewing_time": 2889}], "rt": 31227, "trial_id": "mouselab_instructions_2_control", "trial_type": "instructions", "trial_index": 11, "time_elapsed": 733435, "internal_node_id": "0.0-2.1-3.1"}}, {"uniqueid": "w42065376:a95589070", "current_trial": 12, "dateTime": 1693389882379, "trialdata": {"rt": 44793, "response": {"Q0": "The cost for clicking on nodes may vary between nodes.", "Q1": "The better I perform the higher my bonus will be.", "Q2": "No, the amount of cash at each node of the web may be different each time.", "Q3": "To get the highest total score.", "Q4": "Only before moving the spider.", "Q5": "3 seconds"}, "question_order": [0, 1, 2, 3, 4, 5], "correct": {"Q0": "The cost for clicking on nodes may vary between nodes.", "Q1": "The better I perform the higher my bonus will be.", "Q2": "No, the amount of cash at each node of the web may be different each time.", "Q3": "To get the highest total score.", "Q4": "Only before moving the spider.", "Q5": "3 seconds"}, "trial_id": "mouselab_quiz_control", "trial_type": "survey-multi-choice", "trial_index": 12, "time_elapsed": 778232, "internal_node_id": "0.0-2.1-4.1"}}, {"uniqueid": "w42065376:a95589070", "current_trial": 13, "dateTime": 1693389895310, "trialdata": {"rt": 12921, "response": {"Q0": "No"}, "question_order": [0], "trial_id": "repeat_check", "trial_type": "survey-multi-choice", "trial_index": 13, "time_elapsed": 791162, "internal_node_id": "0.0-4.0-0.0"}}, {"uniqueid": "w42065376:a95589070", "current_trial": 14, "dateTime": 1693389910202, "trialdata": {"rt": 14885, "stimulus": "\n<h1> Get ready to start the game! </h1>\n\nThank you for reading the instructions. Get ready start with the 40 rounds of this game.\n<br><br>\nIf you need to take a break, feel free to take one after the end of a round, before continuing to the next one.\n<br><br>\nRemember, the more money the spider gets, the bigger your bonus will be!\n<br><br>\n<div style='text-align: center;'>Press <code>space</code> to begin.</div>\n\n<br><br>\n(If, at any point, the <code>space</code> key does not take you to the next page, click once on the text and try again.)", "response": " ", "trial_id": "mdp_ready", "trial_type": "html-keyboard-response", "trial_index": 14, "time_elapsed": 806055, "internal_node_id": "0.0-6.0-0.0"}}, {"uniqueid": "w42065376:a95589070", "current_trial": 15, "dateTime": 1693389930474, "trialdata": {"revealed_states": [], "clicked_states": ["1", "23", "12"], "num_clicks_accrued": [0, 0, 0, 0, 0, 0, 0, 0, 0, 0, 0, 0, 0], "stateRewards": ["", 1, 3, -2, 15, 51, 15, -19, 11, 67, -45, -73, 2, 4, -2, -13, 36, 9, -28, 10, -30, 31, 16, 1, 2, -1, -16, 14, -22, 36, -1, 88, -5, 45], "withholdReward": false, "trial_id": "mdp_trial_1", "block": "test", "trialIndex": 4, "score": 40.8, "costs": -4.199999999999999, "simulationMode": [null, null, null, null, null], "rewards": [2, 4, -2, 10, 31], "path": ["0", "0", "12", "13", "14", "19", "21"], "rt": [8550, 227, 317, 151, 94], "actions": ["right", "right", "right", "down", "down"], "actionTimes": [11512, 12254, 13098, 13761, 14368], "queries": {"click": {"state": {"target": ["1", "23", "12"], "time": [4970, 7267, 9634]}, "edge": {"target": [], "time": []}}, "mouseover": {"state": {"target": ["1", "23", "12"], "time": [4538, 5393, 7713]}, "edge": {"target": [], "time": []}}, "mouseout": {"state": {"target": ["2", "1", "0", "0", "1", "23"], "time": [1690, 1722, 1755, 4249, 5326, 7625]}, "edge": {"target": [], "time": []}}}, "displayed_time": "16.96", "trialTime": 19932, "trial_type": "mouselab-mdp", "trial_index": 15, "time_elapsed": 826327, "internal_node_id": "0.0-6.0-1.0-0.0"}}, {"uniqueid": "w42065376:a95589070", "current_trial": 16, "dateTime": 1693389949561, "trialdata": {"revealed_states": [], "clicked_states": [], "num_clicks_accrued": [0, 0, 0, 0, 0, 0, 0, 0, 0, 0, 0, 0, 0], "stateRewards": ["", -1, 4, -5, 9, 29, -75, -42, -16, 24, -28, -41, 2, -3, 1, 10, 60, 47, 55, -1, -53, 22, -40, 2, -3, -6, 4, -26, 44, 54, 15, -76, 42, 14], "withholdReward": false, "trial_id": "mdp_trial_2", "block": "test", "trialIndex": 5, "score": -59, "costs": 0, "simulationMode": [null, null, null, null, null], "rewards": [-1, 4, -5, -16, -41], "path": ["0", "0", "1", "2", "3", "8", "11"], "rt": [2022, 339, 262, 412, 108], "actions": ["up", "up", "up", "left", "left"], "actionTimes": [4204, 5060, 5842, 6779, 7408], "queries": {"click": {"state": {"target": [], "time": []}, "edge": {"target": [], "time": []}}, "mouseover": {"state": {"target": [], "time": []}, "edge": {"target": [], "time": []}}, "mouseout": {"state": {"target": ["12", "0"], "time": [1260, 1594]}, "edge": {"target": [], "time": []}}}, "displayed_time": "16.18", "trialTime": 18709, "trial_type": "mouselab-mdp", "trial_index": 16, "time_elapsed": 845413, "internal_node_id": "0.0-6.0-1.0-1.0"}}, {"uniqueid": "w42065376:a95589070", "current_trial": 17, "dateTime": 1693389969488, "trialdata": {"revealed_states": [], "clicked_states": ["23", "1", "12"], "num_clicks_accrued": [0, 0, 0, 0, 0, 0, 0, 0, 0, 0, 0, 0, 0], "stateRewards": ["", 1, 1, -7, -9, -44, 24, -83, -15, 44, -24, 72, -2, -3, 4, -5, 57, 55, 29, -11, 22, 12, -25, -1, 2, 7, 12, 33, -8, 47, -4, 8, 50, -4], "withholdReward": false, "trial_id": "mdp_trial_3", "block": "test", "trialIndex": 6, "score": -101.2, "costs": -4.199999999999999, "simulationMode": [null, null, null, null, null], "rewards": [1, 1, -7, -9, -83], "path": ["0", "0", "1", "2", "3", "4", "7"], "rt": [8020, 213, 225, 798, 291], "actions": ["up", "up", "up", "right", "down"], "actionTimes": [10744, 11474, 12218, 13535, 14342], "queries": {"click": {"state": {"target": ["23", "1", "12"], "time": [4177, 6243, 8272]}, "edge": {"target": [], "time": []}}, "mouseover": {"state": {"target": ["23", "1", "12", "0"], "time": [3636, 4687, 6870, 9883]}, "edge": {"target": [], "time": []}}, "mouseout": {"state": {"target": ["0", "23", "1", "12"], "time": [1980, 4310, 6820, 9106]}, "edge": {"target": [], "time": []}}}, "displayed_time": "16.73", "trialTime": 19533, "trial_type": "mouselab-mdp", "trial_index": 17, "time_elapsed": 865340, "internal_node_id": "0.0-6.0-1.0-2.0"}}, {"uniqueid": "w42065376:a95589070", "current_trial": 18, "dateTime": 1693389987686, "trialdata": {"revealed_states": [], "clicked_states": [], "num_clicks_accrued": [0, 0, 0, 0, 0, 0, 0, 0, 0, 0, 0, 0, 0], "stateRewards": ["", 1, -3, 4, 13, -72, 52, 5, 5, -58, 5, 14, 2, 1, 3, -14, -86, -4, 73, 6, -58, -50, 49, 2, -3, -4, 2, 33, -41, 42, -11, 81, 45, 53], "withholdReward": false, "trial_id": "mdp_trial_4", "block": "test", "trialIndex": 7, "score": -12, "costs": 0, "simulationMode": [null, null, null, null, null], "rewards": [2, 1, 3, -14, -4], "path": ["0", "0", "12", "13", "14", "15", "17"], "rt": [6277, 357, 913, 615, 175], "actions": ["right", "right", "right", "up", "right"], "actionTimes": [8201, 9076, 10508, 11637, 12332], "queries": {"click": {"state": {"target": [], "time": []}, "edge": {"target": [], "time": []}}, "mouseover": {"state": {"target": ["23"], "time": [4601]}, "edge": {"target": [], "time": []}}, "mouseout": {"state": {"target": ["0", "23"], "time": [4436, 6451]}, "edge": {"target": [], "time": []}}}, "displayed_time": "15.93", "trialTime": 17804, "trial_type": "mouselab-mdp", "trial_index": 18, "time_elapsed": 883538, "internal_node_id": "0.0-6.0-1.0-3.0"}}, {"uniqueid": "w42065376:a95589070", "current_trial": 19, "dateTime": 1693390007104, "trialdata": {"revealed_states": [], "clicked_states": ["12", "1", "23"], "num_clicks_accrued": [0, 0, 0, 0, 0, 0, 0, 0, 0, 0, 0, 0, 0], "stateRewards": ["", 2, 4, -5, 7, 81, 35, 6, 11, 14, -72, 42, -1, 2, 3, -7, -77, -44, -40, -15, -85, 51, -32, -2, -1, -5, 7, -74, 47, 52, 16, -49, 48, -46], "withholdReward": false, "trial_id": "mdp_trial_5", "block": "test", "trialIndex": 8, "score": 49.8, "costs": -4.199999999999999, "simulationMode": [null, null, null, null, null], "rewards": [2, 4, -5, 11, 42], "path": ["0", "0", "1", "2", "3", "8", "11"], "rt": [8731, 354, 284, 562, 29], "actions": ["up", "up", "up", "left", "left"], "actionTimes": [11195, 12059, 12853, 13929, 14478], "queries": {"click": {"state": {"target": ["12", "1", "23"], "time": [4949, 6835, 8859]}, "edge": {"target": [], "time": []}}, "mouseover": {"state": {"target": ["12", "13", "1", "1", "23"], "time": [4067, 5752, 5953, 6357, 7793]}, "edge": {"target": [], "time": []}}, "mouseout": {"state": {"target": ["0", "12", "13", "1", "1"], "time": [1565, 5552, 5873, 5978, 7387]}, "edge": {"target": [], "time": []}}}, "displayed_time": "16.46", "trialTime": 19022, "trial_type": "mouselab-mdp", "trial_index": 19, "time_elapsed": 902955, "internal_node_id": "0.0-6.0-1.0-4.0"}}, {"uniqueid": "w42065376:a95589070", "current_trial": 20, "dateTime": 1693390027492, "trialdata": {"revealed_states": [], "clicked_states": ["1", "23", "12"], "num_clicks_accrued": [0, 0, 0, 0, 0, 0, 0, 0, 0, 0, 0, 0, 0], "stateRewards": ["", -2, 1, 6, -2, -10, -78, -69, 14, -15, 7, -1, 1, -1, -2, 13, 77, 32, 87, 5, -74, 30, -26, 1, 3, 4, 12, 39, 54, -43, 2, 10, 23, 13], "withholdReward": false, "trial_id": "mdp_trial_6", "block": "test", "trialIndex": 9, "score": 18.8, "costs": -4.199999999999999, "simulationMode": [null, null, null, null, null], "rewards": [1, 3, 4, 2, 13], "path": ["0", "0", "23", "24", "25", "30", "33"], "rt": [8826, 164, 182, 81, 475], "actions": ["left", "left", "left", "down", "left"], "actionTimes": [10986, 11659, 12358, 12957, 13952], "queries": {"click": {"state": {"target": ["1", "23", "12"], "time": [4316, 5879, 8091]}, "edge": {"target": [], "time": []}}, "mouseover": {"state": {"target": ["1", "23", "12", "0"], "time": [3857, 5106, 7194, 9146]}, "edge": {"target": [], "time": []}}, "mouseout": {"state": {"target": ["23", "1", "23", "12", "0"], "time": [1208, 4764, 6694, 9107, 9393]}, "edge": {"target": [], "time": []}}}, "displayed_time": "16.16", "trialTime": 19974, "trial_type": "mouselab-mdp", "trial_index": 20, "time_elapsed": 923344, "internal_node_id": "0.0-6.0-1.0-5.0"}}, {"uniqueid": "w42065376:a95589070", "current_trial": 21, "dateTime": 1693390048426, "trialdata": {"revealed_states": [], "clicked_states": ["23", "1", "12"], "num_clicks_accrued": [0, 0, 0, 0, 0, 0, 0, 0, 0, 0, 0, 0, 0], "stateRewards": ["", -1, 2, -6, 6, 43, 78, 78, -2, 55, -29, -17, -2, -4, 1, -15, 13, 7, -79, 8, -28, -68, 36, -1, -3, 3, -16, 84, -18, 87, 10, 32, 13, -81], "withholdReward": false, "trial_id": "mdp_trial_7", "block": "test", "trialIndex": 10, "score": 65.8, "costs": -4.199999999999999, "simulationMode": [null, null, null, null, null], "rewards": [-1, -3, 3, -16, 87], "path": ["0", "0", "23", "24", "25", "26", "29"], "rt": [10431, 290, 547, 1533, 281], "actions": ["left", "left", "left", "up", "left"], "actionTimes": [13110, 13925, 14990, 17043, 17836], "queries": {"click": {"state": {"target": ["23", "1", "12"], "time": [5569, 7615, 9799]}, "edge": {"target": [], "time": []}}, "mouseover": {"state": {"target": ["23", "1", "12"], "time": [4635, 6235, 9085]}, "edge": {"target": [], "time": []}}, "mouseout": {"state": {"target": ["0", "23", "1", "12"], "time": [1120, 6105, 8906, 10537]}, "edge": {"target": [], "time": []}}}, "displayed_time": "18.36", "trialTime": 20509, "trial_type": "mouselab-mdp", "trial_index": 21, "time_elapsed": 944278, "internal_node_id": "0.0-6.0-1.0-6.0"}}, {"uniqueid": "w42065376:a95589070", "current_trial": 22, "dateTime": 1693390067464, "trialdata": {"revealed_states": [], "clicked_states": [], "num_clicks_accrued": [0, 0, 0, 0, 0, 0, 0, 0, 0, 0, 0, 0, 0], "stateRewards": ["", 1, 4, 7, -16, -84, -6, -46, -12, -7, -49, -26, -1, 2, -4, 2, 22, 37, -64, 1, 88, -13, -10, 1, -4, -2, 5, 2, -10, -34, 9, 66, 55, 38], "withholdReward": false, "trial_id": "mdp_trial_8", "block": "test", "trialIndex": 11, "score": 70, "costs": 0, "simulationMode": [null, null, null, null, null], "rewards": [1, -4, -2, 9, 66], "path": ["0", "0", "23", "24", "25", "30", "31"], "rt": [6139, 333, 386, 124, 1086], "actions": ["left", "left", "left", "down", "right"], "actionTimes": [8957, 9808, 10712, 11351, 12959], "queries": {"click": {"state": {"target": [], "time": []}, "edge": {"target": [], "time": []}}, "mouseover": {"state": {"target": ["23"], "time": [6038]}, "edge": {"target": [], "time": []}}, "mouseout": {"state": {"target": ["0"], "time": [2273]}, "edge": {"target": [], "time": []}}}, "displayed_time": "16.82", "trialTime": 18456, "trial_type": "mouselab-mdp", "trial_index": 22, "time_elapsed": 963316, "internal_node_id": "0.0-6.0-1.0-7.0"}}, {"uniqueid": "w42065376:a95589070", "current_trial": 23, "dateTime": 1693390085898, "trialdata": {"revealed_states": [], "clicked_states": [], "num_clicks_accrued": [0, 0, 0, 0, 0, 0, 0, 0, 0, 0, 0, 0, 0], "stateRewards": ["", -1, 4, -3, 3, 57, -61, 5, -11, 23, -1, 34, -2, -4, -1, -13, 27, 38, -36, 4, -45, 21, 88, 1, -2, -1, 1, -69, -5, -78, -12, -9, 38, -54], "withholdReward": false, "trial_id": "mdp_trial_9", "block": "test", "trialIndex": 12, "score": 85, "costs": 0, "simulationMode": [null, null, null, null, null], "rewards": [-2, -4, -1, 4, 88], "path": ["0", "0", "12", "13", "14", "19", "22"], "rt": [933, 330, 362, 83, 610], "actions": ["right", "right", "right", "down", "left"], "actionTimes": [3517, 4364, 5245, 5847, 6983], "queries": {"click": {"state": {"target": [], "time": []}, "edge": {"target": [], "time": []}}, "mouseover": {"state": {"target": [], "time": []}, "edge": {"target": [], "time": []}}, "mouseout": {"state": {"target": ["23"], "time": [1678]}, "edge": {"target": [], "time": []}}}, "displayed_time": "16.59", "trialTime": 18002, "trial_type": "mouselab-mdp", "trial_index": 23, "time_elapsed": 981750, "internal_node_id": "0.0-6.0-1.0-8.0"}}, {"uniqueid": "w42065376:a95589070", "current_trial": 24, "dateTime": 1693390103638, "trialdata": {"revealed_states": [], "clicked_states": [], "num_clicks_accrued": [0, 0, 0, 0, 0, 0, 0, 0, 0, 0, 0, 0, 0], "stateRewards": ["", -1, 4, -8, 12, 14, 69, -8, 5, -72, -14, 56, -1, -1, -1, 9, 67, 19, 11, -9, -88, -58, 3, 2, -4, -8, 4, 62, 77, -74, 5, -31, 65, 88], "withholdReward": false, "trial_id": "mdp_trial_10", "block": "test", "trialIndex": 13, "score": 56, "costs": 0, "simulationMode": [null, null, null, null, null], "rewards": [-1, 4, -8, 5, 56], "path": ["0", "0", "1", "2", "3", "8", "11"], "rt": [1268, 248, 235, 5320, 155], "actions": ["up", "up", "up", "left", "left"], "actionTimes": [2988, 3728, 4465, 10301, 10975], "queries": {"click": {"state": {"target": [], "time": []}, "edge": {"target": [], "time": []}}, "mouseover": {"state": {"target": [], "time": []}, "edge": {"target": [], "time": []}}, "mouseout": {"state": {"target": ["0"], "time": [1015]}, "edge": {"target": [], "time": []}}}, "displayed_time": "15.72", "trialTime": 17292, "trial_type": "mouselab-mdp", "trial_index": 24, "time_elapsed": 999490, "internal_node_id": "0.0-6.0-1.0-9.0"}}, {"uniqueid": "w42065376:a95589070", "current_trial": 25, "dateTime": 1693390121222, "trialdata": {"revealed_states": [], "clicked_states": [], "num_clicks_accrued": [0, 0, 0, 0, 0, 0, 0, 0, 0, 0, 0, 0, 0], "stateRewards": ["", 1, 1, -5, 10, -31, 73, 14, -8, -23, 63, -70, -1, 2, 8, 7, 25, -59, 27, -10, -40, -71, -15, -2, 3, -8, -5, -19, 77, -34, 7, 67, 63, 19], "withholdReward": false, "trial_id": "mdp_trial_11", "block": "test", "trialIndex": 14, "score": -41, "costs": 0, "simulationMode": [null, null, null, null, null], "rewards": [-1, 2, 8, -10, -40], "path": ["0", "0", "12", "13", "14", "19", "20"], "rt": [2220, 280, 212, 179, 1804], "actions": ["right", "right", "right", "down", "right"], "actionTimes": [3814, 4609, 5342, 6042, 8349], "queries": {"click": {"state": {"target": [], "time": []}, "edge": {"target": [], "time": []}}, "mouseover": {"state": {"target": [], "time": []}, "edge": {"target": [], "time": []}}, "mouseout": {"state": {"target": ["0"], "time": [1024]}, "edge": {"target": [], "time": []}}}, "displayed_time": "15.60", "trialTime": 17146, "trial_type": "mouselab-mdp", "trial_index": 25, "time_elapsed": 1017074, "internal_node_id": "0.0-6.0-1.0-10.0"}}, {"uniqueid": "w42065376:a95589070", "current_trial": 26, "dateTime": 1693390141244, "trialdata": {"revealed_states": [], "clicked_states": [], "num_clicks_accrued": [0, 0, 0, 0, 0, 0, 0, 0, 0, 0, 0, 0, 0], "stateRewards": ["", -2, -3, -5, 8, 27, 11, 43, -6, -24, -87, 69, -2, 1, 1, 9, 19, 48, -37, 9, -14, 45, 62, 1, 2, 1, 16, -81, -41, 22, 4, -6, -63, 47], "withholdReward": false, "trial_id": "mdp_trial_12", "block": "test", "trialIndex": 15, "score": -55, "costs": 0, "simulationMode": [null, null, null, null, null], "rewards": [1, 2, 1, 4, -63], "path": ["0", "0", "23", "24", "25", "30", "32"], "rt": [2803, 652, 441, 401, 253], "actions": ["left", "left", "left", "down", "down"], "actionTimes": [4953, 6125, 7082, 8026, 8798], "queries": {"click": {"state": {"target": [], "time": []}, "edge": {"target": [], "time": []}}, "mouseover": {"state": {"target": [], "time": []}, "edge": {"target": [], "time": []}}, "mouseout": {"state": {"target": ["0"], "time": [1403]}, "edge": {"target": [], "time": []}}}, "displayed_time": "16.15", "trialTime": 19549, "trial_type": "mouselab-mdp", "trial_index": 26, "time_elapsed": 1037096, "internal_node_id": "0.0-6.0-1.0-11.0"}}, {"uniqueid": "w42065376:a95589070", "current_trial": 27, "dateTime": 1693390159913, "trialdata": {"revealed_states": [], "clicked_states": [], "num_clicks_accrued": [0, 0, 0, 0, 0, 0, 0, 0, 0, 0, 0, 0, 0], "stateRewards": ["", 2, 4, 7, -6, -76, -81, 2, 5, -66, -3, 36, -2, -4, 6, -2, -69, 4, -49, -6, 67, 38, -67, 2, 1, 1, 6, -68, -21, 52, -16, -16, 6, -70], "withholdReward": false, "trial_id": "mdp_trial_13", "block": "test", "trialIndex": 16, "score": -48, "costs": 0, "simulationMode": [null, null, null, null, null], "rewards": [2, 4, 7, 5, -66], "path": ["0", "0", "1", "2", "3", "8", "9"], "rt": [1693, 281, 240, 379, 165], "actions": ["up", "up", "up", "left", "up"], "actionTimes": [3570, 4364, 5128, 6033, 6716], "queries": {"click": {"state": {"target": [], "time": []}, "edge": {"target": [], "time": []}}, "mouseover": {"state": {"target": [], "time": []}, "edge": {"target": [], "time": []}}, "mouseout": {"state": {"target": ["0", "0"], "time": [1191, 17467]}, "edge": {"target": [], "time": []}}}, "displayed_time": "15.88", "trialTime": 18233, "trial_type": "mouselab-mdp", "trial_index": 27, "time_elapsed": 1055765, "internal_node_id": "0.0-6.0-1.0-12.0"}}, {"uniqueid": "w42065376:a95589070", "current_trial": 28, "dateTime": 1693390180769, "trialdata": {"revealed_states": [], "clicked_states": [], "num_clicks_accrued": [0, 0, 0, 0, 0, 0, 0, 0, 0, 0, 0, 0, 0], "stateRewards": ["", 1, 1, 7, -11, 80, -20, -53, -14, 3, 31, 27, 2, -1, -8, -10, 33, 41, 86, 9, 78, -37, -13, -1, -2, -6, -8, -80, 75, 4, -16, -49, -74, 24], "withholdReward": false, "trial_id": "mdp_trial_14", "block": "test", "trialIndex": 17, "score": 78, "costs": 0, "simulationMode": [null, null, null, null, null], "rewards": [1, 1, 7, -11, 80], "path": ["0", "0", "1", "2", "3", "4", "5"], "rt": [1437, 162, 199, 287, 257], "actions": ["up", "up", "up", "right", "up"], "actionTimes": [3840, 4512, 5235, 6045, 6830], "queries": {"click": {"state": {"target": [], "time": []}, "edge": {"target": [], "time": []}}, "mouseover": {"state": {"target": [], "time": []}, "edge": {"target": [], "time": []}}, "mouseout": {"state": {"target": ["0"], "time": [1762]}, "edge": {"target": [], "time": []}}}, "displayed_time": "16.41", "trialTime": 20362, "trial_type": "mouselab-mdp", "trial_index": 28, "time_elapsed": 1076621, "internal_node_id": "0.0-6.0-1.0-13.0"}}, {"uniqueid": "w42065376:a95589070", "current_trial": 29, "dateTime": 1693390199666, "trialdata": {"revealed_states": [], "clicked_states": [], "num_clicks_accrued": [0, 0, 0, 0, 0, 0, 0, 0, 0, 0, 0, 0, 0], "stateRewards": ["", -1, 2, -7, -12, -62, 12, -13, 5, 77, -71, 83, 1, -4, 7, 15, -42, -87, -4, 5, -25, 44, 88, -1, 4, -5, -8, 14, 51, 8, -5, 83, -24, -19], "withholdReward": false, "trial_id": "mdp_trial_15", "block": "test", "trialIndex": 18, "score": -80, "costs": 0, "simulationMode": [null, null, null, null, null], "rewards": [-1, 2, -7, -12, -62], "path": ["0", "0", "1", "2", "3", "4", "5"], "rt": [1089, 78, 79, 170, 107], "actions": ["up", "up", "up", "right", "up"], "actionTimes": [2472, 3059, 3658, 4348, 4972], "queries": {"click": {"state": {"target": [], "time": []}, "edge": {"target": [], "time": []}}, "mouseover": {"state": {"target": [], "time": []}, "edge": {"target": [], "time": []}}, "mouseout": {"state": {"target": ["0"], "time": [16840]}, "edge": {"target": [], "time": []}}}, "displayed_time": "15.38", "trialTime": 18393, "trial_type": "mouselab-mdp", "trial_index": 29, "time_elapsed": 1095518, "internal_node_id": "0.0-6.0-1.0-14.0"}}, {"uniqueid": "w42065376:a95589070", "current_trial": 30, "dateTime": 1693390217496, "trialdata": {"revealed_states": [], "clicked_states": [], "num_clicks_accrued": [0, 0, 0, 0, 0, 0, 0, 0, 0, 0, 0, 0, 0], "stateRewards": ["", 2, -1, 1, 10, -52, 86, -22, -2, -14, -63, 38, 1, 3, 7, -8, 11, -32, -27, 9, -71, 40, -87, -2, -1, 5, -7, 12, 31, -57, 13, 86, -58, 29], "withholdReward": false, "trial_id": "mdp_trial_16", "block": "test", "trialIndex": 19, "score": 26, "costs": 0, "simulationMode": [null, null, null, null, null], "rewards": [-2, -1, 5, -7, 31], "path": ["0", "0", "23", "24", "25", "26", "28"], "rt": [4034, 196, 294, 1431, 323], "actions": ["left", "left", "left", "up", "right"], "actionTimes": [5531, 6253, 7067, 9018, 9862], "queries": {"click": {"state": {"target": [], "time": []}, "edge": {"target": [], "time": []}}, "mouseover": {"state": {"target": [], "time": []}, "edge": {"target": [], "time": []}}, "mouseout": {"state": {"target": [], "time": []}, "edge": {"target": [], "time": []}}}, "displayed_time": "15.50", "trialTime": 17338, "trial_type": "mouselab-mdp", "trial_index": 30, "time_elapsed": 1113349, "internal_node_id": "0.0-6.0-1.0-15.0"}}, {"uniqueid": "w42065376:a95589070", "current_trial": 31, "dateTime": 1693390236977, "trialdata": {"revealed_states": [], "clicked_states": [], "num_clicks_accrued": [0, 0, 0, 0, 0, 0, 0, 0, 0, 0, 0, 0, 0], "stateRewards": ["", 2, 3, 3, 10, 19, -21, 6, 9, 54, 68, 16, 2, 2, -6, -8, 40, -2, -75, -2, -42, 55, 59, -1, 2, 4, -14, 11, -34, -30, -6, 61, -53, 13], "withholdReward": false, "trial_id": "mdp_trial_17", "block": "test", "trialIndex": 20, "score": -12, "costs": 0, "simulationMode": [null, null, null, null, null], "rewards": [2, 2, -6, -8, -2], "path": ["0", "0", "12", "13", "14", "15", "17"], "rt": [2279, 168, 237, 826, 33], "actions": ["right", "right", "right", "up", "right"], "actionTimes": [5152, 5841, 6595, 7932, 8488], "queries": {"click": {"state": {"target": [], "time": []}, "edge": {"target": [], "time": []}}, "mouseover": {"state": {"target": [], "time": []}, "edge": {"target": [], "time": []}}, "mouseout": {"state": {"target": ["0", "23", "31"], "time": [18381, 18463, 18596]}, "edge": {"target": [], "time": []}}}, "displayed_time": "16.88", "trialTime": 19022, "trial_type": "mouselab-mdp", "trial_index": 31, "time_elapsed": 1132828, "internal_node_id": "0.0-6.0-1.0-16.0"}}, {"uniqueid": "w42065376:a95589070", "current_trial": 32, "dateTime": 1693390255828, "trialdata": {"revealed_states": [], "clicked_states": [], "num_clicks_accrued": [0, 0, 0, 0, 0, 0, 0, 0, 0, 0, 0, 0, 0], "stateRewards": ["", -2, -4, -6, 12, -58, -70, -80, 2, 16, -88, -62, 1, 2, -5, 11, 77, -35, -44, -5, 18, -83, 87, 1, -3, -5, 13, -44, -21, -86, 10, -52, 8, 29], "withholdReward": false, "trial_id": "mdp_trial_18", "block": "test", "trialIndex": 21, "score": -35, "costs": 0, "simulationMode": [null, null, null, null, null], "rewards": [1, 2, -5, 11, -44], "path": ["0", "0", "12", "13", "14", "15", "18"], "rt": [1304, 146, 149, 729, 71], "actions": ["right", "right", "right", "up", "left"], "actionTimes": [3206, 3869, 4540, 5793, 6359], "queries": {"click": {"state": {"target": [], "time": []}, "edge": {"target": [], "time": []}}, "mouseover": {"state": {"target": [], "time": []}, "edge": {"target": [], "time": []}}, "mouseout": {"state": {"target": ["23", "0", "0"], "time": [1018, 1357, 17932]}, "edge": {"target": [], "time": []}}}, "displayed_time": "15.91", "trialTime": 18361, "trial_type": "mouselab-mdp", "trial_index": 32, "time_elapsed": 1151679, "internal_node_id": "0.0-6.0-1.0-17.0"}}, {"uniqueid": "w42065376:a95589070", "current_trial": 33, "dateTime": 1693390275090, "trialdata": {"revealed_states": [], "clicked_states": [], "num_clicks_accrued": [0, 0, 0, 0, 0, 0, 0, 0, 0, 0, 0, 0, 0], "stateRewards": ["", 1, -1, 1, 13, 31, -56, 72, 2, 41, 5, 63, -2, -3, -2, 3, -71, -26, 52, 13, -31, 24, -67, 2, -2, 5, 4, 66, 43, 72, 9, 86, -26, 44], "withholdReward": false, "trial_id": "mdp_trial_19", "block": "test", "trialIndex": 22, "score": 58, "costs": 0, "simulationMode": [null, null, null, null, null], "rewards": [2, -2, 5, 9, 44], "path": ["0", "0", "23", "24", "25", "30", "33"], "rt": [1189, 33, 102, 171, 433], "actions": ["left", "left", "left", "down", "left"], "actionTimes": [3912, 4460, 5092, 5783, 6727], "queries": {"click": {"state": {"target": [], "time": []}, "edge": {"target": [], "time": []}}, "mouseover": {"state": {"target": [], "time": []}, "edge": {"target": [], "time": []}}, "mouseout": {"state": {"target": ["0"], "time": [18170]}, "edge": {"target": [], "time": []}}}, "displayed_time": "16.72", "trialTime": 18784, "trial_type": "mouselab-mdp", "trial_index": 33, "time_elapsed": 1170941, "internal_node_id": "0.0-6.0-1.0-18.0"}}, {"uniqueid": "w42065376:a95589070", "current_trial": 34, "dateTime": 1693390292919, "trialdata": {"revealed_states": [], "clicked_states": [], "num_clicks_accrued": [0, 0, 0, 0, 0, 0, 0, 0, 0, 0, 0, 0, 0], "stateRewards": ["", 2, -3, 5, -14, -63, -9, -24, -11, -54, -43, 68, 2, -2, -4, 7, -64, 30, 47, 12, -74, 11, 86, 1, -3, 3, 10, -71, -42, -52, -1, -29, -16, 69], "withholdReward": false, "trial_id": "mdp_trial_20", "block": "test", "trialIndex": 23, "score": -34, "costs": 0, "simulationMode": [null, null, null, null, null], "rewards": [2, -3, 5, -14, -24], "path": ["0", "0", "1", "2", "3", "4", "7"], "rt": [1971, 128, 71, 324, 108], "actions": ["up", "up", "up", "right", "down"], "actionTimes": [3698, 4339, 4936, 5782, 6400], "queries": {"click": {"state": {"target": [], "time": []}, "edge": {"target": [], "time": []}}, "mouseover": {"state": {"target": [], "time": []}, "edge": {"target": [], "time": []}}, "mouseout": {"state": {"target": ["0"], "time": [1159]}, "edge": {"target": [], "time": []}}}, "displayed_time": "15.73", "trialTime": 17334, "trial_type": "mouselab-mdp", "trial_index": 34, "time_elapsed": 1188771, "internal_node_id": "0.0-6.0-1.0-19.0"}}, {"uniqueid": "w42065376:a95589070", "current_trial": 35, "dateTime": 1693390310339, "trialdata": {"revealed_states": [], "clicked_states": [], "num_clicks_accrued": [0, 0, 0, 0, 0, 0, 0, 0, 0, 0, 0, 0, 0], "stateRewards": ["", -1, -3, -3, 1, -38, 2, -53, -2, -1, -81, 70, -1, 1, -5, -9, 46, 15, 35, -1, -22, 38, 59, -2, 4, -8, 13, 1, -83, -43, 4, 76, 13, 48], "withholdReward": false, "trial_id": "mdp_trial_21", "block": "test", "trialIndex": 24, "score": -90, "costs": 0, "simulationMode": [null, null, null, null, null], "rewards": [-1, -3, -3, -2, -81], "path": ["0", "0", "1", "2", "3", "8", "10"], "rt": [1044, 140, 167, 691, 150], "actions": ["up", "up", "up", "left", "down"], "actionTimes": [2068, 2729, 3401, 4609, 5289], "queries": {"click": {"state": {"target": [], "time": []}, "edge": {"target": [], "time": []}}, "mouseover": {"state": {"target": [], "time": []}, "edge": {"target": [], "time": []}}, "mouseout": {"state": {"target": ["0", "0"], "time": [731, 16492]}, "edge": {"target": [], "time": []}}}, "displayed_time": "15.03", "trialTime": 16932, "trial_type": "mouselab-mdp", "trial_index": 35, "time_elapsed": 1206191, "internal_node_id": "0.0-6.0-1.0-20.0"}}, {"uniqueid": "w42065376:a95589070", "current_trial": 36, "dateTime": 1693390328339, "trialdata": {"revealed_states": [], "clicked_states": [], "num_clicks_accrued": [0, 0, 0, 0, 0, 0, 0, 0, 0, 0, 0, 0, 0], "stateRewards": ["", -2, 3, 8, -9, 59, 41, -50, -1, 82, 66, 33, 2, -2, 7, 8, 1, -38, 12, -16, 24, -37, 67, 1, 4, -2, 5, 35, -83, 28, 8, -27, 69, -64], "withholdReward": false, "trial_id": "mdp_trial_22", "block": "test", "trialIndex": 25, "score": -53, "costs": 0, "simulationMode": [null, null, null, null, null], "rewards": [1, 4, -2, 8, -64], "path": ["0", "0", "23", "24", "25", "30", "33"], "rt": [1745, 11, 182, 316, 841], "actions": ["left", "left", "left", "down", "left"], "actionTimes": [3799, 4306, 5029, 5861, 7220], "queries": {"click": {"state": {"target": [], "time": []}, "edge": {"target": [], "time": []}}, "mouseover": {"state": {"target": [], "time": []}, "edge": {"target": [], "time": []}}, "mouseout": {"state": {"target": [], "time": []}, "edge": {"target": [], "time": []}}}, "displayed_time": "16.06", "trialTime": 17498, "trial_type": "mouselab-mdp", "trial_index": 36, "time_elapsed": 1224191, "internal_node_id": "0.0-6.0-1.0-21.0"}}, {"uniqueid": "w42065376:a95589070", "current_trial": 37, "dateTime": 1693390347227, "trialdata": {"revealed_states": [], "clicked_states": [], "num_clicks_accrued": [0, 0, 0, 0, 0, 0, 0, 0, 0, 0, 0, 0, 0], "stateRewards": ["", -1, 2, 5, -6, 13, -64, -47, 8, -79, -80, -33, 1, 2, -2, -16, 56, -71, -10, 3, 29, 44, 85, -1, 4, 5, 4, -36, -56, 19, 8, 52, -13, -2], "withholdReward": false, "trial_id": "mdp_trial_23", "block": "test", "trialIndex": 26, "score": 31, "costs": 0, "simulationMode": [null, null, null, null, null], "rewards": [-1, 4, 5, 4, 19], "path": ["0", "0", "23", "24", "25", "26", "29"], "rt": [1201, 851, 463, 1084, 507], "actions": ["left", "left", "left", "up", "left"], "actionTimes": [3456, 4829, 5805, 7423, 8447], "queries": {"click": {"state": {"target": [], "time": []}, "edge": {"target": [], "time": []}}, "mouseover": {"state": {"target": [], "time": []}, "edge": {"target": [], "time": []}}, "mouseout": {"state": {"target": ["0"], "time": [17917]}, "edge": {"target": [], "time": []}}}, "displayed_time": "16.26", "trialTime": 18386, "trial_type": "mouselab-mdp", "trial_index": 37, "time_elapsed": 1243079, "internal_node_id": "0.0-6.0-1.0-22.0"}}, {"uniqueid": "w42065376:a95589070", "current_trial": 38, "dateTime": 1693390366304, "trialdata": {"revealed_states": [], "clicked_states": [], "num_clicks_accrued": [0, 0, 0, 0, 0, 0, 0, 0, 0, 0, 0, 0, 0], "stateRewards": ["", 1, -1, 1, -14, -10, 67, -28, -11, 72, 40, -65, -1, 1, 1, -2, 8, -55, 34, -10, 61, 33, -15, 2, -4, 7, 4, -75, 63, -21, -16, 61, 19, 21], "withholdReward": false, "trial_id": "mdp_trial_24", "block": "test", "trialIndex": 27, "score": 54, "costs": 0, "simulationMode": [null, null, null, null, null], "rewards": [1, -1, 1, -14, 67], "path": ["0", "0", "1", "2", "3", "4", "6"], "rt": [1269, 211, 204, 462, 224], "actions": ["up", "up", "up", "right", "right"], "actionTimes": [3584, 4293, 5004, 5980, 6723], "queries": {"click": {"state": {"target": [], "time": []}, "edge": {"target": [], "time": []}}, "mouseover": {"state": {"target": [], "time": []}, "edge": {"target": [], "time": []}}, "mouseout": {"state": {"target": [], "time": []}, "edge": {"target": [], "time": []}}}, "displayed_time": "16.32", "trialTime": 18577, "trial_type": "mouselab-mdp", "trial_index": 38, "time_elapsed": 1262156, "internal_node_id": "0.0-6.0-1.0-23.0"}}, {"uniqueid": "w42065376:a95589070", "current_trial": 39, "dateTime": 1693390384539, "trialdata": {"revealed_states": [], "clicked_states": [], "num_clicks_accrued": [0, 0, 0, 0, 0, 0, 0, 0, 0, 0, 0, 0, 0], "stateRewards": ["", 1, -2, -2, 10, -31, -77, 35, 9, -47, 8, 48, -2, 1, -4, -3, -26, -50, 43, -11, 76, -38, 17, 1, -1, 6, 10, 15, -9, 12, -8, 85, 11, -55], "withholdReward": false, "trial_id": "mdp_trial_25", "block": "test", "trialIndex": 28, "score": 60, "costs": 0, "simulationMode": [null, null, null, null, null], "rewards": [-2, 1, -4, -11, 76], "path": ["0", "0", "12", "13", "14", "19", "20"], "rt": [1965, 189, 195, 55, 977], "actions": ["right", "right", "right", "down", "right"], "actionTimes": [3377, 4078, 4784, 5361, 6865], "queries": {"click": {"state": {"target": [], "time": []}, "edge": {"target": [], "time": []}}, "mouseover": {"state": {"target": [], "time": []}, "edge": {"target": [], "time": []}}, "mouseout": {"state": {"target": ["0"], "time": [2057]}, "edge": {"target": [], "time": []}}}, "displayed_time": "15.42", "trialTime": 17721, "trial_type": "mouselab-mdp", "trial_index": 39, "time_elapsed": 1280390, "internal_node_id": "0.0-6.0-1.0-24.0"}}, {"uniqueid": "w42065376:a95589070", "current_trial": 40, "dateTime": 1693390403144, "trialdata": {"revealed_states": [], "clicked_states": [], "num_clicks_accrued": [0, 0, 0, 0, 0, 0, 0, 0, 0, 0, 0, 0, 0], "stateRewards": ["", 2, -3, 5, 11, -79, 54, 11, -9, -78, 33, 22, -2, -1, 2, 14, 43, 34, 1, 10, 49, -65, 39, -1, 1, -1, 3, -16, -2, 11, 2, 12, 48, -65], "withholdReward": false, "trial_id": "mdp_trial_26", "block": "test", "trialIndex": 29, "score": -64, "costs": 0, "simulationMode": [null, null, null, null, null], "rewards": [-1, 1, -1, 2, -65], "path": ["0", "0", "23", "24", "25", "30", "33"], "rt": [1293, 169, 179, 379, 514], "actions": ["left", "left", "left", "down", "left"], "actionTimes": [2791, 3481, 4177, 5077, 6110], "queries": {"click": {"state": {"target": [], "time": []}, "edge": {"target": [], "time": []}}, "mouseover": {"state": {"target": [], "time": []}, "edge": {"target": [], "time": []}}, "mouseout": {"state": {"target": ["0"], "time": [702]}, "edge": {"target": [], "time": []}}}, "displayed_time": "15.50", "trialTime": 18110, "trial_type": "mouselab-mdp", "trial_index": 40, "time_elapsed": 1298996, "internal_node_id": "0.0-6.0-1.0-25.0"}}, {"uniqueid": "w42065376:a95589070", "current_trial": 41, "dateTime": 1693390420236, "trialdata": {"revealed_states": [], "clicked_states": [], "num_clicks_accrued": [0, 0, 0, 0, 0, 0, 0, 0, 0, 0, 0, 0, 0], "stateRewards": ["", 2, -2, -3, 10, -4, -1, -11, -8, -9, -36, -78, 2, 1, 7, -7, 44, -1, -31, -1, 26, 47, 83, 2, -4, -4, -6, -52, -76, -81, -1, -59, 45, 67], "withholdReward": false, "trial_id": "mdp_trial_27", "block": "test", "trialIndex": 30, "score": -89, "costs": 0, "simulationMode": [null, null, null, null, null], "rewards": [2, -2, -3, -8, -78], "path": ["0", "0", "1", "2", "3", "8", "11"], "rt": [1151, 345, 167, 490, 507], "actions": ["up", "up", "up", "left", "left"], "actionTimes": [2396, 3242, 3933, 4938, 5958], "queries": {"click": {"state": {"target": [], "time": []}, "edge": {"target": [], "time": []}}, "mouseover": {"state": {"target": [], "time": []}, "edge": {"target": [], "time": []}}, "mouseout": {"state": {"target": ["0"], "time": [441]}, "edge": {"target": [], "time": []}}}, "displayed_time": "15.25", "trialTime": 16570, "trial_type": "mouselab-mdp", "trial_index": 41, "time_elapsed": 1316087, "internal_node_id": "0.0-6.0-1.0-26.0"}}, {"uniqueid": "w42065376:a95589070", "current_trial": 42, "dateTime": 1693390437541, "trialdata": {"revealed_states": [], "clicked_states": [], "num_clicks_accrued": [0, 0, 0, 0, 0, 0, 0, 0, 0, 0, 0, 0, 0], "stateRewards": ["", -1, -4, -3, 1, -45, -67, -24, 14, 32, 22, 22, -1, 1, -5, -7, 72, 84, -79, -5, 19, -40, -2, -1, -2, 8, -3, 84, -25, -28, 11, 64, -66, 77], "withholdReward": false, "trial_id": "mdp_trial_28", "block": "test", "trialIndex": 31, "score": 38, "costs": 0, "simulationMode": [null, null, null, null, null], "rewards": [-1, -4, -3, 14, 32], "path": ["0", "0", "1", "2", "3", "8", "9"], "rt": [1510, 948, 599, 555, 1721], "actions": ["up", "up", "up", "left", "up"], "actionTimes": [2915, 4377, 5494, 6580, 8817], "queries": {"click": {"state": {"target": [], "time": []}, "edge": {"target": [], "time": []}}, "mouseover": {"state": {"target": [], "time": []}, "edge": {"target": [], "time": []}}, "mouseout": {"state": {"target": ["0", "0"], "time": [1977, 10190]}, "edge": {"target": [], "time": []}}}, "displayed_time": "15.41", "trialTime": 16795, "trial_type": "mouselab-mdp", "trial_index": 42, "time_elapsed": 1333393, "internal_node_id": "0.0-6.0-1.0-27.0"}}, {"uniqueid": "w42065376:a95589070", "current_trial": 43, "dateTime": 1693390455775, "trialdata": {"revealed_states": [], "clicked_states": [], "num_clicks_accrued": [0, 0, 0, 0, 0, 0, 0, 0, 0, 0, 0, 0, 0], "stateRewards": ["", 2, 3, -1, 16, -78, -11, 46, 2, -20, 79, -67, 2, 3, 2, 11, -83, -42, -58, -11, -67, -22, 55, 2, -1, -1, -16, -83, -82, 23, -11, -29, 13, 13], "withholdReward": false, "trial_id": "mdp_trial_29", "block": "test", "trialIndex": 32, "score": -26, "costs": 0, "simulationMode": [null, null, null, null, null], "rewards": [2, 3, 2, -11, -22], "path": ["0", "0", "12", "13", "14", "19", "21"], "rt": [1629, 481, 418, 217, 677], "actions": ["right", "right", "right", "down", "down"], "actionTimes": [3945, 4940, 5875, 6591, 7799], "queries": {"click": {"state": {"target": [], "time": []}, "edge": {"target": [], "time": []}}, "mouseover": {"state": {"target": [], "time": []}, "edge": {"target": [], "time": []}}, "mouseout": {"state": {"target": ["0"], "time": [1270]}, "edge": {"target": [], "time": []}}}, "displayed_time": "16.32", "trialTime": 17698, "trial_type": "mouselab-mdp", "trial_index": 43, "time_elapsed": 1351627, "internal_node_id": "0.0-6.0-1.0-28.0"}}, {"uniqueid": "w42065376:a95589070", "current_trial": 44, "dateTime": 1693390472910, "trialdata": {"revealed_states": [], "clicked_states": [], "num_clicks_accrued": [0, 0, 0, 0, 0, 0, 0, 0, 0, 0, 0, 0, 0], "stateRewards": ["", 2, 3, 8, 14, 69, -27, 17, 2, -71, -65, -10, 2, -3, 7, 8, 65, -10, 65, -12, 73, -12, 13, -2, -2, 6, 10, -79, -69, -18, 10, -85, 67, 74], "withholdReward": false, "trial_id": "mdp_trial_30", "block": "test", "trialIndex": 33, "score": -57, "costs": 0, "simulationMode": [null, null, null, null, null], "rewards": [-2, -2, 6, 10, -69], "path": ["0", "0", "23", "24", "25", "26", "28"], "rt": [1887, 213, 191, 912, 826], "actions": ["left", "left", "left", "up", "right"], "actionTimes": [3121, 3850, 4561, 5995, 7342], "queries": {"click": {"state": {"target": [], "time": []}, "edge": {"target": [], "time": []}}, "mouseover": {"state": {"target": [], "time": []}, "edge": {"target": [], "time": []}}, "mouseout": {"state": {"target": ["0"], "time": [933]}, "edge": {"target": [], "time": []}}}, "displayed_time": "15.23", "trialTime": 16577, "trial_type": "mouselab-mdp", "trial_index": 44, "time_elapsed": 1368761, "internal_node_id": "0.0-6.0-1.0-29.0"}}, {"uniqueid": "w42065376:a95589070", "current_trial": 45, "dateTime": 1693390490811, "trialdata": {"revealed_states": [], "clicked_states": [], "num_clicks_accrued": [0, 0, 0, 0, 0, 0, 0, 0, 0, 0, 0, 0, 0], "stateRewards": ["", 2, -3, -5, 5, 11, -9, -33, 6, 67, 6, -30, -1, -2, -6, 13, 55, 13, 72, -14, 75, 21, -66, -2, -4, 6, 15, -1, -35, 60, 2, 51, -73, 12], "withholdReward": false, "trial_id": "mdp_trial_31", "block": "test", "trialIndex": 34, "score": -34, "costs": 0, "simulationMode": [null, null, null, null, null], "rewards": [2, -3, -5, 5, -33], "path": ["0", "0", "1", "2", "3", "4", "7"], "rt": [1931, 122, 101, 341, 386], "actions": ["up", "up", "up", "right", "down"], "actionTimes": [3801, 4438, 5051, 5912, 6817], "queries": {"click": {"state": {"target": [], "time": []}, "edge": {"target": [], "time": []}}, "mouseover": {"state": {"target": [], "time": []}, "edge": {"target": [], "time": []}}, "mouseout": {"state": {"target": ["0", "0", "0"], "time": [766, 944, 2746]}, "edge": {"target": [], "time": []}}}, "displayed_time": "15.87", "trialTime": 17361, "trial_type": "mouselab-mdp", "trial_index": 45, "time_elapsed": 1386662, "internal_node_id": "0.0-6.0-1.0-30.0"}}, {"uniqueid": "w42065376:a95589070", "current_trial": 46, "dateTime": 1693390508873, "trialdata": {"revealed_states": [], "clicked_states": [], "num_clicks_accrued": [0, 0, 0, 0, 0, 0, 0, 0, 0, 0, 0, 0, 0], "stateRewards": ["", 2, -1, -3, 16, -3, -16, -62, -1, 13, -26, 43, -1, 4, 3, -9, -54, -37, -3, -12, -71, -68, -57, 1, -3, 2, -9, 2, -2, -9, -11, 84, -52, 55], "withholdReward": false, "trial_id": "mdp_trial_32", "block": "test", "trialIndex": 35, "score": -63, "costs": 0, "simulationMode": [null, null, null, null, null], "rewards": [-1, 4, 3, -12, -57], "path": ["0", "0", "12", "13", "14", "19", "22"], "rt": [1536, 175, 160, 31, 1305], "actions": ["right", "right", "right", "down", "left"], "actionTimes": [3195, 3888, 4577, 5127, 6950], "queries": {"click": {"state": {"target": [], "time": []}, "edge": {"target": [], "time": []}}, "mouseover": {"state": {"target": [], "time": []}, "edge": {"target": [], "time": []}}, "mouseout": {"state": {"target": ["0", "0"], "time": [744, 17055]}, "edge": {"target": [], "time": []}}}, "displayed_time": "15.66", "trialTime": 17544, "trial_type": "mouselab-mdp", "trial_index": 46, "time_elapsed": 1404725, "internal_node_id": "0.0-6.0-1.0-31.0"}}, {"uniqueid": "w42065376:a95589070", "current_trial": 47, "dateTime": 1693390526746, "trialdata": {"revealed_states": [], "clicked_states": [], "num_clicks_accrued": [0, 0, 0, 0, 0, 0, 0, 0, 0, 0, 0, 0, 0], "stateRewards": ["", -2, -4, 4, -11, -63, -60, -7, 2, -14, 81, -43, -1, -1, -5, 7, 10, 69, 40, 8, -83, 52, 60, 1, 2, 5, -5, 16, 64, 14, -3, 29, 7, -51], "withholdReward": false, "trial_id": "mdp_trial_33", "block": "test", "trialIndex": 36, "score": 12, "costs": 0, "simulationMode": [null, null, null, null, null], "rewards": [1, 2, 5, -3, 7], "path": ["0", "0", "23", "24", "25", "30", "32"], "rt": [1348, 121, 98, 112, 149], "actions": ["left", "left", "left", "down", "down"], "actionTimes": [3097, 3717, 4326, 4958, 5628], "queries": {"click": {"state": {"target": [], "time": []}, "edge": {"target": [], "time": []}}, "mouseover": {"state": {"target": [], "time": []}, "edge": {"target": [], "time": []}}, "mouseout": {"state": {"target": [], "time": []}, "edge": {"target": [], "time": []}}}, "displayed_time": "15.75", "trialTime": 17342, "trial_type": "mouselab-mdp", "trial_index": 47, "time_elapsed": 1422599, "internal_node_id": "0.0-6.0-1.0-32.0"}}, {"uniqueid": "w42065376:a95589070", "current_trial": 48, "dateTime": 1693390544153, "trialdata": {"revealed_states": [], "clicked_states": [], "num_clicks_accrued": [0, 0, 0, 0, 0, 0, 0, 0, 0, 0, 0, 0, 0], "stateRewards": ["", -1, -4, 8, 8, -68, 47, 24, -7, -61, 49, -69, -1, -1, 8, -7, 42, 1, -45, -11, 10, -63, -6, 1, 4, 6, -16, 79, -37, -58, -12, 81, 18, -53], "withholdReward": false, "trial_id": "mdp_trial_34", "block": "test", "trialIndex": 37, "score": -42, "costs": 0, "simulationMode": [null, null, null, null, null], "rewards": [1, 4, 6, -16, -37], "path": ["0", "0", "23", "24", "25", "26", "28"], "rt": [1604, 166, 151, 834, 685], "actions": ["left", "left", "left", "up", "right"], "actionTimes": [3187, 3870, 4539, 5889, 7088], "queries": {"click": {"state": {"target": [], "time": []}, "edge": {"target": [], "time": []}}, "mouseover": {"state": {"target": [], "time": []}, "edge": {"target": [], "time": []}}, "mouseout": {"state": {"target": [], "time": []}, "edge": {"target": [], "time": []}}}, "displayed_time": "15.59", "trialTime": 16910, "trial_type": "mouselab-mdp", "trial_index": 48, "time_elapsed": 1440005, "internal_node_id": "0.0-6.0-1.0-33.0"}}, {"uniqueid": "w42065376:a95589070", "current_trial": 49, "dateTime": 1693390561287, "trialdata": {"revealed_states": [], "clicked_states": [], "num_clicks_accrued": [0, 0, 0, 0, 0, 0, 0, 0, 0, 0, 0, 0, 0], "stateRewards": ["", -1, -1, 7, -15, -43, -21, -84, -9, -45, -66, 2, 1, -2, 2, 8, -27, 44, -52, -5, -84, 11, 53, 1, 4, -4, 16, 83, -82, -15, -16, 68, -43, 81], "withholdReward": false, "trial_id": "mdp_trial_35", "block": "test", "trialIndex": 38, "score": -43, "costs": 0, "simulationMode": [null, null, null, null, null], "rewards": [1, -2, 2, 8, -52], "path": ["0", "0", "12", "13", "14", "15", "18"], "rt": [1317, 129, 147, 26, 213], "actions": ["right", "right", "right", "up", "left"], "actionTimes": [2576, 3216, 3885, 4431, 5167], "queries": {"click": {"state": {"target": [], "time": []}, "edge": {"target": [], "time": []}}, "mouseover": {"state": {"target": [], "time": []}, "edge": {"target": [], "time": []}}, "mouseout": {"state": {"target": [], "time": []}, "edge": {"target": [], "time": []}}}, "displayed_time": "15.26", "trialTime": 16631, "trial_type": "mouselab-mdp", "trial_index": 49, "time_elapsed": 1457139, "internal_node_id": "0.0-6.0-1.0-34.0"}}, {"uniqueid": "w42065376:a95589070", "current_trial": 50, "dateTime": 1693390578567, "trialdata": {"revealed_states": [], "clicked_states": [], "num_clicks_accrued": [0, 0, 0, 0, 0, 0, 0, 0, 0, 0, 0, 0, 0], "stateRewards": ["", 2, -1, 4, -9, -43, 7, 54, -13, 38, -40, -83, -1, 2, -8, -10, 34, -33, 11, -14, -79, 65, 26, 1, 2, 4, 10, 21, 1, 86, 4, -53, 28, -29], "withholdReward": false, "trial_id": "mdp_trial_36", "block": "test", "trialIndex": 39, "score": -48, "costs": 0, "simulationMode": [null, null, null, null, null], "rewards": [2, -1, 4, -13, -40], "path": ["0", "0", "1", "2", "3", "8", "10"], "rt": [2144, 558, 105, 535, 361], "actions": ["up", "up", "up", "left", "down"], "actionTimes": [3477, 4555, 5166, 6214, 7100], "queries": {"click": {"state": {"target": [], "time": []}, "edge": {"target": [], "time": []}}, "mouseover": {"state": {"target": ["1"], "time": [2211]}, "edge": {"target": [], "time": []}}, "mouseout": {"state": {"target": ["0", "1"], "time": [1993, 2725]}, "edge": {"target": [], "time": []}}}, "displayed_time": "15.34", "trialTime": 16758, "trial_type": "mouselab-mdp", "trial_index": 50, "time_elapsed": 1474418, "internal_node_id": "0.0-6.0-1.0-35.0"}}, {"uniqueid": "w42065376:a95589070", "current_trial": 51, "dateTime": 1693390596628, "trialdata": {"revealed_states": [], "clicked_states": [], "num_clicks_accrued": [0, 0, 0, 0, 0, 0, 0, 0, 0, 0, 0, 0, 0], "stateRewards": ["", -1, 3, -7, 16, -32, -74, -48, 2, 10, 15, -30, 1, 1, -2, 10, 12, -83, 67, 13, -66, 47, 65, -2, 4, 2, -14, -8, -57, 24, 9, 65, 12, 46], "withholdReward": false, "trial_id": "mdp_trial_37", "block": "test", "trialIndex": 40, "score": 78, "costs": 0, "simulationMode": [null, null, null, null, null], "rewards": [1, 1, -2, 13, 65], "path": ["0", "0", "12", "13", "14", "19", "22"], "rt": [1280, 163, 162, 190, 1033], "actions": ["right", "right", "right", "down", "left"], "actionTimes": [3200, 3889, 4573, 5283, 6855], "queries": {"click": {"state": {"target": [], "time": []}, "edge": {"target": [], "time": []}}, "mouseover": {"state": {"target": [], "time": []}, "edge": {"target": [], "time": []}}, "mouseout": {"state": {"target": ["0"], "time": [17040]}, "edge": {"target": [], "time": []}}}, "displayed_time": "15.92", "trialTime": 17537, "trial_type": "mouselab-mdp", "trial_index": 51, "time_elapsed": 1492480, "internal_node_id": "0.0-6.0-1.0-36.0"}}, {"uniqueid": "w42065376:a95589070", "current_trial": 52, "dateTime": 1693390614150, "trialdata": {"revealed_states": [], "clicked_states": [], "num_clicks_accrued": [0, 0, 0, 0, 0, 0, 0, 0, 0, 0, 0, 0, 0], "stateRewards": ["", -2, 2, 8, -6, -25, 3, 87, 2, -62, -2, 74, -2, -1, 2, -1, 79, 49, -37, -14, 5, 67, -9, -1, 2, -2, 5, 15, 38, 32, -14, -38, -38, 30], "withholdReward": false, "trial_id": "mdp_trial_38", "block": "test", "trialIndex": 41, "score": 19, "costs": 0, "simulationMode": [null, null, null, null, null], "rewards": [-1, 2, -2, 5, 15], "path": ["0", "0", "23", "24", "25", "26", "27"], "rt": [2219, 562, 384, 885, 21], "actions": ["left", "left", "left", "up", "up"], "actionTimes": [3805, 4882, 5788, 7189, 7726], "queries": {"click": {"state": {"target": [], "time": []}, "edge": {"target": [], "time": []}}, "mouseover": {"state": {"target": [], "time": []}, "edge": {"target": [], "time": []}}, "mouseout": {"state": {"target": ["0"], "time": [986]}, "edge": {"target": [], "time": []}}}, "displayed_time": "15.59", "trialTime": 16977, "trial_type": "mouselab-mdp", "trial_index": 52, "time_elapsed": 1510002, "internal_node_id": "0.0-6.0-1.0-37.0"}}, {"uniqueid": "w42065376:a95589070", "current_trial": 53, "dateTime": 1693390632431, "trialdata": {"revealed_states": [], "clicked_states": [], "num_clicks_accrued": [0, 0, 0, 0, 0, 0, 0, 0, 0, 0, 0, 0, 0], "stateRewards": ["", 1, 3, 3, -10, 52, 68, 59, 12, 7, 49, 21, -2, -3, -4, -2, -2, 63, 63, -4, 44, 43, -76, -2, -3, -6, 13, 48, 36, 12, -5, -36, -33, -11], "withholdReward": false, "trial_id": "mdp_trial_39", "block": "test", "trialIndex": 42, "score": 49, "costs": 0, "simulationMode": [null, null, null, null, null], "rewards": [1, 3, 3, -10, 52], "path": ["0", "0", "1", "2", "3", "4", "5"], "rt": [1474, 177, 135, 369, 226], "actions": ["up", "up", "up", "right", "up"], "actionTimes": [3779, 4461, 5120, 6003, 6748], "queries": {"click": {"state": {"target": [], "time": []}, "edge": {"target": [], "time": []}}, "mouseover": {"state": {"target": [], "time": []}, "edge": {"target": [], "time": []}}, "mouseout": {"state": {"target": ["0"], "time": [1986]}, "edge": {"target": [], "time": []}}}, "displayed_time": "16.31", "trialTime": 17771, "trial_type": "mouselab-mdp", "trial_index": 53, "time_elapsed": 1528282, "internal_node_id": "0.0-6.0-1.0-38.0"}}, {"uniqueid": "w42065376:a95589070", "current_trial": 54, "dateTime": 1693390652545, "trialdata": {"revealed_states": [], "clicked_states": [], "num_clicks_accrued": [0, 0, 0, 0, 0, 0, 0, 0, 0, 0, 0, 0, 0], "stateRewards": ["", -2, 2, -5, 1, 42, -63, -58, -6, 2, 16, 81, -2, 4, 7, -10, 33, 3, -33, -2, -52, -84, -27, 2, -3, -3, 15, -74, -14, -5, -5, -84, 79, -31], "withholdReward": false, "trial_id": "mdp_trial_40", "block": "test", "trialIndex": 43, "score": 32, "costs": 0, "simulationMode": [null, null, null, null, null], "rewards": [-2, 4, 7, -10, 33], "path": ["0", "0", "12", "13", "14", "15", "16"], "rt": [1689, 148, 215, 79, 58], "actions": ["right", "right", "right", "up", "up"], "actionTimes": [5850, 6516, 7232, 7829, 8408], "queries": {"click": {"state": {"target": [], "time": []}, "edge": {"target": [], "time": []}}, "mouseover": {"state": {"target": [], "time": []}, "edge": {"target": [], "time": []}}, "mouseout": {"state": {"target": ["0", "10", "0", "12"], "time": [1085, 1448, 10215, 10547]}, "edge": {"target": [], "time": []}}}, "displayed_time": "18.16", "trialTime": 19577, "trial_type": "mouselab-mdp", "trial_index": 54, "time_elapsed": 1548397, "internal_node_id": "0.0-6.0-1.0-39.0"}}, {"uniqueid": "w42065376:a95589070", "current_trial": 55, "dateTime": 1693390723462, "trialdata": {"rt": 70913, "response": {"Q0": "$-2 to $2", "Q1": "$-4 to $4", "Q2": "$-32 to $32", "Q3": "The cost for clicking on nodes varied between nodes.", "Q4": "Very motivated"}, "question_order": [0, 1, 2, 3, 4], "trial_id": "final_quiz_control", "trial_type": "survey-multi-choice", "trial_index": 55, "time_elapsed": 1619314, "internal_node_id": "0.0-6.0-2.0"}}, {"uniqueid": "w42065376:a95589070", "current_trial": 56, "dateTime": 1693390829114, "trialdata": {"rt": 105643, "response": {"Q0": "I would try to move the spider in the exact position but using different nodes in different directions", "Q1": "no i did not improve", "Q2": "It was difficult as I can never be sure of the outcome "}, "trial_id": "self_report_control", "trial_type": "survey-text", "trial_index": 56, "time_elapsed": 1724967, "internal_node_id": "0.0-6.0-3.0"}}, {"uniqueid": "w42065376:a95589070", "current_trial": 57, "dateTime": 1693390860225, "trialdata": {"rt": 31105, "response": {"gender": "female", "age": "31", "colorblind": "0", "effort": "0"}, "trial_type": "survey-html-form", "trial_index": 57, "time_elapsed": 1756078, "internal_node_id": "0.0-6.0-4.0"}}, {"uniqueid": "w42065376:a95589070", "current_trial": 58, "dateTime": 1693390941201, "trialdata": {"rt": 80969, "response": {"Q0": "nothing was confusing about the game", "Q1": "No I have not participated before", "Q2": "It was very interesting to participate."}, "trial_type": "survey-text", "trial_index": 58, "time_elapsed": 1837054, "internal_node_id": "0.0-6.0-5.0"}}, {"uniqueid": "w42065376:a95589070", "current_trial": 59, "dateTime": 1693390999085, "trialdata": {"rt": 57879, "stimulus": "<h1>Completion Code Instructions (1/2)</h1>\n<br><br><br><br>\nYou have reached the end of the experiment! The completion code consists of two parts: (1) a code with 2 characters (2) a code with 6 characters. On this page, you will receive the second part of the code. The first part of the completion code will be on the next page.\n<br><br>\nThe second part of your completion code is: <b>EWEK22</b>\n<br><br>\nPlease note this down. Then, press 'Finish HIT' in order to find the first part of your completion code. Once the data has been saved, you will receive this code either in this window or in the original browser window where you started the experiment.\n", "response": 0, "trial_type": "html-button-response", "trial_index": 59, "time_elapsed": 1894938, "internal_node_id": "0.0-6.0-6.0"}}, {"uniqueid": "w42065376:a95589070", "current_trial": 60, "dateTime": 1693391000090, "trialdata": {"success": true, "trial_type": "fullscreen", "trial_index": 60, "time_elapsed": 1895943, "internal_node_id": "0.0-7.0"}}], "questiondata": {"params": {"CODE": "C6DMOQA6", "MIN_TIME": 14, "inspectCost": 1, "startTime": "Wed Aug 30 2023 11:51:42 GMT+0200 (South Africa Standard Time)", "bonusRate": 0.002, "variance": "1_2_4_8_44", "branching": "31123"}, "final_score": -165}, "eventdata": [{"eventtype": "initialized", "value": null, "timestamp": 1693389101245, "interval": 0}, {"eventtype": "window_resize", "value": [1024, 768], "timestamp": 1693389101245, "interval": 0}, {"eventtype": "window_resize", "value": [1024, 768], "timestamp": 1693389101821, "interval": 576}, {"eventtype": "focus", "value": "off", "timestamp": 1693389109289, "interval": 7468}, {"eventtype": "focus", "value": "on", "timestamp": 1693389120956, "interval": 11667}, {"eventtype": "window_resize", "value": [1600, 900], "timestamp": 1693389121322, "interval": 366}, {"eventtype": "focus", "value": "off", "timestamp": 1693389619947, "interval": 498625}, {"eventtype": "focus", "value": "on", "timestamp": 1693389619947, "interval": 0}, {"eventtype": "window_resize", "value": [1024, 768], "timestamp": 1693389620162, "interval": 215}, {"eventtype": "window_resize", "value": [1600, 900], "timestamp": 1693389624812, "interval": 4650}, {"eventtype": "window_resize", "value": [1024, 768], "timestamp": 1693390999387, "interval": 1374575}], "useragent": "Mozilla/5.0 (Windows NT 10.0; Win64; x64) AppleWebKit/537.36 (KHTML, like Gecko) Chrome/116.0.0.0 Safari/537.36 Edg/116.0.1938.62", "mode": "live", "id": "w42065376:a95589070", "status": "user data saved", "Beginhit": "2023-08-30 09:51:36.295232", "Beginexp": "2023-08-30 09:52:02.376485", "Endhit": "2023-08-30 10:23:22.036504", "psiturkStatus": 3, "browser": "<redacted>", "platform": "windows", "language": "en-US"}