{"condition": 0, "counterbalance": 0, "assignmentId": "a58111371", "workerId": "w96739833", "hitId": "h48202177", "currenttrial": 6, "bonus": 0, "data": [{"uniqueid": "w96739833:a58111371", "current_trial": 0, "dateTime": 1693580429652, "trialdata": {"success": true, "trial_type": "fullscreen", "trial_index": 0, "time_elapsed": 7951, "internal_node_id": "0.0-0.0"}}, {"uniqueid": "w96739833:a58111371", "current_trial": 1, "dateTime": 1693580453822, "trialdata": {"view_history": [{"page_index": 0, "viewing_time": 24157}], "rt": 24158, "trial_id": "exp_instructions_control", "trial_type": "instructions", "trial_index": 1, "time_elapsed": 32122, "internal_node_id": "0.0-1.0"}}, {"uniqueid": "w96739833:a58111371", "current_trial": 2, "dateTime": 1693580772063, "trialdata": {"view_history": [{"page_index": 0, "viewing_time": 74454}, {"page_index": 1, "viewing_time": 119427}, {"page_index": 2, "viewing_time": 74151}, {"page_index": 3, "viewing_time": 50206}], "rt": 318239, "trial_id": "mouselab_instructions_1_control", "trial_type": "instructions", "trial_index": 2, "time_elapsed": 350363, "internal_node_id": "0.0-2.0-1.0"}}, {"uniqueid": "w96739833:a58111371", "current_trial": 3, "dateTime": 1693580816277, "trialdata": {"revealed_states": [], "clicked_states": ["23"], "num_clicks_accrued": [0, 0, 0, 0, 0, 0, 0, 0, 0, 0, 0, 0, 0], "stateRewards": ["", -10, -10, 10, 10, 10, -10, 10, 10, -10, 10, 10, -10, -10, -10, -10, -10, -10, 10, -10, -10, -10, -10, -10, -10, -10, -10, 10, 10, 10, -10, -10, 10, -10], "withholdReward": false, "trial_id": "practice_1", "block": "test", "trialIndex": 0, "score": -47, "costs": -0.5, "simulationMode": [null, null, null, null, null, null], "rewards": [-10, -10, -10, -10, -10], "path": ["0", "0", "23", "24", "25", "30", "31"], "rt": [8541, 2703, 1620, 781, 573, 62], "actions": ["left", "left", "left", "left", "down", "right"], "actionTimes": [14436, 17160, 19351, 20661, 21771, 22376], "queries": {"click": {"state": {"target": ["23"], "time": [13447]}, "edge": {"target": [], "time": []}}, "mouseover": {"state": {"target": ["23"], "time": [12860]}, "edge": {"target": [], "time": []}}, "mouseout": {"state": {"target": ["0", "21", "14", "0", "23", "24", "24", "23", "24", "25", "24", "21"], "time": [1890, 2005, 2925, 12619, 25430, 25515, 27264, 28130, 29281, 32486, 32698, 34498]}, "edge": {"target": [], "time": []}}}, "displayed_time": "22.95", "trialTime": 38685, "trial_type": "mouselab-mdp", "trial_index": 3, "time_elapsed": 394574, "internal_node_id": "0.0-2.0-2.0-0.0"}}, {"uniqueid": "w96739833:a58111371", "current_trial": 4, "dateTime": 1693580894153, "trialdata": {"revealed_states": [], "clicked_states": ["1", "2", "3", "8", "11", "12", "13", "15", "16", "17", "23", "24", "25", "26", "27"], "num_clicks_accrued": [0, 0, 0, 0, 0, 0, 0, 0, 0, 0, 0, 0, 0], "stateRewards": ["", 10, -10, -10, -10, -10, 10, -10, 10, 10, 10, -10, -10, 10, -10, -10, -10, -10, 10, -10, -10, 10, -10, -10, 10, 10, -10, 10, 10, -10, -10, -10, -10, -10], "withholdReward": false, "trial_id": "practice_2", "block": "test", "trialIndex": 1, "score": -34, "costs": -7.5, "simulationMode": [null, null, null, null, null], "rewards": [-10, 10, -10, -10, -10], "path": ["0", "0", "12", "13", "14", "15", "16"], "rt": [62243, 1375, 586, 1439, 752], "actions": ["right", "right", "right", "up", "up"], "actionTimes": [66025, 67947, 69108, 71087, 72397], "queries": {"click": {"state": {"target": ["1", "2", "3", "8", "11", "12", "13", "15", "16", "17", "23", "24", "25", "26", "27"], "time": [7911, 9443, 11268, 12893, 14216, 21308, 23926, 26441, 27543, 31311, 34712, 37620, 38919, 41982, 43367]}, "edge": {"target": [], "time": []}}, "mouseover": {"state": {"target": ["1", "2", "3", "8", "11", "0", "0", "12", "13", "18", "15", "15", "16", "1", "18", "15", "17", "0", "23", "24", "25", "26", "27", "0", "1", "1", "0", "21"], "time": [6916, 8783, 10683, 12352, 13592, 17886, 19656, 20656, 23574, 24351, 25615, 26056, 27156, 29724, 30378, 30712, 30773, 33117, 33913, 37176, 38466, 41301, 42672, 45694, 48744, 52811, 58196, 59563]}, "edge": {"target": [], "time": []}}, "mouseout": {"state": {"target": ["19", "22", "0", "1", "2", "3", "8", "11", "11", "0", "0", "12", "12", "13", "18", "15", "15", "16", "16", "1", "18", "15", "17", "0", "23", "23", "23", "23", "24", "25", "25", "26", "27", "27", "26", "0", "1", "1", "0", "21"], "time": [1861, 1879, 6688, 8553, 10422, 12240, 13573, 14361, 17824, 17908, 19710, 22212, 22506, 24301, 25594, 25648, 27071, 27660, 29641, 29778, 30690, 30747, 32416, 33825, 35518, 35978, 36142, 37108, 38283, 39418, 40392, 42651, 43536, 44452, 44777, 48245, 52361, 54836, 58413, 59590]}, "edge": {"target": [], "time": []}}}, "displayed_time": "72.93", "trialTime": 76080, "trial_type": "mouselab-mdp", "trial_index": 4, "time_elapsed": 472452, "internal_node_id": "0.0-2.0-2.0-1.0"}}, {"uniqueid": "w96739833:a58111371", "current_trial": 5, "dateTime": 1693580947871, "trialdata": {"view_history": [{"page_index": 0, "viewing_time": 44288}, {"page_index": 1, "viewing_time": 9422}], "rt": 53712, "trial_id": "mouselab_instructions_2_control", "trial_type": "instructions", "trial_index": 5, "time_elapsed": 526171, "internal_node_id": "0.0-2.0-3.0"}}], "questiondata": {"params": {"CODE": "C6DMOQA6", "MIN_TIME": 14, "inspectCost": 1, "startTime": "Fri Sep 01 2023 17:00:08 GMT+0200 (South Africa Standard Time)", "bonusRate": 0.002, "variance": "1_2_4_8_44", "branching": "31123"}}, "eventdata": [{"eventtype": "initialized", "value": null, "timestamp": 1693580407257, "interval": 0}, {"eventtype": "window_resize", "value": [1366, 670], "timestamp": 1693580407257, "interval": 0}, {"eventtype": "window_resize", "value": [1366, 670], "timestamp": 1693580407876, "interval": 619}, {"eventtype": "window_resize", "value": [1366, 768], "timestamp": 1693580429111, "interval": 21235}], "useragent": "Mozilla/5.0 (Windows NT 10.0; Win64; x64) AppleWebKit/537.36 (KHTML, like Gecko) Chrome/116.0.0.0 Safari/537.36", "mode": "live", "id": "w96739833:a58111371", "status": "user data saved", "Beginhit": "2023-09-01 14:59:07.552847", "Beginexp": "2023-09-01 14:59:47.539334", "Endhit": null, "psiturkStatus": 2, "browser": "<redacted>", "platform": "windows", "language": "en-US", "excludeReason": "quizfail"}