{"condition": 1, "counterbalance": 0, "assignmentId": "a28765289", "workerId": "w46029361", "hitId": "h85634053", "currenttrial": 10, "bonus": 0, "data": [{"uniqueid": "w46029361:a28765289", "current_trial": 0, "dateTime": 1693563759999, "trialdata": {"success": true, "trial_type": "fullscreen", "trial_index": 0, "time_elapsed": 2252, "internal_node_id": "0.0-0.0"}}, {"uniqueid": "w46029361:a28765289", "current_trial": 1, "dateTime": 1693563760523, "trialdata": {"view_history": [{"page_index": 0, "viewing_time": 521}], "rt": 521, "trial_id": "exp_instructions_misaligned", "trial_type": "instructions", "trial_index": 1, "time_elapsed": 2776, "internal_node_id": "0.0-1.0"}}, {"uniqueid": "w46029361:a28765289", "current_trial": 2, "dateTime": 1693563764194, "trialdata": {"view_history": [{"page_index": 0, "viewing_time": 1209}, {"page_index": 1, "viewing_time": 1267}, {"page_index": 2, "viewing_time": 676}, {"page_index": 3, "viewing_time": 518}], "rt": 3670, "trial_id": "mouselab_instructions_1_misaligned", "trial_type": "instructions", "trial_index": 2, "time_elapsed": 6447, "internal_node_id": "0.0-2.0-1.0"}}, {"uniqueid": "w46029361:a28765289", "current_trial": 3, "dateTime": 1693563772366, "trialdata": {"revealed_states": [], "clicked_states": ["12", "18"], "num_clicks_accrued": [0, 0, 0, 0, 0, 0, 0, 0, 0, 0, 0, 0, 0], "stateRewards": ["", -10, 10, 10, 10, -10, -10, 10, 10, 10, -10, -10, -10, 10, 10, 10, 10, 10, 10, -10, 10, -10, -10, 10, 10, -10, -10, -10, 10, -10, 10, -10, 10, 10], "withholdReward": false, "trial_id": "practice_1", "block": "test", "trialIndex": 0, "score": 32.5, "costs": -1, "simulationMode": [null, null, null, null, null, null], "rewards": [-10, 10, 10, 10, 10], "path": ["0", "0", "12", "13", "14", "15", "16"], "rt": [2480, 146, 101, 110, 123, 151], "actions": ["right", "right", "right", "right", "up", "up"], "actionTimes": [3451, 3599, 4217, 4845, 5488, 6151], "queries": {"click": {"state": {"target": ["12", "18"], "time": [1267, 2458]}, "edge": {"target": [], "time": []}}, "mouseover": {"state": {"target": ["12", "18", "15", "17"], "time": [1219, 1584, 2716, 2756]}, "edge": {"target": [], "time": []}}, "mouseout": {"state": {"target": ["2", "0", "12", "18", "15"], "time": [400, 982, 1273, 2682, 2734]}, "edge": {"target": [], "time": []}}}, "displayed_time": "6.67", "trialTime": 7783, "trial_type": "mouselab-mdp", "trial_index": 3, "time_elapsed": 14618, "internal_node_id": "0.0-2.0-2.0-0.0"}}, {"uniqueid": "w46029361:a28765289", "current_trial": 4, "dateTime": 1693563779477, "trialdata": {"revealed_states": [], "clicked_states": ["23", "28"], "num_clicks_accrued": [0, 0, 0, 0, 0, 0, 0, 0, 0, 0, 0, 0, 0], "stateRewards": ["", -10, 10, 10, 10, 10, -10, 10, 10, 10, -10, 10, -10, 10, 10, 10, 10, 10, -10, -10, -10, -10, 10, 10, 10, -10, -10, 10, 10, -10, -10, 10, -10, 10], "withholdReward": false, "trial_id": "practice_2", "block": "test", "trialIndex": 1, "score": 12.5, "costs": -1, "simulationMode": [null, null, null, null, null, null], "rewards": [10, 10, -10, -10, 10], "path": ["0", "0", "23", "24", "25", "26", "28"], "rt": [2372, 152, 79, 151, 39, 232], "actions": ["left", "left", "left", "left", "up", "right"], "actionTimes": [3472, 3626, 4225, 4897, 5454, 6195], "queries": {"click": {"state": {"target": ["23", "28"], "time": [1530, 2557]}, "edge": {"target": [], "time": []}}, "mouseover": {"state": {"target": ["23", "28", "1"], "time": [1415, 1697, 2861]}, "edge": {"target": [], "time": []}}, "mouseout": {"state": {"target": ["17", "15", "18", "24", "23", "0", "23", "28", "1"], "time": [198, 265, 297, 583, 716, 1117, 1646, 2829, 2880]}, "edge": {"target": [], "time": []}}}, "displayed_time": "6.71", "trialTime": 6847, "trial_type": "mouselab-mdp", "trial_index": 4, "time_elapsed": 21729, "internal_node_id": "0.0-2.0-2.0-1.0"}}, {"uniqueid": "w46029361:a28765289", "current_trial": 5, "dateTime": 1693563782719, "trialdata": {"view_history": [{"page_index": 0, "viewing_time": 1908}, {"page_index": 1, "viewing_time": 1330}], "rt": 3239, "trial_id": "mouselab_instructions_2_misaligned", "trial_type": "instructions", "trial_index": 5, "time_elapsed": 24972, "internal_node_id": "0.0-2.0-3.0"}}, {"uniqueid": "w46029361:a28765289", "current_trial": 6, "dateTime": 1693563787880, "trialdata": {"rt": 5156, "response": {"Q0": "The cost for clicking on nodes may vary between nodes.", "Q1": "The better I perform the higher my bonus will be.", "Q2": "No, the amount of cash at each node of the web may be different each time.", "Q3": "To get the highest total score.", "Q4": "Only before moving the spider.", "Q5": "3 seconds"}, "question_order": [0, 1, 2, 3, 4, 5], "correct": {"Q0": "The cost for clicking on nodes may vary between nodes.", "Q1": "The better I perform the higher my bonus will be.", "Q2": "No, the amount of cash at each node of the web may be different each time.", "Q3": "To get the highest total score.", "Q4": "Only before moving the spider.", "Q5": "3 seconds"}, "trial_id": "mouselab_quiz_misaligned", "trial_type": "survey-multi-choice", "trial_index": 6, "time_elapsed": 30132, "internal_node_id": "0.0-2.0-4.0"}}, {"uniqueid": "w46029361:a28765289", "current_trial": 7, "dateTime": 1693563789944, "trialdata": {"rt": 2057, "response": {"Q0": "No"}, "question_order": [0], "trial_id": "repeat_check", "trial_type": "survey-multi-choice", "trial_index": 7, "time_elapsed": 32197, "internal_node_id": "0.0-4.0-0.0"}}, {"uniqueid": "w46029361:a28765289", "current_trial": 8, "dateTime": 1693563791333, "trialdata": {"rt": 1382, "stimulus": "\n<h1> Get ready to start the game! </h1>\n\nThank you for reading the instructions. Get ready start with the 40 rounds of this game.\n<br><br>\nIf you need to take a break, feel free to take one after the end of a round, before continuing to the next one.\n<br><br>\nRemember, the more money the spider gets, the bigger your bonus will be!\n<br><br>\n<div style='text-align: center;'>Press <code>space</code> to begin.</div>\n\n<br><br>\n(If, at any point, the <code>space</code> key does not take you to the next page, click once on the text and try again.)", "response": " ", "trial_id": "mdp_ready", "trial_type": "html-keyboard-response", "trial_index": 8, "time_elapsed": 33586, "internal_node_id": "0.0-6.0-0.0"}}, {"uniqueid": "w46029361:a28765289", "current_trial": 9, "dateTime": 1693563821746, "trialdata": {"revealed_states": [], "clicked_states": ["12", "18", "15", "13", "14", "16", "19", "20", "22", "1", "23", "24", "26", "25", "27"], "num_clicks_accrued": [0, 0, 0, 0, 0, 0, 0, 0, 0, 0, 0, 0, 0], "stateRewards": ["", 2, 4, -5, 7, 81, 35, 6, 11, 14, -72, 42, -1, 2, 3, -7, -77, -44, -40, -15, -85, 51, -32, -2, -1, -5, 7, -74, 47, 52, 16, -49, 48, -46], "withholdReward": false, "trial_id": "mdp_trial_1", "block": "test", "trialIndex": 2, "score": 28.75, "costs": -17.25, "simulationMode": [null, null, null, null, null], "rewards": [-2, -1, -5, 7, 47], "path": ["0", "0", "23", "24", "25", "26", "28"], "rt": [25811, 124, 126, 1, 130], "actions": ["left", "left", "left", "up", "right"], "actionTimes": [26832, 27483, 28130, 28643, 29301], "queries": {"click": {"state": {"target": ["12", "18", "15", "13", "14", "16", "19", "20", "22", "1", "23", "24", "26", "25", "27"], "time": [1584, 1913, 4946, 5274, 5972, 6729, 10765, 11371, 14558, 17931, 19476, 19836, 20647, 21447, 22815]}, "edge": {"target": [], "time": []}}, "mouseover": {"state": {"target": ["12", "12", "18", "13", "15", "15", "13", "14", "16", "17", "17", "19", "20", "22", "22", "1", "23", "23", "24", "28", "26", "25", "28", "27"], "time": [1102, 1455, 1753, 2521, 4352, 4537, 5217, 5799, 6414, 7099, 10333, 10666, 11062, 12742, 14494, 16127, 19131, 19391, 19673, 20173, 20557, 20888, 21755, 22724]}, "edge": {"target": [], "time": []}}, "mouseout": {"state": {"target": ["3", "2", "1", "0", "0", "12", "12", "18", "13", "15", "15", "13", "14", "15", "16", "16", "17", "17", "19", "20", "22", "22", "1", "23", "23", "24", "28", "26", "25", "28", "27"], "time": [254, 269, 322, 352, 1088, 1152, 1703, 2469, 3735, 4403, 5116, 5649, 6297, 6399, 6791, 6981, 8247, 10366, 10962, 11679, 14246, 14678, 18327, 19209, 19622, 20105, 20522, 20808, 21672, 22672, 23090]}, "edge": {"target": [], "time": []}}}, "displayed_time": "29.82", "trialTime": 30133, "trial_type": "mouselab-mdp", "trial_index": 9, "time_elapsed": 63998, "internal_node_id": "0.0-6.0-1.0-0.0"}}], "questiondata": {"params": {"CODE": "C6DMOQA6", "MIN_TIME": 14, "inspectCost": 1, "startTime": "Fri Sep 01 2023 12:22:36 GMT+0200 (Central European Summer Time)", "bonusRate": 0.002, "variance": "1_2_4_8_44", "branching": "31123"}}, "eventdata": [{"eventtype": "initialized", "value": null, "timestamp": 1693563756265, "interval": 0}, {"eventtype": "window_resize", "value": [1024, 736], "timestamp": 1693563756265, "interval": 0}, {"eventtype": "window_resize", "value": [1024, 736], "timestamp": 1693563756632, "interval": 367}, {"eventtype": "window_resize", "value": [1440, 900], "timestamp": 1693563759319, "interval": 2687}], "useragent": "Mozilla/5.0 (Macintosh; Intel Mac OS X 10_15_7) AppleWebKit/537.36 (KHTML, like Gecko) Chrome/115.0.0.0 Safari/537.36", "mode": "debug", "id": "w46029361:a28765289", "status": "user data saved", "Beginhit": "2023-09-01 10:22:35.043716", "Beginexp": "2023-09-01 10:22:40.207794", "Endhit": null, "psiturkStatus": 2, "browser": "<redacted>", "platform": "macos", "language": "en-US", "excludeReason": "dataincomplete"}