{"condition": 1, "counterbalance": 0, "assignmentId": "a81404209", "workerId": "w79800428", "hitId": "h78626593", "currenttrial": 55, "bonus": 0, "data": [{"uniqueid": "w79800428:a81404209", "current_trial": 0, "dateTime": 1693842853478, "trialdata": {"success": true, "trial_type": "fullscreen", "trial_index": 0, "time_elapsed": 5424, "internal_node_id": "0.0-0.0"}}, {"uniqueid": "w79800428:a81404209", "current_trial": 1, "dateTime": 1693842911460, "trialdata": {"view_history": [{"page_index": 0, "viewing_time": 57976}], "rt": 57976, "trial_id": "exp_instructions_control", "trial_type": "instructions", "trial_index": 1, "time_elapsed": 63406, "internal_node_id": "0.0-1.0"}}, {"uniqueid": "w79800428:a81404209", "current_trial": 2, "dateTime": 1693843014288, "trialdata": {"view_history": [{"page_index": 0, "viewing_time": 34273}, {"page_index": 1, "viewing_time": 42369}, {"page_index": 2, "viewing_time": 15130}, {"page_index": 3, "viewing_time": 11055}], "rt": 102827, "trial_id": "mouselab_instructions_1_control", "trial_type": "instructions", "trial_index": 2, "time_elapsed": 166235, "internal_node_id": "0.0-2.0-1.0"}}, {"uniqueid": "w79800428:a81404209", "current_trial": 3, "dateTime": 1693843051068, "trialdata": {"revealed_states": [], "clicked_states": ["9", "5", "6", "16", "17", "20", "21", "22", "32", "33", "29", "27"], "num_clicks_accrued": [0, 0, 0, 0, 0, 0, 0, 0, 0, 0, 0, 0, 0], "stateRewards": ["", 10, -10, 10, -10, 10, 10, -10, -10, -10, -10, 10, -10, 10, -10, -10, 10, 10, -10, -10, -10, 10, -10, 10, 10, 10, 10, -10, 10, 10, 10, -10, -10, 10], "withholdReward": false, "trial_id": "practice_1", "block": "test", "trialIndex": 0, "score": -12.5, "costs": -6, "simulationMode": [null, null, null, null, null], "rewards": [-10, 10, -10, -10, 10], "path": ["0", "0", "12", "13", "14", "19", "21"], "rt": [26570, 430, 383, 335, 298], "actions": ["right", "right", "right", "down", "down"], "actionTimes": [29417, 30348, 31238, 32073, 32874], "queries": {"click": {"state": {"target": ["9", "5", "6", "16", "17", "20", "21", "22", "32", "33", "29", "27"], "time": [4055, 5939, 7567, 9036, 10680, 12676, 14265, 16547, 20484, 21762, 23196, 24611]}, "edge": {"target": [], "time": []}}, "mouseover": {"state": {"target": ["1", "8", "9", "5", "6", "16", "16", "17", "14", "20", "21", "19", "22", "14", "13", "12", "23", "30", "32", "33", "29", "27", "27", "1", "12", "13", "19", "17"], "time": [3384, 3446, 3692, 4755, 6488, 8151, 8493, 9464, 12155, 12434, 13656, 15035, 15543, 18239, 18577, 18814, 19815, 20061, 20232, 21436, 22869, 23986, 24298, 26192, 26207, 26222, 26253, 26577]}, "edge": {"target": [], "time": []}}, "mouseout": {"state": {"target": ["12", "1", "2", "2", "1", "0", "1", "8", "9", "5", "5", "6", "16", "16", "17", "17", "14", "20", "21", "19", "22", "14", "13", "12", "23", "30", "32", "33", "29", "27", "27", "1", "12", "13", "19", "17"], "time": [471, 654, 804, 1297, 1411, 1683, 3394, 3650, 4412, 6116, 6430, 8086, 8251, 9414, 10899, 11560, 12193, 13252, 14964, 15169, 18123, 18360, 18594, 19751, 19898, 20139, 20602, 22361, 23288, 24095, 26161, 26203, 26215, 26229, 26299, 26636]}, "edge": {"target": [], "time": []}}}, "displayed_time": "33.38", "trialTime": 36375, "trial_type": "mouselab-mdp", "trial_index": 3, "time_elapsed": 203014, "internal_node_id": "0.0-2.0-2.0-0.0"}}, {"uniqueid": "w79800428:a81404209", "current_trial": 4, "dateTime": 1693843064655, "trialdata": {"revealed_states": [], "clicked_states": ["32", "27"], "num_clicks_accrued": [0, 0, 0, 0, 0, 0, 0, 0, 0, 0, 0, 0, 0], "stateRewards": ["", 10, -10, -10, 10, -10, 10, 10, 10, -10, 10, -10, 10, -10, 10, 10, -10, 10, -10, -10, -10, 10, 10, -10, 10, -10, 10, 10, 10, 10, -10, 10, 10, -10], "withholdReward": false, "trial_id": "practice_2", "block": "test", "trialIndex": 1, "score": 12.5, "costs": -1, "simulationMode": [null, null, null, null, null], "rewards": [-10, 10, -10, 10, 10], "path": ["0", "0", "23", "24", "25", "26", "27"], "rt": [5980, 262, 198, 234, 240], "actions": ["left", "left", "left", "up", "up"], "actionTimes": [8569, 9335, 10033, 10770, 11513], "queries": {"click": {"state": {"target": ["32", "27"], "time": [4166, 5800]}, "edge": {"target": [], "time": []}}, "mouseover": {"state": {"target": ["23", "30", "32", "27", "27", "28", "12", "22", "12", "13", "14", "20"], "time": [3084, 3112, 3780, 5486, 5548, 6305, 6376, 6438, 6913, 7059, 7077, 7113]}, "edge": {"target": [], "time": []}}, "mouseout": {"state": {"target": ["14", "18", "23", "30", "32", "27", "27", "28", "12", "22", "12", "13", "14", "20"], "time": [1818, 2031, 3100, 3129, 4750, 5508, 6284, 6313, 6397, 6877, 7040, 7069, 7092, 7133]}, "edge": {"target": [], "time": []}}}, "displayed_time": "12.02", "trialTime": 13498, "trial_type": "mouselab-mdp", "trial_index": 4, "time_elapsed": 216601, "internal_node_id": "0.0-2.0-2.0-1.0"}}, {"uniqueid": "w79800428:a81404209", "current_trial": 5, "dateTime": 1693843075859, "trialdata": {"view_history": [{"page_index": 0, "viewing_time": 8558}, {"page_index": 1, "viewing_time": 2643}], "rt": 11202, "trial_id": "mouselab_instructions_2_control", "trial_type": "instructions", "trial_index": 5, "time_elapsed": 227806, "internal_node_id": "0.0-2.0-3.0"}}, {"uniqueid": "w79800428:a81404209", "current_trial": 6, "dateTime": 1693843102134, "trialdata": {"rt": 26272, "response": {"Q0": "The cost for clicking on nodes may vary between nodes.", "Q1": "The better I perform the higher my bonus will be.", "Q2": "No, the amount of cash at each node of the web may be different each time.", "Q3": "To get the highest total score.", "Q4": "Only before moving the spider.", "Q5": "3 seconds"}, "question_order": [0, 1, 2, 3, 4, 5], "correct": {"Q0": "The cost for clicking on nodes may vary between nodes.", "Q1": "The better I perform the higher my bonus will be.", "Q2": "No, the amount of cash at each node of the web may be different each time.", "Q3": "To get the highest total score.", "Q4": "Only before moving the spider.", "Q5": "3 seconds"}, "trial_id": "mouselab_quiz_control", "trial_type": "survey-multi-choice", "trial_index": 6, "time_elapsed": 254081, "internal_node_id": "0.0-2.0-4.0"}}, {"uniqueid": "w79800428:a81404209", "current_trial": 7, "dateTime": 1693843106654, "trialdata": {"rt": 4517, "response": {"Q0": "No"}, "question_order": [0], "trial_id": "repeat_check", "trial_type": "survey-multi-choice", "trial_index": 7, "time_elapsed": 258601, "internal_node_id": "0.0-4.0-0.0"}}, {"uniqueid": "w79800428:a81404209", "current_trial": 8, "dateTime": 1693843108793, "trialdata": {"rt": 2136, "stimulus": "\n<h1> Get ready to start the game! </h1>\n\nThank you for reading the instructions. Get ready start with the 40 rounds of this game.\n<br><br>\nIf you need to take a break, feel free to take one after the end of a round, before continuing to the next one.\n<br><br>\nRemember, the more money the spider gets, the bigger your bonus will be!\n<br><br>\n<div style='text-align: center;'>Press <code>space</code> to begin.</div>\n\n<br><br>\n(If, at any point, the <code>space</code> key does not take you to the next page, click once on the text and try again.)", "response": " ", "trial_id": "mdp_ready", "trial_type": "html-keyboard-response", "trial_index": 8, "time_elapsed": 260739, "internal_node_id": "0.0-6.0-0.0"}}, {"uniqueid": "w79800428:a81404209", "current_trial": 9, "dateTime": 1693843132380, "trialdata": {"revealed_states": [], "clicked_states": ["21", "16", "27", "29", "33", "32"], "num_clicks_accrued": [0, 0, 0, 0, 0, 0, 0, 0, 0, 0, 0, 0, 0], "stateRewards": ["", -2, 2, -5, 1, 42, -63, -58, -6, 2, 16, 81, -2, 4, 7, -10, 33, 3, -33, -2, -52, -84, -27, 2, -3, -3, 15, -74, -14, -5, -5, -84, 79, -31], "withholdReward": false, "trial_id": "mdp_trial_1", "block": "test", "trialIndex": 2, "score": 61.6, "costs": -8.4, "simulationMode": [null, null, null, null, null], "rewards": [2, -3, -3, -5, 79], "path": ["0", "0", "23", "24", "25", "30", "32"], "rt": [17441, 179, 127, 67, 100], "actions": ["left", "left", "left", "down", "down"], "actionTimes": [19030, 19715, 20342, 20911, 21519], "queries": {"click": {"state": {"target": ["21", "16", "27", "29", "33", "32"], "time": [2685, 4928, 8064, 10449, 12520, 14577]}, "edge": {"target": [], "time": []}}, "mouseover": {"state": {"target": ["12", "22", "19", "21", "19", "14", "15", "16", "16", "13", "24", "25", "28", "25", "30", "29", "27", "26", "29", "33", "30", "32", "32", "31", "31"], "time": [1977, 2044, 2098, 2346, 3162, 3179, 3201, 3486, 4161, 5474, 5595, 6507, 6581, 6915, 6965, 7419, 7583, 8775, 9562, 11608, 13667, 13858, 14184, 15750, 16494]}, "edge": {"target": [], "time": []}}, "mouseout": {"state": {"target": ["0", "12", "22", "19", "21", "19", "14", "15", "16", "16", "13", "24", "25", "28", "25", "30", "29", "27", "26", "29", "33", "30", "32", "32", "31", "31"], "time": [1188, 1994, 2056, 2119, 3145, 3173, 3195, 3236, 3832, 5445, 5482, 5641, 6528, 6682, 6943, 7128, 7469, 8745, 8837, 11458, 13575, 13775, 13867, 15679, 16310, 17018]}, "edge": {"target": [], "time": []}}}, "displayed_time": "22.02", "trialTime": 23459, "trial_type": "mouselab-mdp", "trial_index": 9, "time_elapsed": 284326, "internal_node_id": "0.0-6.0-1.0-0.0"}}, {"uniqueid": "w79800428:a81404209", "current_trial": 10, "dateTime": 1693843154015, "trialdata": {"revealed_states": [], "clicked_states": ["5", "9", "11", "10", "6", "7"], "num_clicks_accrued": [0, 0, 0, 0, 0, 0, 0, 0, 0, 0, 0, 0, 0], "stateRewards": ["", 2, 3, -1, 16, -78, -11, 46, 2, -20, 79, -67, 2, 3, 2, 11, -83, -42, -58, -11, -67, -22, 55, 2, -1, -1, -16, -83, -82, 23, -11, -29, 13, 13], "withholdReward": false, "trial_id": "mdp_trial_2", "block": "test", "trialIndex": 3, "score": 76.6, "costs": -8.4, "simulationMode": [null, null, null, null, null], "rewards": [2, 3, -1, 2, 79], "path": ["0", "0", "1", "2", "3", "8", "10"], "rt": [15806, 114, 87, 13, 68], "actions": ["up", "up", "up", "left", "down"], "actionTimes": [17412, 18027, 18620, 19134, 19706], "queries": {"click": {"state": {"target": ["5", "9", "11", "10", "6", "7"], "time": [2713, 5001, 6999, 8974, 11734, 13670]}, "edge": {"target": [], "time": []}}, "mouseover": {"state": {"target": ["5", "9", "11", "10", "2", "6", "6", "7", "18"], "time": [2349, 3468, 6252, 7952, 9586, 10211, 11381, 12669, 16498]}, "edge": {"target": [], "time": []}}, "mouseout": {"state": {"target": ["0", "5", "5", "9", "11", "10", "2", "6", "6", "7", "18"], "time": [1966, 2812, 3199, 6173, 7552, 9565, 9598, 11027, 12469, 16424, 16540]}, "edge": {"target": [], "time": []}}}, "displayed_time": "20.21", "trialTime": 21545, "trial_type": "mouselab-mdp", "trial_index": 10, "time_elapsed": 305961, "internal_node_id": "0.0-6.0-1.0-1.0"}}, {"uniqueid": "w79800428:a81404209", "current_trial": 11, "dateTime": 1693843193358, "trialdata": {"revealed_states": [], "clicked_states": ["16", "17", "18", "20", "21", "22", "31", "32", "33", "29", "27", "28", "9", "11", "10"], "num_clicks_accrued": [0, 0, 0, 0, 0, 0, 0, 0, 0, 0, 0, 0, 0], "stateRewards": ["", 2, 2, 3, -15, 23, -14, 73, -7, -32, -20, -6, 1, 1, -5, -12, 73, 6, -84, 11, -81, -57, 13, -2, -1, -4, -8, -52, -58, 49, 13, 5, -41, -41], "withholdReward": false, "trial_id": "mdp_trial_3", "block": "test", "trialIndex": 4, "score": 37, "costs": -20.999999999999996, "simulationMode": [null, null, null, null, null], "rewards": [1, 1, -5, -12, 73], "path": ["0", "0", "12", "13", "14", "15", "16"], "rt": [31760, 44, 22, 840, 22], "actions": ["right", "right", "right", "up", "up"], "actionTimes": [34426, 34973, 35496, 36840, 37363], "queries": {"click": {"state": {"target": ["16", "17", "18", "20", "21", "22", "31", "32", "33", "29", "27", "28", "9", "11", "10"], "time": [3517, 5790, 7781, 9990, 11980, 14317, 16946, 18850, 20775, 22673, 24463, 26416, 28751, 30671, 32498]}, "edge": {"target": [], "time": []}}, "mouseover": {"state": {"target": ["18", "16", "16", "17", "17", "15", "18", "14", "19", "20", "20", "20", "21", "22", "31", "32", "33", "29", "29", "27", "28", "10", "2", "3", "9", "11", "8", "3", "2", "10", "2", "7", "16"], "time": [2939, 2969, 3211, 4286, 4920, 6411, 6486, 8358, 8449, 8712, 8953, 9321, 11404, 13810, 16462, 17921, 19575, 21542, 21792, 23234, 24984, 27660, 27710, 27929, 28436, 29585, 31097, 31143, 31310, 31386, 33052, 33069, 33094]}, "edge": {"target": [], "time": []}}, "mouseout": {"state": {"target": ["15", "17", "17", "15", "18", "12", "18", "16", "16", "17", "17", "15", "18", "14", "19", "20", "20", "20", "21", "22", "22", "31", "32", "33", "29", "29", "27", "28", "10", "2", "3", "9", "9", "11", "8", "3", "2", "10", "2", "7", "16"], "time": [843, 918, 1959, 1987, 2060, 2264, 2947, 3027, 4215, 4386, 6374, 6453, 8299, 8370, 8499, 8733, 9174, 11312, 13540, 14429, 15283, 17854, 19434, 21338, 21630, 23163, 24926, 27610, 27676, 27751, 27984, 28852, 29343, 31093, 31128, 31156, 31339, 33044, 33060, 33072, 33109]}, "edge": {"target": [], "time": []}}}, "displayed_time": "37.87", "trialTime": 39252, "trial_type": "mouselab-mdp", "trial_index": 11, "time_elapsed": 345304, "internal_node_id": "0.0-6.0-1.0-2.0"}}, {"uniqueid": "w79800428:a81404209", "current_trial": 12, "dateTime": 1693843216737, "trialdata": {"revealed_states": [], "clicked_states": ["16", "17", "18", "21", "20", "22", "32"], "num_clicks_accrued": [0, 0, 0, 0, 0, 0, 0, 0, 0, 0, 0, 0, 0], "stateRewards": ["", -1, 2, 6, 11, 21, -21, -21, -6, 48, -71, 88, -1, -3, 3, 7, 64, 2, 9, -4, 37, -67, 72, 2, 2, -8, -8, -10, 71, -40, -3, 73, 80, 47], "withholdReward": false, "trial_id": "mdp_trial_4", "block": "test", "trialIndex": 5, "score": 63.2, "costs": -9.8, "simulationMode": [null, null, null, null, null], "rewards": [2, 2, -8, -3, 80], "path": ["0", "0", "23", "24", "25", "30", "32"], "rt": [16862, 15, 628, 404, 96], "actions": ["left", "left", "left", "down", "down"], "actionTimes": [18387, 18908, 20043, 20952, 21548], "queries": {"click": {"state": {"target": ["16", "17", "18", "21", "20", "22", "32"], "time": [2495, 4533, 6850, 8705, 10644, 12564, 15391]}, "edge": {"target": [], "time": []}}, "mouseover": {"state": {"target": ["12", "18", "15", "16", "17", "17", "17", "14", "19", "19", "18", "13", "19", "21", "20", "19", "22", "32", "33"], "time": [1815, 1836, 1854, 2109, 2978, 3357, 3765, 5266, 5495, 6180, 6521, 7304, 7429, 7816, 9245, 11200, 11291, 13509, 16138]}, "edge": {"target": [], "time": []}}, "mouseout": {"state": {"target": ["20", "19", "0", "12", "18", "15", "16", "17", "17", "17", "14", "19", "19", "18", "13", "19", "21", "20", "19", "22", "32", "33"], "time": [737, 752, 1804, 1819, 1846, 1890, 2915, 3007, 3599, 5082, 5357, 5616, 6261, 7282, 7312, 7649, 9195, 11170, 11250, 13158, 16050, 17498]}, "edge": {"target": [], "time": []}}}, "displayed_time": "22.05", "trialTime": 23285, "trial_type": "mouselab-mdp", "trial_index": 12, "time_elapsed": 368683, "internal_node_id": "0.0-6.0-1.0-3.0"}}, {"uniqueid": "w79800428:a81404209", "current_trial": 13, "dateTime": 1693843238182, "trialdata": {"revealed_states": [], "clicked_states": ["5", "9", "11", "10", "7", "6"], "num_clicks_accrued": [0, 0, 0, 0, 0, 0, 0, 0, 0, 0, 0, 0, 0], "stateRewards": ["", -2, 3, -1, -9, 44, 48, -37, -3, 71, -39, 87, -1, 3, -4, 4, -21, 59, -15, -8, -1, 28, -38, 2, 4, 4, 8, -85, -72, -63, 14, 58, 63, -46], "withholdReward": false, "trial_id": "mdp_trial_5", "block": "test", "trialIndex": 6, "score": 75.6, "costs": -8.4, "simulationMode": [null, null, null, null, null], "rewards": [-2, 3, -1, -3, 87], "path": ["0", "0", "1", "2", "3", "8", "11"], "rt": [14396, 1, 96, 447, 50], "actions": ["up", "up", "up", "left", "left"], "actionTimes": [16652, 17154, 17758, 18704, 19258], "queries": {"click": {"state": {"target": ["5", "9", "11", "10", "7", "6"], "time": [3542, 5588, 7598, 9808, 12010, 13886]}, "edge": {"target": [], "time": []}}, "mouseover": {"state": {"target": ["7", "5", "9", "11", "11", "8", "10", "2", "4", "6", "7", "6", "16", "16"], "time": [2643, 3156, 4401, 6171, 6497, 8117, 8397, 10455, 10517, 10738, 10989, 12664, 14343, 14751]}, "edge": {"target": [], "time": []}}, "mouseout": {"state": {"target": ["30", "23", "4", "2", "1", "0", "7", "5", "9", "9", "11", "11", "8", "10", "2", "4", "6", "7", "6", "16", "16", "6"], "time": [599, 625, 1577, 1620, 1778, 2596, 2666, 4188, 5695, 6130, 6228, 8088, 8126, 10426, 10468, 10559, 10806, 12622, 14282, 14364, 14860, 15751]}, "edge": {"target": [], "time": []}}}, "displayed_time": "19.76", "trialTime": 21350, "trial_type": "mouselab-mdp", "trial_index": 13, "time_elapsed": 390128, "internal_node_id": "0.0-6.0-1.0-4.0"}}, {"uniqueid": "w79800428:a81404209", "current_trial": 14, "dateTime": 1693843269826, "trialdata": {"revealed_states": [], "clicked_states": ["32", "33", "29", "27", "28", "31", "17", "16", "18", "21", "20"], "num_clicks_accrued": [0, 0, 0, 0, 0, 0, 0, 0, 0, 0, 0, 0, 0], "stateRewards": ["", 1, -1, 4, 5, -32, 18, 20, 6, -88, -74, 9, -2, 1, -2, -14, 34, -77, -38, -1, 80, -36, 73, 2, 3, -8, 10, -48, -73, -71, -11, -22, 20, 54], "withholdReward": false, "trial_id": "mdp_trial_6", "block": "test", "trialIndex": 7, "score": 60.599999999999994, "costs": -15.400000000000002, "simulationMode": [null, null, null, null, null], "rewards": [-2, 1, -2, -1, 80], "path": ["0", "0", "12", "13", "14", "19", "20"], "rt": [25156, 290, 38, 414, 146], "actions": ["right", "right", "right", "down", "right"], "actionTimes": [27313, 28110, 28651, 29564, 30218], "queries": {"click": {"state": {"target": ["32", "33", "29", "27", "28", "31", "17", "16", "18", "21", "20"], "time": [3135, 5237, 7003, 8822, 11039, 12933, 15586, 18725, 20957, 22883, 24841]}, "edge": {"target": [], "time": []}}, "mouseover": {"state": {"target": ["32", "33", "29", "27", "11", "9", "28", "24", "31", "0", "12", "13", "14", "17", "16", "18", "14", "19", "21", "20", "19", "13", "7", "4"], "time": [2752, 4255, 5926, 7784, 9385, 9922, 10731, 11947, 12043, 14555, 14618, 14669, 14760, 15114, 18384, 20323, 21698, 22203, 22494, 23607, 25320, 25357, 25420, 25874]}, "edge": {"target": [], "time": []}}, "mouseout": {"state": {"target": ["7", "1", "0", "32", "33", "29", "27", "11", "9", "28", "24", "31", "0", "12", "13", "14", "17", "16", "18", "14", "19", "21", "20", "19", "13", "7", "4"], "time": [1487, 1716, 2603, 3901, 5776, 7095, 9343, 9614, 10152, 11897, 11993, 13029, 14589, 14646, 14716, 14880, 16964, 20057, 21661, 21748, 22223, 23401, 25299, 25336, 25370, 25478, 25937]}, "edge": {"target": [], "time": []}}}, "displayed_time": "30.72", "trialTime": 31546, "trial_type": "mouselab-mdp", "trial_index": 14, "time_elapsed": 421772, "internal_node_id": "0.0-6.0-1.0-5.0"}}, {"uniqueid": "w79800428:a81404209", "current_trial": 15, "dateTime": 1693843292080, "trialdata": {"revealed_states": [], "clicked_states": ["5", "9", "11", "10", "6", "17", "20"], "num_clicks_accrued": [0, 0, 0, 0, 0, 0, 0, 0, 0, 0, 0, 0, 0], "stateRewards": ["", 1, 4, 7, -16, -84, -6, -46, -12, -7, -49, -26, -1, 2, -4, 2, 22, 37, -64, 1, 88, -13, -10, 1, -4, -2, 5, 2, -10, -34, 9, 66, 55, 38], "withholdReward": false, "trial_id": "mdp_trial_7", "block": "test", "trialIndex": 8, "score": 76.2, "costs": -9.8, "simulationMode": [null, null, null, null, null], "rewards": [-1, 2, -4, 1, 88], "path": ["0", "0", "12", "13", "14", "19", "20"], "rt": [16601, 281, 363, 256, 125], "actions": ["right", "right", "right", "down", "right"], "actionTimes": [17764, 18550, 19415, 20171, 20798], "queries": {"click": {"state": {"target": ["5", "9", "11", "10", "6", "17", "20"], "time": [2176, 4049, 5990, 7869, 10133, 12037, 14154]}, "edge": {"target": [], "time": []}}, "mouseover": {"state": {"target": ["7", "5", "9", "11", "11", "10", "4", "6", "17", "20", "21", "20", "21"], "time": [1578, 1860, 2959, 4743, 5137, 6716, 8379, 8625, 11171, 12783, 13046, 13762, 14780]}, "edge": {"target": [], "time": []}}, "mouseout": {"state": {"target": ["16", "1", "0", "7", "5", "9", "11", "11", "10", "4", "6", "17", "20", "21", "20", "21"], "time": [588, 780, 1536, 1595, 2708, 4654, 4845, 6424, 7965, 8441, 10629, 12504, 12954, 13671, 14629, 17267]}, "edge": {"target": [], "time": []}}}, "displayed_time": "21.30", "trialTime": 22158, "trial_type": "mouselab-mdp", "trial_index": 15, "time_elapsed": 444026, "internal_node_id": "0.0-6.0-1.0-6.0"}}, {"uniqueid": "w79800428:a81404209", "current_trial": 16, "dateTime": 1693843323940, "trialdata": {"revealed_states": [], "clicked_states": ["27", "29", "33", "32", "31", "22", "21", "20", "16", "17", "18"], "num_clicks_accrued": [0, 0, 0, 0, 0, 0, 0, 0, 0, 0, 0, 0, 0], "stateRewards": ["", -1, -4, -6, -15, 21, -67, -63, 9, 51, 69, -14, -1, 3, 8, -8, 39, 72, 63, 15, 19, 47, 15, 1, 4, 5, 16, -18, 34, 35, -14, -80, 40, 1], "withholdReward": false, "trial_id": "mdp_trial_8", "block": "test", "trialIndex": 9, "score": 58.599999999999994, "costs": -15.400000000000002, "simulationMode": [null, null, null, null, null], "rewards": [-1, 3, 8, -8, 72], "path": ["0", "0", "12", "13", "14", "15", "17"], "rt": [26108, 251, 9, 32, 443], "actions": ["right", "right", "right", "up", "right"], "actionTimes": [27441, 28194, 28715, 29246, 30191], "queries": {"click": {"state": {"target": ["27", "29", "33", "32", "31", "22", "21", "20", "16", "17", "18"], "time": [2460, 4637, 7244, 9216, 11292, 13636, 15581, 17700, 20123, 22176, 25053]}, "edge": {"target": [], "time": []}}, "mouseover": {"state": {"target": ["23", "24", "25", "26", "27", "29", "30", "30", "33", "33", "30", "33", "32", "31", "22", "19", "22", "21", "20", "17", "16", "17", "15", "6", "6", "18"], "time": [1772, 1797, 1839, 1956, 2031, 4031, 5340, 5877, 6019, 6310, 6493, 6899, 8011, 9749, 12478, 12628, 13164, 14666, 16153, 19417, 19772, 21458, 23121, 23359, 24095, 24780]}, "edge": {"target": [], "time": []}}, "mouseout": {"state": {"target": ["19", "22", "12", "23", "24", "25", "26", "27", "29", "30", "30", "33", "33", "30", "33", "32", "31", "22", "19", "22", "21", "20", "17", "16", "16", "17", "15", "6", "6", "16", "16", "18", "12"], "time": [605, 631, 866, 1793, 1818, 1897, 1989, 3931, 5036, 5623, 5956, 6111, 6358, 6773, 7861, 9315, 12349, 12549, 13058, 14370, 16074, 17791, 19591, 20237, 21110, 23093, 23158, 23463, 24116, 24169, 24639, 31367, 31426]}, "edge": {"target": [], "time": []}}}, "displayed_time": "30.69", "trialTime": 31763, "trial_type": "mouselab-mdp", "trial_index": 16, "time_elapsed": 475887, "internal_node_id": "0.0-6.0-1.0-7.0"}}, {"uniqueid": "w79800428:a81404209", "current_trial": 17, "dateTime": 1693843344207, "trialdata": {"revealed_states": [], "clicked_states": ["5", "9", "11", "10", "7", "6"], "num_clicks_accrued": [0, 0, 0, 0, 0, 0, 0, 0, 0, 0, 0, 0, 0], "stateRewards": ["", -1, -2, -1, -10, -57, 73, -72, -16, 75, -14, -46, -2, -3, -7, -1, -61, -60, 76, -4, 50, 4, 14, 2, 2, -7, 12, -65, -32, 15, -8, -76, -25, -61], "withholdReward": false, "trial_id": "mdp_trial_9", "block": "test", "trialIndex": 10, "score": 50.6, "costs": -8.4, "simulationMode": [null, null, null, null, null], "rewards": [-1, -2, -1, -10, 73], "path": ["0", "0", "1", "2", "3", "4", "6"], "rt": [13816, 99, 19, 469, 93], "actions": ["up", "up", "up", "right", "right"], "actionTimes": [15206, 15811, 16331, 17302, 17896], "queries": {"click": {"state": {"target": ["5", "9", "11", "10", "7", "6"], "time": [2250, 4203, 6154, 8221, 10254, 12082]}, "edge": {"target": [], "time": []}}, "mouseover": {"state": {"target": ["1", "7", "4", "5", "9", "11", "10", "2", "7", "7", "6", "16"], "time": [1700, 1732, 1775, 1988, 2859, 4684, 7830, 8689, 8732, 8968, 10864, 12931]}, "edge": {"target": [], "time": []}}, "mouseout": {"state": {"target": ["0", "1", "7", "4", "5", "9", "11", "10", "2", "7", "7", "6"], "time": [1149, 1712, 1750, 1933, 2721, 4626, 7631, 8326, 8711, 8789, 10351, 12598]}, "edge": {"target": [], "time": []}}}, "displayed_time": "18.40", "trialTime": 20167, "trial_type": "mouselab-mdp", "trial_index": 17, "time_elapsed": 496152, "internal_node_id": "0.0-6.0-1.0-8.0"}}, {"uniqueid": "w79800428:a81404209", "current_trial": 18, "dateTime": 1693843364716, "trialdata": {"revealed_states": [], "clicked_states": ["32", "31", "33", "27", "29", "28"], "num_clicks_accrued": [0, 0, 0, 0, 0, 0, 0, 0, 0, 0, 0, 0, 0], "stateRewards": ["", 1, 2, 7, 13, 88, -71, 27, 3, 60, 5, -53, -2, 2, -6, -1, -30, 79, 47, -4, -14, 46, 68, 1, 1, 8, 10, -14, 86, 48, -11, -67, -44, 5], "withholdReward": false, "trial_id": "mdp_trial_10", "block": "test", "trialIndex": 11, "score": 97.6, "costs": -8.4, "simulationMode": [null, null, null, null, null], "rewards": [1, 1, 8, 10, 86], "path": ["0", "0", "23", "24", "25", "26", "28"], "rt": [14723, 213, 224, 74, 431], "actions": ["left", "left", "left", "up", "right"], "actionTimes": [16036, 16752, 17478, 18053, 18984], "queries": {"click": {"state": {"target": ["32", "31", "33", "27", "29", "28"], "time": [3128, 5048, 6986, 9094, 11091, 13132]}, "edge": {"target": [], "time": []}}, "mouseover": {"state": {"target": ["23", "30", "32", "31", "30", "33", "29", "27", "29", "29", "28", "10", "2", "7", "16"], "time": [1729, 2025, 2964, 3705, 5560, 5822, 7880, 8022, 9693, 10114, 11868, 13673, 13685, 13707, 14448]}, "edge": {"target": [], "time": []}}, "mouseout": {"state": {"target": ["16", "2", "1", "23", "30", "32", "31", "30", "33", "29", "27", "29", "29", "28", "10", "2", "7", "16"], "time": [582, 804, 852, 1741, 2046, 3248, 5530, 5622, 7656, 7927, 9652, 9985, 11177, 13239, 13678, 13702, 13723, 15244]}, "edge": {"target": [], "time": []}}}, "displayed_time": "19.49", "trialTime": 20408, "trial_type": "mouselab-mdp", "trial_index": 18, "time_elapsed": 516662, "internal_node_id": "0.0-6.0-1.0-9.0"}}, {"uniqueid": "w79800428:a81404209", "current_trial": 19, "dateTime": 1693843395184, "trialdata": {"revealed_states": [], "clicked_states": ["16", "17", "21", "22", "20", "32", "33", "31", "27", "29"], "num_clicks_accrued": [0, 0, 0, 0, 0, 0, 0, 0, 0, 0, 0, 0, 0], "stateRewards": ["", 2, 3, -6, -5, -3, 55, 40, 11, 61, 11, 51, 2, -4, -6, 9, -25, 29, -15, -6, 7, -77, -2, -2, -4, 1, 14, -43, -1, 56, -12, -54, 41, -74], "withholdReward": false, "trial_id": "mdp_trial_11", "block": "test", "trialIndex": 12, "score": 51, "costs": -14.000000000000002, "simulationMode": [null, null, null, null, null], "rewards": [-2, -4, 1, 14, 56], "path": ["0", "0", "23", "24", "25", "26", "29"], "rt": [24291, 336, 262, 353, 357], "actions": ["left", "left", "left", "up", "left"], "actionTimes": [25647, 26487, 27251, 28106, 28969], "queries": {"click": {"state": {"target": ["16", "17", "21", "22", "20", "32", "33", "31", "27", "29"], "time": [2598, 4558, 6737, 8679, 10626, 13192, 16227, 18182, 20520, 22544]}, "edge": {"target": [], "time": []}}, "mouseover": {"state": {"target": ["12", "17", "16", "17", "19", "21", "22", "19", "20", "19", "32", "33", "30", "31", "26", "27", "27", "29", "26", "8", "9", "8", "2", "7", "18", "1"], "time": [1753, 1977, 2187, 3992, 5083, 5162, 7421, 9100, 9234, 11896, 12919, 15959, 17293, 17435, 19160, 19239, 20252, 21943, 23123, 23411, 23927, 24514, 24549, 24565, 24773, 24935]}, "edge": {"target": [], "time": []}}, "mouseout": {"state": {"target": ["22", "0", "12", "17", "16", "17", "19", "21", "22", "19", "20", "19", "22", "32", "33", "30", "31", "26", "27", "27", "27", "29", "26", "8", "9", "8", "2", "7", "18", "1"], "time": [665, 1736, 1766, 2027, 3758, 4992, 5108, 6845, 9079, 9155, 11884, 11913, 11934, 15469, 17247, 17356, 19048, 19173, 19339, 20614, 21689, 23102, 23210, 23444, 24443, 24522, 24557, 24581, 24805, 25033]}, "edge": {"target": [], "time": []}}}, "displayed_time": "29.47", "trialTime": 30360, "trial_type": "mouselab-mdp", "trial_index": 19, "time_elapsed": 547130, "internal_node_id": "0.0-6.0-1.0-10.0"}}, {"uniqueid": "w79800428:a81404209", "current_trial": 20, "dateTime": 1693843413445, "trialdata": {"revealed_states": [], "clicked_states": ["5", "6", "9", "11", "10"], "num_clicks_accrued": [0, 0, 0, 0, 0, 0, 0, 0, 0, 0, 0, 0, 0], "stateRewards": ["", -2, -4, 4, -11, -63, -60, -7, 2, -14, 81, -43, -1, -1, -5, 7, 10, 69, 40, 8, -83, 52, 60, 1, 2, 5, -5, 16, 64, 14, -3, 29, 7, -51], "withholdReward": false, "trial_id": "mdp_trial_12", "block": "test", "trialIndex": 13, "score": 74, "costs": -7, "simulationMode": [null, null, null, null, null], "rewards": [-2, -4, 4, 2, 81], "path": ["0", "0", "1", "2", "3", "8", "10"], "rt": [12681, 2, 5, 633, 26], "actions": ["up", "up", "up", "left", "down"], "actionTimes": [13856, 14413, 14922, 16059, 16589], "queries": {"click": {"state": {"target": ["5", "6", "9", "11", "10"], "time": [2141, 4095, 6020, 7939, 10043]}, "edge": {"target": [], "time": []}}, "mouseover": {"state": {"target": ["1", "4", "5", "6", "6", "9", "11", "10", "27"], "time": [1471, 1535, 1848, 2873, 3227, 5515, 6624, 9719, 10887]}, "edge": {"target": [], "time": []}}, "mouseout": {"state": {"target": ["1", "0", "1", "4", "5", "6", "6", "9", "11", "10", "10", "27"], "time": [635, 1458, 1489, 1794, 2644, 2911, 4919, 6532, 9461, 10127, 10512, 12403]}, "edge": {"target": [], "time": []}}}, "displayed_time": "17.09", "trialTime": 18152, "trial_type": "mouselab-mdp", "trial_index": 20, "time_elapsed": 565391, "internal_node_id": "0.0-6.0-1.0-11.0"}}, {"uniqueid": "w79800428:a81404209", "current_trial": 21, "dateTime": 1693843430227, "trialdata": {"revealed_states": [], "clicked_states": ["32", "33", "21"], "num_clicks_accrued": [0, 0, 0, 0, 0, 0, 0, 0, 0, 0, 0, 0, 0], "stateRewards": ["", 1, -2, 7, -14, 88, -56, -44, -14, 64, -51, -57, -2, 3, -4, -9, -11, 19, -77, -1, 68, 75, -67, -1, 1, -2, 5, -37, 70, -34, -10, -72, 63, -41], "withholdReward": false, "trial_id": "mdp_trial_13", "block": "test", "trialIndex": 14, "score": 66.8, "costs": -4.199999999999999, "simulationMode": [null, null, null, null, null], "rewards": [-2, 3, -4, -1, 75], "path": ["0", "0", "12", "13", "14", "19", "21"], "rt": [9282, 187, 371, 241, 579], "actions": ["right", "right", "right", "down", "down"], "actionTimes": [10926, 11622, 12499, 13240, 14319], "queries": {"click": {"state": {"target": ["32", "33", "21"], "time": [2594, 4605, 7098]}, "edge": {"target": [], "time": []}}, "mouseover": {"state": {"target": ["30", "30", "32", "33", "30", "31", "21", "21", "21", "20"], "time": [2144, 2229, 2336, 3505, 5280, 5317, 6026, 6301, 6592, 7901]}, "edge": {"target": [], "time": []}}, "mouseout": {"state": {"target": ["29", "28", "0", "30", "30", "32", "33", "30", "31", "21", "21", "21", "20", "21"], "time": [808, 929, 1974, 2163, 2258, 3349, 5259, 5301, 5347, 6084, 6350, 7847, 10401, 15530]}, "edge": {"target": [], "time": []}}}, "displayed_time": "15.64", "trialTime": 16680, "trial_type": "mouselab-mdp", "trial_index": 21, "time_elapsed": 582173, "internal_node_id": "0.0-6.0-1.0-12.0"}}, {"uniqueid": "w79800428:a81404209", "current_trial": 22, "dateTime": 1693843452594, "trialdata": {"revealed_states": [], "clicked_states": ["32", "33", "5", "9", "17", "20", "21"], "num_clicks_accrued": [0, 0, 0, 0, 0, 0, 0, 0, 0, 0, 0, 0, 0], "stateRewards": ["", -1, 1, 3, -8, -23, -15, -14, -11, -23, 58, 68, 1, 3, 5, 12, -17, -41, -7, -10, -4, 82, 10, 1, 4, -4, 11, 73, 55, -55, -1, -86, -86, 54], "withholdReward": false, "trial_id": "mdp_trial_14", "block": "test", "trialIndex": 15, "score": 71.2, "costs": -9.8, "simulationMode": [null, null, null, null, null], "rewards": [1, 3, 5, -10, 82], "path": ["0", "0", "12", "13", "14", "19", "21"], "rt": [16598, 192, 396, 295, 108], "actions": ["right", "right", "right", "down", "down"], "actionTimes": [17855, 18566, 19463, 20258, 20867], "queries": {"click": {"state": {"target": ["32", "33", "5", "9", "17", "20", "21"], "time": [2286, 4141, 6358, 8943, 11365, 13335, 15281]}, "edge": {"target": [], "time": []}}, "mouseover": {"state": {"target": ["0", "23", "30", "32", "33", "26", "11", "9", "5", "6", "9", "6", "16", "17", "20", "21", "19", "14", "15", "16", "15"], "time": [1706, 1730, 1787, 2049, 3060, 4619, 4652, 4689, 5327, 7864, 8636, 9365, 9648, 10924, 12644, 14607, 16061, 16137, 16207, 16382, 17307]}, "edge": {"target": [], "time": []}}, "mouseout": {"state": {"target": ["0", "0", "23", "30", "32", "33", "26", "11", "9", "5", "5", "6", "5", "9", "6", "16", "17", "20", "21", "19", "14", "15", "16", "15"], "time": [1626, 1726, 1747, 1815, 2378, 4585, 4631, 4669, 4710, 6472, 7823, 8019, 8153, 9307, 9386, 9711, 12199, 14353, 16028, 16099, 16178, 16257, 17247, 17340]}, "edge": {"target": [], "time": []}}}, "displayed_time": "21.37", "trialTime": 22264, "trial_type": "mouselab-mdp", "trial_index": 22, "time_elapsed": 604540, "internal_node_id": "0.0-6.0-1.0-13.0"}}, {"uniqueid": "w79800428:a81404209", "current_trial": 23, "dateTime": 1693843473312, "trialdata": {"revealed_states": [], "clicked_states": ["29", "9", "27", "11", "10", "5"], "num_clicks_accrued": [0, 0, 0, 0, 0, 0, 0, 0, 0, 0, 0, 0, 0], "stateRewards": ["", -1, 3, 2, 9, 41, 4, -46, -12, -54, -87, -25, 2, 3, -1, 11, -77, 12, -33, -9, -32, 35, 72, 1, 3, -7, 4, 37, 65, -73, 6, 77, -43, 8], "withholdReward": false, "trial_id": "mdp_trial_15", "block": "test", "trialIndex": 16, "score": 45.6, "costs": -8.4, "simulationMode": [null, null, null, null, null], "rewards": [-1, 3, 2, 9, 41], "path": ["0", "0", "1", "2", "3", "4", "5"], "rt": [15111, 50, 109, 335, 144], "actions": ["up", "up", "up", "right", "up"], "actionTimes": [16314, 16864, 17473, 18307, 18954], "queries": {"click": {"state": {"target": ["29", "9", "27", "11", "10", "5"], "time": [2285, 4913, 6818, 8942, 11038, 13371]}, "edge": {"target": [], "time": []}}, "mouseover": {"state": {"target": ["23", "29", "27", "11", "8", "9", "11", "27", "11", "10", "3", "5", "6"], "time": [1690, 2013, 4061, 4311, 4329, 4577, 5440, 5861, 7353, 10399, 12425, 12776, 15237]}, "edge": {"target": [], "time": []}}, "mouseout": {"state": {"target": ["19", "12", "0", "23", "29", "27", "11", "8", "9", "9", "11", "27", "11", "10", "3", "5", "5", "6"], "time": [623, 799, 1673, 1701, 3867, 4152, 4315, 4343, 5006, 5390, 5461, 6910, 10266, 11152, 12727, 13483, 14846, 15508]}, "edge": {"target": [], "time": []}}}, "displayed_time": "19.46", "trialTime": 20613, "trial_type": "mouselab-mdp", "trial_index": 23, "time_elapsed": 625257, "internal_node_id": "0.0-6.0-1.0-14.0"}}, {"uniqueid": "w79800428:a81404209", "current_trial": 24, "dateTime": 1693843489446, "trialdata": {"revealed_states": [], "clicked_states": ["32"], "num_clicks_accrued": [0, 0, 0, 0, 0, 0, 0, 0, 0, 0, 0, 0, 0], "stateRewards": ["", -2, -2, -7, -13, -10, 49, -68, -1, 84, 70, 88, 1, 4, 4, 12, -57, 25, 30, 8, -1, -77, 57, 2, 3, 2, 3, -18, -80, 23, -15, -41, 70, 11], "withholdReward": false, "trial_id": "mdp_trial_16", "block": "test", "trialIndex": 17, "score": 60.6, "costs": -1.4, "simulationMode": [null, null, null, null, null], "rewards": [2, 3, 2, -15, 70], "path": ["0", "0", "23", "24", "25", "30", "32"], "rt": [4546, 38, 276, 131, 35], "actions": ["left", "left", "left", "down", "down"], "actionTimes": [5960, 6504, 7279, 7910, 8447], "queries": {"click": {"state": {"target": ["32"], "time": [2334]}, "edge": {"target": [], "time": []}}, "mouseover": {"state": {"target": ["31", "32", "31"], "time": [1851, 2043, 3465]}, "edge": {"target": [], "time": []}}, "mouseout": {"state": {"target": ["17", "0", "31", "32", "31", "32"], "time": [593, 1765, 1881, 3373, 14339, 14808]}, "edge": {"target": [], "time": []}}}, "displayed_time": "15.42", "trialTime": 16016, "trial_type": "mouselab-mdp", "trial_index": 24, "time_elapsed": 641392, "internal_node_id": "0.0-6.0-1.0-15.0"}}, {"uniqueid": "w79800428:a81404209", "current_trial": 25, "dateTime": 1693843506037, "trialdata": {"revealed_states": [], "clicked_states": ["21"], "num_clicks_accrued": [0, 0, 0, 0, 0, 0, 0, 0, 0, 0, 0, 0, 0], "stateRewards": ["", -2, 1, -5, 2, -68, 80, 33, 10, 67, -59, 20, -1, -3, 3, 14, 74, -2, 24, -16, 63, 80, 46, -1, 4, 6, 12, 83, -38, -43, -4, 43, 14, -79], "withholdReward": false, "trial_id": "mdp_trial_17", "block": "test", "trialIndex": 18, "score": 61.6, "costs": -1.4, "simulationMode": [null, null, null, null, null], "rewards": [-1, -3, 3, -16, 80], "path": ["0", "0", "12", "13", "14", "19", "21"], "rt": [4124, 23, 554, 193, 269], "actions": ["right", "right", "right", "down", "down"], "actionTimes": [5623, 6151, 7207, 7901, 8672], "queries": {"click": {"state": {"target": ["21"], "time": [2960]}, "edge": {"target": [], "time": []}}, "mouseover": {"state": {"target": ["12", "21", "20", "17"], "time": [1829, 2784, 3764, 4557]}, "edge": {"target": [], "time": []}}, "mouseout": {"state": {"target": ["12", "12", "21", "20", "17"], "time": [780, 1851, 3067, 3843, 4943]}, "edge": {"target": [], "time": []}}}, "displayed_time": "15.50", "trialTime": 16488, "trial_type": "mouselab-mdp", "trial_index": 25, "time_elapsed": 657983, "internal_node_id": "0.0-6.0-1.0-16.0"}}, {"uniqueid": "w79800428:a81404209", "current_trial": 26, "dateTime": 1693843529014, "trialdata": {"revealed_states": [], "clicked_states": ["5", "9", "11", "27", "33", "32"], "num_clicks_accrued": [0, 0, 0, 0, 0, 0, 0, 0, 0, 0, 0, 0, 0], "stateRewards": ["", 1, -4, -6, 11, -20, 8, -30, 1, -38, 88, 42, 2, 3, 5, -12, -8, -74, 30, -8, 67, -19, 42, 2, -1, 4, 13, 50, -68, 2, -8, -15, 87, -46], "withholdReward": false, "trial_id": "mdp_trial_18", "block": "test", "trialIndex": 19, "score": 75.6, "costs": -8.4, "simulationMode": [null, null, null, null, null], "rewards": [2, -1, 4, -8, 87], "path": ["0", "0", "23", "24", "25", "30", "32"], "rt": [15317, 71, 157, 237, 55], "actions": ["left", "left", "left", "down", "down"], "actionTimes": [19137, 19720, 20378, 21117, 21672], "queries": {"click": {"state": {"target": ["5", "9", "11", "27", "33", "32"], "time": [4801, 6773, 8750, 11010, 14243, 16245]}, "edge": {"target": [], "time": []}}, "mouseover": {"state": {"target": ["1", "2", "3", "5", "9", "9", "11", "27", "27", "29", "33", "30", "32", "31"], "time": [4177, 4189, 4202, 4531, 5719, 6094, 7906, 9411, 9761, 13232, 13956, 15686, 15882, 17257]}, "edge": {"target": [], "time": []}}, "mouseout": {"state": {"target": ["5", "3", "2", "1", "0", "1", "2", "3", "5", "5", "9", "9", "9", "11", "27", "27", "29", "33", "33", "30", "32"], "time": [1638, 2292, 3142, 3343, 4168, 4185, 4198, 4210, 4885, 5410, 5840, 6856, 7869, 9328, 9456, 13075, 13594, 14376, 15650, 15699, 17091]}, "edge": {"target": [], "time": []}}}, "displayed_time": "22.17", "trialTime": 22859, "trial_type": "mouselab-mdp", "trial_index": 26, "time_elapsed": 680960, "internal_node_id": "0.0-6.0-1.0-17.0"}}, {"uniqueid": "w79800428:a81404209", "current_trial": 27, "dateTime": 1693843546189, "trialdata": {"revealed_states": [], "clicked_states": ["32", "33"], "num_clicks_accrued": [0, 0, 0, 0, 0, 0, 0, 0, 0, 0, 0, 0, 0], "stateRewards": ["", 1, 1, 6, -14, -40, 37, 16, -13, 33, -68, 49, 2, 4, 3, 6, 55, 27, 32, 10, -65, 20, -87, 2, 1, -6, -5, -42, 12, 29, -8, 16, 76, -33], "withholdReward": false, "trial_id": "mdp_trial_19", "block": "test", "trialIndex": 20, "score": 62.2, "costs": -2.8, "simulationMode": [null, null, null, null, null], "rewards": [2, 1, -6, -8, 76], "path": ["0", "0", "23", "24", "25", "30", "32"], "rt": [4826, 83, 59, 124, 86], "actions": ["left", "left", "left", "down", "down"], "actionTimes": [6950, 7534, 8094, 8721, 9308], "queries": {"click": {"state": {"target": ["32", "33"], "time": [3085, 5025]}, "edge": {"target": [], "time": []}}, "mouseover": {"state": {"target": ["0", "31", "32", "33"], "time": [2509, 2557, 2827, 4108]}, "edge": {"target": [], "time": []}}, "mouseout": {"state": {"target": ["31", "0", "12", "0", "0", "0", "31", "32", "33"], "time": [674, 752, 923, 957, 1194, 2522, 2599, 3837, 5692]}, "edge": {"target": [], "time": []}}}, "displayed_time": "16.13", "trialTime": 17046, "trial_type": "mouselab-mdp", "trial_index": 27, "time_elapsed": 698135, "internal_node_id": "0.0-6.0-1.0-18.0"}}, {"uniqueid": "w79800428:a81404209", "current_trial": 28, "dateTime": 1693843563760, "trialdata": {"revealed_states": [], "clicked_states": ["21", "17", "16", "18", "20"], "num_clicks_accrued": [0, 0, 0, 0, 0, 0, 0, 0, 0, 0, 0, 0, 0], "stateRewards": ["", 1, 1, 5, 6, -29, -7, 3, -16, 9, -46, 65, -1, 4, -1, -16, -63, -77, -87, 8, 80, -50, 43, -1, -1, -5, 5, -38, -71, -62, 9, 81, -50, -52], "withholdReward": false, "trial_id": "mdp_trial_20", "block": "test", "trialIndex": 21, "score": 83, "costs": -7, "simulationMode": [null, null, null, null, null], "rewards": [-1, 4, -1, 8, 80], "path": ["0", "0", "12", "13", "14", "19", "20"], "rt": [11336, 111, 16, 420, 2], "actions": ["right", "right", "right", "down", "right"], "actionTimes": [13154, 13770, 14295, 15217, 15725], "queries": {"click": {"state": {"target": ["21", "17", "16", "18", "20"], "time": [2826, 4663, 6608, 8652, 10542]}, "edge": {"target": [], "time": []}}, "mouseover": {"state": {"target": ["21", "20", "17", "16", "16", "18", "14", "20", "19", "22"], "time": [2534, 3291, 3507, 5387, 6016, 7274, 9080, 9442, 11041, 11104]}, "edge": {"target": [], "time": []}}, "mouseout": {"state": {"target": ["33", "24", "23", "0", "21", "20", "17", "16", "16", "18", "14", "20", "19", "22"], "time": [490, 515, 522, 2063, 3253, 3416, 4761, 5833, 7224, 9046, 9109, 11021, 11071, 12483]}, "edge": {"target": [], "time": []}}}, "displayed_time": "16.23", "trialTime": 17427, "trial_type": "mouselab-mdp", "trial_index": 28, "time_elapsed": 715706, "internal_node_id": "0.0-6.0-1.0-19.0"}}, {"uniqueid": "w79800428:a81404209", "current_trial": 29, "dateTime": 1693843589611, "trialdata": {"revealed_states": [], "clicked_states": ["32", "33", "27", "29", "5", "6", "7"], "num_clicks_accrued": [0, 0, 0, 0, 0, 0, 0, 0, 0, 0, 0, 0, 0], "stateRewards": ["", -2, -1, -5, 10, -36, -70, 68, -9, 86, 71, -10, 2, -4, 7, -7, 66, 44, -66, -13, -69, 43, 15, -2, 2, 6, -13, 62, 57, 50, -10, -69, 42, -72], "withholdReward": false, "trial_id": "mdp_trial_21", "block": "test", "trialIndex": 22, "score": 60.2, "costs": -9.8, "simulationMode": [null, null, null, null, null], "rewards": [-2, -1, -5, 10, 68], "path": ["0", "0", "1", "2", "3", "4", "7"], "rt": [19953, 176, 189, 536, 34], "actions": ["up", "up", "up", "right", "down"], "actionTimes": [21303, 21979, 22670, 23709, 24245], "queries": {"click": {"state": {"target": ["32", "33", "27", "29", "5", "6", "7"], "time": [2290, 4562, 6383, 9018, 11072, 13388, 15237]}, "edge": {"target": [], "time": []}}, "mouseover": {"state": {"target": ["23", "31", "30", "32", "33", "27", "27", "29", "8", "5", "5", "6", "7", "3", "9", "3", "2", "10", "2", "10", "2"], "time": [1744, 1804, 1946, 2039, 3377, 5028, 5344, 7028, 9445, 9487, 9737, 13033, 14405, 16188, 16565, 17330, 18169, 18615, 18747, 20094, 20301]}, "edge": {"target": [], "time": []}}, "mouseout": {"state": {"target": ["0", "23", "31", "30", "32", "33", "27", "27", "29", "8", "5", "5", "5", "6", "7", "3", "9", "3", "2", "10", "2", "10", "2", "7"], "time": [1719, 1762, 1827, 1975, 2366, 4961, 5067, 6886, 9403, 9451, 9508, 11163, 12800, 14353, 15329, 16226, 17305, 17359, 18296, 18734, 19909, 20267, 20349, 25439]}, "edge": {"target": [], "time": []}}}, "displayed_time": "24.74", "trialTime": 25718, "trial_type": "mouselab-mdp", "trial_index": 29, "time_elapsed": 741557, "internal_node_id": "0.0-6.0-1.0-20.0"}}, {"uniqueid": "w79800428:a81404209", "current_trial": 30, "dateTime": 1693843620711, "trialdata": {"revealed_states": [], "clicked_states": ["27", "10", "11", "9", "5", "6", "7", "16", "17", "18", "20", "21"], "num_clicks_accrued": [0, 0, 0, 0, 0, 0, 0, 0, 0, 0, 0, 0, 0], "stateRewards": ["", -2, -3, -7, 7, -54, -69, -4, -14, -77, 22, 40, -2, -1, 5, 6, -35, 50, -60, 10, -28, 75, 57, 1, -4, -2, 2, 68, 34, -18, 12, 3, -21, -43], "withholdReward": false, "trial_id": "mdp_trial_22", "block": "test", "trialIndex": 23, "score": 70.2, "costs": -16.8, "simulationMode": [null, null, null, null, null], "rewards": [-2, -1, 5, 10, 75], "path": ["0", "0", "12", "13", "14", "19", "21"], "rt": [25707, 167, 12, 186, 239], "actions": ["right", "right", "right", "down", "down"], "actionTimes": [27046, 27716, 28239, 28930, 29675], "queries": {"click": {"state": {"target": ["27", "10", "11", "9", "5", "6", "7", "16", "17", "18", "20", "21"], "time": [2181, 4960, 6984, 8960, 10792, 12746, 14643, 16511, 18353, 20540, 22466, 24321]}, "edge": {"target": [], "time": []}}, "mouseover": {"state": {"target": ["27", "11", "10", "2", "3", "8", "11", "9", "5", "5", "6", "7", "16", "17", "15", "18", "14", "20", "21", "22"], "time": [1930, 3069, 4431, 5641, 5853, 5918, 6316, 8066, 9620, 9899, 11517, 13323, 15767, 17450, 19864, 19970, 21671, 21976, 23588, 25822]}, "edge": {"target": [], "time": []}}, "mouseout": {"state": {"target": ["27", "11", "10", "2", "3", "8", "11", "9", "5", "5", "6", "7", "16", "17", "15", "18", "14", "20", "21", "22"], "time": [2799, 4246, 5058, 5671, 5888, 5974, 7862, 9074, 9684, 11410, 13230, 15112, 16954, 19838, 19908, 21642, 21705, 23384, 24421, 26476]}, "edge": {"target": [], "time": []}}}, "displayed_time": "30.18", "trialTime": 30979, "trial_type": "mouselab-mdp", "trial_index": 30, "time_elapsed": 772656, "internal_node_id": "0.0-6.0-1.0-21.0"}}, {"uniqueid": "w79800428:a81404209", "current_trial": 31, "dateTime": 1693843655419, "trialdata": {"revealed_states": [], "clicked_states": ["32", "33", "31", "27", "29", "28", "11", "9", "5", "6", "7", "10", "17", "16"], "num_clicks_accrued": [0, 0, 0, 0, 0, 0, 0, 0, 0, 0, 0, 0, 0], "stateRewards": ["", -2, 2, -5, -6, 10, -66, -58, -10, -11, -63, -70, -1, -4, -5, 7, 66, -64, -43, -3, 45, -37, 4, -2, -2, -6, -4, -30, 33, 43, 15, -32, -65, -59], "withholdReward": false, "trial_id": "mdp_trial_23", "block": "test", "trialIndex": 24, "score": 43.400000000000006, "costs": -19.599999999999998, "simulationMode": [null, null, null, null, null], "rewards": [-1, -4, -5, 7, 66], "path": ["0", "0", "12", "13", "14", "15", "16"], "rt": [29313, 77, 20, 731, 108], "actions": ["right", "right", "right", "up", "up"], "actionTimes": [30521, 31098, 31621, 32852, 33467], "queries": {"click": {"state": {"target": ["32", "33", "31", "27", "29", "28", "11", "9", "5", "6", "7", "10", "17", "16"], "time": [2146, 4089, 6060, 7925, 9979, 11755, 14193, 16182, 18079, 20090, 22007, 24145, 25921, 27783]}, "edge": {"target": [], "time": []}}, "mouseover": {"state": {"target": ["0", "23", "31", "32", "33", "30", "31", "24", "28", "27", "29", "26", "28", "11", "9", "5", "6", "7", "7", "2", "10", "2", "16", "2", "10", "2", "15", "14", "17", "16", "20", "14"], "time": [1591, 1609, 1668, 1934, 3576, 4757, 4865, 6667, 6690, 6852, 8605, 10426, 10661, 13792, 15136, 16706, 18638, 20764, 21349, 22584, 22880, 23051, 23259, 23554, 23739, 24486, 24579, 24651, 24907, 26554, 28309, 29941]}, "edge": {"target": [], "time": []}}, "mouseout": {"state": {"target": ["21", "0", "0", "23", "31", "32", "33", "30", "31", "24", "28", "27", "29", "26", "28", "11", "9", "5", "6", "7", "7", "2", "10", "2", "16", "7", "2", "10", "2", "7", "15", "14", "17", "16", "20", "14"], "time": [538, 932, 1605, 1630, 1707, 3231, 4735, 4791, 6655, 6682, 6696, 8424, 10390, 10540, 13714, 14853, 16252, 18548, 20664, 21111, 22570, 22824, 23032, 23092, 23465, 23546, 23596, 24474, 24508, 24530, 24613, 24735, 26433, 28208, 29834, 30045]}, "edge": {"target": [], "time": []}}}, "displayed_time": "33.97", "trialTime": 34581, "trial_type": "mouselab-mdp", "trial_index": 31, "time_elapsed": 807366, "internal_node_id": "0.0-6.0-1.0-22.0"}}, {"uniqueid": "w79800428:a81404209", "current_trial": 32, "dateTime": 1693843684142, "trialdata": {"revealed_states": [], "clicked_states": ["32", "31", "33", "29", "27", "28", "9", "11", "10", "5"], "num_clicks_accrued": [0, 0, 0, 0, 0, 0, 0, 0, 0, 0, 0, 0, 0], "stateRewards": ["", -1, 2, -2, 5, 80, -61, -27, 12, 44, -26, -75, -2, -4, 1, -16, 42, -49, -50, 4, -44, 2, 80, -2, -2, 5, -2, 59, 10, 24, 7, -48, -86, -44], "withholdReward": false, "trial_id": "mdp_trial_24", "block": "test", "trialIndex": 25, "score": 70, "costs": -14.000000000000002, "simulationMode": [null, null, null, null, null], "rewards": [-1, 2, -2, 5, 80], "path": ["0", "0", "1", "2", "3", "4", "5"], "rt": [22891, 115, 290, 295, 150], "actions": ["up", "up", "up", "right", "up"], "actionTimes": [24461, 25079, 25869, 26667, 27316], "queries": {"click": {"state": {"target": ["32", "31", "33", "29", "27", "28", "9", "11", "10", "5"], "time": [2352, 4337, 6647, 8533, 10521, 12984, 15428, 17574, 19470, 21367]}, "edge": {"target": [], "time": []}}, "mouseover": {"state": {"target": ["0", "32", "31", "21", "21", "30", "33", "29", "27", "28", "9", "11", "10", "3", "5", "6", "6"], "time": [1842, 2154, 3630, 4878, 5353, 5984, 6361, 7693, 9198, 11464, 14914, 16358, 18440, 20537, 20613, 22057, 22378]}, "edge": {"target": [], "time": []}}, "mouseout": {"state": {"target": ["20", "19", "12", "0", "32", "31", "21", "21", "30", "33", "29", "27", "28", "9", "11", "11", "10", "3", "5", "5", "6"], "time": [640, 679, 750, 1846, 2448, 4801, 5005, 5863, 6242, 7230, 8621, 10973, 14582, 16158, 17664, 18115, 19556, 20551, 21461, 21949, 22071]}, "edge": {"target": [], "time": []}}}, "displayed_time": "27.82", "trialTime": 28602, "trial_type": "mouselab-mdp", "trial_index": 32, "time_elapsed": 836088, "internal_node_id": "0.0-6.0-1.0-23.0"}}, {"uniqueid": "w79800428:a81404209", "current_trial": 33, "dateTime": 1693843715123, "trialdata": {"revealed_states": [], "clicked_states": ["32", "31", "21", "20", "17", "16", "18", "6", "5", "9", "11"], "num_clicks_accrued": [0, 0, 0, 0, 0, 0, 0, 0, 0, 0, 0, 0, 0], "stateRewards": ["", 2, -2, 7, -11, -76, -65, -23, 16, -58, 30, 81, 1, 2, 7, 14, 9, 55, -2, 6, 11, -15, 31, -1, -1, -3, 2, 15, 2, 46, 15, 18, 45, -34], "withholdReward": false, "trial_id": "mdp_trial_25", "block": "test", "trialIndex": 26, "score": 88.6, "costs": -15.400000000000002, "simulationMode": [null, null, null, null, null], "rewards": [2, -2, 7, 16, 81], "path": ["0", "0", "1", "2", "3", "8", "11"], "rt": [25427, 308, 173, 288, 23], "actions": ["up", "up", "up", "left", "left"], "actionTimes": [26580, 27389, 28061, 28857, 29382], "queries": {"click": {"state": {"target": ["32", "31", "21", "20", "17", "16", "18", "6", "5", "9", "11"], "time": [2238, 4223, 6142, 8278, 10321, 13339, 15251, 17865, 19755, 21710, 23577]}, "edge": {"target": [], "time": []}}, "mouseover": {"state": {"target": ["23", "31", "32", "31", "21", "20", "17", "16", "16", "18", "6", "5", "9", "11", "10", "27"], "time": [1700, 1788, 1958, 3451, 5091, 7703, 9495, 11287, 12919, 13960, 17399, 19087, 21264, 22704, 24757, 25716]}, "edge": {"target": [], "time": []}}, "mouseout": {"state": {"target": ["6", "7", "0", "23", "31", "32", "31", "21", "20", "17", "16", "16", "18", "6", "5", "9", "9", "11", "11", "10", "27"], "time": [537, 587, 1679, 1738, 1817, 2968, 4686, 7648, 8983, 11188, 12723, 13879, 15337, 18582, 20914, 21803, 22582, 23662, 24660, 25614, 25766]}, "edge": {"target": [], "time": []}}}, "displayed_time": "29.89", "trialTime": 30860, "trial_type": "mouselab-mdp", "trial_index": 33, "time_elapsed": 867070, "internal_node_id": "0.0-6.0-1.0-24.0"}}, {"uniqueid": "w79800428:a81404209", "current_trial": 34, "dateTime": 1693843741149, "trialdata": {"revealed_states": [], "clicked_states": ["32", "33", "31", "21", "20", "22", "17", "16"], "num_clicks_accrued": [0, 0, 0, 0, 0, 0, 0, 0, 0, 0, 0, 0, 0], "stateRewards": ["", -1, 4, -6, -5, -22, -38, -38, -2, -56, 88, 14, -1, -1, -7, -6, 61, -60, 21, 11, 57, 31, -30, -2, -2, 6, -9, -44, -70, -44, -15, 34, 16, -78], "withholdReward": false, "trial_id": "mdp_trial_26", "block": "test", "trialIndex": 27, "score": 34.8, "costs": -11.200000000000001, "simulationMode": [null, null, null, null, null], "rewards": [-1, -1, -7, -6, 61], "path": ["0", "0", "12", "13", "14", "15", "16"], "rt": [19988, 22, 614, 41, 243], "actions": ["right", "right", "right", "up", "up"], "actionTimes": [21630, 22158, 23273, 23817, 24560], "queries": {"click": {"state": {"target": ["32", "33", "31", "21", "20", "22", "17", "16"], "time": [2594, 4527, 6480, 8690, 10890, 13578, 15936, 18892]}, "edge": {"target": [], "time": []}}, "mouseover": {"state": {"target": ["31", "32", "33", "30", "31", "31", "31", "22", "21", "20", "19", "22", "22", "14", "15", "17", "16", "16", "18"], "time": [2126, 2367, 3576, 5260, 5473, 5743, 6109, 7425, 7929, 10450, 12023, 12049, 12873, 14807, 14943, 15609, 17465, 18665, 19745]}, "edge": {"target": [], "time": []}}, "mouseout": {"state": {"target": ["28", "0", "22", "0", "31", "32", "33", "30", "31", "31", "31", "22", "21", "20", "19", "22", "22", "14", "15", "17", "16", "16", "16", "18", "16"], "time": [666, 701, 887, 2052, 2201, 3495, 5223, 5337, 5500, 5749, 7332, 7575, 10403, 11477, 12029, 12321, 13656, 14821, 14949, 17292, 17597, 18998, 19505, 20903, 21178]}, "edge": {"target": [], "time": []}}}, "displayed_time": "25.06", "trialTime": 25901, "trial_type": "mouselab-mdp", "trial_index": 34, "time_elapsed": 893096, "internal_node_id": "0.0-6.0-1.0-25.0"}}, {"uniqueid": "w79800428:a81404209", "current_trial": 35, "dateTime": 1693843758619, "trialdata": {"revealed_states": [], "clicked_states": ["5", "9", "11", "10"], "num_clicks_accrued": [0, 0, 0, 0, 0, 0, 0, 0, 0, 0, 0, 0, 0], "stateRewards": ["", 1, 2, 3, 16, 63, -25, 16, -4, -14, 82, -66, -1, -3, -3, -11, -14, 19, 46, 3, -34, -82, 66, -2, -3, 4, -5, -63, 77, -37, -1, -45, -41, 84], "withholdReward": false, "trial_id": "mdp_trial_27", "block": "test", "trialIndex": 28, "score": 78.4, "costs": -5.6, "simulationMode": [null, null, null, null, null], "rewards": [1, 2, 3, -4, 82], "path": ["0", "0", "1", "2", "3", "8", "10"], "rt": [11169, 79, 364, 866, 114], "actions": ["up", "up", "up", "left", "down"], "actionTimes": [12389, 12974, 13838, 15206, 15821], "queries": {"click": {"state": {"target": ["5", "9", "11", "10"], "time": [2751, 4960, 7383, 9423]}, "edge": {"target": [], "time": []}}, "mouseover": {"state": {"target": ["5", "9", "11", "11", "10", "2", "7"], "time": [2413, 3808, 6628, 6978, 8010, 9827, 9921]}, "edge": {"target": [], "time": []}}, "mouseout": {"state": {"target": ["17", "15", "18", "1", "5", "9", "11", "11", "10", "2", "7"], "time": [560, 581, 603, 646, 3299, 6572, 6848, 7922, 9502, 9884, 11697]}, "edge": {"target": [], "time": []}}}, "displayed_time": "16.33", "trialTime": 17346, "trial_type": "mouselab-mdp", "trial_index": 35, "time_elapsed": 910566, "internal_node_id": "0.0-6.0-1.0-26.0"}}, {"uniqueid": "w79800428:a81404209", "current_trial": 36, "dateTime": 1693843788981, "trialdata": {"revealed_states": [], "clicked_states": ["32", "31", "27", "28", "29", "9", "5", "6", "16", "17"], "num_clicks_accrued": [0, 0, 0, 0, 0, 0, 0, 0, 0, 0, 0, 0, 0], "stateRewards": ["", -1, 3, 8, 9, -53, 20, -84, 2, -28, -62, -31, -1, -2, -7, 2, 51, 58, 45, -4, -17, -41, 36, 2, -2, -7, -15, 29, -54, -37, -16, -43, 65, -17], "withholdReward": false, "trial_id": "mdp_trial_28", "block": "test", "trialIndex": 29, "score": 28, "costs": -14.000000000000002, "simulationMode": [null, null, null, null, null], "rewards": [2, -2, -7, -16, 65], "path": ["0", "0", "23", "24", "25", "30", "32"], "rt": [24077, 99, 397, 267, 23], "actions": ["left", "left", "left", "down", "down"], "actionTimes": [25946, 26550, 27447, 28214, 28736], "queries": {"click": {"state": {"target": ["32", "31", "27", "28", "29", "9", "5", "6", "16", "17"], "time": [2874, 4913, 7613, 9978, 12032, 14192, 16081, 18028, 20096, 21966]}, "edge": {"target": [], "time": []}}, "mouseover": {"state": {"target": ["0", "31", "32", "31", "24", "28", "27", "28", "26", "29", "26", "8", "9", "5", "5", "6", "16", "16", "17", "20", "20"], "time": [2240, 2388, 2594, 3605, 6901, 6947, 7180, 9479, 11136, 11372, 12815, 12970, 13761, 14654, 14909, 17331, 19380, 19607, 20630, 23408, 25032]}, "edge": {"target": [], "time": []}}, "mouseout": {"state": {"target": ["18", "0", "31", "32", "31", "24", "28", "27", "28", "26", "29", "26", "8", "9", "5", "5", "6", "16", "16", "17", "20", "20"], "time": [1194, 2246, 2484, 3299, 6888, 6928, 6978, 9206, 11115, 11196, 12800, 12821, 13064, 14605, 14670, 17025, 19294, 19420, 20586, 23152, 24947, 25230]}, "edge": {"target": [], "time": []}}}, "displayed_time": "29.24", "trialTime": 30210, "trial_type": "mouselab-mdp", "trial_index": 36, "time_elapsed": 940928, "internal_node_id": "0.0-6.0-1.0-27.0"}}, {"uniqueid": "w79800428:a81404209", "current_trial": 37, "dateTime": 1693843809628, "trialdata": {"revealed_states": [], "clicked_states": ["21", "20", "22", "17", "16", "18"], "num_clicks_accrued": [0, 0, 0, 0, 0, 0, 0, 0, 0, 0, 0, 0, 0], "stateRewards": ["", -1, -2, 4, 9, 10, -75, 39, 16, -43, 88, -19, -1, 1, 2, 4, -31, 10, 73, 12, 41, -64, -81, -2, 2, -6, 1, -81, -1, -26, 3, -59, -3, -20], "withholdReward": false, "trial_id": "mdp_trial_29", "block": "test", "trialIndex": 30, "score": 70.6, "costs": -8.4, "simulationMode": [null, null, null, null, null], "rewards": [-1, 1, 2, 4, 73], "path": ["0", "0", "12", "13", "14", "15", "18"], "rt": [13715, 80, 617, 405, 18], "actions": ["right", "right", "right", "up", "left"], "actionTimes": [15093, 15673, 16794, 17698, 18215], "queries": {"click": {"state": {"target": ["21", "20", "22", "17", "16", "18"], "time": [2247, 4160, 6105, 8635, 10561, 12394]}, "edge": {"target": [], "time": []}}, "mouseover": {"state": {"target": ["21", "20", "19", "22", "19", "14", "17", "16", "18", "6"], "time": [1856, 3434, 4950, 4999, 6912, 7487, 8274, 9631, 11834, 14320]}, "edge": {"target": [], "time": []}}, "mouseout": {"state": {"target": ["15", "18", "1", "0", "21", "20", "19", "22", "19", "20", "14", "17", "16", "18", "6"], "time": [598, 644, 939, 1665, 2959, 4935, 4975, 6872, 6996, 7299, 7579, 9248, 11719, 13793, 14325]}, "edge": {"target": [], "time": []}}}, "displayed_time": "18.72", "trialTime": 20524, "trial_type": "mouselab-mdp", "trial_index": 37, "time_elapsed": 961573, "internal_node_id": "0.0-6.0-1.0-28.0"}}, {"uniqueid": "w79800428:a81404209", "current_trial": 38, "dateTime": 1693843826697, "trialdata": {"revealed_states": [], "clicked_states": ["27"], "num_clicks_accrued": [0, 0, 0, 0, 0, 0, 0, 0, 0, 0, 0, 0, 0], "stateRewards": ["", 2, -1, 5, 6, 10, 86, 55, 10, -45, 63, -71, 1, -2, 5, -8, -50, -72, 36, 15, 61, 12, 33, -1, -4, 6, 5, 79, -56, -21, -16, -87, 60, -81], "withholdReward": false, "trial_id": "mdp_trial_30", "block": "test", "trialIndex": 31, "score": 83.6, "costs": -1.4, "simulationMode": [null, null, null, null, null], "rewards": [-1, -4, 6, 5, 79], "path": ["0", "0", "23", "24", "25", "26", "27"], "rt": [3765, 5, 80, 16, 251], "actions": ["left", "left", "left", "up", "up"], "actionTimes": [5663, 6172, 6755, 7271, 8027], "queries": {"click": {"state": {"target": ["27"], "time": [2784]}, "edge": {"target": [], "time": []}}, "mouseover": {"state": {"target": ["23", "28", "27", "29", "29"], "time": [2215, 2242, 2536, 3429, 3792]}, "edge": {"target": [], "time": []}}, "mouseout": {"state": {"target": ["2", "10", "0", "23", "28", "27", "29"], "time": [671, 689, 2207, 2228, 2263, 3374, 3593]}, "edge": {"target": [], "time": []}}}, "displayed_time": "15.90", "trialTime": 16950, "trial_type": "mouselab-mdp", "trial_index": 38, "time_elapsed": 978643, "internal_node_id": "0.0-6.0-1.0-29.0"}}, {"uniqueid": "w79800428:a81404209", "current_trial": 39, "dateTime": 1693843867904, "trialdata": {"revealed_states": [], "clicked_states": ["27", "29", "28", "33", "32", "21", "20", "22", "17", "16", "18", "6", "5", "9", "11", "10"], "num_clicks_accrued": [0, 0, 0, 0, 0, 0, 0, 0, 0, 0, 0, 0, 0], "stateRewards": ["", 1, 4, -8, -5, -15, -7, 21, 13, -30, 40, -65, 1, 1, 5, -14, 35, 27, -38, -11, 36, -58, -47, -2, 4, -3, 13, -16, -49, 22, 15, -56, -44, -10], "withholdReward": false, "trial_id": "mdp_trial_31", "block": "test", "trialIndex": 32, "score": 27.600000000000005, "costs": -22.399999999999995, "simulationMode": [null, null, null, null, null], "rewards": [1, 4, -8, 13, 40], "path": ["0", "0", "1", "2", "3", "8", "10"], "rt": [35799, 30, 10, 364, 135], "actions": ["up", "up", "up", "left", "down"], "actionTimes": [37039, 37575, 38088, 38959, 39596], "queries": {"click": {"state": {"target": ["27", "29", "28", "33", "32", "21", "20", "22", "17", "16", "18", "6", "5", "9", "11", "10"], "time": [2167, 4271, 6354, 9102, 10965, 13358, 15184, 17202, 19611, 21536, 23739, 25734, 27824, 30083, 31989, 33957]}, "edge": {"target": [], "time": []}}, "mouseover": {"state": {"target": ["23", "28", "27", "29", "26", "28", "24", "33", "33", "32", "22", "21", "20", "20", "19", "22", "22", "22", "14", "15", "17", "16", "18", "6", "5", "9", "11", "10", "2", "7"], "time": [1655, 1682, 1910, 2816, 5738, 5825, 7327, 7676, 8809, 10014, 12480, 12951, 14168, 14465, 15583, 15625, 15880, 16143, 18795, 18866, 19078, 20275, 22680, 24649, 27207, 29869, 31476, 32464, 34483, 34732]}, "edge": {"target": [], "time": []}}, "mouseout": {"state": {"target": ["29", "26", "1", "0", "23", "28", "27", "29", "26", "28", "28", "24", "33", "33", "32", "22", "21", "20", "20", "19", "22", "22", "22", "14", "15", "17", "16", "18", "6", "5", "9", "11", "11", "10", "2"], "time": [493, 504, 638, 1633, 1664, 1725, 2710, 5705, 5789, 6438, 7300, 7384, 7986, 9585, 12330, 12557, 14099, 14255, 15577, 15610, 15662, 15922, 18753, 18816, 18983, 20137, 22496, 24342, 25835, 29380, 31356, 32073, 32401, 34470, 34554]}, "edge": {"target": [], "time": []}}}, "displayed_time": "40.10", "trialTime": 41079, "trial_type": "mouselab-mdp", "trial_index": 39, "time_elapsed": 1019850, "internal_node_id": "0.0-6.0-1.0-30.0"}}, {"uniqueid": "w79800428:a81404209", "current_trial": 40, "dateTime": 1693843907769, "trialdata": {"revealed_states": [], "clicked_states": ["28", "27", "29", "5", "6", "7", "9", "11", "10", "17", "16", "18", "20", "21", "22"], "num_clicks_accrued": [0, 0, 0, 0, 0, 0, 0, 0, 0, 0, 0, 0, 0], "stateRewards": ["", 2, -3, 5, 11, -79, 54, 11, -9, -78, 33, 22, -2, -1, 2, 14, 43, 34, 1, 10, 49, -65, 39, -1, 1, -1, 3, -16, -2, 11, 2, 12, 48, -65], "withholdReward": false, "trial_id": "mdp_trial_32", "block": "test", "trialIndex": 33, "score": 48, "costs": -20.999999999999996, "simulationMode": [null, null, null, null, null], "rewards": [2, -3, 5, 11, 54], "path": ["0", "0", "1", "2", "3", "4", "6"], "rt": [34104, 534, 193, 3, 534], "actions": ["up", "up", "up", "right", "right"], "actionTimes": [35215, 36251, 36947, 37456, 38500], "queries": {"click": {"state": {"target": ["28", "27", "29", "5", "6", "7", "9", "11", "10", "17", "16", "18", "20", "21", "22"], "time": [2278, 4754, 6644, 8570, 10459, 13220, 15639, 17522, 19803, 22140, 24181, 26062, 27988, 30027, 31986]}, "edge": {"target": [], "time": []}}, "mouseover": {"state": {"target": ["0", "25", "26", "28", "27", "29", "3", "6", "5", "6", "7", "3", "9", "11", "8", "10", "2", "15", "17", "17", "16", "18", "14", "20", "20", "21", "22", "19", "20"], "time": [1394, 1685, 1785, 2016, 4475, 5579, 7207, 7563, 7780, 9614, 11144, 14834, 15157, 16422, 19284, 19470, 20292, 20388, 21336, 21883, 23548, 24900, 26596, 26789, 26986, 29439, 30981, 34052, 34077]}, "edge": {"target": [], "time": []}}, "mouseout": {"state": {"target": ["7", "0", "0", "25", "26", "28", "27", "29", "3", "6", "5", "6", "6", "7", "3", "9", "11", "8", "10", "2", "15", "17", "17", "16", "18", "14", "20", "20", "21", "22", "19", "20"], "time": [489, 801, 1406, 1704, 1925, 4241, 5501, 7143, 7219, 7652, 9176, 10531, 11065, 14753, 14842, 16320, 19239, 19291, 20285, 20309, 20743, 21550, 23496, 24713, 26525, 26640, 26817, 29141, 30897, 34032, 34072, 34085]}, "edge": {"target": [], "time": []}}}, "displayed_time": "39.00", "trialTime": 39698, "trial_type": "mouselab-mdp", "trial_index": 40, "time_elapsed": 1059715, "internal_node_id": "0.0-6.0-1.0-31.0"}}, {"uniqueid": "w79800428:a81404209", "current_trial": 41, "dateTime": 1693843926921, "trialdata": {"revealed_states": [], "clicked_states": ["27", "29", "33", "32", "31"], "num_clicks_accrued": [0, 0, 0, 0, 0, 0, 0, 0, 0, 0, 0, 0, 0], "stateRewards": ["", 1, 1, 1, -3, -7, -1, -41, -10, 20, -72, -63, 1, -4, -2, 2, -66, 30, -84, -2, 49, 23, 71, -1, -4, 4, -12, 67, 5, 18, -16, 88, 56, -5], "withholdReward": false, "trial_id": "mdp_trial_33", "block": "test", "trialIndex": 34, "score": 64, "costs": -7, "simulationMode": [null, null, null, null, null], "rewards": [-1, -4, 4, -16, 88], "path": ["0", "0", "23", "24", "25", "30", "31"], "rt": [13649, 37, 440, 38, 58], "actions": ["left", "left", "left", "down", "right"], "actionTimes": [15041, 15580, 16523, 17066, 17625], "queries": {"click": {"state": {"target": ["27", "29", "33", "32", "31"], "time": [3424, 5669, 7564, 9684, 11834]}, "edge": {"target": [], "time": []}}, "mouseover": {"state": {"target": ["23", "24", "26", "27", "29", "33", "32", "31", "10", "8", "9", "8", "1"], "time": [2633, 2700, 3063, 3102, 4048, 6400, 9422, 11027, 12519, 12549, 12668, 13935, 14031]}, "edge": {"target": [], "time": []}}, "mouseout": {"state": {"target": ["0", "23", "24", "26", "27", "29", "33", "32", "31", "10", "8", "9", "8", "1"], "time": [2561, 2661, 2813, 3068, 3958, 6146, 9180, 10978, 12473, 12542, 12590, 13917, 13960, 14039]}, "edge": {"target": [], "time": []}}}, "displayed_time": "18.13", "trialTime": 19023, "trial_type": "mouselab-mdp", "trial_index": 41, "time_elapsed": 1078866, "internal_node_id": "0.0-6.0-1.0-32.0"}}, {"uniqueid": "w79800428:a81404209", "current_trial": 42, "dateTime": 1693843958275, "trialdata": {"revealed_states": [], "clicked_states": ["27", "29", "28", "33", "32", "31", "9", "11", "10", "5", "6", "7"], "num_clicks_accrued": [0, 0, 0, 0, 0, 0, 0, 0, 0, 0, 0, 0, 0], "stateRewards": ["", -2, 3, -1, 2, -72, 63, 20, -1, 62, -66, 39, -2, 3, -6, 14, 22, 47, 1, 8, -49, -1, -41, 2, 2, -6, -16, -64, -60, -34, 16, 54, 22, -7], "withholdReward": false, "trial_id": "mdp_trial_34", "block": "test", "trialIndex": 35, "score": 48.2, "costs": -16.8, "simulationMode": [null, null, null, null, null], "rewards": [-2, 3, -1, 2, 63], "path": ["0", "0", "1", "2", "3", "4", "6"], "rt": [25388, 110, 294, 368, 431], "actions": ["up", "up", "up", "right", "right"], "actionTimes": [26747, 27371, 28169, 29042, 29974], "queries": {"click": {"state": {"target": ["27", "29", "28", "33", "32", "31", "9", "11", "10", "5", "6", "7"], "time": [2545, 4360, 6193, 8546, 10370, 12211, 14130, 16004, 18279, 20234, 22116, 23927]}, "edge": {"target": [], "time": []}}, "mouseover": {"state": {"target": ["28", "27", "29", "26", "28", "8", "9", "11", "26", "33", "32", "31", "23", "10", "9", "9", "11", "8", "10", "3", "5", "5", "6", "7", "16"], "time": [2083, 2290, 3415, 4793, 4999, 6840, 7237, 7826, 7893, 8237, 9022, 10932, 12688, 12722, 12859, 13328, 14720, 17652, 18064, 18672, 18692, 19020, 21071, 22835, 25719]}, "edge": {"target": [], "time": []}}, "mouseout": {"state": {"target": ["0", "18", "16", "0", "28", "27", "29", "26", "28", "28", "8", "9", "11", "26", "33", "32", "31", "23", "10", "9", "9", "9", "11", "11", "8", "10", "3", "5", "5", "6", "7", "16"], "time": [486, 541, 696, 1893, 2119, 3370, 4458, 4831, 6690, 6790, 7197, 7793, 7839, 7925, 8957, 10758, 12666, 12695, 12729, 12980, 14231, 14655, 16205, 17588, 17677, 18659, 18685, 18705, 20693, 22535, 25583, 25754]}, "edge": {"target": [], "time": []}}}, "displayed_time": "30.48", "trialTime": 31204, "trial_type": "mouselab-mdp", "trial_index": 42, "time_elapsed": 1110221, "internal_node_id": "0.0-6.0-1.0-33.0"}}, {"uniqueid": "w79800428:a81404209", "current_trial": 43, "dateTime": 1693843974412, "trialdata": {"revealed_states": [], "clicked_states": ["16"], "num_clicks_accrued": [0, 0, 0, 0, 0, 0, 0, 0, 0, 0, 0, 0, 0], "stateRewards": ["", 2, 4, 7, 7, -79, -2, -21, -5, -53, 47, -21, 1, -3, -1, 7, 83, 7, 84, -7, 80, -37, 69, 2, -4, 5, 2, 4, -20, -30, 7, 71, 44, -81], "withholdReward": false, "trial_id": "mdp_trial_35", "block": "test", "trialIndex": 36, "score": 85.6, "costs": -1.4, "simulationMode": [null, null, null, null, null], "rewards": [1, -3, -1, 7, 83], "path": ["0", "0", "12", "13", "14", "15", "16"], "rt": [3876, 177, 163, 483, 133], "actions": ["right", "right", "right", "up", "up"], "actionTimes": [5058, 5739, 6404, 7389, 8025], "queries": {"click": {"state": {"target": ["16"], "time": [2144]}, "edge": {"target": [], "time": []}}, "mouseover": {"state": {"target": ["18", "16", "17", "17"], "time": [1590, 1882, 2650, 3183]}, "edge": {"target": [], "time": []}}, "mouseout": {"state": {"target": ["16", "18", "18", "16", "17", "17"], "time": [571, 614, 1603, 2579, 2657, 4363]}, "edge": {"target": [], "time": []}}}, "displayed_time": "15.18", "trialTime": 16008, "trial_type": "mouselab-mdp", "trial_index": 43, "time_elapsed": 1126359, "internal_node_id": "0.0-6.0-1.0-34.0"}}, {"uniqueid": "w79800428:a81404209", "current_trial": 44, "dateTime": 1693844002593, "trialdata": {"revealed_states": [], "clicked_states": ["32", "31", "33", "27", "29", "28", "9", "5", "6"], "num_clicks_accrued": [0, 0, 0, 0, 0, 0, 0, 0, 0, 0, 0, 0, 0], "stateRewards": ["", 1, 2, -3, 6, -88, 74, -45, 7, -46, 40, -77, 1, -4, 4, 3, 22, -25, -59, 8, -83, 19, -60, -1, -1, -1, -8, 26, -29, 64, -7, -88, -51, -55], "withholdReward": false, "trial_id": "mdp_trial_36", "block": "test", "trialIndex": 37, "score": 67.4, "costs": -12.600000000000001, "simulationMode": [null, null, null, null, null], "rewards": [1, 2, -3, 6, 74], "path": ["0", "0", "1", "2", "3", "4", "6"], "rt": [20587, 265, 6, 78, 459], "actions": ["up", "up", "up", "right", "right"], "actionTimes": [22477, 23251, 23760, 24342, 25307], "queries": {"click": {"state": {"target": ["32", "31", "33", "27", "29", "28", "9", "5", "6"], "time": [2890, 4694, 6521, 8531, 10383, 12290, 14592, 16617, 18429]}, "edge": {"target": [], "time": []}}, "mouseover": {"state": {"target": ["32", "31", "30", "33", "26", "27", "29", "26", "28", "11", "9", "5", "5", "6", "6", "17"], "time": [2636, 3828, 5198, 5384, 6983, 7253, 9124, 10785, 11302, 13792, 14185, 15174, 15646, 17401, 17917, 19182]}, "edge": {"target": [], "time": []}}, "mouseout": {"state": {"target": ["21", "22", "0", "32", "31", "30", "33", "26", "27", "29", "26", "28", "11", "9", "5", "5", "6", "6", "6", "17"], "time": [1064, 1168, 2377, 3481, 5173, 5258, 6926, 7025, 8957, 10762, 10901, 13649, 13845, 15098, 15260, 17136, 17642, 18515, 18821, 20844]}, "edge": {"target": [], "time": []}}}, "displayed_time": "25.81", "trialTime": 28026, "trial_type": "mouselab-mdp", "trial_index": 44, "time_elapsed": 1154540, "internal_node_id": "0.0-6.0-1.0-35.0"}}, {"uniqueid": "w79800428:a81404209", "current_trial": 45, "dateTime": 1693844046674, "trialdata": {"revealed_states": [], "clicked_states": ["17", "16", "18", "20", "21", "22", "28", "27", "29", "33", "32", "31", "5", "6", "7", "9", "11", "10"], "num_clicks_accrued": [0, 0, 0, 0, 0, 0, 0, 0, 0, 0, 0, 0, 0], "stateRewards": ["", 2, 4, -3, 16, -58, 30, -35, 11, -60, 47, 27, -2, -1, -7, -16, 23, -70, 68, -10, -65, -43, -34, -2, 1, 7, 9, -63, 34, -31, -8, -12, -86, 59], "withholdReward": false, "trial_id": "mdp_trial_37", "block": "test", "trialIndex": 38, "score": 16.80000000000001, "costs": -25.199999999999992, "simulationMode": [null, null, null, null, null], "rewards": [-2, -1, -7, -16, 68], "path": ["0", "0", "12", "13", "14", "15", "18"], "rt": [38145, 370, 503, 159, 22], "actions": ["right", "right", "right", "up", "left"], "actionTimes": [39476, 40347, 41353, 42016, 42543], "queries": {"click": {"state": {"target": ["17", "16", "18", "20", "21", "22", "28", "27", "29", "33", "32", "31", "5", "6", "7", "9", "11", "10"], "time": [2302, 4113, 6044, 7993, 9932, 11801, 14798, 17393, 19254, 21499, 23129, 24973, 26893, 28719, 30857, 32726, 34587, 36555]}, "edge": {"target": [], "time": []}}, "mouseover": {"state": {"target": ["15", "17", "16", "15", "18", "14", "20", "21", "22", "31", "24", "28", "28", "27", "27", "29", "33", "32", "31", "23", "3", "5", "6", "7", "2", "8", "9", "9", "11", "10", "2", "7", "16"], "time": [1670, 2062, 3011, 4709, 4988, 6544, 6856, 9671, 10466, 13611, 13675, 13763, 14197, 16616, 17110, 18661, 20699, 22069, 23888, 25487, 25521, 25877, 27974, 29329, 31365, 31433, 31483, 31738, 33439, 36003, 38820, 38898, 38976]}, "edge": {"target": [], "time": []}}, "mouseout": {"state": {"target": ["7", "2", "1", "15", "17", "16", "15", "18", "18", "14", "20", "21", "22", "31", "24", "28", "28", "27", "27", "29", "33", "32", "31", "23", "3", "5", "6", "6", "7", "2", "8", "9", "9", "11", "10", "2", "7", "16"], "time": [672, 695, 828, 1752, 2872, 4681, 4716, 6139, 6504, 6584, 9295, 10006, 12555, 13660, 13717, 13955, 14883, 16797, 18325, 20372, 21934, 23760, 25473, 25494, 25529, 27911, 28803, 29189, 30960, 31372, 31446, 31525, 33261, 35071, 36648, 38850, 38912, 39012]}, "edge": {"target": [], "time": []}}}, "displayed_time": "43.05", "trialTime": 43920, "trial_type": "mouselab-mdp", "trial_index": 45, "time_elapsed": 1198621, "internal_node_id": "0.0-6.0-1.0-36.0"}}, {"uniqueid": "w79800428:a81404209", "current_trial": 46, "dateTime": 1693844088438, "trialdata": {"revealed_states": [], "clicked_states": ["27", "29", "32", "33", "20", "21", "16", "17", "18", "6", "5", "9", "11", "10", "7"], "num_clicks_accrued": [0, 0, 0, 0, 0, 0, 0, 0, 0, 0, 0, 0, 0], "stateRewards": ["", -1, 4, -3, 3, 57, -61, 5, -11, 23, -1, 34, -2, -4, -1, -13, 27, 38, -36, 4, -45, 21, 88, 1, -2, -1, 1, -69, -5, -78, -12, -9, 38, -54], "withholdReward": false, "trial_id": "mdp_trial_38", "block": "test", "trialIndex": 39, "score": 39, "costs": -20.999999999999996, "simulationMode": [null, null, null, null, null], "rewards": [-1, 4, -3, 3, 57], "path": ["0", "0", "1", "2", "3", "4", "5"], "rt": [35783, 235, 272, 452, 132], "actions": ["up", "up", "up", "right", "up"], "actionTimes": [37282, 38021, 38796, 39750, 40386], "queries": {"click": {"state": {"target": ["27", "29", "32", "33", "20", "21", "16", "17", "18", "6", "5", "9", "11", "10", "7"], "time": [2816, 4671, 6504, 8450, 10265, 12110, 13971, 16003, 19199, 21815, 23833, 26743, 29826, 31793, 33972]}, "edge": {"target": [], "time": []}}, "mouseover": {"state": {"target": ["28", "27", "29", "29", "30", "32", "33", "30", "31", "20", "21", "21", "17", "16", "17", "15", "18", "18", "6", "6", "5", "9", "9", "9", "11", "11", "10", "2", "7"], "time": [2210, 2569, 3380, 3841, 5341, 5519, 6954, 8856, 8864, 9029, 10765, 11379, 12558, 12877, 14845, 17888, 18050, 18974, 20345, 21309, 22770, 25326, 25764, 26474, 28570, 29567, 30597, 32403, 32602]}, "edge": {"target": [], "time": []}}, "mouseout": {"state": {"target": ["17", "15", "18", "1", "0", "28", "27", "29", "29", "30", "32", "33", "30", "31", "20", "21", "21", "17", "16", "17", "15", "18", "18", "6", "6", "5", "9", "9", "9", "9", "11", "11", "10", "2", "7"], "time": [615, 675, 736, 860, 1144, 2231, 3335, 3440, 5097, 5376, 6598, 8849, 8863, 8871, 10704, 11033, 12485, 12615, 14775, 17848, 18009, 18204, 19711, 21092, 22710, 25183, 25594, 25813, 26839, 28328, 28812, 30334, 32380, 32445, 34050]}, "edge": {"target": [], "time": []}}}, "displayed_time": "40.89", "trialTime": 41626, "trial_type": "mouselab-mdp", "trial_index": 46, "time_elapsed": 1240384, "internal_node_id": "0.0-6.0-1.0-37.0"}}, {"uniqueid": "w79800428:a81404209", "current_trial": 47, "dateTime": 1693844125658, "trialdata": {"revealed_states": [], "clicked_states": ["32", "31", "21", "20", "17", "16", "18", "22", "6", "5", "9", "11", "10", "7"], "num_clicks_accrued": [0, 0, 0, 0, 0, 0, 0, 0, 0, 0, 0, 0, 0], "stateRewards": ["", 2, -4, -8, -15, 71, -43, -41, 7, -17, 20, 67, -1, -1, -4, 6, 37, -24, -47, 9, 34, 57, 45, 1, 2, -4, -5, -23, 88, -5, 13, -40, 43, 44], "withholdReward": false, "trial_id": "mdp_trial_39", "block": "test", "trialIndex": 40, "score": 26.400000000000006, "costs": -19.599999999999998, "simulationMode": [null, null, null, null, null], "rewards": [2, -4, -8, -15, 71], "path": ["0", "0", "1", "2", "3", "4", "5"], "rt": [29553, 177, 165, 10, 95], "actions": ["up", "up", "up", "right", "up"], "actionTimes": [32749, 33436, 34106, 34619, 35215], "queries": {"click": {"state": {"target": ["32", "31", "21", "20", "17", "16", "18", "22", "6", "5", "9", "11", "10", "7"], "time": [3951, 5886, 7765, 10450, 12383, 14308, 16526, 18509, 20568, 22403, 24235, 26743, 28877, 30834]}, "edge": {"target": [], "time": []}}, "mouseover": {"state": {"target": ["0", "31", "32", "31", "22", "21", "21", "20", "20", "17", "17", "16", "18", "13", "22", "13", "6", "5", "4", "9", "3", "8", "11", "10", "2", "7"], "time": [3486, 3520, 3551, 4783, 6464, 6507, 6898, 8242, 9668, 11466, 11701, 13256, 15128, 17284, 17820, 19362, 19843, 21332, 22899, 23310, 26066, 26115, 26466, 27262, 29431, 29571]}, "edge": {"target": [], "time": []}}, "mouseout": {"state": {"target": ["16", "0", "31", "32", "31", "22", "21", "21", "20", "20", "17", "17", "16", "18", "18", "13", "22", "13", "18", "6", "5", "4", "9", "3", "8", "11", "10", "2", "7", "17"], "time": [2390, 3499, 3530, 4520, 6409, 6471, 6793, 8158, 8275, 11199, 11510, 13172, 15034, 16653, 17245, 17400, 19342, 19375, 19405, 21103, 22879, 22966, 24772, 26091, 26182, 27199, 29400, 29495, 31268, 36603]}, "edge": {"target": [], "time": []}}}, "displayed_time": "35.72", "trialTime": 37087, "trial_type": "mouselab-mdp", "trial_index": 47, "time_elapsed": 1277604, "internal_node_id": "0.0-6.0-1.0-38.0"}}, {"uniqueid": "w79800428:a81404209", "current_trial": 48, "dateTime": 1693844164297, "trialdata": {"revealed_states": [], "clicked_states": ["32", "9", "5", "6", "16", "17", "18", "20", "21", "22", "27", "28", "29", "33"], "num_clicks_accrued": [0, 0, 0, 0, 0, 0, 0, 0, 0, 0, 0, 0, 0], "stateRewards": ["", -2, -3, 8, -4, -30, 31, 69, 9, 66, 87, 64, -2, 2, 8, 5, 47, 16, -39, -8, -54, 51, -19, 1, -2, -2, -11, -25, -26, 43, -9, 19, -84, 86], "withholdReward": false, "trial_id": "mdp_trial_40", "block": "test", "trialIndex": 41, "score": 54.400000000000006, "costs": -19.599999999999998, "simulationMode": [null, null, null, null, null], "rewards": [1, -2, -2, -9, 86], "path": ["0", "0", "23", "24", "25", "30", "33"], "rt": [32423, 10, 486, 508, 237], "actions": ["left", "left", "left", "down", "left"], "actionTimes": [33599, 34116, 35109, 36125, 36867], "queries": {"click": {"state": {"target": ["32", "9", "5", "6", "16", "17", "18", "20", "21", "22", "27", "28", "29", "33"], "time": [2046, 4158, 6169, 8237, 10419, 12806, 15193, 17041, 18845, 20743, 23671, 26100, 28465, 30413]}, "edge": {"target": [], "time": []}}, "mouseover": {"state": {"target": ["32", "31", "2", "3", "9", "5", "5", "6", "16", "16", "17", "14", "18", "20", "21", "22", "23", "28", "27", "28", "26", "29", "33", "30", "31"], "time": [1742, 2475, 2527, 2583, 3696, 4743, 5070, 7569, 9862, 10068, 12260, 14199, 14335, 16315, 17601, 19406, 21616, 22915, 23454, 24879, 27981, 28201, 30084, 31323, 31431]}, "edge": {"target": [], "time": []}}, "mouseout": {"state": {"target": ["0", "0", "32", "31", "2", "3", "9", "5", "5", "6", "6", "16", "16", "16", "17", "17", "14", "18", "20", "21", "22", "23", "28", "27", "28", "26", "29", "33", "30", "31"], "time": [500, 1428, 2462, 2482, 2546, 2659, 4694, 4807, 7195, 8325, 9791, 9912, 10528, 12193, 12901, 14064, 14249, 15996, 17545, 19316, 21438, 21724, 23207, 24177, 27949, 28091, 29801, 31302, 31371, 32706]}, "edge": {"target": [], "time": []}}}, "displayed_time": "37.37", "trialTime": 38505, "trial_type": "mouselab-mdp", "trial_index": 48, "time_elapsed": 1316243, "internal_node_id": "0.0-6.0-1.0-39.0"}}, {"uniqueid": "w79800428:a81404209", "current_trial": 49, "dateTime": 1693844195089, "trialdata": {"rt": 30790, "response": {"Q0": "$-2 to $2", "Q1": "$-4 to $4", "Q2": "$-88 to $88", "Q3": "The cost was always $1.4.", "Q4": "Very motivated"}, "question_order": [0, 1, 2, 3, 4], "trial_id": "final_quiz_control", "trial_type": "survey-multi-choice", "trial_index": 49, "time_elapsed": 1347036, "internal_node_id": "0.0-6.0-2.0"}}, {"uniqueid": "w79800428:a81404209", "current_trial": 50, "dateTime": 1693844252144, "trialdata": {"rt": 57052, "response": {"Q0": "I was able to point at the screen to the highest node as i clicked on them. I always clicked on the nodes at the edges.", "Q1": "I used this strategy throughout.", "Q2": "I felt that my performance was quite consistent between rounds."}, "trial_id": "self_report_control", "trial_type": "survey-text", "trial_index": 50, "time_elapsed": 1404091, "internal_node_id": "0.0-6.0-3.0"}}, {"uniqueid": "w79800428:a81404209", "current_trial": 51, "dateTime": 1693844263754, "trialdata": {"rt": 11608, "response": {"gender": "male", "age": "34", "colorblind": "0", "effort": "0"}, "trial_type": "survey-html-form", "trial_index": 51, "time_elapsed": 1415701, "internal_node_id": "0.0-6.0-4.0"}}, {"uniqueid": "w79800428:a81404209", "current_trial": 52, "dateTime": 1693844277680, "trialdata": {"rt": 13923, "response": {"Q0": "Nothing was confusing.", "Q1": "No.", "Q2": "None."}, "trial_type": "survey-text", "trial_index": 52, "time_elapsed": 1429627, "internal_node_id": "0.0-6.0-5.0"}}, {"uniqueid": "w79800428:a81404209", "current_trial": 53, "dateTime": 1693844303129, "trialdata": {"rt": 25445, "stimulus": "<h1>Completion Code Instructions (1/2)</h1>\n<br><br><br><br>\nYou have reached the end of the experiment! The completion code consists of two parts: (1) a code with 2 characters (2) a code with 6 characters. On this page, you will receive the second part of the code. The first part of the completion code will be on the next page.\n<br><br>\nThe second part of your completion code is: <b>EWEK22</b>\n<br><br>\nPlease note this down. Then, press 'Next' in order to find the first part of your completion code. Once the data has been saved, you will receive this code either in this window or in the original browser window where you started the experiment.\n <br><br>\n<h2 style='color: red;'>Note: this is <strong>NOT</strong> the full completion code. Copy this down and click 'Next' to get the full completion code on the next page.</h2>", "response": 0, "trial_type": "html-button-response", "trial_index": 53, "time_elapsed": 1455075, "internal_node_id": "0.0-6.0-6.0"}}, {"uniqueid": "w79800428:a81404209", "current_trial": 54, "dateTime": 1693844304131, "trialdata": {"success": true, "trial_type": "fullscreen", "trial_index": 54, "time_elapsed": 1456078, "internal_node_id": "0.0-7.0"}}], "questiondata": {"params": {"CODE": "C6DMOQA6", "MIN_TIME": 14, "inspectCost": 1, "startTime": "Mon Sep 04 2023 16:54:06 GMT+0100 (British Summer Time)", "bonusRate": 0.002, "variance": "1_2_4_8_44", "branching": "31123"}, "final_score": 2414.4}, "eventdata": [{"eventtype": "initialized", "value": null, "timestamp": 1693842845721, "interval": 0}, {"eventtype": "window_resize", "value": [1032, 786], "timestamp": 1693842845721, "interval": 0}, {"eventtype": "window_resize", "value": [1032, 786], "timestamp": 1693842846268, "interval": 547}, {"eventtype": "window_resize", "value": [1707, 960], "timestamp": 1693842852686, "interval": 6418}, {"eventtype": "window_resize", "value": [1032, 786], "timestamp": 1693844303344, "interval": 1450658}], "useragent": "Mozilla/5.0 (Windows NT 10.0; Win64; x64) AppleWebKit/537.36 (KHTML, like Gecko) Chrome/116.0.0.0 Safari/537.36", "mode": "live", "id": "w79800428:a81404209", "status": "user data saved", "Beginhit": "2023-09-04 15:53:30.150543", "Beginexp": "2023-09-04 15:53:40.116227", "Endhit": "2023-09-04 16:17:52.072058", "psiturkStatus": 3, "browser": "<redacted>", "platform": "windows", "language": "en-US"}