{"condition": 1, "counterbalance": 0, "assignmentId": "a93421378", "workerId": "w58651604", "hitId": "h68302381", "currenttrial": 62, "bonus": 0, "data": [{"uniqueid": "w58651604:a93421378", "current_trial": 0, "dateTime": 1693564945822, "trialdata": {"success": true, "trial_type": "fullscreen", "trial_index": 0, "time_elapsed": 10651, "internal_node_id": "0.0-0.0"}}, {"uniqueid": "w58651604:a93421378", "current_trial": 1, "dateTime": 1693564970819, "trialdata": {"view_history": [{"page_index": 0, "viewing_time": 24969}], "rt": 24974, "trial_id": "exp_instructions_misaligned", "trial_type": "instructions", "trial_index": 1, "time_elapsed": 35650, "internal_node_id": "0.0-1.0"}}, {"uniqueid": "w58651604:a93421378", "current_trial": 2, "dateTime": 1693565368356, "trialdata": {"view_history": [{"page_index": 0, "viewing_time": 145240}, {"page_index": 1, "viewing_time": 115518}, {"page_index": 2, "viewing_time": 62689}, {"page_index": 3, "viewing_time": 74069}], "rt": 397518, "trial_id": "mouselab_instructions_1_misaligned", "trial_type": "instructions", "trial_index": 2, "time_elapsed": 433188, "internal_node_id": "0.0-2.0-1.0"}}, {"uniqueid": "w58651604:a93421378", "current_trial": 3, "dateTime": 1693565398371, "trialdata": {"revealed_states": [], "clicked_states": [], "num_clicks_accrued": [0, 0, 0, 0, 0, 0, 0, 0, 0, 0, 0, 0, 0], "stateRewards": ["", -10, -10, 10, -10, -10, -10, -10, -10, 10, -10, 10, 10, 10, -10, -10, -10, -10, 10, -10, 10, -10, -10, -10, 10, -10, -10, 10, -10, 10, 10, -10, 10, -10], "withholdReward": false, "trial_id": "practice_1", "block": "test", "trialIndex": 0, "score": -6.5, "costs": 0, "simulationMode": [null, null, null, null, null], "rewards": [-10, 10, -10, -10, 10], "path": ["0", "0", "23", "24", "25", "26", "27"], "rt": [4943, 2545, 1073, 235, 577], "actions": ["left", "left", "left", "up", "up"], "actionTimes": [10308, 13409, 15022, 15809, 16955], "queries": {"click": {"state": {"target": [], "time": []}, "edge": {"target": [], "time": []}}, "mouseover": {"state": {"target": [], "time": []}, "edge": {"target": [], "time": []}}, "mouseout": {"state": {"target": ["22", "0"], "time": [2836, 23615]}, "edge": {"target": [], "time": []}}}, "displayed_time": "17.53", "trialTime": 27785, "trial_type": "mouselab-mdp", "trial_index": 3, "time_elapsed": 463201, "internal_node_id": "0.0-2.0-2.0-0.0"}}, {"uniqueid": "w58651604:a93421378", "current_trial": 4, "dateTime": 1693565416806, "trialdata": {"revealed_states": [], "clicked_states": [], "num_clicks_accrued": [0, 0, 0, 0, 0, 0, 0, 0, 0, 0, 0, 0, 0], "stateRewards": ["", 10, 10, -10, 10, -10, 10, -10, -10, -10, -10, 10, -10, 10, -10, -10, 10, 10, -10, -10, -10, 10, 10, 10, -10, -10, -10, 10, 10, -10, 10, -10, -10, 10], "withholdReward": false, "trial_id": "practice_2", "block": "test", "trialIndex": 1, "score": -6.5, "costs": 0, "simulationMode": [null, null, null, null, null], "rewards": [-10, 10, -10, -10, 10], "path": ["0", "0", "12", "13", "14", "19", "21"], "rt": [895, 402, 51, 820, 264], "actions": ["right", "right", "right", "down", "down"], "actionTimes": [5776, 6771, 7389, 8872, 9680], "queries": {"click": {"state": {"target": [], "time": []}, "edge": {"target": [], "time": []}}, "mouseover": {"state": {"target": [], "time": []}, "edge": {"target": [], "time": []}}, "mouseout": {"state": {"target": ["13", "12", "0", "0", "18"], "time": [1407, 1455, 1505, 13869, 13941]}, "edge": {"target": [], "time": []}}}, "displayed_time": "10.25", "trialTime": 17112, "trial_type": "mouselab-mdp", "trial_index": 4, "time_elapsed": 481636, "internal_node_id": "0.0-2.0-2.0-1.0"}}, {"uniqueid": "w58651604:a93421378", "current_trial": 5, "dateTime": 1693565480002, "trialdata": {"view_history": [{"page_index": 0, "viewing_time": 50001}, {"page_index": 1, "viewing_time": 13185}], "rt": 63187, "trial_id": "mouselab_instructions_2_misaligned", "trial_type": "instructions", "trial_index": 5, "time_elapsed": 544834, "internal_node_id": "0.0-2.0-3.0"}}, {"uniqueid": "w58651604:a93421378", "current_trial": 6, "dateTime": 1693565548614, "trialdata": {"rt": 68570, "response": {"Q0": "The cost for clicking on nodes may vary between nodes.", "Q1": "The better I perform the higher my bonus will be.", "Q2": "No, the structure of the web will be different each time.", "Q3": "To get the highest total score.", "Q4": "Only before moving the spider.", "Q5": "3 seconds"}, "question_order": [0, 1, 2, 3, 4, 5], "correct": {"Q0": "The cost for clicking on nodes may vary between nodes.", "Q1": "The better I perform the higher my bonus will be.", "Q2": "No, the amount of cash at each node of the web may be different each time.", "Q3": "To get the highest total score.", "Q4": "Only before moving the spider.", "Q5": "3 seconds"}, "trial_id": "mouselab_quiz_misaligned", "trial_type": "survey-multi-choice", "trial_index": 6, "time_elapsed": 613444, "internal_node_id": "0.0-2.0-4.0"}}, {"uniqueid": "w58651604:a93421378", "current_trial": 7, "dateTime": 1693565563060, "trialdata": {"success": true, "trial_type": "fullscreen", "trial_index": 7, "time_elapsed": 627892, "internal_node_id": "0.0-2.1-0.1-0.1"}}, {"uniqueid": "w58651604:a93421378", "current_trial": 8, "dateTime": 1693565623066, "trialdata": {"view_history": [{"page_index": 0, "viewing_time": 10335}, {"page_index": 1, "viewing_time": 9119}, {"page_index": 2, "viewing_time": 10843}, {"page_index": 3, "viewing_time": 29695}], "rt": 59995, "trial_id": "mouselab_instructions_1_misaligned", "trial_type": "instructions", "trial_index": 8, "time_elapsed": 687898, "internal_node_id": "0.0-2.1-1.1"}}, {"uniqueid": "w58651604:a93421378", "current_trial": 9, "dateTime": 1693565638579, "trialdata": {"revealed_states": [], "clicked_states": [], "num_clicks_accrued": [0, 0, 0, 0, 0, 0, 0, 0, 0, 0, 0, 0, 0], "stateRewards": ["", -10, -10, 10, -10, -10, -10, -10, -10, 10, -10, 10, 10, 10, -10, -10, -10, -10, 10, -10, 10, -10, -10, -10, 10, -10, -10, 10, -10, 10, 10, -10, 10, -10], "withholdReward": false, "trial_id": "practice_1", "block": "test", "trialIndex": 2, "score": -26.5, "costs": 0, "simulationMode": [null, null, null, null, null], "rewards": [-10, -10, 10, -10, -10], "path": ["0", "0", "1", "2", "3", "4", "6"], "rt": [558, 44, 102, 3, 674], "actions": ["up", "up", "up", "right", "right"], "actionTimes": [6036, 6634, 7281, 7893, 9119], "queries": {"click": {"state": {"target": [], "time": []}, "edge": {"target": [], "time": []}}, "mouseover": {"state": {"target": [], "time": []}, "edge": {"target": [], "time": []}}, "mouseout": {"state": {"target": ["0", "17"], "time": [11644, 11741]}, "edge": {"target": [], "time": []}}}, "displayed_time": "9.66", "trialTime": 14040, "trial_type": "mouselab-mdp", "trial_index": 9, "time_elapsed": 703409, "internal_node_id": "0.0-2.1-2.1-0.1"}}, {"uniqueid": "w58651604:a93421378", "current_trial": 10, "dateTime": 1693565654259, "trialdata": {"revealed_states": [], "clicked_states": [], "num_clicks_accrued": [0, 0, 0, 0, 0, 0, 0, 0, 0, 0, 0, 0, 0], "stateRewards": ["", 10, 10, -10, 10, -10, 10, -10, -10, -10, -10, 10, -10, 10, -10, -10, 10, 10, -10, -10, -10, 10, 10, 10, -10, -10, -10, 10, 10, -10, 10, -10, -10, 10], "withholdReward": false, "trial_id": "practice_2", "block": "test", "trialIndex": 3, "score": -26.5, "costs": 0, "simulationMode": [null, null, null, null, null], "rewards": [10, -10, -10, -10, -10], "path": ["0", "0", "23", "24", "25", "26", "29"], "rt": [651, 2010, 1008, 1147, 1945], "actions": ["left", "left", "left", "up", "left"], "actionTimes": [3195, 5739, 7293, 8997, 11479], "queries": {"click": {"state": {"target": [], "time": []}, "edge": {"target": [], "time": []}}, "mouseover": {"state": {"target": [], "time": []}, "edge": {"target": [], "time": []}}, "mouseout": {"state": {"target": [], "time": []}, "edge": {"target": [], "time": []}}}, "displayed_time": "12.03", "trialTime": 14051, "trial_type": "mouselab-mdp", "trial_index": 10, "time_elapsed": 719090, "internal_node_id": "0.0-2.1-2.1-1.1"}}, {"uniqueid": "w58651604:a93421378", "current_trial": 11, "dateTime": 1693565686741, "trialdata": {"view_history": [{"page_index": 0, "viewing_time": 29777}, {"page_index": 1, "viewing_time": 2685}], "rt": 32464, "trial_id": "mouselab_instructions_2_misaligned", "trial_type": "instructions", "trial_index": 11, "time_elapsed": 751572, "internal_node_id": "0.0-2.1-3.1"}}, {"uniqueid": "w58651604:a93421378", "current_trial": 12, "dateTime": 1693565748191, "trialdata": {"rt": 61431, "response": {"Q0": "The cost for clicking on nodes may vary between nodes.", "Q1": "The better I perform the higher my bonus will be.", "Q2": "No, the amount of cash at each node of the web may be different each time.", "Q3": "To get the highest total score.", "Q4": "Only before moving the spider.", "Q5": "3 seconds"}, "question_order": [0, 1, 2, 3, 4, 5], "correct": {"Q0": "The cost for clicking on nodes may vary between nodes.", "Q1": "The better I perform the higher my bonus will be.", "Q2": "No, the amount of cash at each node of the web may be different each time.", "Q3": "To get the highest total score.", "Q4": "Only before moving the spider.", "Q5": "3 seconds"}, "trial_id": "mouselab_quiz_misaligned", "trial_type": "survey-multi-choice", "trial_index": 12, "time_elapsed": 813023, "internal_node_id": "0.0-2.1-4.1"}}, {"uniqueid": "w58651604:a93421378", "current_trial": 13, "dateTime": 1693565758731, "trialdata": {"rt": 10513, "response": {"Q0": "No"}, "question_order": [0], "trial_id": "repeat_check", "trial_type": "survey-multi-choice", "trial_index": 13, "time_elapsed": 823561, "internal_node_id": "0.0-4.0-0.0"}}, {"uniqueid": "w58651604:a93421378", "current_trial": 14, "dateTime": 1693565779734, "trialdata": {"rt": 20974, "stimulus": "\n<h1> Get ready to start the game! </h1>\n\nThank you for reading the instructions. Get ready start with the 40 rounds of this game.\n<br><br>\nIf you need to take a break, feel free to take one after the end of a round, before continuing to the next one.\n<br><br>\nRemember, the more money the spider gets, the bigger your bonus will be!\n<br><br>\n<div style='text-align: center;'>Press <code>space</code> to begin.</div>\n\n<br><br>\n(If, at any point, the <code>space</code> key does not take you to the next page, click once on the text and try again.)", "response": " ", "trial_id": "mdp_ready", "trial_type": "html-keyboard-response", "trial_index": 14, "time_elapsed": 844566, "internal_node_id": "0.0-6.0-0.0"}}, {"uniqueid": "w58651604:a93421378", "current_trial": 15, "dateTime": 1693565811134, "trialdata": {"revealed_states": [], "clicked_states": [], "num_clicks_accrued": [0, 0, 0, 0, 0, 0, 0, 0, 0, 0, 0, 0, 0], "stateRewards": ["", 2, 1, -3, 7, 46, 11, -36, 16, 71, 5, 1, 2, -2, -8, -3, -4, 6, 55, 7, 68, -54, 2, 1, 1, 6, -6, 42, -4, -84, -11, -65, 63, 25], "withholdReward": false, "trial_id": "mdp_trial_1", "block": "test", "trialIndex": 4, "score": 53, "costs": 0, "simulationMode": [null, null, null, null, null], "rewards": [2, 1, -3, 7, 46], "path": ["0", "0", "1", "2", "3", "4", "5"], "rt": [1176, 1103, 692, 368, 716], "actions": ["up", "up", "up", "right", "up"], "actionTimes": [7192, 8878, 10124, 11032, 12298], "queries": {"click": {"state": {"target": [], "time": []}, "edge": {"target": [], "time": []}}, "mouseover": {"state": {"target": [], "time": []}, "edge": {"target": [], "time": []}}, "mouseout": {"state": {"target": ["12", "0"], "time": [3312, 25145]}, "edge": {"target": [], "time": []}}}, "displayed_time": "20.02", "trialTime": 29932, "trial_type": "mouselab-mdp", "trial_index": 15, "time_elapsed": 875964, "internal_node_id": "0.0-6.0-1.0-0.0"}}, {"uniqueid": "w58651604:a93421378", "current_trial": 16, "dateTime": 1693565837378, "trialdata": {"revealed_states": [], "clicked_states": [], "num_clicks_accrued": [0, 0, 0, 0, 0, 0, 0, 0, 0, 0, 0, 0, 0], "stateRewards": ["", 2, 3, -1, 6, 44, -4, -59, -14, -3, 64, 16, 1, -3, 3, 6, 3, 49, 19, 3, -49, -14, -86, 1, 2, -3, -8, -33, 14, 32, -13, -77, -47, -67], "withholdReward": false, "trial_id": "mdp_trial_2", "block": "test", "trialIndex": 5, "score": 56, "costs": 0, "simulationMode": [null, null, null, null, null], "rewards": [1, -3, 3, 6, 49], "path": ["0", "0", "12", "13", "14", "15", "17"], "rt": [1376, 1158, 793, 919, 1172], "actions": ["right", "right", "right", "up", "right"], "actionTimes": [7175, 8914, 10351, 11806, 13552], "queries": {"click": {"state": {"target": [], "time": []}, "edge": {"target": [], "time": []}}, "mouseover": {"state": {"target": [], "time": []}, "edge": {"target": [], "time": []}}, "mouseout": {"state": {"target": [], "time": []}, "edge": {"target": [], "time": []}}}, "displayed_time": "19.80", "trialTime": 24785, "trial_type": "mouselab-mdp", "trial_index": 16, "time_elapsed": 902208, "internal_node_id": "0.0-6.0-1.0-1.0"}}, {"uniqueid": "w58651604:a93421378", "current_trial": 17, "dateTime": 1693565860360, "trialdata": {"revealed_states": [], "clicked_states": [], "num_clicks_accrued": [0, 0, 0, 0, 0, 0, 0, 0, 0, 0, 0, 0, 0], "stateRewards": ["", 1, 2, -3, -6, 50, -7, 7, -7, -80, 21, -1, 2, 2, 4, -1, 33, 84, 1, 14, -53, 81, 6, -2, -2, -3, -9, -87, -38, -59, -5, -74, -3, -71], "withholdReward": false, "trial_id": "mdp_trial_3", "block": "test", "trialIndex": 6, "score": 14, "costs": 0, "simulationMode": [null, null, null, null, null], "rewards": [1, 2, -3, -7, 21], "path": ["0", "0", "1", "2", "3", "8", "10"], "rt": [1847, 882, 755, 584, 767], "actions": ["up", "up", "up", "left", "down"], "actionTimes": [5303, 6718, 8065, 9212, 10528], "queries": {"click": {"state": {"target": [], "time": []}, "edge": {"target": [], "time": []}}, "mouseover": {"state": {"target": [], "time": []}, "edge": {"target": [], "time": []}}, "mouseout": {"state": {"target": [], "time": []}, "edge": {"target": [], "time": []}}}, "displayed_time": "17.46", "trialTime": 21372, "trial_type": "mouselab-mdp", "trial_index": 17, "time_elapsed": 925190, "internal_node_id": "0.0-6.0-1.0-2.0"}}, {"uniqueid": "w58651604:a93421378", "current_trial": 18, "dateTime": 1693565882976, "trialdata": {"revealed_states": [], "clicked_states": [], "num_clicks_accrued": [0, 0, 0, 0, 0, 0, 0, 0, 0, 0, 0, 0, 0], "stateRewards": ["", 1, 1, -3, 2, 22, -25, -11, -5, 50, 49, 3, 1, -1, 8, 14, -85, -30, 57, -6, -39, -16, 59, -2, -1, 5, 5, 59, -16, 8, 4, 67, 56, -9], "withholdReward": false, "trial_id": "mdp_trial_4", "block": "test", "trialIndex": 7, "score": -3, "costs": 0, "simulationMode": [null, null, null, null, null], "rewards": [-2, -1, 5, 4, -9], "path": ["0", "0", "23", "24", "25", "30", "33"], "rt": [2666, 720, 684, 555, 2148], "actions": ["left", "left", "left", "down", "left"], "actionTimes": [5786, 7048, 8286, 9383, 12086], "queries": {"click": {"state": {"target": [], "time": []}, "edge": {"target": [], "time": []}}, "mouseover": {"state": {"target": [], "time": []}, "edge": {"target": [], "time": []}}, "mouseout": {"state": {"target": [], "time": []}, "edge": {"target": [], "time": []}}}, "displayed_time": "17.12", "trialTime": 20996, "trial_type": "mouselab-mdp", "trial_index": 18, "time_elapsed": 947807, "internal_node_id": "0.0-6.0-1.0-3.0"}}, {"uniqueid": "w58651604:a93421378", "current_trial": 19, "dateTime": 1693565909886, "trialdata": {"revealed_states": [], "clicked_states": [], "num_clicks_accrued": [0, 0, 0, 0, 0, 0, 0, 0, 0, 0, 0, 0, 0], "stateRewards": ["", 2, -3, -5, 5, 11, -9, -33, 6, 67, 6, -30, -1, -2, -6, 13, 55, 13, 72, -14, 75, 21, -66, -2, -4, 6, 15, -1, -35, 60, 2, 51, -73, 12], "withholdReward": false, "trial_id": "mdp_trial_5", "block": "test", "trialIndex": 8, "score": -30, "costs": 0, "simulationMode": [null, null, null, null, null], "rewards": [2, -3, -5, 6, -30], "path": ["0", "0", "1", "2", "3", "8", "11"], "rt": [1674, 602, 539, 625, 766], "actions": ["up", "up", "up", "left", "left"], "actionTimes": [5217, 6362, 7480, 8658, 9964], "queries": {"click": {"state": {"target": [], "time": []}, "edge": {"target": [], "time": []}}, "mouseover": {"state": {"target": [], "time": []}, "edge": {"target": [], "time": []}}, "mouseout": {"state": {"target": ["0", "17"], "time": [22346, 22397]}, "edge": {"target": [], "time": []}}}, "displayed_time": "17.55", "trialTime": 25230, "trial_type": "mouselab-mdp", "trial_index": 19, "time_elapsed": 974716, "internal_node_id": "0.0-6.0-1.0-4.0"}}, {"uniqueid": "w58651604:a93421378", "current_trial": 20, "dateTime": 1693565934563, "trialdata": {"revealed_states": [], "clicked_states": [], "num_clicks_accrued": [0, 0, 0, 0, 0, 0, 0, 0, 0, 0, 0, 0, 0], "stateRewards": ["", 1, -4, 6, -3, 40, 76, -51, 5, -24, -63, 44, -2, -2, 8, 1, 76, -85, -58, 10, 59, 20, 11, -2, 3, -3, 3, -82, -10, 54, -7, -57, -6, -32], "withholdReward": false, "trial_id": "mdp_trial_6", "block": "test", "trialIndex": 9, "score": 25, "costs": 0, "simulationMode": [null, null, null, null, null], "rewards": [-2, -2, 8, 10, 11], "path": ["0", "0", "12", "13", "14", "19", "22"], "rt": [1682, 981, 624, 901, 836], "actions": ["right", "right", "right", "down", "left"], "actionTimes": [6149, 7667, 8883, 10349, 11777], "queries": {"click": {"state": {"target": [], "time": []}, "edge": {"target": [], "time": []}}, "mouseover": {"state": {"target": [], "time": []}, "edge": {"target": [], "time": []}}, "mouseout": {"state": {"target": ["20", "19", "19", "22", "23"], "time": [1928, 1977, 2255, 2295, 2526]}, "edge": {"target": [], "time": []}}}, "displayed_time": "18.47", "trialTime": 22972, "trial_type": "mouselab-mdp", "trial_index": 20, "time_elapsed": 999393, "internal_node_id": "0.0-6.0-1.0-5.0"}}, {"uniqueid": "w58651604:a93421378", "current_trial": 21, "dateTime": 1693565974301, "trialdata": {"revealed_states": [], "clicked_states": [], "num_clicks_accrued": [0, 0, 0, 0, 0, 0, 0, 0, 0, 0, 0, 0, 0], "stateRewards": ["", 1, 2, -3, 6, -88, 74, -45, 7, -46, 40, -77, 1, -4, 4, 3, 22, -25, -59, 8, -83, 19, -60, -1, -1, -1, -8, 26, -29, 64, -7, -88, -51, -55], "withholdReward": false, "trial_id": "mdp_trial_7", "block": "test", "trialIndex": 10, "score": 26, "costs": 0, "simulationMode": [null, null, null, null, null], "rewards": [1, -4, 4, 3, 22], "path": ["0", "0", "12", "13", "14", "15", "16"], "rt": [2851, 676, 752, 508, 1415], "actions": ["right", "right", "right", "up", "up"], "actionTimes": [5616, 6839, 8136, 9205, 11180], "queries": {"click": {"state": {"target": [], "time": []}, "edge": {"target": [], "time": []}}, "mouseover": {"state": {"target": [], "time": []}, "edge": {"target": [], "time": []}}, "mouseout": {"state": {"target": [], "time": []}, "edge": {"target": [], "time": []}}}, "displayed_time": "16.77", "trialTime": 38047, "trial_type": "mouselab-mdp", "trial_index": 21, "time_elapsed": 1039131, "internal_node_id": "0.0-6.0-1.0-6.0"}}, {"uniqueid": "w58651604:a93421378", "current_trial": 22, "dateTime": 1693565998904, "trialdata": {"revealed_states": [], "clicked_states": [], "num_clicks_accrued": [0, 0, 0, 0, 0, 0, 0, 0, 0, 0, 0, 0, 0], "stateRewards": ["", -2, 3, -5, -7, 66, 43, -60, -4, -70, -75, 4, -1, 2, 2, -13, 54, 11, -40, -1, 77, 32, 15, -2, 3, -8, -9, -35, 83, -27, 6, -74, -34, 44], "withholdReward": false, "trial_id": "mdp_trial_8", "block": "test", "trialIndex": 11, "score": 32, "costs": 0, "simulationMode": [null, null, null, null, null], "rewards": [-2, 3, -5, -7, 43], "path": ["0", "0", "1", "2", "3", "4", "6"], "rt": [2276, 585, 854, 642, 568], "actions": ["up", "up", "up", "right", "right"], "actionTimes": [5874, 7040, 8488, 9675, 10783], "queries": {"click": {"state": {"target": [], "time": []}, "edge": {"target": [], "time": []}}, "mouseover": {"state": {"target": [], "time": []}, "edge": {"target": [], "time": []}}, "mouseout": {"state": {"target": [], "time": []}, "edge": {"target": [], "time": []}}}, "displayed_time": "17.60", "trialTime": 22880, "trial_type": "mouselab-mdp", "trial_index": 22, "time_elapsed": 1063734, "internal_node_id": "0.0-6.0-1.0-7.0"}}, {"uniqueid": "w58651604:a93421378", "current_trial": 23, "dateTime": 1693566025774, "trialdata": {"revealed_states": [], "clicked_states": [], "num_clicks_accrued": [0, 0, 0, 0, 0, 0, 0, 0, 0, 0, 0, 0, 0], "stateRewards": ["", -2, -3, -6, -7, 9, 16, 65, 5, -41, 20, -25, -1, -4, 1, -11, -49, -4, 71, 1, 39, -62, 52, -2, -3, 7, -9, -28, -70, 84, 8, 24, -58, 82], "withholdReward": false, "trial_id": "mdp_trial_9", "block": "test", "trialIndex": 12, "score": -31, "costs": 0, "simulationMode": [null, null, null, null, null], "rewards": [-2, -3, -6, 5, -25], "path": ["0", "0", "1", "2", "3", "8", "11"], "rt": [2057, 1096, 1668, 1458, 1498], "actions": ["up", "up", "up", "left", "left"], "actionTimes": [5360, 7057, 9334, 11319, 13355], "queries": {"click": {"state": {"target": [], "time": []}, "edge": {"target": [], "time": []}}, "mouseover": {"state": {"target": [], "time": []}, "edge": {"target": [], "time": []}}, "mouseout": {"state": {"target": [], "time": []}, "edge": {"target": [], "time": []}}}, "displayed_time": "17.30", "trialTime": 24886, "trial_type": "mouselab-mdp", "trial_index": 23, "time_elapsed": 1090605, "internal_node_id": "0.0-6.0-1.0-8.0"}}, {"uniqueid": "w58651604:a93421378", "current_trial": 24, "dateTime": 1693566048264, "trialdata": {"revealed_states": [], "clicked_states": [], "num_clicks_accrued": [0, 0, 0, 0, 0, 0, 0, 0, 0, 0, 0, 0, 0], "stateRewards": ["", 1, -4, -6, 11, -20, 8, -30, 1, -38, 88, 42, 2, 3, 5, -12, -8, -74, 30, -8, 67, -19, 42, 2, -1, 4, 13, 50, -68, 2, -8, -15, 87, -46], "withholdReward": false, "trial_id": "mdp_trial_10", "block": "test", "trialIndex": 13, "score": -18, "costs": 0, "simulationMode": [null, null, null, null, null], "rewards": [1, -4, -6, 11, -20], "path": ["0", "0", "1", "2", "3", "4", "5"], "rt": [2470, 650, 628, 391, 463], "actions": ["up", "up", "up", "right", "up"], "actionTimes": [4865, 6109, 7308, 8267, 9304], "queries": {"click": {"state": {"target": [], "time": []}, "edge": {"target": [], "time": []}}, "mouseover": {"state": {"target": [], "time": []}, "edge": {"target": [], "time": []}}, "mouseout": {"state": {"target": [], "time": []}, "edge": {"target": [], "time": []}}}, "displayed_time": "16.40", "trialTime": 20545, "trial_type": "mouselab-mdp", "trial_index": 24, "time_elapsed": 1113094, "internal_node_id": "0.0-6.0-1.0-9.0"}}, {"uniqueid": "w58651604:a93421378", "current_trial": 25, "dateTime": 1693566069582, "trialdata": {"revealed_states": [], "clicked_states": [], "num_clicks_accrued": [0, 0, 0, 0, 0, 0, 0, 0, 0, 0, 0, 0, 0], "stateRewards": ["", 2, -3, -4, -1, 25, -16, 16, 10, -71, -20, -55, 1, 3, -4, -9, 1, 32, 11, -6, 32, -50, -41, -1, 4, 4, -8, 7, -81, 70, 2, -52, 45, -10], "withholdReward": false, "trial_id": "mdp_trial_11", "block": "test", "trialIndex": 14, "score": -82, "costs": 0, "simulationMode": [null, null, null, null, null], "rewards": [-1, 4, 4, -8, -81], "path": ["0", "0", "23", "24", "25", "26", "28"], "rt": [690, 487, 521, 357, 498], "actions": ["left", "left", "left", "up", "right"], "actionTimes": [3411, 4437, 5545, 6484, 7512], "queries": {"click": {"state": {"target": [], "time": []}, "edge": {"target": [], "time": []}}, "mouseover": {"state": {"target": [], "time": []}, "edge": {"target": [], "time": []}}, "mouseout": {"state": {"target": [], "time": []}, "edge": {"target": [], "time": []}}}, "displayed_time": "16.72", "trialTime": 19464, "trial_type": "mouselab-mdp", "trial_index": 25, "time_elapsed": 1134412, "internal_node_id": "0.0-6.0-1.0-10.0"}}, {"uniqueid": "w58651604:a93421378", "current_trial": 26, "dateTime": 1693566101415, "trialdata": {"revealed_states": [], "clicked_states": [], "num_clicks_accrued": [0, 0, 0, 0, 0, 0, 0, 0, 0, 0, 0, 0, 0], "stateRewards": ["", 1, 2, 8, -2, 23, -69, -18, -16, 54, -21, 71, -1, -4, 7, 11, 43, -6, 88, 6, -55, 72, 43, 1, -3, -2, -1, 68, -31, -54, 4, -8, 25, -2], "withholdReward": false, "trial_id": "mdp_trial_12", "block": "test", "trialIndex": 15, "score": 32, "costs": 0, "simulationMode": [null, null, null, null, null], "rewards": [1, 2, 8, -2, 23], "path": ["0", "0", "1", "2", "3", "4", "5"], "rt": [4548, 468, 569, 92, 77], "actions": ["up", "up", "up", "right", "up"], "actionTimes": [11060, 12094, 13203, 13851, 14480], "queries": {"click": {"state": {"target": [], "time": []}, "edge": {"target": [], "time": []}}, "mouseover": {"state": {"target": [], "time": []}, "edge": {"target": [], "time": []}}, "mouseout": {"state": {"target": ["0", "17"], "time": [1968, 3890]}, "edge": {"target": [], "time": []}}}, "displayed_time": "20.51", "trialTime": 29899, "trial_type": "mouselab-mdp", "trial_index": 26, "time_elapsed": 1166244, "internal_node_id": "0.0-6.0-1.0-11.0"}}, {"uniqueid": "w58651604:a93421378", "current_trial": 27, "dateTime": 1693566122303, "trialdata": {"revealed_states": [], "clicked_states": [], "num_clicks_accrued": [0, 0, 0, 0, 0, 0, 0, 0, 0, 0, 0, 0, 0], "stateRewards": ["", 1, 1, -7, -9, -44, 24, -83, -15, 44, -24, 72, -2, -3, 4, -5, 57, 55, 29, -11, 22, 12, -25, -1, 2, 7, 12, 33, -8, 47, -4, 8, 50, -4], "withholdReward": false, "trial_id": "mdp_trial_13", "block": "test", "trialIndex": 16, "score": 24, "costs": 0, "simulationMode": [null, null, null, null, null], "rewards": [1, 1, -7, -15, 44], "path": ["0", "0", "1", "2", "3", "8", "9"], "rt": [3081, 1322, 406, 264, 544], "actions": ["up", "up", "up", "left", "up"], "actionTimes": [5714, 7597, 8527, 9325, 10412], "queries": {"click": {"state": {"target": [], "time": []}, "edge": {"target": [], "time": []}}, "mouseover": {"state": {"target": [], "time": []}, "edge": {"target": [], "time": []}}, "mouseout": {"state": {"target": [], "time": []}, "edge": {"target": [], "time": []}}}, "displayed_time": "16.64", "trialTime": 18991, "trial_type": "mouselab-mdp", "trial_index": 27, "time_elapsed": 1187133, "internal_node_id": "0.0-6.0-1.0-12.0"}}, {"uniqueid": "w58651604:a93421378", "current_trial": 28, "dateTime": 1693566146179, "trialdata": {"revealed_states": [], "clicked_states": [], "num_clicks_accrued": [0, 0, 0, 0, 0, 0, 0, 0, 0, 0, 0, 0, 0], "stateRewards": ["", -1, -3, 4, -10, -5, 79, -87, -2, 53, 29, -20, -2, -1, -5, 10, 27, 86, 46, -16, -29, 40, 3, 2, 4, -1, -6, 37, 79, -29, 7, 86, -62, 29], "withholdReward": false, "trial_id": "mdp_trial_14", "block": "test", "trialIndex": 17, "score": -30, "costs": 0, "simulationMode": [null, null, null, null, null], "rewards": [2, 4, -1, -6, -29], "path": ["0", "0", "23", "24", "25", "26", "29"], "rt": [3825, 699, 327, 226, 394], "actions": ["left", "left", "left", "up", "left"], "actionTimes": [8273, 9507, 10386, 11185, 12143], "queries": {"click": {"state": {"target": [], "time": []}, "edge": {"target": [], "time": []}}, "mouseover": {"state": {"target": [], "time": []}, "edge": {"target": [], "time": []}}, "mouseout": {"state": {"target": ["0"], "time": [6844]}, "edge": {"target": [], "time": []}}}, "displayed_time": "18.45", "trialTime": 21990, "trial_type": "mouselab-mdp", "trial_index": 28, "time_elapsed": 1211009, "internal_node_id": "0.0-6.0-1.0-13.0"}}, {"uniqueid": "w58651604:a93421378", "current_trial": 29, "dateTime": 1693566166809, "trialdata": {"revealed_states": [], "clicked_states": [], "num_clicks_accrued": [0, 0, 0, 0, 0, 0, 0, 0, 0, 0, 0, 0, 0], "stateRewards": ["", 1, 2, -6, -13, -51, 22, -4, -12, -44, -12, 6, -2, -2, -2, -14, -46, -4, -77, -2, 36, -79, 41, 2, -4, 2, -6, -55, 59, 70, -5, 39, -19, 24], "withholdReward": false, "trial_id": "mdp_trial_15", "block": "test", "trialIndex": 18, "score": -66, "costs": 0, "simulationMode": [null, null, null, null, null], "rewards": [-2, -2, -2, -14, -46], "path": ["0", "0", "12", "13", "14", "15", "16"], "rt": [2278, 595, 370, 225, 281], "actions": ["right", "right", "right", "up", "up"], "actionTimes": [4997, 6135, 7033, 7810, 8640], "queries": {"click": {"state": {"target": [], "time": []}, "edge": {"target": [], "time": []}}, "mouseover": {"state": {"target": [], "time": []}, "edge": {"target": [], "time": []}}, "mouseout": {"state": {"target": ["0"], "time": [1436]}, "edge": {"target": [], "time": []}}}, "displayed_time": "16.72", "trialTime": 18663, "trial_type": "mouselab-mdp", "trial_index": 29, "time_elapsed": 1231639, "internal_node_id": "0.0-6.0-1.0-14.0"}}, {"uniqueid": "w58651604:a93421378", "current_trial": 30, "dateTime": 1693566193989, "trialdata": {"revealed_states": [], "clicked_states": ["23"], "num_clicks_accrued": [0, 0, 0, 0, 0, 0, 0, 0, 0, 0, 0, 0, 0], "stateRewards": ["", 2, -2, -3, 10, -4, -1, -11, -8, -9, -36, -78, 2, 1, 7, -7, 44, -1, -31, -1, 26, 47, 83, 2, -4, -4, -6, -52, -76, -81, -1, -59, 45, 67], "withholdReward": false, "trial_id": "mdp_trial_16", "block": "test", "trialIndex": 19, "score": -63.75, "costs": 0.25, "simulationMode": [null, null, null, null, null], "rewards": [2, -4, -4, -6, -52], "path": ["0", "0", "23", "24", "25", "26", "27"], "rt": [2271, 575, 344, 298, 507], "actions": ["left", "left", "left", "up", "up"], "actionTimes": [7786, 8916, 9853, 10692, 11740], "queries": {"click": {"state": {"target": ["23"], "time": [6937]}, "edge": {"target": [], "time": []}}, "mouseover": {"state": {"target": ["23"], "time": [6462]}, "edge": {"target": [], "time": []}}, "mouseout": {"state": {"target": ["0"], "time": [4224]}, "edge": {"target": [], "time": []}}}, "displayed_time": "19.52", "trialTime": 25006, "trial_type": "mouselab-mdp", "trial_index": 30, "time_elapsed": 1258820, "internal_node_id": "0.0-6.0-1.0-15.0"}}, {"uniqueid": "w58651604:a93421378", "current_trial": 31, "dateTime": 1693566224127, "trialdata": {"revealed_states": [], "clicked_states": ["1", "12", "13", "23"], "num_clicks_accrued": [0, 0, 0, 0, 0, 0, 0, 0, 0, 0, 0, 0, 0], "stateRewards": ["", 1, 2, -5, 14, 54, -14, -25, 16, -5, -87, 78, -1, 1, 3, -3, 52, 53, 53, -10, 73, -69, -48, 2, 3, 1, 8, -62, -7, 85, 7, 82, 52, -28], "withholdReward": false, "trial_id": "mdp_trial_17", "block": "test", "trialIndex": 20, "score": 66.4, "costs": 0.4, "simulationMode": [null, null, null, null, null], "rewards": [1, 2, -5, 14, 54], "path": ["0", "0", "1", "2", "3", "4", "5"], "rt": [7349, 729, 607, 398, 290], "actions": ["up", "up", "up", "right", "up"], "actionTimes": [10328, 11636, 12802, 13821, 14701], "queries": {"click": {"state": {"target": ["1", "12", "13", "23"], "time": [4162, 5459, 6900, 8595]}, "edge": {"target": [], "time": []}}, "mouseover": {"state": {"target": ["1", "12", "13", "0", "23", "23"], "time": [3627, 5163, 6564, 7933, 8033, 8311]}, "edge": {"target": [], "time": []}}, "mouseout": {"state": {"target": ["23", "0", "1", "12", "13", "0", "23"], "time": [1196, 3531, 4325, 6502, 7819, 8006, 8066]}, "edge": {"target": [], "time": []}}}, "displayed_time": "16.98", "trialTime": 28347, "trial_type": "mouselab-mdp", "trial_index": 31, "time_elapsed": 1288958, "internal_node_id": "0.0-6.0-1.0-16.0"}}, {"uniqueid": "w58651604:a93421378", "current_trial": 32, "dateTime": 1693566248013, "trialdata": {"revealed_states": [], "clicked_states": ["1", "2", "10"], "num_clicks_accrued": [0, 0, 0, 0, 0, 0, 0, 0, 0, 0, 0, 0, 0], "stateRewards": ["", 1, 2, 7, 13, 88, -71, 27, 3, 60, 5, -53, -2, 2, -6, -1, -30, 79, 47, -4, -14, 46, 68, 1, 1, 8, 10, -14, 86, 48, -11, -67, -44, 5], "withholdReward": false, "trial_id": "mdp_trial_18", "block": "test", "trialIndex": 21, "score": 3.75, "costs": -2.25, "simulationMode": [null, null, null, null, null, null], "rewards": [1, 1, 8, 10, -14], "path": ["0", "0", "23", "24", "25", "26", "27"], "rt": [5681, 1603, 609, 417, 383, 262], "actions": ["left", "left", "left", "left", "up", "up"], "actionTimes": [9466, 11095, 12244, 13194, 14125, 14971], "queries": {"click": {"state": {"target": ["1", "2", "10"], "time": [5206, 6281, 7539]}, "edge": {"target": [], "time": []}}, "mouseover": {"state": {"target": ["1", "2", "10", "23"], "time": [4676, 5882, 7219, 8544]}, "edge": {"target": [], "time": []}}, "mouseout": {"state": {"target": ["23", "0", "1", "2", "10"], "time": [1826, 4489, 5743, 7208, 8343]}, "edge": {"target": [], "time": []}}}, "displayed_time": "17.79", "trialTime": 22045, "trial_type": "mouselab-mdp", "trial_index": 32, "time_elapsed": 1312844, "internal_node_id": "0.0-6.0-1.0-17.0"}}, {"uniqueid": "w58651604:a93421378", "current_trial": 33, "dateTime": 1693566271953, "trialdata": {"revealed_states": [], "clicked_states": ["12", "13", "23", "24", "25"], "num_clicks_accrued": [0, 0, 0, 0, 0, 0, 0, 0, 0, 0, 0, 0, 0], "stateRewards": ["", 1, 1, 6, -14, -40, 37, 16, -13, 33, -68, 49, 2, 4, 3, 6, 55, 27, 32, 10, -65, 20, -87, 2, 1, -6, -5, -42, 12, 29, -8, 16, 76, -33], "withholdReward": false, "trial_id": "mdp_trial_19", "block": "test", "trialIndex": 22, "score": 26.85, "costs": -1.15, "simulationMode": [null, null, null, null, null], "rewards": [1, 1, 6, -13, 33], "path": ["0", "0", "1", "2", "3", "8", "9"], "rt": [7645, 327, 221, 238, 209], "actions": ["up", "up", "up", "left", "up"], "actionTimes": [11209, 12074, 12833, 13632, 14414], "queries": {"click": {"state": {"target": ["12", "13", "23", "24", "25"], "time": [4594, 5544, 7693, 8508, 9860]}, "edge": {"target": [], "time": []}}, "mouseover": {"state": {"target": ["12", "13", "0", "23", "23", "24", "31", "25"], "time": [4244, 5344, 6310, 6434, 7358, 8211, 9356, 9572]}, "edge": {"target": [], "time": []}}, "mouseout": {"state": {"target": ["23", "0", "12", "13", "0", "23", "23", "24", "31", "25"], "time": [1406, 3631, 5240, 6253, 6386, 6573, 8082, 9294, 9486, 10617]}, "edge": {"target": [], "time": []}}}, "displayed_time": "17.57", "trialTime": 21858, "trial_type": "mouselab-mdp", "trial_index": 33, "time_elapsed": 1336783, "internal_node_id": "0.0-6.0-1.0-18.0"}}, {"uniqueid": "w58651604:a93421378", "current_trial": 34, "dateTime": 1693566298094, "trialdata": {"revealed_states": [], "clicked_states": ["1", "2", "3", "4"], "num_clicks_accrued": [0, 0, 0, 0, 0, 0, 0, 0, 0, 0, 0, 0, 0], "stateRewards": ["", -1, -3, -7, -7, -76, 30, -49, 11, -70, 56, 2, 1, 4, -3, -14, -59, -83, -25, -9, -21, -67, -73, -2, 4, 4, -9, -11, -32, 60, 9, -87, 22, -64], "withholdReward": false, "trial_id": "mdp_trial_20", "block": "test", "trialIndex": 23, "score": 34.4, "costs": -2.5999999999999996, "simulationMode": [null, null, null, null, null], "rewards": [-2, 4, 4, 9, 22], "path": ["0", "0", "23", "24", "25", "30", "32"], "rt": [7961, 514, 287, 321, 443], "actions": ["left", "left", "left", "down", "down"], "actionTimes": [14316, 15392, 16210, 17060, 18049], "queries": {"click": {"state": {"target": ["1", "2", "3", "4"], "time": [8160, 9721, 11730, 12540]}, "edge": {"target": [], "time": []}}, "mouseover": {"state": {"target": ["1", "2", "3", "4", "23"], "time": [7689, 9409, 11394, 12101, 13661]}, "edge": {"target": [], "time": []}}, "mouseout": {"state": {"target": ["25", "0", "1", "2", "3", "4", "23"], "time": [3589, 7239, 8324, 10324, 12047, 13235, 13715]}, "edge": {"target": [], "time": []}}}, "displayed_time": "20.36", "trialTime": 23997, "trial_type": "mouselab-mdp", "trial_index": 34, "time_elapsed": 1362924, "internal_node_id": "0.0-6.0-1.0-19.0"}}, {"uniqueid": "w58651604:a93421378", "current_trial": 35, "dateTime": 1693566320284, "trialdata": {"revealed_states": [], "clicked_states": ["12", "13", "14", "25", "30"], "num_clicks_accrued": [0, 0, 0, 0, 0, 0, 0, 0, 0, 0, 0, 0, 0], "stateRewards": ["", -2, 4, 3, 5, -61, 4, 30, 1, -47, 83, 10, 1, 4, 7, -14, 19, -74, -83, 6, -2, -2, -65, -1, -2, 4, -11, 12, -1, -68, 11, -38, -28, 66], "withholdReward": false, "trial_id": "mdp_trial_21", "block": "test", "trialIndex": 24, "score": -44.55, "costs": -3.55, "simulationMode": [null, null, null, null, null], "rewards": [-2, 4, 3, 1, -47], "path": ["0", "0", "1", "2", "3", "8", "9"], "rt": [8208, 270, 356, 541, 202], "actions": ["up", "up", "up", "left", "up"], "actionTimes": [11174, 12007, 12906, 14016, 14795], "queries": {"click": {"state": {"target": ["12", "13", "14", "25", "30"], "time": [5322, 6338, 7589, 9049, 10137]}, "edge": {"target": [], "time": []}}, "mouseover": {"state": {"target": ["12", "12", "13", "14", "25", "25", "30"], "time": [3604, 4985, 5942, 7331, 8410, 8745, 9868]}, "edge": {"target": [], "time": []}}, "mouseout": {"state": {"target": ["0", "12", "12", "13", "14", "25", "25"], "time": [3550, 3769, 5915, 7203, 8384, 8578, 9544]}, "edge": {"target": [], "time": []}}}, "displayed_time": "16.97", "trialTime": 19892, "trial_type": "mouselab-mdp", "trial_index": 35, "time_elapsed": 1385114, "internal_node_id": "0.0-6.0-1.0-20.0"}}, {"uniqueid": "w58651604:a93421378", "current_trial": 36, "dateTime": 1693566348956, "trialdata": {"revealed_states": [], "clicked_states": ["1", "2", "3", "4", "5"], "num_clicks_accrued": [0, 0, 0, 0, 0, 0, 0, 0, 0, 0, 0, 0, 0], "stateRewards": ["", 1, 4, 7, -16, -84, -6, -46, -12, -7, -49, -26, -1, 2, -4, 2, 22, 37, -64, 1, 88, -13, -10, 1, -4, -2, 5, 2, -10, -34, 9, 66, 55, 38], "withholdReward": false, "trial_id": "mdp_trial_22", "block": "test", "trialIndex": 25, "score": -2.75, "costs": -4.75, "simulationMode": [null, null, null, null, null, null], "rewards": [1, -4, -2, 5, 2], "path": ["0", "0", "23", "24", "25", "26", "27"], "rt": [8545, 960, 281, 256, 802, 432], "actions": ["left", "left", "left", "left", "up", "up"], "actionTimes": [11743, 12730, 13703, 14522, 15883, 16883], "queries": {"click": {"state": {"target": ["1", "2", "3", "4", "5"], "time": [4415, 5980, 8304, 9314, 10366]}, "edge": {"target": [], "time": []}}, "mouseover": {"state": {"target": ["1", "2", "3", "4", "5"], "time": [3948, 5321, 7842, 9009, 10067]}, "edge": {"target": [], "time": []}}, "mouseout": {"state": {"target": ["30", "31", "0", "1", "2", "3", "4", "5"], "time": [649, 700, 3839, 4983, 6836, 8977, 9879, 11032]}, "edge": {"target": [], "time": []}}}, "displayed_time": "17.40", "trialTime": 26536, "trial_type": "mouselab-mdp", "trial_index": 36, "time_elapsed": 1413786, "internal_node_id": "0.0-6.0-1.0-21.0"}}, {"uniqueid": "w58651604:a93421378", "current_trial": 37, "dateTime": 1693566387606, "trialdata": {"revealed_states": [], "clicked_states": ["12", "13", "23", "24", "26", "25", "30", "32", "19", "14", "16", "3", "2"], "num_clicks_accrued": [0, 0, 0, 0, 0, 0, 0, 0, 0, 0, 0, 0, 0], "stateRewards": ["", -2, 2, 3, -7, 76, 63, 21, 15, 35, -8, -44, 1, 1, -2, -12, 23, 24, 76, -9, 46, 66, -49, -2, -1, 7, 12, 40, -71, -45, -6, 38, -49, 46], "withholdReward": false, "trial_id": "mdp_trial_23", "block": "test", "trialIndex": 26, "score": -1.3500000000000014, "costs": -12.35, "simulationMode": [null, null, null, null, null], "rewards": [1, 1, -2, -12, 23], "path": ["0", "0", "12", "13", "14", "15", "16"], "rt": [23356, 302, 484, 164, 173], "actions": ["right", "right", "right", "up", "up"], "actionTimes": [26368, 27194, 28233, 28952, 29674], "queries": {"click": {"state": {"target": ["12", "13", "23", "24", "26", "25", "30", "32", "19", "14", "16", "3", "2"], "time": [4329, 5473, 6620, 7660, 8858, 9988, 10979, 12177, 16013, 17218, 18456, 22927, 24385]}, "edge": {"target": [], "time": []}}, "mouseover": {"state": {"target": ["12", "12", "13", "0", "23", "24", "28", "26", "25", "30", "32", "19", "14", "15", "16", "2", "2", "3", "2"], "time": [3638, 4040, 5082, 6130, 6304, 7442, 8368, 8655, 9573, 10708, 11886, 13614, 16805, 17922, 18122, 19227, 19647, 22036, 23931]}, "edge": {"target": [], "time": []}}, "mouseout": {"state": {"target": ["7", "1", "12", "12", "13", "0", "23", "24", "28", "26", "25", "25", "30", "32", "19", "14", "15", "16", "2", "2", "3", "3", "2"], "time": [727, 1038, 3710, 4972, 6094, 6253, 7218, 8250, 8440, 9516, 10065, 10557, 11823, 12321, 16726, 17861, 18004, 19170, 19412, 21948, 23038, 23828, 25259]}, "edge": {"target": [], "time": []}}}, "displayed_time": "30.23", "trialTime": 36701, "trial_type": "mouselab-mdp", "trial_index": 37, "time_elapsed": 1452436, "internal_node_id": "0.0-6.0-1.0-22.0"}}, {"uniqueid": "w58651604:a93421378", "current_trial": 38, "dateTime": 1693566431031, "trialdata": {"revealed_states": [], "clicked_states": ["5", "11", "10", "2", "7", "24", "25", "12"], "num_clicks_accrued": [0, 0, 0, 0, 0, 0, 0, 0, 0, 0, 0, 0, 0], "stateRewards": ["", 2, -1, 3, -12, -83, 6, -33, 9, 28, 24, -50, -2, -1, -2, -5, -87, 37, 82, 12, 80, -5, 10, -2, -3, -6, 9, 22, -1, 16, 9, 77, -62, 58], "withholdReward": false, "trial_id": "mdp_trial_24", "block": "test", "trialIndex": 27, "score": 27, "costs": -9.999999999999998, "simulationMode": [null, null, null, null, null], "rewards": [2, -1, 3, 9, 24], "path": ["0", "0", "1", "2", "3", "8", "10"], "rt": [27381, 168, 495, 204, 161], "actions": ["up", "up", "up", "left", "down"], "actionTimes": [30237, 30934, 31965, 32743, 33472], "queries": {"click": {"state": {"target": ["5", "11", "10", "2", "7", "24", "25", "12"], "time": [4181, 7600, 11164, 15445, 17961, 22442, 24622, 26561]}, "edge": {"target": [], "time": []}}, "mouseover": {"state": {"target": ["1", "5", "11", "8", "10", "1", "2", "7", "1", "24", "24", "25", "0", "12"], "time": [3460, 3710, 5356, 8502, 8788, 13107, 15017, 16390, 19354, 19553, 19817, 23363, 25767, 26115]}, "edge": {"target": [], "time": []}}, "mouseout": {"state": {"target": ["1", "5", "5", "11", "8", "10", "1", "2", "7", "1", "24", "24", "25", "0", "12"], "time": [3558, 4313, 4824, 8369, 8571, 12045, 14915, 16345, 19151, 19430, 19686, 23279, 25533, 26057, 28550]}, "edge": {"target": [], "time": []}}}, "displayed_time": "34.03", "trialTime": 41398, "trial_type": "mouselab-mdp", "trial_index": 38, "time_elapsed": 1495861, "internal_node_id": "0.0-6.0-1.0-23.0"}}, {"uniqueid": "w58651604:a93421378", "current_trial": 39, "dateTime": 1693566461897, "trialdata": {"revealed_states": [], "clicked_states": ["23", "24", "25", "26", "27"], "num_clicks_accrued": [0, 0, 0, 0, 0, 0, 0, 0, 0, 0, 0, 0, 0], "stateRewards": ["", 1, -1, 1, 13, 31, -56, 72, 2, 41, 5, 63, -2, -3, -2, 3, -71, -26, 52, 13, -31, 24, -67, 2, -2, 5, 4, 66, 43, 72, 9, 86, -26, 44], "withholdReward": false, "trial_id": "mdp_trial_25", "block": "test", "trialIndex": 28, "score": 70.25, "costs": -4.75, "simulationMode": [null, null, null, null, null], "rewards": [2, -2, 5, 4, 66], "path": ["0", "0", "23", "24", "25", "26", "27"], "rt": [13713, 87, 222, 183, 162], "actions": ["left", "left", "left", "up", "up"], "actionTimes": [18003, 18625, 19395, 20124, 20866], "queries": {"click": {"state": {"target": ["23", "24", "25", "26", "27"], "time": [6069, 8203, 10288, 12159, 14310]}, "edge": {"target": [], "time": []}}, "mouseover": {"state": {"target": ["23", "24", "25", "26", "27"], "time": [5660, 7752, 9829, 11705, 13878]}, "edge": {"target": [], "time": []}}, "mouseout": {"state": {"target": ["1", "0", "23", "24", "25", "26", "27"], "time": [2060, 5440, 7574, 9699, 11510, 13830, 15449]}, "edge": {"target": [], "time": []}}}, "displayed_time": "21.40", "trialTime": 28821, "trial_type": "mouselab-mdp", "trial_index": 39, "time_elapsed": 1526728, "internal_node_id": "0.0-6.0-1.0-24.0"}}, {"uniqueid": "w58651604:a93421378", "current_trial": 40, "dateTime": 1693566494758, "trialdata": {"revealed_states": [], "clicked_states": ["23", "24", "25", "26", "27", "30", "31"], "num_clicks_accrued": [0, 0, 0, 0, 0, 0, 0, 0, 0, 0, 0, 0, 0], "stateRewards": ["", 2, -1, 8, -2, -16, 69, -39, -7, -13, -27, -86, 2, -2, 2, 13, -34, -16, -20, -5, 19, 81, 32, -2, -1, 2, -14, 20, 80, 58, 4, 70, 12, 73], "withholdReward": false, "trial_id": "mdp_trial_26", "block": "test", "trialIndex": 29, "score": 64.55, "costs": -8.45, "simulationMode": [null, null, null, null, null], "rewards": [-2, -1, 2, 4, 70], "path": ["0", "0", "23", "24", "25", "30", "31"], "rt": [17626, 234, 181, 77, 235], "actions": ["left", "left", "left", "down", "right"], "actionTimes": [20664, 21441, 22179, 22869, 23658], "queries": {"click": {"state": {"target": ["23", "24", "25", "26", "27", "30", "31"], "time": [4480, 5851, 7387, 9285, 10951, 14971, 16296]}, "edge": {"target": [], "time": []}}, "mouseover": {"state": {"target": ["0", "23", "24", "25", "26", "27", "25", "30", "31", "32"], "time": [3798, 3977, 5228, 7009, 8438, 10499, 12040, 13171, 15816, 17547]}, "edge": {"target": [], "time": []}}, "mouseout": {"state": {"target": ["0", "23", "24", "25", "26", "27", "25", "30", "31", "32"], "time": [3912, 5135, 6902, 8374, 10398, 11640, 12374, 15798, 17054, 28712]}, "edge": {"target": [], "time": []}}}, "displayed_time": "24.20", "trialTime": 30367, "trial_type": "mouselab-mdp", "trial_index": 40, "time_elapsed": 1559587, "internal_node_id": "0.0-6.0-1.0-25.0"}}, {"uniqueid": "w58651604:a93421378", "current_trial": 41, "dateTime": 1693566542589, "trialdata": {"revealed_states": [], "clicked_states": ["12", "13", "14", "15", "18", "16", "17", "22", "19", "21", "20"], "num_clicks_accrued": [0, 0, 0, 0, 0, 0, 0, 0, 0, 0, 0, 0, 0], "stateRewards": ["", 1, -3, -6, -5, 47, 80, -29, 11, -71, 10, -29, -2, 3, -6, 12, 2, -78, -6, 8, 34, -16, -5, -1, 3, 3, -13, 84, -36, -62, -3, -27, 66, 15], "withholdReward": false, "trial_id": "mdp_trial_27", "block": "test", "trialIndex": 30, "score": 19.95, "costs": -17.05, "simulationMode": [null, null, null, null, null], "rewards": [-2, 3, -6, 8, 34], "path": ["0", "0", "12", "13", "14", "19", "20"], "rt": [34618, 108, 148, 100, 169], "actions": ["right", "right", "right", "down", "right"], "actionTimes": [37946, 38581, 39281, 39911, 40651], "queries": {"click": {"state": {"target": ["12", "13", "14", "15", "18", "16", "17", "22", "19", "21", "20"], "time": [4717, 6260, 8047, 10210, 12010, 15476, 19496, 23869, 27338, 30283, 33837]}, "edge": {"target": [], "time": []}}, "mouseover": {"state": {"target": ["12", "13", "14", "15", "18", "16", "17", "14", "22", "19", "21", "20"], "time": [4017, 5477, 7441, 9347, 11350, 13093, 19181, 23093, 23368, 25532, 28886, 31719]}, "edge": {"target": [], "time": []}}, "mouseout": {"state": {"target": ["25", "24", "23", "0", "12", "13", "14", "15", "18", "16", "17", "14", "22", "22", "19", "21", "20"], "time": [1025, 1395, 1447, 3983, 5385, 7396, 9272, 11279, 12770, 18885, 23035, 23209, 23969, 25161, 28690, 31316, 35774]}, "edge": {"target": [], "time": []}}}, "displayed_time": "41.20", "trialTime": 45989, "trial_type": "mouselab-mdp", "trial_index": 41, "time_elapsed": 1607419, "internal_node_id": "0.0-6.0-1.0-26.0"}}, {"uniqueid": "w58651604:a93421378", "current_trial": 42, "dateTime": 1693566570911, "trialdata": {"revealed_states": [], "clicked_states": ["3", "4", "5", "6"], "num_clicks_accrued": [0, 0, 0, 0, 0, 0, 0, 0, 0, 0, 0, 0, 0], "stateRewards": ["", -1, 4, -8, 12, 14, 69, -8, 5, -72, -14, 56, -1, -1, -1, 9, 67, 19, 11, -9, -88, -58, 3, 2, -4, -8, 4, 62, 77, -74, 5, -31, 65, 88], "withholdReward": false, "trial_id": "mdp_trial_28", "block": "test", "trialIndex": 31, "score": 69.2, "costs": -6.800000000000001, "simulationMode": [null, null, null, null, null], "rewards": [-1, 4, -8, 12, 69], "path": ["0", "0", "1", "2", "3", "4", "6"], "rt": [13325, 229, 199, 124, 128], "actions": ["up", "up", "up", "right", "right"], "actionTimes": [16232, 17050, 17808, 18487, 19187], "queries": {"click": {"state": {"target": ["3", "4", "5", "6"], "time": [5125, 6716, 8938, 12917]}, "edge": {"target": [], "time": []}}, "mouseover": {"state": {"target": ["1", "2", "3", "4", "5", "6"], "time": [3755, 3886, 4716, 6031, 8524, 12367]}, "edge": {"target": [], "time": []}}, "mouseout": {"state": {"target": ["0", "1", "2", "3", "4", "5", "6"], "time": [1258, 3813, 4337, 5851, 8078, 12284, 13635]}, "edge": {"target": [], "time": []}}}, "displayed_time": "19.72", "trialTime": 26227, "trial_type": "mouselab-mdp", "trial_index": 42, "time_elapsed": 1635742, "internal_node_id": "0.0-6.0-1.0-27.0"}}, {"uniqueid": "w58651604:a93421378", "current_trial": 43, "dateTime": 1693566594853, "trialdata": {"revealed_states": [], "clicked_states": ["8", "11", "9"], "num_clicks_accrued": [0, 0, 0, 0, 0, 0, 0, 0, 0, 0, 0, 0, 0], "stateRewards": ["", 1, 1, -6, -2, 7, 77, 3, 16, -16, 66, 31, -1, 3, -8, -6, 33, -50, -48, 7, -60, -66, 36, 2, -3, 3, -7, -12, -61, -79, -4, 8, 74, -70], "withholdReward": false, "trial_id": "mdp_trial_29", "block": "test", "trialIndex": 32, "score": 37.15, "costs": -5.85, "simulationMode": [null, null, null, null, null], "rewards": [1, 1, -6, 16, 31], "path": ["0", "0", "1", "2", "3", "8", "11"], "rt": [11478, 122, 92, 42, 142], "actions": ["up", "up", "up", "left", "left"], "actionTimes": [15181, 15860, 16528, 17107, 17847], "queries": {"click": {"state": {"target": ["8", "11", "9"], "time": [5421, 7981, 11896]}, "edge": {"target": [], "time": []}}, "mouseover": {"state": {"target": ["8", "3", "11", "9"], "time": [4976, 6984, 7512, 8781]}, "edge": {"target": [], "time": []}}, "mouseout": {"state": {"target": ["8", "3", "8", "11", "9"], "time": [6613, 7391, 7453, 8709, 19418]}, "edge": {"target": [], "time": []}}}, "displayed_time": "18.41", "trialTime": 21816, "trial_type": "mouselab-mdp", "trial_index": 43, "time_elapsed": 1659684, "internal_node_id": "0.0-6.0-1.0-28.0"}}, {"uniqueid": "w58651604:a93421378", "current_trial": 44, "dateTime": 1693566632184, "trialdata": {"revealed_states": [], "clicked_states": ["21", "22", "20", "17", "18", "16"], "num_clicks_accrued": [0, 0, 0, 0, 0, 0, 0, 0, 0, 0, 0, 0, 0], "stateRewards": ["", -1, 1, -6, -1, 80, 23, 2, -11, 73, -81, 59, 1, 3, 5, -1, -26, 28, -3, 16, -59, -13, -50, -2, -2, 2, 15, -50, 86, 17, -4, 37, 35, 44], "withholdReward": false, "trial_id": "mdp_trial_30", "block": "test", "trialIndex": 33, "score": 23.1, "costs": -12.9, "simulationMode": [null, null, null, null, null], "rewards": [1, 3, 5, -1, 28], "path": ["0", "0", "12", "13", "14", "15", "17"], "rt": [24173, 26, 132, 14, 114], "actions": ["right", "right", "right", "up", "right"], "actionTimes": [28377, 29038, 29713, 30322, 31002], "queries": {"click": {"state": {"target": ["21", "22", "20", "17", "18", "16"], "time": [5757, 9305, 12847, 17102, 20925, 24439]}, "edge": {"target": [], "time": []}}, "mouseover": {"state": {"target": ["13", "21", "22", "20", "17", "15", "18", "16"], "time": [5119, 5461, 6876, 10094, 16587, 18240, 18538, 21785]}, "edge": {"target": [], "time": []}}, "mouseout": {"state": {"target": ["27", "1", "13", "21", "22", "20", "17", "15", "18", "16"], "time": [1650, 1718, 5242, 6751, 9706, 15946, 18217, 18373, 21497, 26667]}, "edge": {"target": [], "time": []}}}, "displayed_time": "31.56", "trialTime": 35322, "trial_type": "mouselab-mdp", "trial_index": 44, "time_elapsed": 1697014, "internal_node_id": "0.0-6.0-1.0-29.0"}}, {"uniqueid": "w58651604:a93421378", "current_trial": 45, "dateTime": 1693566655383, "trialdata": {"revealed_states": [], "clicked_states": ["32", "33"], "num_clicks_accrued": [0, 0, 0, 0, 0, 0, 0, 0, 0, 0, 0, 0, 0], "stateRewards": ["", 2, 4, -3, 16, -58, 30, -35, 11, -60, 47, 27, -2, -1, -7, -16, 23, -70, 68, -10, -65, -43, -34, -2, 1, 7, 9, -63, 34, -31, -8, -12, -86, 59], "withholdReward": false, "trial_id": "mdp_trial_31", "block": "test", "trialIndex": 34, "score": 52.7, "costs": -4.3, "simulationMode": [null, null, null, null, null], "rewards": [-2, 1, 7, -8, 59], "path": ["0", "0", "23", "24", "25", "30", "33"], "rt": [9527, 176, 203, 108, 236], "actions": ["left", "left", "left", "down", "left"], "actionTimes": [12596, 13334, 14104, 14744, 15503], "queries": {"click": {"state": {"target": ["32", "33"], "time": [4748, 8341]}, "edge": {"target": [], "time": []}}, "mouseover": {"state": {"target": ["31", "32", "33", "30", "31"], "time": [3911, 4267, 5992, 9158, 9322]}, "edge": {"target": [], "time": []}}, "mouseout": {"state": {"target": ["0", "31", "32", "33", "30", "31"], "time": [3798, 4103, 5912, 8471, 9260, 19783]}, "edge": {"target": [], "time": []}}}, "displayed_time": "17.07", "trialTime": 21135, "trial_type": "mouselab-mdp", "trial_index": 45, "time_elapsed": 1720213, "internal_node_id": "0.0-6.0-1.0-30.0"}}, {"uniqueid": "w58651604:a93421378", "current_trial": 46, "dateTime": 1693566701563, "trialdata": {"revealed_states": [], "clicked_states": ["9", "5", "11", "6", "29", "27"], "num_clicks_accrued": [0, 0, 0, 0, 0, 0, 0, 0, 0, 0, 0, 0, 0], "stateRewards": ["", -1, -1, 7, -15, -43, -21, -84, -9, -45, -66, 2, 1, -2, 2, 8, -27, 44, -52, -5, -84, 11, 53, 1, 4, -4, 16, 83, -82, -15, -16, 68, -43, 81], "withholdReward": false, "trial_id": "mdp_trial_32", "block": "test", "trialIndex": 35, "score": 87.1, "costs": -12.9, "simulationMode": [null, null, null, null, null], "rewards": [1, 4, -4, 16, 83], "path": ["0", "0", "23", "24", "25", "26", "27"], "rt": [25586, 91, 158, 180, 134], "actions": ["left", "left", "left", "up", "up"], "actionTimes": [30499, 31194, 31986, 32723, 33464], "queries": {"click": {"state": {"target": ["9", "5", "11", "6", "29", "27"], "time": [6459, 10171, 13789, 17294, 22297, 26469]}, "edge": {"target": [], "time": []}}, "mouseover": {"state": {"target": ["9", "9", "5", "11", "4", "6", "26", "29", "27"], "time": [5809, 6201, 7260, 12032, 14383, 14913, 21317, 21752, 26069]}, "edge": {"target": [], "time": []}}, "mouseout": {"state": {"target": ["33", "23", "9", "9", "5", "11", "4", "6", "26", "29", "29", "27"], "time": [1017, 1101, 5913, 7159, 11377, 14271, 14699, 20922, 21701, 23919, 25768, 36891]}, "edge": {"target": [], "time": []}}}, "displayed_time": "34.05", "trialTime": 43575, "trial_type": "mouselab-mdp", "trial_index": 46, "time_elapsed": 1766392, "internal_node_id": "0.0-6.0-1.0-31.0"}}, {"uniqueid": "w58651604:a93421378", "current_trial": 47, "dateTime": 1693566745639, "trialdata": {"revealed_states": [], "clicked_states": ["17", "16", "21", "22", "32", "31", "27"], "num_clicks_accrued": [0, 0, 0, 0, 0, 0, 0, 0, 0, 0, 0, 0, 0], "stateRewards": ["", -1, 3, 1, -11, -22, -36, 19, -5, -70, -52, 50, -2, -4, 4, -2, -41, -83, 29, -2, 22, 10, -6, -2, 3, -2, 14, 54, 44, 77, -9, -65, -37, -40], "withholdReward": false, "trial_id": "mdp_trial_33", "block": "test", "trialIndex": 36, "score": 51.95, "costs": -15.05, "simulationMode": [null, null, null, null, null], "rewards": [-2, 3, -2, 14, 54], "path": ["0", "0", "23", "24", "25", "26", "27"], "rt": [30034, 54, 128, 60, 154], "actions": ["left", "left", "left", "up", "up"], "actionTimes": [33700, 34312, 35023, 35633, 36332], "queries": {"click": {"state": {"target": ["17", "16", "21", "22", "32", "31", "27"], "time": [5239, 8860, 12359, 16528, 21446, 25398, 29462]}, "edge": {"target": [], "time": []}}, "mouseover": {"state": {"target": ["18", "15", "17", "16", "14", "19", "21", "21", "22", "30", "32", "31", "25", "26", "27"], "time": [4387, 4482, 4843, 6332, 10065, 10152, 10610, 11099, 16076, 20702, 20999, 23081, 28826, 28906, 29005]}, "edge": {"target": [], "time": []}}, "mouseout": {"state": {"target": ["0", "18", "15", "17", "16", "14", "19", "21", "21", "22", "30", "32", "31", "25", "26", "27"], "time": [4309, 4440, 4705, 6217, 9999, 10131, 10204, 10763, 13148, 16929, 20750, 22938, 28783, 28878, 28978, 33025]}, "edge": {"target": [], "time": []}}}, "displayed_time": "36.97", "trialTime": 41363, "trial_type": "mouselab-mdp", "trial_index": 47, "time_elapsed": 1810469, "internal_node_id": "0.0-6.0-1.0-32.0"}}, {"uniqueid": "w58651604:a93421378", "current_trial": 48, "dateTime": 1693566771826, "trialdata": {"revealed_states": [], "clicked_states": ["5"], "num_clicks_accrued": [0, 0, 0, 0, 0, 0, 0, 0, 0, 0, 0, 0, 0], "stateRewards": ["", 2, 4, -5, 7, 81, 35, 6, 11, 14, -72, 42, -1, 2, 3, -7, -77, -44, -40, -15, -85, 51, -32, -2, -1, -5, 7, -74, 47, 52, 16, -49, 48, -46], "withholdReward": false, "trial_id": "mdp_trial_34", "block": "test", "trialIndex": 37, "score": 86.85, "costs": -2.15, "simulationMode": [null, null, null, null, null], "rewards": [2, 4, -5, 7, 81], "path": ["0", "0", "1", "2", "3", "4", "5"], "rt": [6396, 223, 184, 56, 360], "actions": ["up", "up", "up", "right", "up"], "actionTimes": [10278, 11063, 11773, 12423, 13374], "queries": {"click": {"state": {"target": ["5"], "time": [5762]}, "edge": {"target": [], "time": []}}, "mouseover": {"state": {"target": ["2", "4", "5", "9"], "time": [4687, 4871, 5350, 6636]}, "edge": {"target": [], "time": []}}, "mouseout": {"state": {"target": ["0", "2", "4", "5", "9"], "time": [4588, 4772, 4940, 6538, 20145]}, "edge": {"target": [], "time": []}}}, "displayed_time": "17.89", "trialTime": 24113, "trial_type": "mouselab-mdp", "trial_index": 48, "time_elapsed": 1836656, "internal_node_id": "0.0-6.0-1.0-33.0"}}, {"uniqueid": "w58651604:a93421378", "current_trial": 49, "dateTime": 1693566797314, "trialdata": {"revealed_states": [], "clicked_states": ["29"], "num_clicks_accrued": [0, 0, 0, 0, 0, 0, 0, 0, 0, 0, 0, 0, 0], "stateRewards": ["", -1, 1, 8, -3, -24, 11, -65, -6, -77, 48, 44, -2, 1, -2, -7, -55, -35, 33, 8, -28, 19, -53, -1, -1, -5, -5, -70, 10, 44, 8, -58, -70, 51], "withholdReward": false, "trial_id": "mdp_trial_35", "block": "test", "trialIndex": 38, "score": 29.85, "costs": -2.15, "simulationMode": [null, null, null, null, null], "rewards": [-1, -1, -5, -5, 44], "path": ["0", "0", "23", "24", "25", "26", "29"], "rt": [5938, 114, 142, 89, 292], "actions": ["left", "left", "left", "up", "left"], "actionTimes": [11328, 12004, 12714, 13365, 14184], "queries": {"click": {"state": {"target": ["29"], "time": [7263]}, "edge": {"target": [], "time": []}}, "mouseover": {"state": {"target": ["26", "29"], "time": [6688, 6862]}, "edge": {"target": [], "time": []}}, "mouseout": {"state": {"target": ["3", "26", "29"], "time": [1033, 6781, 15388]}, "edge": {"target": [], "time": []}}}, "displayed_time": "19.39", "trialTime": 21914, "trial_type": "mouselab-mdp", "trial_index": 49, "time_elapsed": 1862145, "internal_node_id": "0.0-6.0-1.0-34.0"}}, {"uniqueid": "w58651604:a93421378", "current_trial": 50, "dateTime": 1693566829601, "trialdata": {"revealed_states": [], "clicked_states": ["21", "20", "22"], "num_clicks_accrued": [0, 0, 0, 0, 0, 0, 0, 0, 0, 0, 0, 0, 0], "stateRewards": ["", -2, -1, -4, -15, -14, -67, 32, -3, -59, 63, 31, 2, -1, -7, -15, 71, -66, -27, -3, -54, -39, 72, 2, 1, 1, -13, 77, -40, 35, -9, 35, 75, 57], "withholdReward": false, "trial_id": "mdp_trial_36", "block": "test", "trialIndex": 39, "score": 56.55, "costs": -6.449999999999999, "simulationMode": [null, null, null, null, null], "rewards": [2, -1, -7, -3, 72], "path": ["0", "0", "12", "13", "14", "19", "22"], "rt": [12417, 200, 230, 62, 280], "actions": ["right", "right", "right", "down", "left"], "actionTimes": [16341, 17092, 17888, 18506, 19358], "queries": {"click": {"state": {"target": ["21", "20", "22"], "time": [5491, 9020, 12538]}, "edge": {"target": [], "time": []}}, "mouseover": {"state": {"target": ["12", "19", "21", "20", "19", "22", "14"], "time": [4719, 4779, 4841, 6348, 9693, 10019, 13707]}, "edge": {"target": [], "time": []}}, "mouseout": {"state": {"target": ["9", "2", "1", "12", "19", "21", "20", "19", "22", "14"], "time": [1367, 1751, 1843, 4762, 4829, 6202, 9673, 9762, 13623, 13799]}, "edge": {"target": [], "time": []}}}, "displayed_time": "19.90", "trialTime": 30137, "trial_type": "mouselab-mdp", "trial_index": 50, "time_elapsed": 1894431, "internal_node_id": "0.0-6.0-1.0-35.0"}}, {"uniqueid": "w58651604:a93421378", "current_trial": 51, "dateTime": 1693566863552, "trialdata": {"revealed_states": [], "clicked_states": ["16"], "num_clicks_accrued": [0, 0, 0, 0, 0, 0, 0, 0, 0, 0, 0, 0, 0], "stateRewards": ["", -2, 1, 6, -2, -10, -78, -69, 14, -15, 7, -1, 1, -1, -2, 13, 77, 32, 87, 5, -74, 30, -26, 1, 3, 4, 12, 39, 54, -43, 2, 10, 23, 13], "withholdReward": false, "trial_id": "mdp_trial_37", "block": "test", "trialIndex": 40, "score": 85.85, "costs": -2.15, "simulationMode": [null, null, null, null, null], "rewards": [1, -1, -2, 13, 77], "path": ["0", "0", "12", "13", "14", "15", "16"], "rt": [6264, 323, 300, 283, 326], "actions": ["right", "right", "right", "up", "up"], "actionTimes": [10104, 10972, 11811, 12621, 13511], "queries": {"click": {"state": {"target": ["16"], "time": [6055]}, "edge": {"target": [], "time": []}}, "mouseover": {"state": {"target": ["18", "16", "4", "5"], "time": [5018, 5599, 7378, 7978]}, "edge": {"target": [], "time": []}}, "mouseout": {"state": {"target": ["0", "18", "16", "4"], "time": [4699, 5098, 7015, 7449]}, "edge": {"target": [], "time": []}}}, "displayed_time": "17.84", "trialTime": 31763, "trial_type": "mouselab-mdp", "trial_index": 51, "time_elapsed": 1928382, "internal_node_id": "0.0-6.0-1.0-36.0"}}, {"uniqueid": "w58651604:a93421378", "current_trial": 52, "dateTime": 1693566889852, "trialdata": {"revealed_states": [], "clicked_states": ["9"], "num_clicks_accrued": [0, 0, 0, 0, 0, 0, 0, 0, 0, 0, 0, 0, 0], "stateRewards": ["", -2, 4, -3, -13, 63, -36, 62, 11, 78, 34, -51, 2, -2, 8, -6, -40, -18, 31, 9, 64, 39, 79, 1, 4, -4, 15, -12, 76, 73, -10, -77, 86, -4], "withholdReward": false, "trial_id": "mdp_trial_38", "block": "test", "trialIndex": 41, "score": 85.85, "costs": -2.15, "simulationMode": [null, null, null, null, null], "rewards": [-2, 4, -3, 11, 78], "path": ["0", "0", "1", "2", "3", "8", "9"], "rt": [7007, 218, 681, 194, 266], "actions": ["up", "up", "up", "left", "up"], "actionTimes": [11528, 12293, 13554, 14313, 15133], "queries": {"click": {"state": {"target": ["9"], "time": [7377]}, "edge": {"target": [], "time": []}}, "mouseover": {"state": {"target": ["1", "2", "8", "9", "11"], "time": [5649, 5783, 6327, 6949, 8956]}, "edge": {"target": [], "time": []}}, "mouseout": {"state": {"target": ["5", "2", "0", "1", "2", "8", "9", "11", "28"], "time": [1193, 1243, 5272, 5720, 6201, 6519, 8868, 23240, 23340]}, "edge": {"target": [], "time": []}}}, "displayed_time": "18.52", "trialTime": 24254, "trial_type": "mouselab-mdp", "trial_index": 52, "time_elapsed": 1954683, "internal_node_id": "0.0-6.0-1.0-37.0"}}, {"uniqueid": "w58651604:a93421378", "current_trial": 53, "dateTime": 1693566927070, "trialdata": {"revealed_states": [], "clicked_states": ["29", "32", "17", "5", "9"], "num_clicks_accrued": [0, 0, 0, 0, 0, 0, 0, 0, 0, 0, 0, 0, 0], "stateRewards": ["", -2, 1, -7, -8, -37, -76, -87, 11, 30, -63, 80, -1, 4, 2, -1, 42, 17, 52, -3, -75, -80, -68, 2, -3, -5, -15, -48, 82, 24, -7, 5, -22, -71], "withholdReward": false, "trial_id": "mdp_trial_39", "block": "test", "trialIndex": 42, "score": 22.25, "costs": -10.75, "simulationMode": [null, null, null, null, null], "rewards": [-2, 1, -7, 11, 30], "path": ["0", "0", "1", "2", "3", "8", "9"], "rt": [24863, 96, 218, 222, 267], "actions": ["up", "up", "up", "left", "up"], "actionTimes": [27680, 28357, 29128, 29890, 30689], "queries": {"click": {"state": {"target": ["29", "32", "17", "5", "9"], "time": [4738, 9416, 14271, 19246, 23533]}, "edge": {"target": [], "time": []}}, "mouseover": {"state": {"target": ["24", "25", "29", "32", "32", "30", "18", "17", "16", "6", "5", "5", "9"], "time": [3051, 3116, 3787, 8621, 8994, 13339, 13695, 13787, 18032, 18191, 18428, 18855, 23096]}, "edge": {"target": [], "time": []}}, "mouseout": {"state": {"target": ["0", "24", "25", "29", "32", "32", "30", "18", "17", "16", "6", "5", "5", "9"], "time": [2955, 3100, 3690, 8513, 8674, 10202, 13383, 13738, 15549, 18099, 18365, 18511, 22808, 27010]}, "edge": {"target": [], "time": []}}}, "displayed_time": "31.26", "trialTime": 35090, "trial_type": "mouselab-mdp", "trial_index": 53, "time_elapsed": 1991900, "internal_node_id": "0.0-6.0-1.0-38.0"}}, {"uniqueid": "w58651604:a93421378", "current_trial": 54, "dateTime": 1693566957763, "trialdata": {"revealed_states": [], "clicked_states": ["21", "33", "17"], "num_clicks_accrued": [0, 0, 0, 0, 0, 0, 0, 0, 0, 0, 0, 0, 0], "stateRewards": ["", -1, -3, 1, 13, -64, -29, 12, -4, -33, 50, 56, 2, -3, 4, 11, -64, -58, -55, 12, 47, 38, -25, -2, 2, 5, -15, 85, 7, 84, 10, 8, 57, 26], "withholdReward": false, "trial_id": "mdp_trial_40", "block": "test", "trialIndex": 43, "score": 46.55, "costs": -6.449999999999999, "simulationMode": [null, null, null, null, null], "rewards": [2, -3, 4, 12, 38], "path": ["0", "0", "12", "13", "14", "19", "21"], "rt": [15079, 121, 171, 183, 217], "actions": ["right", "right", "right", "down", "down"], "actionTimes": [18411, 19079, 19779, 20490, 21260], "queries": {"click": {"state": {"target": ["21", "33", "17"], "time": [5012, 10279, 14922]}, "edge": {"target": [], "time": []}}, "mouseover": {"state": {"target": ["12", "20", "21", "30", "33", "17"], "time": [4029, 4114, 4645, 9451, 9689, 14472]}, "edge": {"target": [], "time": []}}, "mouseout": {"state": {"target": ["8", "1", "12", "20", "21", "30", "33", "17"], "time": [1163, 1559, 4090, 4159, 6523, 9533, 10855, 15393]}, "edge": {"target": [], "time": []}}}, "displayed_time": "21.80", "trialTime": 28581, "trial_type": "mouselab-mdp", "trial_index": 54, "time_elapsed": 2022594, "internal_node_id": "0.0-6.0-1.0-39.0"}}, {"uniqueid": "w58651604:a93421378", "current_trial": 55, "dateTime": 1693567053798, "trialdata": {"rt": 95867, "response": {"Q0": "$-2 to $2", "Q1": "$-4 to $4", "Q2": "$-16 to $16", "Q3": "The cost for clicking on nodes varied between nodes.", "Q4": "Very motivated"}, "question_order": [0, 1, 2, 3, 4], "trial_id": "final_quiz_control", "trial_type": "survey-multi-choice", "trial_index": 55, "time_elapsed": 2118628, "internal_node_id": "0.0-6.0-2.0"}}, {"uniqueid": "w58651604:a93421378", "current_trial": 56, "dateTime": 1693567292528, "trialdata": {"rt": 238538, "response": {"Q0": "I decided not to employ the inspector node because I wanted to avoid the cost it came with. I believed in the luck of choosing the right circles.", "Q1": "Yes I did. I realized that when I do not employ the inspector node, I sometimes fell really bad to the negative. Once employed, the money has been green throughout and I now know for sure that the inspector node is the best way to go ", "Q2": "I figured out during the game that I did not understand the instructions perfectly because I did not know how to use the inspector node. I then had to figure this out and I did.  "}, "trial_id": "self_report_control", "trial_type": "survey-text", "trial_index": 56, "time_elapsed": 2357359, "internal_node_id": "0.0-6.0-3.0"}}, {"uniqueid": "w58651604:a93421378", "current_trial": 57, "dateTime": 1693567372523, "trialdata": {"rt": 79973, "response": {"Q0": "Strongly disagree", "Q1": "Disagree", "Q2": "Strongly agree", "Q3": "Strongly agree", "Q4": "Strongly disagree", "Q5": "Strongly agree", "Q6": "Strongly disagree"}, "question_order": [0, 1, 2, 3, 4, 5, 6], "trial_id": "self_report_2", "trial_type": "survey-multi-choice", "trial_index": 57, "time_elapsed": 2437354, "internal_node_id": "0.0-6.0-4.0"}}, {"uniqueid": "w58651604:a93421378", "current_trial": 58, "dateTime": 1693567414416, "trialdata": {"rt": 41726, "response": {"gender": "male", "age": "30", "colorblind": "0", "effort": "0"}, "trial_type": "survey-html-form", "trial_index": 58, "time_elapsed": 2479248, "internal_node_id": "0.0-6.0-5.0"}}, {"uniqueid": "w58651604:a93421378", "current_trial": 59, "dateTime": 1693567538905, "trialdata": {"rt": 124458, "response": {"Q0": "Not really confusing, but I struggled a little bit to use the inspector node. I then figured it out and all went great. ", "Q1": "No. It was my first time I played a game of this kind. Quite fun", "Q2": "On the instructions menu, please see how you can simplify the use of the inspector node. "}, "trial_type": "survey-text", "trial_index": 59, "time_elapsed": 2603737, "internal_node_id": "0.0-6.0-6.0"}}, {"uniqueid": "w58651604:a93421378", "current_trial": 60, "dateTime": 1693567576336, "trialdata": {"rt": 37268, "stimulus": "<h1>Completion Code Instructions (1/2)</h1>\n<br><br><br><br>\nYou have reached the end of the experiment! The completion code consists of two parts: (1) a code with 2 characters (2) a code with 6 characters. On this page, you will receive the second part of the code. The first part of the completion code will be on the next page.\n<br><br>\nThe second part of your completion code is: <b>EWEK22</b>\n<br><br>\nPlease note this down. Then, press 'Finish HIT' in order to find the first part of your completion code. Once the data has been saved, you will receive this code either in this window or in the original browser window where you started the experiment.\n", "response": 0, "trial_type": "html-button-response", "trial_index": 60, "time_elapsed": 2641168, "internal_node_id": "0.0-6.0-7.0"}}, {"uniqueid": "w58651604:a93421378", "current_trial": 61, "dateTime": 1693567577350, "trialdata": {"success": true, "trial_type": "fullscreen", "trial_index": 61, "time_elapsed": 2642182, "internal_node_id": "0.0-7.0"}}], "questiondata": {"params": {"CODE": "C6DMOQA6", "MIN_TIME": 14, "inspectCost": 1, "startTime": "Fri Sep 01 2023 12:42:10 GMT+0200 (South Africa Standard Time)", "bonusRate": 0.002, "variance": "1_2_4_8_44", "branching": "31123"}}, "eventdata": [{"eventtype": "initialized", "value": null, "timestamp": 1693564929722, "interval": 0}, {"eventtype": "window_resize", "value": [1024, 654], "timestamp": 1693564929723, "interval": 1}, {"eventtype": "window_resize", "value": [1024, 654], "timestamp": 1693564930312, "interval": 589}, {"eventtype": "window_resize", "value": [1366, 768], "timestamp": 1693564945117, "interval": 14805}, {"eventtype": "focus", "value": "off", "timestamp": 1693565558755, "interval": 613638}, {"eventtype": "focus", "value": "on", "timestamp": 1693565558756, "interval": 1}, {"eventtype": "window_resize", "value": [1024, 654], "timestamp": 1693565558992, "interval": 236}, {"eventtype": "window_resize", "value": [1366, 768], "timestamp": 1693565562381, "interval": 3389}, {"eventtype": "window_resize", "value": [1024, 654], "timestamp": 1693567576742, "interval": 2014361}], "useragent": "Mozilla/5.0 (Windows NT 10.0; Win64; x64) AppleWebKit/537.36 (KHTML, like Gecko) Chrome/116.0.0.0 Safari/537.36", "mode": "live", "id": "w58651604:a93421378", "status": "user data saved", "Beginhit": "2023-09-01 10:42:03.3616", "Beginexp": "2023-09-01 10:42:25.676417", "Endhit": "2023-09-01 11:26:17.774371", "psiturkStatus": 3, "browser": "<redacted>", "platform": "windows", "language": "en-US"}