{"condition": 1, "counterbalance": 0, "assignmentId": "a67548033", "workerId": "w80168495", "hitId": "h27564944", "currenttrial": 62, "bonus": 0, "data": [{"uniqueid": "w80168495:a67548033", "current_trial": 0, "dateTime": 1693481025953, "trialdata": {"success": true, "trial_type": "fullscreen", "trial_index": 0, "time_elapsed": 3146, "internal_node_id": "0.0-0.0"}}, {"uniqueid": "w80168495:a67548033", "current_trial": 1, "dateTime": 1693481045703, "trialdata": {"view_history": [{"page_index": 0, "viewing_time": 19736}], "rt": 19737, "trial_id": "exp_instructions_misaligned", "trial_type": "instructions", "trial_index": 1, "time_elapsed": 22895, "internal_node_id": "0.0-1.0"}}, {"uniqueid": "w80168495:a67548033", "current_trial": 2, "dateTime": 1693481405901, "trialdata": {"view_history": [{"page_index": 0, "viewing_time": 116596}, {"page_index": 1, "viewing_time": 162671}, {"page_index": 2, "viewing_time": 32731}, {"page_index": 3, "viewing_time": 48194}], "rt": 360191, "trial_id": "mouselab_instructions_1_misaligned", "trial_type": "instructions", "trial_index": 2, "time_elapsed": 383094, "internal_node_id": "0.0-2.0-1.0"}}, {"uniqueid": "w80168495:a67548033", "current_trial": 3, "dateTime": 1693481473385, "trialdata": {"revealed_states": [], "clicked_states": ["14", "25", "27", "3", "4", "6", "8", "11", "9", "10", "2", "7"], "num_clicks_accrued": [0, 0, 0, 0, 0, 0, 0, 0, 0, 0, 0, 0, 0], "stateRewards": ["", 10, -10, -10, 10, -10, -10, 10, -10, 10, -10, 10, 10, 10, -10, -10, -10, 10, -10, -10, -10, 10, -10, 10, 10, -10, -10, -10, 10, 10, -10, 10, -10, 10], "withholdReward": false, "trial_id": "practice_1", "block": "test", "trialIndex": 0, "score": -12.5, "costs": -6, "simulationMode": [null, null, null, null, null], "rewards": [10, 10, -10, -10, -10], "path": ["0", "0", "12", "13", "14", "15", "18"], "rt": [49412, 2049, 2317, 340, 1312], "actions": ["right", "right", "right", "up", "left"], "actionTimes": [50229, 52781, 55593, 56451, 58305], "queries": {"click": {"state": {"target": ["14", "25", "27", "3", "4", "6", "8", "11", "9", "10", "2", "7"], "time": [3106, 6350, 8514, 10970, 14303, 17739, 20227, 23078, 24295, 29394, 30577, 32275]}, "edge": {"target": [], "time": []}}, "mouseover": {"state": {"target": ["12", "13", "14", "15", "18", "2", "2", "2", "2", "24", "25", "24", "28", "26", "27", "10", "3", "4", "3", "8", "3", "6", "4", "5", "9", "8", "11", "9", "8", "27", "10", "2", "10", "2", "7", "1", "4", "6", "4", "3", "3", "3"], "time": [1602, 1801, 1871, 4075, 4509, 4615, 4715, 5172, 5372, 5830, 6020, 7099, 7731, 7917, 8201, 9167, 9594, 11810, 15649, 15822, 16743, 17105, 18789, 19120, 19406, 19887, 21641, 23867, 25249, 25952, 28396, 28445, 29183, 30194, 31938, 32876, 34196, 34660, 35240, 35814, 39089, 45314]}, "edge": {"target": [], "time": []}}, "mouseout": {"state": {"target": ["0", "0", "12", "13", "14", "15", "18", "2", "2", "2", "2", "24", "25", "24", "28", "26", "27", "10", "3", "4", "3", "8", "3", "6", "4", "5", "9", "8", "11", "9", "8", "27", "10", "2", "10", "2", "7", "1", "4", "6", "4", "3", "3", "3"], "time": [32, 1445, 1735, 1851, 3208, 4495, 4533, 4699, 4990, 5265, 5507, 5847, 7036, 7249, 7764, 8102, 9080, 9196, 11777, 15633, 15761, 16728, 16757, 18556, 19037, 19377, 19437, 21343, 23784, 25083, 25332, 28367, 28428, 28479, 29531, 31765, 32643, 33941, 34641, 35224, 35799, 38825, 39583, 48349]}, "edge": {"target": [], "time": []}}}, "displayed_time": "58.80", "trialTime": 66005, "trial_type": "mouselab-mdp", "trial_index": 3, "time_elapsed": 450576, "internal_node_id": "0.0-2.0-2.0-0.0"}}, {"uniqueid": "w80168495:a67548033", "current_trial": 4, "dateTime": 1693481565780, "trialdata": {"revealed_states": [], "clicked_states": ["32", "25", "30", "13", "19", "21", "22", "15", "17", "1", "3", "2", "8", "11", "9", "10", "4", "6", "7", "5", "23", "24", "28", "29", "33", "14", "16", "18"], "num_clicks_accrued": [0, 0, 0, 0, 0, 0, 0, 0, 0, 0, 0, 0, 0], "stateRewards": ["", -10, -10, 10, 10, -10, -10, -10, -10, -10, 10, 10, -10, 10, -10, -10, -10, -10, 10, 10, -10, -10, 10, -10, -10, -10, -10, 10, -10, -10, -10, 10, -10, 10], "withholdReward": false, "trial_id": "practice_2", "block": "test", "trialIndex": 1, "score": -20.5, "costs": -14, "simulationMode": [null, null, null, null, null], "rewards": [-10, 10, -10, -10, 10], "path": ["0", "0", "12", "13", "14", "15", "18"], "rt": [81258, 111, 153, 352, 614], "actions": ["right", "right", "right", "up", "left"], "actionTimes": [84709, 85317, 85974, 86824, 87936], "queries": {"click": {"state": {"target": ["32", "25", "30", "13", "19", "21", "22", "15", "17", "1", "3", "2", "8", "11", "9", "10", "4", "6", "7", "5", "23", "24", "28", "29", "33", "14", "16", "18"], "time": [7719, 9513, 12908, 16307, 18603, 23049, 25891, 29207, 31538, 36641, 38537, 41632, 43475, 45336, 46940, 49013, 51747, 53935, 56387, 58417, 62312, 63739, 65758, 68278, 69818, 71922, 74136, 76121]}, "edge": {"target": [], "time": []}}, "mouseover": {"state": {"target": ["0", "23", "25", "25", "24", "25", "30", "32", "30", "25", "30", "30", "31", "24", "23", "12", "12", "13", "14", "19", "21", "22", "14", "15", "17", "6", "6", "18", "18", "15", "14", "12", "1", "2", "3", "4", "2", "8", "11", "9", "8", "10", "3", "4", "6", "4", "6", "7", "4", "5", "4", "2", "24", "23", "24", "28", "28", "27", "29", "33", "31", "23", "0", "12", "14", "15", "16", "18", "14", "18", "18"], "time": [4491, 4807, 5197, 5369, 5450, 6083, 7063, 7361, 8320, 8982, 10146, 12209, 13591, 14030, 14076, 14126, 14411, 15255, 17138, 18004, 20505, 25117, 28437, 28966, 31207, 33239, 33739, 34438, 34874, 34970, 35076, 35654, 36336, 37453, 37875, 40701, 41201, 43019, 44480, 46378, 48393, 48463, 50578, 50646, 51028, 51390, 52854, 56156, 57817, 57883, 60366, 60786, 61548, 62058, 63031, 65221, 65492, 67686, 68004, 69518, 70952, 71234, 71251, 71284, 71588, 73666, 73898, 75830, 79972, 80477, 80902]}, "edge": {"target": [], "time": []}}, "mouseout": {"state": {"target": ["7", "0", "0", "23", "25", "25", "24", "25", "30", "32", "30", "25", "30", "30", "31", "24", "23", "12", "12", "13", "14", "19", "21", "22", "14", "15", "17", "6", "6", "18", "18", "15", "14", "12", "1", "1", "2", "3", "4", "2", "8", "11", "9", "8", "10", "3", "4", "6", "4", "6", "7", "4", "5", "5", "4", "2", "24", "23", "24", "28", "28", "27", "29", "33", "33", "31", "23", "0", "12", "14", "15", "16", "18", "18", "14", "18", "18"], "time": [2126, 3057, 4535, 4895, 5213, 5436, 5819, 7039, 7279, 8228, 8786, 10043, 11860, 13508, 13924, 14062, 14090, 14175, 14543, 17121, 17518, 20200, 24765, 28264, 28661, 31041, 33161, 33273, 34073, 34543, 34890, 35037, 35375, 35820, 36708, 37253, 37653, 40573, 41106, 42784, 44347, 45713, 48374, 48410, 50511, 50608, 50944, 51329, 52689, 55957, 56510, 57851, 58537, 60216, 60532, 60799, 62040, 62813, 65165, 65257, 67426, 67822, 69170, 69908, 70335, 71123, 71249, 71266, 71299, 71991, 73702, 74964, 77827, 79193, 80210, 80713, 84457]}, "edge": {"target": [], "time": []}}}, "displayed_time": "88.45", "trialTime": 92063, "trial_type": "mouselab-mdp", "trial_index": 4, "time_elapsed": 542973, "internal_node_id": "0.0-2.0-2.0-1.0"}}, {"uniqueid": "w80168495:a67548033", "current_trial": 5, "dateTime": 1693481613669, "trialdata": {"view_history": [{"page_index": 0, "viewing_time": 29358}, {"page_index": 1, "viewing_time": 4192}, {"page_index": 0, "viewing_time": 11168}, {"page_index": 1, "viewing_time": 3157}], "rt": 47877, "trial_id": "mouselab_instructions_2_misaligned", "trial_type": "instructions", "trial_index": 5, "time_elapsed": 590862, "internal_node_id": "0.0-2.0-3.0"}}, {"uniqueid": "w80168495:a67548033", "current_trial": 6, "dateTime": 1693481702327, "trialdata": {"rt": 88640, "response": {"Q0": "The cost for clicking on nodes may vary between nodes.", "Q1": "The better I perform the higher my bonus will be.", "Q2": "No, the structure of the web will be different each time.", "Q3": "To get the highest total score.", "Q4": "Only after moving the spider.", "Q5": "10 seconds"}, "question_order": [0, 1, 2, 3, 4, 5], "correct": {"Q0": "The cost for clicking on nodes may vary between nodes.", "Q1": "The better I perform the higher my bonus will be.", "Q2": "No, the amount of cash at each node of the web may be different each time.", "Q3": "To get the highest total score.", "Q4": "Only before moving the spider.", "Q5": "3 seconds"}, "trial_id": "mouselab_quiz_misaligned", "trial_type": "survey-multi-choice", "trial_index": 6, "time_elapsed": 679520, "internal_node_id": "0.0-2.0-4.0"}}, {"uniqueid": "w80168495:a67548033", "current_trial": 7, "dateTime": 1693481708973, "trialdata": {"success": true, "trial_type": "fullscreen", "trial_index": 7, "time_elapsed": 686166, "internal_node_id": "0.0-2.1-0.1-0.1"}}, {"uniqueid": "w80168495:a67548033", "current_trial": 8, "dateTime": 1693481732828, "trialdata": {"view_history": [{"page_index": 0, "viewing_time": 8288}, {"page_index": 1, "viewing_time": 2848}, {"page_index": 2, "viewing_time": 2280}, {"page_index": 3, "viewing_time": 10424}], "rt": 23841, "trial_id": "mouselab_instructions_1_misaligned", "trial_type": "instructions", "trial_index": 8, "time_elapsed": 710021, "internal_node_id": "0.0-2.1-1.1"}}, {"uniqueid": "w80168495:a67548033", "current_trial": 9, "dateTime": 1693481750827, "trialdata": {"revealed_states": [], "clicked_states": ["24", "28"], "num_clicks_accrued": [0, 0, 0, 0, 0, 0, 0, 0, 0, 0, 0, 0, 0], "stateRewards": ["", 10, -10, -10, 10, -10, -10, 10, -10, 10, -10, 10, 10, 10, -10, -10, -10, 10, -10, -10, -10, 10, -10, 10, 10, -10, -10, -10, 10, 10, -10, 10, -10, 10], "withholdReward": false, "trial_id": "practice_1", "block": "test", "trialIndex": 2, "score": 12.5, "costs": -1, "simulationMode": [null, null, null, null, null], "rewards": [10, 10, -10, -10, 10], "path": ["0", "0", "23", "24", "25", "26", "28"], "rt": [5464, 124, 3965, 871, 177], "actions": ["left", "left", "left", "up", "right"], "actionTimes": [7107, 7731, 12189, 13574, 14263], "queries": {"click": {"state": {"target": ["24", "28"], "time": [2746, 4783]}, "edge": {"target": [], "time": []}}, "mouseover": {"state": {"target": ["23", "24", "28"], "time": [2170, 2402, 3294]}, "edge": {"target": [], "time": []}}, "mouseout": {"state": {"target": ["0", "23", "24", "28", "28", "24"], "time": [959, 2212, 3244, 4990, 5446, 10121]}, "edge": {"target": [], "time": []}}}, "displayed_time": "14.77", "trialTime": 17639, "trial_type": "mouselab-mdp", "trial_index": 9, "time_elapsed": 728019, "internal_node_id": "0.0-2.1-2.1-0.1"}}, {"uniqueid": "w80168495:a67548033", "current_trial": 10, "dateTime": 1693481781454, "trialdata": {"revealed_states": [], "clicked_states": ["24", "25", "26", "12", "14", "15", "18", "16", "17", "19"], "num_clicks_accrued": [0, 0, 0, 0, 0, 0, 0, 0, 0, 0, 0, 0, 0], "stateRewards": ["", -10, -10, 10, 10, -10, -10, -10, -10, -10, 10, 10, -10, 10, -10, -10, -10, -10, 10, 10, -10, -10, 10, -10, -10, -10, -10, 10, -10, -10, -10, 10, -10, 10], "withholdReward": false, "trial_id": "practice_2", "block": "test", "trialIndex": 3, "score": -11.5, "costs": -5, "simulationMode": [null, null, null, null, null], "rewards": [-10, 10, -10, -10, 10], "path": ["0", "0", "12", "13", "14", "15", "18"], "rt": [20288, 138, 26, 509, 168], "actions": ["right", "right", "right", "up", "left"], "actionTimes": [24745, 25381, 25901, 26933, 27624], "queries": {"click": {"state": {"target": ["24", "25", "26", "12", "14", "15", "18", "16", "17", "19"], "time": [5432, 6729, 8372, 11123, 13809, 15025, 17286, 19605, 21078, 22389]}, "edge": {"target": [], "time": []}}, "mouseover": {"state": {"target": ["23", "24", "25", "26", "28", "12", "13", "14", "15", "18", "16", "17", "19", "20", "14"], "time": [4863, 4893, 6127, 7845, 9785, 10788, 11652, 13491, 14333, 16771, 17930, 20383, 21983, 23224, 23992]}, "edge": {"target": [], "time": []}}, "mouseout": {"state": {"target": ["24", "23", "23", "24", "25", "26", "28", "12", "13", "14", "15", "18", "16", "17", "19", "20", "14"], "time": [3492, 3540, 4879, 5924, 6938, 9420, 9803, 11318, 12659, 14300, 15224, 17486, 20311, 21694, 22592, 23949, 24027]}, "edge": {"target": [], "time": []}}}, "displayed_time": "28.12", "trialTime": 30266, "trial_type": "mouselab-mdp", "trial_index": 10, "time_elapsed": 758647, "internal_node_id": "0.0-2.1-2.1-1.1"}}, {"uniqueid": "w80168495:a67548033", "current_trial": 11, "dateTime": 1693481792139, "trialdata": {"view_history": [{"page_index": 0, "viewing_time": 8718}, {"page_index": 1, "viewing_time": 1962}], "rt": 10681, "trial_id": "mouselab_instructions_2_misaligned", "trial_type": "instructions", "trial_index": 11, "time_elapsed": 769332, "internal_node_id": "0.0-2.1-3.1"}}, {"uniqueid": "w80168495:a67548033", "current_trial": 12, "dateTime": 1693482000077, "trialdata": {"rt": 207926, "response": {"Q0": "The cost for clicking on nodes may vary between nodes.", "Q1": "The better I perform the higher my bonus will be.", "Q2": "No, the amount of cash at each node of the web may be different each time.", "Q3": "To get the highest total score.", "Q4": "Only before moving the spider.", "Q5": "3 seconds"}, "question_order": [0, 1, 2, 3, 4, 5], "correct": {"Q0": "The cost for clicking on nodes may vary between nodes.", "Q1": "The better I perform the higher my bonus will be.", "Q2": "No, the amount of cash at each node of the web may be different each time.", "Q3": "To get the highest total score.", "Q4": "Only before moving the spider.", "Q5": "3 seconds"}, "trial_id": "mouselab_quiz_misaligned", "trial_type": "survey-multi-choice", "trial_index": 12, "time_elapsed": 977270, "internal_node_id": "0.0-2.1-4.1"}}, {"uniqueid": "w80168495:a67548033", "current_trial": 13, "dateTime": 1693482013591, "trialdata": {"rt": 13503, "response": {"Q0": "No"}, "question_order": [0], "trial_id": "repeat_check", "trial_type": "survey-multi-choice", "trial_index": 13, "time_elapsed": 990783, "internal_node_id": "0.0-4.0-0.0"}}, {"uniqueid": "w80168495:a67548033", "current_trial": 14, "dateTime": 1693482023041, "trialdata": {"rt": 9428, "stimulus": "\n<h1> Get ready to start the game! </h1>\n\nThank you for reading the instructions. Get ready start with the 40 rounds of this game.\n<br><br>\nIf you need to take a break, feel free to take one after the end of a round, before continuing to the next one.\n<br><br>\nRemember, the more money the spider gets, the bigger your bonus will be!\n<br><br>\n<div style='text-align: center;'>Press <code>space</code> to begin.</div>\n\n<br><br>\n(If, at any point, the <code>space</code> key does not take you to the next page, click once on the text and try again.)", "response": " ", "trial_id": "mdp_ready", "trial_type": "html-keyboard-response", "trial_index": 14, "time_elapsed": 1000234, "internal_node_id": "0.0-6.0-0.0"}}, {"uniqueid": "w80168495:a67548033", "current_trial": 15, "dateTime": 1693482057381, "trialdata": {"revealed_states": [], "clicked_states": ["12", "13", "14", "24", "26", "30", "25"], "num_clicks_accrued": [0, 0, 0, 0, 0, 0, 0, 0, 0, 0, 0, 0, 0], "stateRewards": ["", 1, 2, 3, 16, 63, -25, 16, -4, -14, 82, -66, -1, -3, -3, -11, -14, 19, 46, 3, -34, -82, 66, -2, -3, 4, -5, -63, 77, -37, -1, -45, -41, 84], "withholdReward": false, "trial_id": "mdp_trial_1", "block": "test", "trialIndex": 4, "score": -74.45, "costs": -5.45, "simulationMode": [null, null, null, null, null], "rewards": [-2, -3, 4, -5, -63], "path": ["0", "0", "23", "24", "25", "26", "27"], "rt": [12590, 112, 229, 12309, 1758], "actions": ["left", "left", "left", "up", "up"], "actionTimes": [14195, 14819, 15552, 28371, 30641], "queries": {"click": {"state": {"target": ["12", "13", "14", "24", "26", "30", "25"], "time": [2603, 4379, 5301, 6944, 7977, 9132, 10761]}, "edge": {"target": [], "time": []}}, "mouseover": {"state": {"target": ["12", "13", "14", "12", "23", "24", "26", "25", "30", "25", "23", "23", "24", "25", "24", "23", "23", "24", "23", "12"], "time": [2205, 3082, 4947, 5962, 6018, 6605, 7528, 8545, 8683, 9727, 10009, 10165, 10229, 10473, 11708, 11798, 12078, 12678, 12988, 13354]}, "edge": {"target": [], "time": []}}, "mouseout": {"state": {"target": ["10", "0", "12", "13", "14", "13", "12", "23", "24", "26", "25", "30", "25", "23", "23", "24", "25", "24", "23", "23", "24", "25", "23", "12", "0", "23", "24", "23", "24", "25", "25", "30", "32"], "time": [605, 988, 3056, 4881, 5900, 5929, 5979, 6068, 7461, 8528, 8594, 9696, 9884, 10034, 10196, 10330, 11658, 11758, 11825, 12107, 12695, 12771, 13263, 13579, 18919, 19126, 23488, 24340, 24434, 25665, 32799, 32846, 32877]}, "edge": {"target": [], "time": []}}}, "displayed_time": "31.16", "trialTime": 33920, "trial_type": "mouselab-mdp", "trial_index": 15, "time_elapsed": 1034573, "internal_node_id": "0.0-6.0-1.0-0.0"}}, {"uniqueid": "w80168495:a67548033", "current_trial": 16, "dateTime": 1693482084611, "trialdata": {"revealed_states": [], "clicked_states": ["23", "24", "12", "1", "2", "3", "8"], "num_clicks_accrued": [0, 0, 0, 0, 0, 0, 0, 0, 0, 0, 0, 0, 0], "stateRewards": ["", 2, 3, -6, -5, -3, 55, 40, 11, 61, 11, 51, 2, -4, -6, 9, -25, 29, -15, -6, 7, -77, -2, -2, -4, 1, 14, -43, -1, 56, -12, -54, 41, -74], "withholdReward": false, "trial_id": "mdp_trial_2", "block": "test", "trialIndex": 5, "score": 18.55, "costs": -2.45, "simulationMode": [null, null, null, null, null], "rewards": [2, 3, -6, 11, 11], "path": ["0", "0", "1", "2", "3", "8", "10"], "rt": [10562, 623, 357, 406, 7335], "actions": ["up", "up", "up", "left", "down"], "actionTimes": [13104, 14248, 15096, 15995, 23833], "queries": {"click": {"state": {"target": ["23", "24", "12", "1", "2", "3", "8"], "time": [3675, 4855, 6063, 7450, 8557, 9678, 11277]}, "edge": {"target": [], "time": []}}, "mouseover": {"state": {"target": ["23", "24", "12", "1", "2", "3", "8"], "time": [3217, 4363, 5562, 6729, 8144, 9216, 10925]}, "edge": {"target": [], "time": []}}, "mouseout": {"state": {"target": ["0", "23", "24", "12", "1", "2", "3", "8", "3", "8"], "time": [1617, 3881, 5054, 6268, 7650, 9160, 10442, 11474, 12297, 21480]}, "edge": {"target": [], "time": []}}}, "displayed_time": "24.35", "trialTime": 26759, "trial_type": "mouselab-mdp", "trial_index": 16, "time_elapsed": 1061803, "internal_node_id": "0.0-6.0-1.0-1.0"}}, {"uniqueid": "w80168495:a67548033", "current_trial": 17, "dateTime": 1693482112238, "trialdata": {"revealed_states": [], "clicked_states": ["23", "24", "1", "2", "3", "4", "6", "8", "11", "12", "13", "14", "19", "15"], "num_clicks_accrued": [0, 0, 0, 0, 0, 0, 0, 0, 0, 0, 0, 0, 0], "stateRewards": ["", -1, -4, -1, -5, -28, -23, -15, -15, -38, 59, -87, 2, 2, -5, 9, -55, -39, -71, -6, 85, -85, -11, -1, -2, 5, -10, 1, 25, 41, -4, 69, -35, 86], "withholdReward": false, "trial_id": "mdp_trial_3", "block": "test", "trialIndex": 6, "score": -59.7, "costs": -12.7, "simulationMode": [null, null, null, null, null], "rewards": [2, 2, -5, 9, -55], "path": ["0", "0", "12", "13", "14", "15", "16"], "rt": [19007, 442, 210, 73, 1034], "actions": ["right", "right", "right", "up", "up"], "actionTimes": [21729, 22665, 23382, 23961, 25488], "queries": {"click": {"state": {"target": ["23", "24", "1", "2", "3", "4", "6", "8", "11", "12", "13", "14", "19", "15"], "time": [3747, 4359, 5182, 6193, 6873, 8110, 8591, 13101, 13717, 16952, 17623, 18346, 19239, 20452]}, "edge": {"target": [], "time": []}}, "mouseover": {"state": {"target": ["0", "23", "24", "1", "2", "3", "4", "6", "8", "8", "11", "8", "11", "8", "11", "3", "9", "2", "12", "13", "14", "19", "15", "15"], "time": [2851, 3525, 4245, 4926, 5910, 6632, 8005, 8401, 9147, 9857, 10239, 10490, 10922, 11866, 13562, 14046, 14147, 14878, 15434, 17500, 18211, 19030, 19824, 20243]}, "edge": {"target": [], "time": []}}, "mouseout": {"state": {"target": ["8", "1", "0", "23", "24", "1", "2", "3", "2", "2", "4", "6", "4", "8", "8", "11", "8", "11", "8", "11", "11", "8", "3", "9", "2", "12", "13", "14", "19", "15", "15", "15"], "time": [1829, 1978, 3270, 3840, 4445, 5624, 6535, 7289, 7471, 7587, 8368, 8856, 8889, 9667, 10170, 10403, 10866, 11633, 13429, 13803, 13979, 14029, 14087, 14814, 14895, 17410, 18022, 18899, 19339, 19883, 20511, 20707]}, "edge": {"target": [], "time": []}}}, "displayed_time": "26.00", "trialTime": 27150, "trial_type": "mouselab-mdp", "trial_index": 17, "time_elapsed": 1089430, "internal_node_id": "0.0-6.0-1.0-2.0"}}, {"uniqueid": "w80168495:a67548033", "current_trial": 18, "dateTime": 1693482135747, "trialdata": {"revealed_states": [], "clicked_states": [], "num_clicks_accrued": [0, 0, 0, 0, 0, 0, 0, 0, 0, 0, 0, 0, 0], "stateRewards": ["", 2, -1, -2, -5, -47, -57, -33, -11, 31, -18, -72, -2, 1, -4, -8, -46, -53, -50, 15, -85, -9, 39, -2, -2, 1, 14, -1, -8, 53, -12, -41, -74, 62], "withholdReward": false, "trial_id": "mdp_trial_4", "block": "test", "trialIndex": 7, "score": -63, "costs": 0, "simulationMode": [null, null, null, null, null], "rewards": [-2, 1, -4, -8, -50], "path": ["0", "0", "12", "13", "14", "15", "18"], "rt": [7161, 1232, 348, 1323, 7173], "actions": ["right", "right", "right", "up", "left"], "actionTimes": [9029, 10780, 11640, 13481, 21166], "queries": {"click": {"state": {"target": [], "time": []}, "edge": {"target": [], "time": []}}, "mouseover": {"state": {"target": ["0"], "time": [4846]}, "edge": {"target": [], "time": []}}, "mouseout": {"state": {"target": ["14", "13", "0", "0", "0", "1", "18", "16"], "time": [833, 882, 4304, 7908, 15962, 16155, 16369, 18739]}, "edge": {"target": [], "time": []}}}, "displayed_time": "21.67", "trialTime": 23044, "trial_type": "mouselab-mdp", "trial_index": 18, "time_elapsed": 1112939, "internal_node_id": "0.0-6.0-1.0-3.0"}}, {"uniqueid": "w80168495:a67548033", "current_trial": 19, "dateTime": 1693482153446, "trialdata": {"revealed_states": [], "clicked_states": [], "num_clicks_accrued": [0, 0, 0, 0, 0, 0, 0, 0, 0, 0, 0, 0, 0], "stateRewards": ["", -2, 3, 3, -14, 62, 36, 49, 16, 11, 17, -84, 2, -1, 6, 2, -82, -73, 49, -6, -87, 48, 50, -1, -2, -1, -16, -11, 37, -44, 4, 55, 73, -10], "withholdReward": false, "trial_id": "mdp_trial_5", "block": "test", "trialIndex": 8, "score": 17, "costs": 0, "simulationMode": [null, null, null, null, null], "rewards": [-1, -2, -1, -16, 37], "path": ["0", "0", "23", "24", "25", "26", "28"], "rt": [1425, 2715, 753, 342, 87], "actions": ["left", "left", "left", "up", "right"], "actionTimes": [2974, 6196, 7466, 8304, 8931], "queries": {"click": {"state": {"target": [], "time": []}, "edge": {"target": [], "time": []}}, "mouseover": {"state": {"target": [], "time": []}, "edge": {"target": [], "time": []}}, "mouseout": {"state": {"target": ["18", "12", "0"], "time": [765, 816, 5380]}, "edge": {"target": [], "time": []}}}, "displayed_time": "15.55", "trialTime": 17177, "trial_type": "mouselab-mdp", "trial_index": 19, "time_elapsed": 1130638, "internal_node_id": "0.0-6.0-1.0-4.0"}}, {"uniqueid": "w80168495:a67548033", "current_trial": 20, "dateTime": 1693482176203, "trialdata": {"revealed_states": [], "clicked_states": ["13", "14", "12", "23", "24", "1", "2", "7", "3", "8", "11"], "num_clicks_accrued": [0, 0, 0, 0, 0, 0, 0, 0, 0, 0, 0, 0, 0], "stateRewards": ["", 1, -2, -2, 10, -31, -77, 35, 9, -47, 8, 48, -2, 1, -4, -3, -26, -50, 43, -11, 76, -38, 17, 1, -1, 6, 10, 15, -9, 12, -8, 85, 11, -55], "withholdReward": false, "trial_id": "mdp_trial_6", "block": "test", "trialIndex": 9, "score": 45.95, "costs": -8.049999999999999, "simulationMode": [null, null, null, null, null, null], "rewards": [1, -2, -2, 9, 48], "path": ["0", "0", "1", "2", "3", "8", "11"], "rt": [15609, 200, 279, 249, 202, 302], "actions": ["up", "up", "up", "up", "left", "left"], "actionTimes": [17024, 17230, 18035, 18804, 19500, 20300], "queries": {"click": {"state": {"target": ["13", "14", "12", "23", "24", "1", "2", "7", "3", "8", "11"], "time": [2336, 3040, 3628, 4363, 5244, 6699, 7418, 8277, 12850, 14362, 15263]}, "edge": {"target": [], "time": []}}, "mouseover": {"state": {"target": ["12", "13", "14", "12", "0", "23", "24", "25", "1", "1", "2", "7", "4", "3", "3", "4", "3", "8", "8", "11"], "time": [1851, 1966, 2751, 3374, 3941, 4087, 4821, 5604, 6339, 6532, 7197, 8204, 8701, 9163, 9332, 9411, 11189, 13603, 13900, 14968]}, "edge": {"target": [], "time": []}}, "mouseout": {"state": {"target": ["1", "12", "13", "13", "14", "13", "12", "0", "23", "24", "25", "1", "1", "2", "7", "4", "3", "3", "4", "3", "8", "8", "8", "11", "11", "8", "3"], "time": [771, 1933, 2424, 2667, 3267, 3334, 3864, 4006, 4756, 5564, 5771, 6382, 6820, 8001, 8595, 9146, 9194, 9379, 11128, 13484, 13635, 14449, 14904, 15382, 15518, 15790, 16001]}, "edge": {"target": [], "time": []}}}, "displayed_time": "20.81", "trialTime": 22120, "trial_type": "mouselab-mdp", "trial_index": 20, "time_elapsed": 1153395, "internal_node_id": "0.0-6.0-1.0-5.0"}}, {"uniqueid": "w80168495:a67548033", "current_trial": 21, "dateTime": 1693482196806, "trialdata": {"revealed_states": [], "clicked_states": ["1", "2", "7", "10", "8", "3", "4"], "num_clicks_accrued": [0, 0, 0, 0, 0, 0, 0, 0, 0, 0, 0, 0, 0], "stateRewards": ["", 1, -1, 4, 5, -32, 18, 20, 6, -88, -74, 9, -2, 1, -2, -14, 34, -77, -38, -1, 80, -36, 73, 2, 3, -8, 10, -48, -73, -71, -11, -22, 20, 54], "withholdReward": false, "trial_id": "mdp_trial_7", "block": "test", "trialIndex": 10, "score": 20.549999999999997, "costs": -8.450000000000001, "simulationMode": [null, null, null, null, null], "rewards": [1, -1, 4, 5, 20], "path": ["0", "0", "1", "2", "3", "4", "7"], "rt": [13329, 28, 281, 423, 213], "actions": ["up", "up", "up", "right", "down"], "actionTimes": [15121, 15645, 16459, 17405, 18111], "queries": {"click": {"state": {"target": ["1", "2", "7", "10", "8", "3", "4"], "time": [4500, 5504, 6181, 9268, 12487, 13027, 14034]}, "edge": {"target": [], "time": []}}, "mouseover": {"state": {"target": ["1", "1", "1", "2", "7", "4", "3", "10", "8", "10", "8", "3", "8", "3", "4", "5"], "time": [3161, 3539, 4343, 5343, 5863, 6427, 6462, 6839, 7313, 7594, 9754, 10499, 11885, 12701, 13851, 14523]}, "edge": {"target": [], "time": []}}, "mouseout": {"state": {"target": ["3", "2", "1", "1", "1", "1", "2", "7", "4", "3", "10", "8", "10", "8", "3", "8", "3", "4"], "time": [799, 859, 908, 3177, 3574, 4858, 5692, 6270, 6460, 6563, 7239, 7558, 9671, 10211, 11819, 12651, 13341, 14474]}, "edge": {"target": [], "time": []}}}, "displayed_time": "18.61", "trialTime": 20026, "trial_type": "mouselab-mdp", "trial_index": 21, "time_elapsed": 1173998, "internal_node_id": "0.0-6.0-1.0-6.0"}}, {"uniqueid": "w80168495:a67548033", "current_trial": 22, "dateTime": 1693482219716, "trialdata": {"revealed_states": [], "clicked_states": ["1", "2", "3", "4", "7"], "num_clicks_accrued": [0, 0, 0, 0, 0, 0, 0, 0, 0, 0, 0, 0, 0], "stateRewards": ["", 2, -1, 5, 6, 10, 86, 55, 10, -45, 63, -71, 1, -2, 5, -8, -50, -72, 36, 15, 61, 12, 33, -1, -4, 6, 5, 79, -56, -21, -16, -87, 60, -81], "withholdReward": false, "trial_id": "mdp_trial_8", "block": "test", "trialIndex": 11, "score": 62.25, "costs": -4.75, "simulationMode": [null, null, null, null, null], "rewards": [2, -1, 5, 6, 55], "path": ["0", "0", "1", "2", "3", "4", "7"], "rt": [8415, 116, 6490, 29, 181], "actions": ["up", "up", "up", "right", "down"], "actionTimes": [11020, 11629, 18653, 19201, 19903], "queries": {"click": {"state": {"target": ["1", "2", "3", "4", "7"], "time": [3870, 5101, 5784, 6230, 6798]}, "edge": {"target": [], "time": []}}, "mouseover": {"state": {"target": ["1", "2", "3", "4", "7", "5", "5"], "time": [3741, 4902, 5588, 6100, 6665, 7514, 8016]}, "edge": {"target": [], "time": []}}, "mouseout": {"state": {"target": ["5", "4", "1", "2", "3", "4", "7", "4", "5", "5", "7"], "time": [759, 1669, 4667, 5559, 5979, 6566, 7231, 7332, 7798, 10101, 21469]}, "edge": {"target": [], "time": []}}}, "displayed_time": "20.40", "trialTime": 22344, "trial_type": "mouselab-mdp", "trial_index": 22, "time_elapsed": 1196908, "internal_node_id": "0.0-6.0-1.0-7.0"}}, {"uniqueid": "w80168495:a67548033", "current_trial": 23, "dateTime": 1693482239031, "trialdata": {"revealed_states": [], "clicked_states": [], "num_clicks_accrued": [0, 0, 0, 0, 0, 0, 0, 0, 0, 0, 0, 0, 0], "stateRewards": ["", 1, 1, -5, 8, -6, 45, 16, -6, -7, -22, -38, -1, -4, 8, -11, -16, 21, -45, -15, -59, -32, 42, -1, 3, 6, 11, -7, 34, -27, -8, 85, 43, -9], "withholdReward": false, "trial_id": "mdp_trial_9", "block": "test", "trialIndex": 12, "score": -31, "costs": 0, "simulationMode": [null, null, null, null, null], "rewards": [1, 1, -5, -6, -22], "path": ["0", "0", "1", "2", "3", "8", "10"], "rt": [1604, 1767, 1153, 425, 414], "actions": ["up", "up", "up", "left", "down"], "actionTimes": [3762, 6037, 7689, 8609, 9532], "queries": {"click": {"state": {"target": [], "time": []}, "edge": {"target": [], "time": []}}, "mouseover": {"state": {"target": [], "time": []}, "edge": {"target": [], "time": []}}, "mouseout": {"state": {"target": ["16", "18", "0"], "time": [1177, 1269, 3208]}, "edge": {"target": [], "time": []}}}, "displayed_time": "16.16", "trialTime": 18664, "trial_type": "mouselab-mdp", "trial_index": 23, "time_elapsed": 1216222, "internal_node_id": "0.0-6.0-1.0-8.0"}}, {"uniqueid": "w80168495:a67548033", "current_trial": 24, "dateTime": 1693482266005, "trialdata": {"revealed_states": [], "clicked_states": ["13", "2", "3", "8", "11", "23", "24", "25", "30", "32", "14", "19", "21"], "num_clicks_accrued": [0, 0, 0, 0, 0, 0, 0, 0, 0, 0, 0, 0, 0], "stateRewards": ["", 1, -1, 1, -14, -10, 67, -28, -11, 72, 40, -65, -1, 1, 1, -2, 8, -55, 34, -10, 61, 33, -15, 2, -4, 7, 4, -75, 63, -21, -16, 61, 19, 21], "withholdReward": false, "trial_id": "mdp_trial_10", "block": "test", "trialIndex": 13, "score": 9.25, "costs": -14.75, "simulationMode": [null, null, null, null, null, null], "rewards": [-1, 1, 1, -10, 33], "path": ["0", "0", "12", "13", "14", "19", "21"], "rt": [16535, 149, 110, 466, 181, 214], "actions": ["right", "right", "right", "right", "down", "down"], "actionTimes": [21432, 21588, 22208, 23193, 23872, 24586], "queries": {"click": {"state": {"target": ["13", "2", "3", "8", "11", "23", "24", "25", "30", "32", "14", "19", "21"], "time": [5863, 7602, 8311, 8919, 9455, 12720, 13760, 14219, 14679, 15187, 18522, 19052, 19643]}, "edge": {"target": [], "time": []}}, "mouseover": {"state": {"target": ["0", "13", "1", "2", "3", "8", "11", "9", "6", "6", "4", "7", "23", "24", "25", "30", "32", "26", "26", "12", "13", "14", "19", "21", "15", "16"], "time": [5341, 5605, 7037, 7441, 7936, 8728, 9282, 9686, 10668, 10868, 11292, 12083, 12521, 13531, 14027, 14556, 15010, 15721, 16517, 17528, 17612, 18326, 18880, 19495, 20192, 21094]}, "edge": {"target": [], "time": []}}, "mouseout": {"state": {"target": ["12", "0", "0", "13", "13", "13", "1", "2", "3", "8", "8", "11", "9", "6", "6", "4", "7", "23", "24", "25", "30", "32", "30", "26", "26", "12", "13", "14", "19", "21", "19", "14", "15", "16"], "time": [4088, 4910, 5354, 5921, 6142, 6737, 7102, 7844, 8402, 9021, 9231, 9602, 10584, 10741, 10901, 12036, 12183, 13101, 14006, 14436, 14977, 15278, 15366, 16362, 17162, 17595, 18308, 18844, 19477, 19773, 19908, 19959, 21092, 21111]}, "edge": {"target": [], "time": []}}}, "displayed_time": "25.09", "trialTime": 26291, "trial_type": "mouselab-mdp", "trial_index": 24, "time_elapsed": 1243196, "internal_node_id": "0.0-6.0-1.0-9.0"}}, {"uniqueid": "w80168495:a67548033", "current_trial": 25, "dateTime": 1693482291934, "trialdata": {"revealed_states": [], "clicked_states": ["23", "24", "25", "12", "13", "14", "19"], "num_clicks_accrued": [0, 0, 0, 0, 0, 0, 0, 0, 0, 0, 0, 0, 0], "stateRewards": ["", -2, -1, -3, -1, -78, -6, 2, -1, 22, -88, 32, 2, 2, -7, -8, -51, -17, 54, 2, -44, 54, 75, 2, -2, -8, -15, -29, 12, -67, 15, -1, -47, -47], "withholdReward": false, "trial_id": "mdp_trial_11", "block": "test", "trialIndex": 14, "score": 49.35, "costs": -3.6499999999999995, "simulationMode": [null, null, null, null, null], "rewards": [2, 2, -7, 2, 54], "path": ["0", "0", "12", "13", "14", "19", "21"], "rt": [6955, 333, 355, 103, 8871], "actions": ["right", "right", "right", "down", "down"], "actionTimes": [10851, 11705, 12558, 13155, 22522], "queries": {"click": {"state": {"target": ["23", "24", "25", "12", "13", "14", "19"], "time": [5607, 6197, 6810, 7802, 8200, 8737, 9454]}, "edge": {"target": [], "time": []}}, "mouseover": {"state": {"target": ["0", "23", "24", "25", "0", "12", "13", "12", "13", "14", "19", "15"], "time": [4273, 5440, 5927, 6648, 7151, 7187, 7413, 7675, 8005, 8406, 9354, 10478]}, "edge": {"target": [], "time": []}}, "mouseout": {"state": {"target": ["3", "3", "2", "0", "0", "23", "24", "25", "24", "23", "0", "12", "13", "12", "13", "14", "19", "14", "15", "15", "18", "1", "26", "11", "8", "3", "2"], "time": [2789, 2890, 2957, 3364, 4355, 5619, 6523, 7056, 7106, 7130, 7169, 7385, 7628, 7929, 8373, 9163, 9556, 10203, 10495, 20234, 20292, 20414, 20442, 20809, 20825, 20968, 24609]}, "edge": {"target": [], "time": []}}}, "displayed_time": "23.03", "trialTime": 25307, "trial_type": "mouselab-mdp", "trial_index": 25, "time_elapsed": 1269126, "internal_node_id": "0.0-6.0-1.0-10.0"}}, {"uniqueid": "w80168495:a67548033", "current_trial": 26, "dateTime": 1693482322107, "trialdata": {"revealed_states": [], "clicked_states": ["13", "14", "15", "16"], "num_clicks_accrued": [0, 0, 0, 0, 0, 0, 0, 0, 0, 0, 0, 0, 0], "stateRewards": ["", 1, 1, -2, 7, -31, -6, 76, 1, -36, -16, -53, 2, 1, 7, 13, -47, -10, 47, -7, 72, 46, -56, -2, -2, -2, 11, -80, 44, 38, 16, 67, 85, -78], "withholdReward": false, "trial_id": "mdp_trial_12", "block": "test", "trialIndex": 15, "score": 8, "costs": -5, "simulationMode": [null, null, null, null, null, null], "rewards": [2, 1, 7, 13, -10], "path": ["0", "0", "12", "13", "14", "15", "17"], "rt": [5575, 348, 144, 228, 440, 7433], "actions": ["right", "right", "right", "right", "up", "right"], "actionTimes": [16362, 16713, 17383, 18137, 19080, 27005], "queries": {"click": {"state": {"target": ["13", "14", "15", "16"], "time": [12059, 12702, 13376, 14149]}, "edge": {"target": [], "time": []}}, "mouseover": {"state": {"target": ["0", "12", "13", "13", "13", "14", "15", "16", "17", "17"], "time": [10893, 11409, 11428, 11662, 11900, 12368, 13185, 13928, 14531, 14748]}, "edge": {"target": [], "time": []}}, "mouseout": {"state": {"target": ["1", "0", "12", "13", "13", "13", "14", "15", "16", "17", "17", "16", "15", "17"], "time": [10048, 11215, 11426, 11442, 11694, 12339, 12782, 13849, 14462, 14642, 14780, 15412, 25736, 28963]}, "edge": {"target": [], "time": []}}}, "displayed_time": "27.52", "trialTime": 29452, "trial_type": "mouselab-mdp", "trial_index": 26, "time_elapsed": 1299299, "internal_node_id": "0.0-6.0-1.0-11.0"}}, {"uniqueid": "w80168495:a67548033", "current_trial": 27, "dateTime": 1693482340650, "trialdata": {"revealed_states": [], "clicked_states": ["24", "25", "26", "28"], "num_clicks_accrued": [0, 0, 0, 0, 0, 0, 0, 0, 0, 0, 0, 0, 0], "stateRewards": ["", 1, -2, -8, -3, 31, -84, -55, -14, 15, -58, 17, -2, -3, 7, 7, -12, 48, 67, 4, -44, -68, 46, 2, 3, -5, -7, 76, 27, 5, 11, 57, 52, 59], "withholdReward": false, "trial_id": "mdp_trial_13", "block": "test", "trialIndex": 16, "score": 15, "costs": -5, "simulationMode": [null, null, null, null, null], "rewards": [2, 3, -5, -7, 27], "path": ["0", "0", "23", "24", "25", "26", "28"], "rt": [9863, 12, 281, 298, 211], "actions": ["left", "left", "left", "up", "right"], "actionTimes": [12909, 13412, 14231, 15047, 15776], "queries": {"click": {"state": {"target": ["24", "25", "26", "28"], "time": [4319, 4979, 5460, 6081]}, "edge": {"target": [], "time": []}}, "mouseover": {"state": {"target": ["23", "24", "25", "26", "28", "23", "0", "12", "13", "13", "28"], "time": [3771, 3807, 4607, 5275, 5775, 6790, 6955, 7354, 7459, 11892, 12071]}, "edge": {"target": [], "time": []}}, "mouseout": {"state": {"target": ["17", "0", "23", "24", "25", "26", "28", "23", "0", "12", "13", "13", "28"], "time": [1608, 1990, 3789, 4574, 5157, 5756, 6324, 6823, 6989, 7396, 11589, 12017, 12085]}, "edge": {"target": [], "time": []}}}, "displayed_time": "17.06", "trialTime": 17929, "trial_type": "mouselab-mdp", "trial_index": 27, "time_elapsed": 1317842, "internal_node_id": "0.0-6.0-1.0-12.0"}}, {"uniqueid": "w80168495:a67548033", "current_trial": 28, "dateTime": 1693482363746, "trialdata": {"revealed_states": [], "clicked_states": ["1", "2", "3", "4", "6", "7", "5"], "num_clicks_accrued": [0, 0, 0, 0, 0, 0, 0, 0, 0, 0, 0, 0, 0], "stateRewards": ["", 1, 2, -3, -6, 50, -7, 7, -7, -80, 21, -1, 2, 2, 4, -1, 33, 84, 1, 14, -53, 81, 6, -2, -2, -3, -9, -87, -38, -59, -5, -74, -3, -71], "withholdReward": false, "trial_id": "mdp_trial_14", "block": "test", "trialIndex": 17, "score": 34.95, "costs": -9.05, "simulationMode": [null, null, null, null, null, null], "rewards": [1, 2, -3, -6, 50], "path": ["0", "0", "1", "2", "3", "4", "5"], "rt": [11035, 167, 100, 352, 365, 13], "actions": ["up", "up", "up", "up", "right", "up"], "actionTimes": [17132, 17303, 17929, 18806, 19676, 20189], "queries": {"click": {"state": {"target": ["1", "2", "3", "4", "6", "7", "5"], "time": [6875, 7474, 8087, 8815, 9291, 12712, 15891]}, "edge": {"target": [], "time": []}}, "mouseover": {"state": {"target": ["1", "2", "3", "4", "4", "6", "7", "5", "7", "4", "7", "4", "5"], "time": [6687, 7207, 7843, 8418, 8677, 9111, 9823, 11508, 11658, 12364, 12549, 13000, 13070]}, "edge": {"target": [], "time": []}}, "mouseout": {"state": {"target": ["7", "0", "12", "0", "22", "12", "1", "1", "2", "3", "4", "4", "4", "6", "7", "4", "5", "4", "7", "4", "7", "4"], "time": [3846, 4227, 4309, 4405, 5292, 5322, 5443, 7146, 7770, 8416, 8436, 8919, 9067, 9536, 10947, 11174, 11546, 11591, 12215, 12508, 12933, 13017]}, "edge": {"target": [], "time": []}}}, "displayed_time": "20.73", "trialTime": 22439, "trial_type": "mouselab-mdp", "trial_index": 28, "time_elapsed": 1340938, "internal_node_id": "0.0-6.0-1.0-13.0"}}, {"uniqueid": "w80168495:a67548033", "current_trial": 29, "dateTime": 1693482384319, "trialdata": {"revealed_states": [], "clicked_states": ["13", "12", "1", "2"], "num_clicks_accrued": [0, 0, 0, 0, 0, 0, 0, 0, 0, 0, 0, 0, 0], "stateRewards": ["", -2, -2, -7, -13, -10, 49, -68, -1, 84, 70, 88, 1, 4, 4, 12, -57, 25, 30, 8, -1, -77, 57, 2, 3, 2, 3, -18, -80, 23, -15, -41, 70, 11], "withholdReward": false, "trial_id": "mdp_trial_15", "block": "test", "trialIndex": 18, "score": -36.2, "costs": -0.19999999999999996, "simulationMode": [null, null, null, null, null], "rewards": [1, 4, 4, 12, -57], "path": ["0", "0", "12", "13", "14", "15", "16"], "rt": [4573, 535, 1470, 3575, 421], "actions": ["right", "right", "right", "up", "up"], "actionTimes": [9445, 10489, 12456, 16526, 17467], "queries": {"click": {"state": {"target": ["13", "12", "1", "2"], "time": [5825, 6404, 7335, 8152]}, "edge": {"target": [], "time": []}}, "mouseover": {"state": {"target": ["12", "13", "12", "1", "1", "2"], "time": [5242, 5395, 6239, 6736, 7161, 7971]}, "edge": {"target": [], "time": []}}, "mouseout": {"state": {"target": ["5", "0", "12", "13", "12", "1", "1", "2"], "time": [3821, 4110, 5273, 6123, 6669, 6804, 7721, 8478]}, "edge": {"target": [], "time": []}}}, "displayed_time": "18.89", "trialTime": 19834, "trial_type": "mouselab-mdp", "trial_index": 29, "time_elapsed": 1361511, "internal_node_id": "0.0-6.0-1.0-14.0"}}, {"uniqueid": "w80168495:a67548033", "current_trial": 30, "dateTime": 1693482414688, "trialdata": {"revealed_states": [], "clicked_states": ["1", "2", "3", "8", "10", "9", "11"], "num_clicks_accrued": [0, 0, 0, 0, 0, 0, 0, 0, 0, 0, 0, 0, 0], "stateRewards": ["", 2, -1, -4, -13, 74, 77, 3, 2, -43, -2, -11, 2, 3, 7, 11, -26, -29, -33, -3, -3, -13, -3, 1, 3, -7, 14, -59, 33, 9, -5, 34, 79, 68], "withholdReward": false, "trial_id": "mdp_trial_16", "block": "test", "trialIndex": 19, "score": 51.95, "costs": -9.05, "simulationMode": [null, null, null, null, null], "rewards": [2, -1, -4, -13, 77], "path": ["0", "0", "1", "2", "3", "4", "6"], "rt": [22055, 182, 216, 77, 68], "actions": ["up", "up", "up", "right", "right"], "actionTimes": [23901, 24583, 25293, 25870, 26460], "queries": {"click": {"state": {"target": ["1", "2", "3", "8", "10", "9", "11"], "time": [2689, 3512, 4328, 5084, 5758, 11030, 15332]}, "edge": {"target": [], "time": []}}, "mouseover": {"state": {"target": ["1", "2", "3", "8", "10", "9", "11", "4", "5", "4", "6"], "time": [2332, 3202, 3995, 4736, 5467, 6222, 11738, 16288, 21029, 21261, 23197]}, "edge": {"target": [], "time": []}}, "mouseout": {"state": {"target": ["1", "2", "3", "8", "10", "8", "9", "9", "11", "4", "5", "4"], "time": [3078, 3945, 4701, 5450, 6169, 6219, 11224, 11688, 15526, 20996, 21160, 22745]}, "edge": {"target": [], "time": []}}}, "displayed_time": "27.00", "trialTime": 29726, "trial_type": "mouselab-mdp", "trial_index": 30, "time_elapsed": 1391880, "internal_node_id": "0.0-6.0-1.0-15.0"}}, {"uniqueid": "w80168495:a67548033", "current_trial": 31, "dateTime": 1693482444557, "trialdata": {"revealed_states": [], "clicked_states": ["1", "2", "3", "8", "9", "11", "26", "25", "30", "13", "14", "19"], "num_clicks_accrued": [0, 0, 0, 0, 0, 0, 0, 0, 0, 0, 0, 0, 0], "stateRewards": ["", 2, -2, -3, 10, -4, -1, -11, -8, -9, -36, -78, 2, 1, 7, -7, 44, -1, -31, -1, 26, 47, 83, 2, -4, -4, -6, -52, -76, -81, -1, -59, 45, 67], "withholdReward": false, "trial_id": "mdp_trial_17", "block": "test", "trialIndex": 20, "score": 33.2, "costs": -13.8, "simulationMode": [null, null, null, null, null], "rewards": [2, 1, 7, -7, 44], "path": ["0", "0", "12", "13", "14", "15", "16"], "rt": [19319, 60, 532, 642, 1067], "actions": ["right", "right", "right", "up", "up"], "actionTimes": [22918, 23405, 24442, 25588, 27166], "queries": {"click": {"state": {"target": ["1", "2", "3", "8", "9", "11", "26", "25", "30", "13", "14", "19"], "time": [4784, 5709, 7174, 8075, 9593, 12970, 16339, 17183, 18211, 20203, 21272, 22010]}, "edge": {"target": [], "time": []}}, "mouseover": {"state": {"target": ["1", "2", "7", "3", "8", "9", "11", "8", "10", "8", "4", "7", "1", "23", "24", "25", "26", "25", "30", "31", "18", "13", "14", "19"], "time": [4374, 5350, 6173, 6725, 7699, 8528, 10918, 13431, 13751, 13907, 14389, 14567, 14726, 14954, 15404, 15650, 15948, 16848, 17797, 18892, 19445, 19860, 20858, 21720]}, "edge": {"target": [], "time": []}}, "mouseout": {"state": {"target": ["6", "1", "2", "7", "3", "8", "9", "11", "8", "10", "8", "4", "7", "1", "23", "24", "25", "26", "25", "30", "31", "18", "13", "14"], "time": [2681, 5320, 6156, 6691, 7679, 8293, 10021, 13409, 13610, 13874, 13940, 14518, 14634, 14759, 15352, 15602, 15917, 16830, 17763, 18333, 19097, 19626, 20388, 21686]}, "edge": {"target": [], "time": []}}}, "displayed_time": "27.68", "trialTime": 29139, "trial_type": "mouselab-mdp", "trial_index": 31, "time_elapsed": 1421750, "internal_node_id": "0.0-6.0-1.0-16.0"}}, {"uniqueid": "w80168495:a67548033", "current_trial": 32, "dateTime": 1693482467431, "trialdata": {"revealed_states": [], "clicked_states": ["12", "13", "14", "15", "17", "19", "20"], "num_clicks_accrued": [0, 0, 0, 0, 0, 0, 0, 0, 0, 0, 0, 0, 0], "stateRewards": ["", -2, 2, -5, 1, 42, -63, -58, -6, 2, 16, 81, -2, 4, 7, -10, 33, 3, -33, -2, -52, -84, -27, 2, -3, -3, 15, -74, -14, -5, -5, -84, 79, -31], "withholdReward": false, "trial_id": "mdp_trial_18", "block": "test", "trialIndex": 21, "score": -6.449999999999999, "costs": -8.45, "simulationMode": [null, null, null, null, null], "rewards": [-2, 4, 7, -10, 3], "path": ["0", "0", "12", "13", "14", "15", "17"], "rt": [14713, 7, 318, 408, 185], "actions": ["right", "right", "right", "up", "right"], "actionTimes": [17057, 17557, 18402, 19323, 19999], "queries": {"click": {"state": {"target": ["12", "13", "14", "15", "17", "19", "20"], "time": [4340, 5159, 5910, 7079, 7841, 10817, 12435]}, "edge": {"target": [], "time": []}}, "mouseover": {"state": {"target": ["12", "12", "13", "14", "15", "17", "19", "14", "14", "20", "22", "14"], "time": [3099, 3914, 4893, 5611, 6581, 7557, 8571, 11771, 11990, 12134, 13453, 16218]}, "edge": {"target": [], "time": []}}, "mouseout": {"state": {"target": ["19", "0", "12", "12", "13", "14", "15", "17", "14", "19", "14", "14", "20", "22", "14"], "time": [1470, 3069, 3187, 4860, 5380, 6362, 7525, 8290, 8568, 11707, 11898, 12022, 13202, 16164, 16248]}, "edge": {"target": [], "time": []}}}, "displayed_time": "20.50", "trialTime": 22071, "trial_type": "mouselab-mdp", "trial_index": 32, "time_elapsed": 1444623, "internal_node_id": "0.0-6.0-1.0-17.0"}}, {"uniqueid": "w80168495:a67548033", "current_trial": 33, "dateTime": 1693482489444, "trialdata": {"revealed_states": [], "clicked_states": [], "num_clicks_accrued": [0, 0, 0, 0, 0, 0, 0, 0, 0, 0, 0, 0, 0], "stateRewards": ["", -1, 2, 7, 8, 75, 67, -11, 6, 52, -17, 38, -1, 4, -8, 14, 74, -37, -17, -12, 52, 55, 71, -2, -1, -5, 2, 21, 6, -88, -14, 64, -61, -47], "withholdReward": false, "trial_id": "mdp_trial_19", "block": "test", "trialIndex": 22, "score": 15, "costs": 0, "simulationMode": [null, null, null, null, null], "rewards": [-2, -1, -5, 2, 21], "path": ["0", "0", "23", "24", "25", "26", "27"], "rt": [4922, 892, 215, 306, 9565], "actions": ["left", "left", "left", "up", "up"], "actionTimes": [6575, 8015, 8775, 9574, 19649], "queries": {"click": {"state": {"target": [], "time": []}, "edge": {"target": [], "time": []}}, "mouseover": {"state": {"target": [], "time": []}, "edge": {"target": [], "time": []}}, "mouseout": {"state": {"target": ["14", "13", "12", "0"], "time": [829, 858, 921, 3369]}, "edge": {"target": [], "time": []}}}, "displayed_time": "20.14", "trialTime": 21303, "trial_type": "mouselab-mdp", "trial_index": 33, "time_elapsed": 1466636, "internal_node_id": "0.0-6.0-1.0-18.0"}}, {"uniqueid": "w80168495:a67548033", "current_trial": 34, "dateTime": 1693482512986, "trialdata": {"revealed_states": [], "clicked_states": [], "num_clicks_accrued": [0, 0, 0, 0, 0, 0, 0, 0, 0, 0, 0, 0, 0], "stateRewards": ["", 2, -2, 7, -11, -76, -65, -23, 16, -58, 30, 81, 1, 2, 7, 14, 9, 55, -2, 6, 11, -15, 31, -1, -1, -3, 2, 15, 2, 46, 15, 18, 45, -34], "withholdReward": false, "trial_id": "mdp_trial_20", "block": "test", "trialIndex": 23, "score": 1, "costs": 0, "simulationMode": [null, null, null, null, null], "rewards": [1, 2, 7, 6, -15], "path": ["0", "0", "12", "13", "14", "19", "21"], "rt": [6390, 266, 62, 315, 117], "actions": ["right", "right", "right", "down", "down"], "actionTimes": [11931, 12742, 13296, 14132, 14751], "queries": {"click": {"state": {"target": [], "time": []}, "edge": {"target": [], "time": []}}, "mouseover": {"state": {"target": ["1", "1", "1", "1"], "time": [9274, 9703, 10476, 10905]}, "edge": {"target": [], "time": []}}, "mouseout": {"state": {"target": ["0", "1", "1", "1", "1"], "time": [5060, 9299, 9753, 10500, 22048]}, "edge": {"target": [], "time": []}}}, "displayed_time": "19.55", "trialTime": 22686, "trial_type": "mouselab-mdp", "trial_index": 34, "time_elapsed": 1490179, "internal_node_id": "0.0-6.0-1.0-19.0"}}, {"uniqueid": "w80168495:a67548033", "current_trial": 35, "dateTime": 1693482544699, "trialdata": {"revealed_states": [], "clicked_states": ["24", "25", "26", "27", "28", "14", "15", "2", "3", "8", "11"], "num_clicks_accrued": [0, 0, 0, 0, 0, 0, 0, 0, 0, 0, 0, 0, 0], "stateRewards": ["", -1, -3, -6, 14, 41, 18, 63, -14, 80, 21, 17, -2, -4, -2, -5, 13, 70, 8, -4, -64, -10, -20, 2, -1, 4, -1, -17, -55, 42, -7, 47, 54, 15], "withholdReward": false, "trial_id": "mdp_trial_21", "block": "test", "trialIndex": 24, "score": -21.65, "costs": -14.65, "simulationMode": [null, null, null, null, null], "rewards": [-1, -3, -6, -14, 17], "path": ["0", "0", "1", "2", "3", "8", "11"], "rt": [22619, 53, 760, 210, 61], "actions": ["up", "up", "up", "left", "left"], "actionTimes": [25153, 25709, 26997, 27746, 28312], "queries": {"click": {"state": {"target": ["24", "25", "26", "27", "28", "14", "15", "2", "3", "8", "11"], "time": [4174, 4843, 5512, 6241, 9395, 14075, 15480, 17394, 18638, 19858, 20804]}, "edge": {"target": [], "time": []}}, "mouseover": {"state": {"target": ["23", "24", "25", "26", "27", "28", "18", "14", "15", "18", "2", "2", "2", "3", "8", "8", "11", "9", "6"], "time": [3098, 3883, 4608, 5189, 5910, 6761, 13206, 13692, 14685, 16061, 16349, 16746, 17117, 17910, 19176, 19580, 20525, 21181, 22243]}, "edge": {"target": [], "time": []}}, "mouseout": {"state": {"target": ["23", "23", "24", "25", "26", "27", "28", "18", "14", "15", "18", "2", "2", "2", "3", "8", "8", "11", "9"], "time": [1616, 3133, 4604, 5134, 5810, 6726, 13186, 13221, 14660, 16027, 16198, 16401, 16763, 17608, 19158, 19211, 20490, 21145, 21929]}, "edge": {"target": [], "time": []}}}, "displayed_time": "28.82", "trialTime": 30938, "trial_type": "mouselab-mdp", "trial_index": 35, "time_elapsed": 1521891, "internal_node_id": "0.0-6.0-1.0-20.0"}}, {"uniqueid": "w80168495:a67548033", "current_trial": 36, "dateTime": 1693482564383, "trialdata": {"revealed_states": [], "clicked_states": ["23", "24", "2", "3", "4", "6"], "num_clicks_accrued": [0, 0, 0, 0, 0, 0, 0, 0, 0, 0, 0, 0, 0], "stateRewards": ["", 1, 2, -3, 6, -88, 74, -45, 7, -46, 40, -77, 1, -4, 4, 3, 22, -25, -59, 8, -83, 19, -60, -1, -1, -1, -8, 26, -29, 64, -7, -88, -51, -55], "withholdReward": false, "trial_id": "mdp_trial_22", "block": "test", "trialIndex": 25, "score": 74.9, "costs": -5.1, "simulationMode": [null, null, null, null, null, null], "rewards": [1, 2, -3, 6, 74], "path": ["0", "0", "1", "2", "3", "4", "6"], "rt": [7661, 302, 118, 443, 145, 269], "actions": ["up", "up", "up", "up", "right", "right"], "actionTimes": [11338, 11648, 12305, 13240, 13891, 14675], "queries": {"click": {"state": {"target": ["23", "24", "2", "3", "4", "6"], "time": [5052, 5749, 6980, 7666, 8470, 9207]}, "edge": {"target": [], "time": []}}, "mouseover": {"state": {"target": ["0", "23", "24", "2", "3", "4", "4", "6", "5", "5"], "time": [4687, 4899, 5605, 6655, 7466, 8033, 8231, 8857, 9623, 9904]}, "edge": {"target": [], "time": []}}, "mouseout": {"state": {"target": ["6", "7", "0", "0", "23", "23", "24", "2", "3", "4", "4", "6", "5"], "time": [1972, 2067, 3045, 4741, 5125, 5342, 5846, 7268, 7947, 8101, 8563, 9480, 9682]}, "edge": {"target": [], "time": []}}}, "displayed_time": "17.69", "trialTime": 18830, "trial_type": "mouselab-mdp", "trial_index": 36, "time_elapsed": 1541575, "internal_node_id": "0.0-6.0-1.0-21.0"}}, {"uniqueid": "w80168495:a67548033", "current_trial": 37, "dateTime": 1693482585736, "trialdata": {"revealed_states": [], "clicked_states": ["24", "25", "26", "13", "14", "2", "3", "8", "11", "6"], "num_clicks_accrued": [0, 0, 0, 0, 0, 0, 0, 0, 0, 0, 0, 0, 0], "stateRewards": ["", 1, 2, -6, -13, -51, 22, -4, -12, -44, -12, 6, -2, -2, -2, -14, -46, -4, -77, -2, 36, -79, 41, 2, -4, 2, -6, -55, 59, 70, -5, 39, -19, 24], "withholdReward": false, "trial_id": "mdp_trial_23", "block": "test", "trialIndex": 26, "score": -5.299999999999997, "costs": -11.299999999999999, "simulationMode": [null, null, null, null, null, null], "rewards": [1, 2, -6, -13, 22], "path": ["0", "0", "1", "2", "3", "4", "6"], "rt": [10991, 148, 3, 46, 113, 325], "actions": ["up", "up", "up", "up", "right", "right"], "actionTimes": [13480, 13632, 14155, 14732, 15364, 16213], "queries": {"click": {"state": {"target": ["24", "25", "26", "13", "14", "2", "3", "8", "11", "6"], "time": [3533, 4034, 4444, 5191, 5804, 6738, 7369, 8003, 8618, 11508]}, "edge": {"target": [], "time": []}}, "mouseover": {"state": {"target": ["23", "24", "25", "26", "28", "13", "14", "2", "3", "8", "11", "4", "6", "4", "6", "4"], "time": [2875, 3325, 3868, 4225, 4753, 4985, 5525, 6440, 7148, 7846, 8488, 8903, 9574, 9793, 11285, 11852]}, "edge": {"target": [], "time": []}}, "mouseout": {"state": {"target": ["5", "0", "23", "24", "25", "26", "28", "13", "14", "2", "3", "8", "11", "4", "6", "4", "6", "4"], "time": [1196, 2845, 2912, 3709, 4078, 4682, 4792, 5449, 5975, 7098, 7751, 8338, 8796, 9106, 9775, 9834, 11739, 12552]}, "edge": {"target": [], "time": []}}}, "displayed_time": "16.76", "trialTime": 20477, "trial_type": "mouselab-mdp", "trial_index": 37, "time_elapsed": 1562929, "internal_node_id": "0.0-6.0-1.0-22.0"}}, {"uniqueid": "w80168495:a67548033", "current_trial": 38, "dateTime": 1693482603544, "trialdata": {"revealed_states": [], "clicked_states": [], "num_clicks_accrued": [0, 0, 0, 0, 0, 0, 0, 0, 0, 0, 0, 0, 0], "stateRewards": ["", -1, 4, -5, 9, 29, -75, -42, -16, 24, -28, -41, 2, -3, 1, 10, 60, 47, 55, -1, -53, 22, -40, 2, -3, -6, 4, -26, 44, 54, 15, -76, 42, 14], "withholdReward": false, "trial_id": "mdp_trial_24", "block": "test", "trialIndex": 27, "score": 70, "costs": 0, "simulationMode": [null, null, null, null, null], "rewards": [2, -3, 1, 10, 60], "path": ["0", "0", "12", "13", "14", "15", "16"], "rt": [5087, 162, 129, 3000, 40], "actions": ["right", "right", "right", "up", "up"], "actionTimes": [6689, 7347, 7983, 11500, 12037], "queries": {"click": {"state": {"target": [], "time": []}, "edge": {"target": [], "time": []}}, "mouseover": {"state": {"target": [], "time": []}, "edge": {"target": [], "time": []}}, "mouseout": {"state": {"target": [], "time": []}, "edge": {"target": [], "time": []}}}, "displayed_time": "15.62", "trialTime": 16896, "trial_type": "mouselab-mdp", "trial_index": 38, "time_elapsed": 1580735, "internal_node_id": "0.0-6.0-1.0-23.0"}}, {"uniqueid": "w80168495:a67548033", "current_trial": 39, "dateTime": 1693482626304, "trialdata": {"revealed_states": [], "clicked_states": [], "num_clicks_accrued": [0, 0, 0, 0, 0, 0, 0, 0, 0, 0, 0, 0, 0], "stateRewards": ["", 1, -1, 8, 4, 76, -33, -17, -3, -1, -54, -74, -2, 2, -5, 13, -51, 63, 83, 1, 84, 29, -36, 2, -1, 7, -12, -10, -44, -43, -14, 8, -69, 19], "withholdReward": false, "trial_id": "mdp_trial_25", "block": "test", "trialIndex": 28, "score": 25, "costs": 0, "simulationMode": [null, null, null, null, null], "rewards": [-2, 2, -5, 1, 29], "path": ["0", "0", "12", "13", "14", "19", "21"], "rt": [1906, 2388, 43, 9852, 83], "actions": ["right", "right", "right", "down", "down"], "actionTimes": [5694, 8631, 9204, 19692, 20280], "queries": {"click": {"state": {"target": [], "time": []}, "edge": {"target": [], "time": []}}, "mouseover": {"state": {"target": [], "time": []}, "edge": {"target": [], "time": []}}, "mouseout": {"state": {"target": ["0", "12", "13"], "time": [4451, 7426, 7988]}, "edge": {"target": [], "time": []}}}, "displayed_time": "20.80", "trialTime": 21763, "trial_type": "mouselab-mdp", "trial_index": 39, "time_elapsed": 1603495, "internal_node_id": "0.0-6.0-1.0-24.0"}}, {"uniqueid": "w80168495:a67548033", "current_trial": 40, "dateTime": 1693482649010, "trialdata": {"revealed_states": [], "clicked_states": ["1", "2", "3"], "num_clicks_accrued": [0, 0, 0, 0, 0, 0, 0, 0, 0, 0, 0, 0, 0], "stateRewards": ["", 2, 3, -2, -8, -8, -41, 74, 15, -23, -80, 1, 1, 3, 3, -15, -63, -78, 67, 13, 75, -41, 86, 2, -2, 6, -3, -8, -49, 50, -6, 83, 74, 80], "withholdReward": false, "trial_id": "mdp_trial_26", "block": "test", "trialIndex": 29, "score": 17.95, "costs": -1.0499999999999998, "simulationMode": [null, null, null, null, null], "rewards": [2, 3, -2, 15, 1], "path": ["0", "0", "1", "2", "3", "8", "11"], "rt": [4781, 300, 780, 1580, 443], "actions": ["up", "up", "up", "left", "left"], "actionTimes": [6882, 7682, 8978, 11061, 12006], "queries": {"click": {"state": {"target": ["1", "2", "3"], "time": [4485, 5168, 5785]}, "edge": {"target": [], "time": []}}, "mouseover": {"state": {"target": ["1", "2", "3"], "time": [4282, 4984, 5630]}, "edge": {"target": [], "time": []}}, "mouseout": {"state": {"target": ["13", "1", "1", "2", "3", "8"], "time": [1027, 4575, 4850, 5549, 21240, 21257]}, "edge": {"target": [], "time": []}}}, "displayed_time": "16.11", "trialTime": 21631, "trial_type": "mouselab-mdp", "trial_index": 40, "time_elapsed": 1626202, "internal_node_id": "0.0-6.0-1.0-25.0"}}, {"uniqueid": "w80168495:a67548033", "current_trial": 41, "dateTime": 1693482667164, "trialdata": {"revealed_states": [], "clicked_states": ["14", "15", "16"], "num_clicks_accrued": [0, 0, 0, 0, 0, 0, 0, 0, 0, 0, 0, 0, 0], "stateRewards": ["", 2, 3, -1, 6, 44, -4, -59, -14, -3, 64, 16, 1, -3, 3, 6, 3, 49, 19, 3, -49, -14, -86, 1, 2, -3, -8, -33, 14, 32, -13, -77, -47, -67], "withholdReward": false, "trial_id": "mdp_trial_27", "block": "test", "trialIndex": 30, "score": 5.35, "costs": -4.65, "simulationMode": [null, null, null, null, null], "rewards": [1, -3, 3, 6, 3], "path": ["0", "0", "12", "13", "14", "15", "16"], "rt": [5363, 58, 111, 371, 126], "actions": ["right", "right", "right", "up", "up"], "actionTimes": [7433, 7996, 8621, 9495, 10152], "queries": {"click": {"state": {"target": ["14", "15", "16"], "time": [3070, 3726, 4357]}, "edge": {"target": [], "time": []}}, "mouseover": {"state": {"target": ["0", "12", "14", "15", "16", "17", "17"], "time": [2231, 2273, 2806, 3526, 4162, 5156, 5439]}, "edge": {"target": [], "time": []}}, "mouseout": {"state": {"target": ["8", "18", "28", "23", "0", "0", "12", "14", "15", "16", "17"], "time": [139, 362, 924, 1276, 2083, 2269, 2456, 3524, 4076, 4725, 5239]}, "edge": {"target": [], "time": []}}}, "displayed_time": "16.08", "trialTime": 17306, "trial_type": "mouselab-mdp", "trial_index": 41, "time_elapsed": 1644356, "internal_node_id": "0.0-6.0-1.0-26.0"}}, {"uniqueid": "w80168495:a67548033", "current_trial": 42, "dateTime": 1693482686964, "trialdata": {"revealed_states": [], "clicked_states": ["14", "13", "12", "15", "19"], "num_clicks_accrued": [0, 0, 0, 0, 0, 0, 0, 0, 0, 0, 0, 0, 0], "stateRewards": ["", 2, -4, 4, 9, 69, 9, -75, 12, -86, 66, 25, -1, 3, 2, -13, -88, -3, 1, 4, -69, 49, -84, 2, -1, 4, 2, -18, -81, -52, -15, -69, -54, 25], "withholdReward": false, "trial_id": "mdp_trial_28", "block": "test", "trialIndex": 31, "score": 52.85, "costs": -4.1499999999999995, "simulationMode": [null, null, null, null, null], "rewards": [-1, 3, 2, 4, 49], "path": ["0", "0", "12", "13", "14", "19", "21"], "rt": [6022, 11, 367, 478, 5362], "actions": ["right", "right", "right", "down", "down"], "actionTimes": [8270, 8782, 9688, 10663, 16531], "queries": {"click": {"state": {"target": ["14", "13", "12", "15", "19"], "time": [3492, 4233, 4702, 6040, 6894]}, "edge": {"target": [], "time": []}}, "mouseover": {"state": {"target": ["12", "13", "14", "13", "12", "15", "19"], "time": [2456, 2521, 2988, 4041, 4563, 5819, 6777]}, "edge": {"target": [], "time": []}}, "mouseout": {"state": {"target": ["17", "12", "13", "14", "13", "12", "15", "14", "19", "19", "19"], "time": [1261, 2489, 2708, 3952, 4478, 5228, 6437, 6661, 6985, 7374, 7556]}, "edge": {"target": [], "time": []}}}, "displayed_time": "17.06", "trialTime": 18803, "trial_type": "mouselab-mdp", "trial_index": 42, "time_elapsed": 1664156, "internal_node_id": "0.0-6.0-1.0-27.0"}}, {"uniqueid": "w80168495:a67548033", "current_trial": 43, "dateTime": 1693482705465, "trialdata": {"revealed_states": [], "clicked_states": ["13", "14", "15", "16", "12", "1"], "num_clicks_accrued": [0, 0, 0, 0, 0, 0, 0, 0, 0, 0, 0, 0, 0], "stateRewards": ["", -2, 2, 3, -7, 76, 63, 21, 15, 35, -8, -44, 1, 1, -2, -12, 23, 24, 76, -9, 46, 66, -49, -2, -1, 7, 12, 40, -71, -45, -6, 38, -49, 46], "withholdReward": false, "trial_id": "mdp_trial_29", "block": "test", "trialIndex": 32, "score": 6.5, "costs": -4.5, "simulationMode": [null, null, null, null, null], "rewards": [1, 1, -2, -12, 23], "path": ["0", "0", "12", "13", "14", "15", "16"], "rt": [8246, 20, 405, 37, 79], "actions": ["right", "right", "right", "up", "up"], "actionTimes": [10800, 11320, 12254, 12783, 13380], "queries": {"click": {"state": {"target": ["13", "14", "15", "16", "12", "1"], "time": [3967, 4632, 5709, 6186, 9008, 9821]}, "edge": {"target": [], "time": []}}, "mouseover": {"state": {"target": ["20", "13", "14", "17", "17", "15", "15", "16", "18", "19", "19", "12", "1", "1"], "time": [3556, 3705, 4556, 5004, 5186, 5302, 5574, 6134, 6529, 7519, 7904, 8785, 9437, 9622]}, "edge": {"target": [], "time": []}}, "mouseout": {"state": {"target": ["0", "20", "13", "14", "17", "17", "15", "15", "16", "18", "15", "14", "19", "19", "12", "1", "1"], "time": [3211, 3589, 4248, 4907, 5026, 5245, 5337, 5874, 6452, 7134, 7185, 7434, 7637, 8652, 9284, 9473, 10261]}, "edge": {"target": [], "time": []}}}, "displayed_time": "16.57", "trialTime": 17586, "trial_type": "mouselab-mdp", "trial_index": 43, "time_elapsed": 1682657, "internal_node_id": "0.0-6.0-1.0-28.0"}}, {"uniqueid": "w80168495:a67548033", "current_trial": 44, "dateTime": 1693482724033, "trialdata": {"revealed_states": [], "clicked_states": ["23", "24", "25", "26", "1", "2", "3", "8", "11"], "num_clicks_accrued": [0, 0, 0, 0, 0, 0, 0, 0, 0, 0, 0, 0, 0], "stateRewards": ["", -1, -3, -7, -4, -85, -70, 79, 8, 84, -66, 42, 2, -2, -3, -16, -54, -66, 68, -3, 21, -14, 7, -2, -1, -3, -8, 75, 80, 86, -7, -84, 73, -16], "withholdReward": false, "trial_id": "mdp_trial_30", "block": "test", "trialIndex": 33, "score": 31.65, "costs": -7.35, "simulationMode": [null, null, null, null, null, null], "rewards": [-1, -3, -7, 8, 42], "path": ["0", "0", "1", "2", "3", "8", "11"], "rt": [9398, 192, 46, 411, 225, 1872], "actions": ["up", "up", "up", "up", "left", "left"], "actionTimes": [11332, 11534, 12039, 12974, 13699, 16078], "queries": {"click": {"state": {"target": ["23", "24", "25", "26", "1", "2", "3", "8", "11"], "time": [2909, 3430, 4544, 5429, 6921, 7525, 8134, 8859, 9444]}, "edge": {"target": [], "time": []}}, "mouseover": {"state": {"target": ["23", "24", "28", "26", "25", "26", "28", "23", "0", "1", "2", "3", "8", "11", "4"], "time": [2711, 3304, 4036, 4136, 4317, 5233, 5750, 5944, 5999, 6724, 7334, 7899, 8681, 9128, 10130]}, "edge": {"target": [], "time": []}}, "mouseout": {"state": {"target": ["0", "23", "24", "28", "26", "25", "26", "28", "23", "0", "1", "2", "3", "8", "11", "11", "8"], "time": [2403, 3004, 3622, 4104, 4283, 4720, 5732, 5898, 5981, 6019, 7002, 7877, 8312, 9127, 9510, 9731, 9774]}, "edge": {"target": [], "time": []}}}, "displayed_time": "16.57", "trialTime": 17729, "trial_type": "mouselab-mdp", "trial_index": 44, "time_elapsed": 1701225, "internal_node_id": "0.0-6.0-1.0-29.0"}}, {"uniqueid": "w80168495:a67548033", "current_trial": 45, "dateTime": 1693482742180, "trialdata": {"revealed_states": [], "clicked_states": ["24", "25", "26", "2", "3", "4", "11", "14"], "num_clicks_accrued": [0, 0, 0, 0, 0, 0, 0, 0, 0, 0, 0, 0, 0], "stateRewards": ["", 1, 1, -6, -2, 7, 77, 3, 16, -16, 66, 31, -1, 3, -8, -6, 33, -50, -48, 7, -60, -66, 36, 2, -3, 3, -7, -12, -61, -79, -4, 8, 74, -70], "withholdReward": false, "trial_id": "mdp_trial_31", "block": "test", "trialIndex": 34, "score": 34.2, "costs": -8.799999999999999, "simulationMode": [null, null, null, null, null], "rewards": [1, 1, -6, 16, 31], "path": ["0", "0", "1", "2", "3", "8", "11"], "rt": [9998, 92, 96, 235, 18], "actions": ["up", "up", "up", "left", "left"], "actionTimes": [12235, 12835, 13464, 14219, 14744], "queries": {"click": {"state": {"target": ["24", "25", "26", "2", "3", "4", "11", "14"], "time": [3565, 3971, 4420, 5296, 5727, 6610, 7076, 10358]}, "edge": {"target": [], "time": []}}, "mouseover": {"state": {"target": ["25", "24", "23", "23", "0", "12", "23", "24", "25", "24", "25", "26", "28", "2", "3", "4", "4", "11", "8", "9", "16", "15", "14", "2", "3"], "time": [2278, 2313, 2332, 2517, 2649, 2690, 2884, 3096, 3134, 3344, 3742, 4216, 4754, 5133, 5648, 6064, 6433, 6914, 7660, 9012, 9714, 9996, 10263, 11464, 11576]}, "edge": {"target": [], "time": []}}, "mouseout": {"state": {"target": ["4", "8", "10", "0", "25", "24", "23", "23", "0", "12", "23", "24", "25", "24", "24", "25", "26", "28", "2", "3", "4", "4", "11", "8", "9", "16", "15", "14", "2", "3", "2"], "time": [963, 1113, 1150, 1461, 2296, 2330, 2349, 2628, 2668, 2795, 3012, 3132, 3317, 3632, 3700, 4062, 4735, 4779, 5446, 5969, 6143, 6852, 7277, 8660, 9575, 9830, 10064, 10440, 11486, 16736, 16767]}, "edge": {"target": [], "time": []}}}, "displayed_time": "16.25", "trialTime": 17192, "trial_type": "mouselab-mdp", "trial_index": 45, "time_elapsed": 1719372, "internal_node_id": "0.0-6.0-1.0-30.0"}}, {"uniqueid": "w80168495:a67548033", "current_trial": 46, "dateTime": 1693482759588, "trialdata": {"revealed_states": [], "clicked_states": ["13", "14", "21"], "num_clicks_accrued": [0, 0, 0, 0, 0, 0, 0, 0, 0, 0, 0, 0, 0], "stateRewards": ["", 1, -3, -4, -11, -56, 61, -47, -16, -28, -9, 69, -2, -3, -4, -8, 40, -86, 59, -4, 80, 27, 54, -1, 3, -1, 8, 67, 23, 50, 6, 83, -43, -29], "withholdReward": false, "trial_id": "mdp_trial_32", "block": "test", "trialIndex": 35, "score": 10.55, "costs": -3.4499999999999997, "simulationMode": [null, null, null, null, null], "rewards": [-2, -3, -4, -4, 27], "path": ["0", "0", "12", "13", "14", "19", "21"], "rt": [7297, 62, 331, 502, 124], "actions": ["right", "right", "right", "down", "down"], "actionTimes": [8885, 9455, 10288, 11295, 11948], "queries": {"click": {"state": {"target": ["13", "14", "21"], "time": [2235, 3056, 4222]}, "edge": {"target": [], "time": []}}, "mouseover": {"state": {"target": ["12", "13", "14", "14", "15", "15", "19", "21", "19", "2", "4", "5", "4"], "time": [1943, 1996, 2531, 2951, 3233, 3530, 3764, 4058, 4544, 4886, 5007, 5277, 7920]}, "edge": {"target": [], "time": []}}, "mouseout": {"state": {"target": ["1", "13", "12", "12", "13", "14", "14", "15", "15", "14", "19", "21", "19", "13", "2", "4", "5", "4"], "time": [577, 642, 858, 1961, 2444, 2606, 3194, 3287, 3666, 3728, 3848, 4333, 4564, 4619, 4972, 5029, 7770, 7953]}, "edge": {"target": [], "time": []}}}, "displayed_time": "15.61", "trialTime": 16595, "trial_type": "mouselab-mdp", "trial_index": 46, "time_elapsed": 1736780, "internal_node_id": "0.0-6.0-1.0-31.0"}}, {"uniqueid": "w80168495:a67548033", "current_trial": 47, "dateTime": 1693482778248, "trialdata": {"revealed_states": [], "clicked_states": ["24", "25", "26", "29"], "num_clicks_accrued": [0, 0, 0, 0, 0, 0, 0, 0, 0, 0, 0, 0, 0], "stateRewards": ["", 2, 3, 3, 10, 19, -21, 6, 9, 54, 68, 16, 2, 2, -6, -8, 40, -2, -75, -2, -42, 55, 59, -1, 2, 4, -14, 11, -34, -30, -6, 61, -53, 13], "withholdReward": false, "trial_id": "mdp_trial_33", "block": "test", "trialIndex": 36, "score": -3, "costs": -5, "simulationMode": [null, null, null, null, null, null], "rewards": [-1, 2, 4, -14, 11], "path": ["0", "0", "23", "24", "25", "26", "27"], "rt": [4449, 141, 18, 86, 2954, 75], "actions": ["left", "left", "left", "left", "up", "up"], "actionTimes": [6721, 6865, 7491, 8077, 11551, 12138], "queries": {"click": {"state": {"target": ["24", "25", "26", "29"], "time": [3650, 4072, 4512, 5426]}, "edge": {"target": [], "time": []}}, "mouseover": {"state": {"target": ["0", "28", "24", "25", "26", "29", "27"], "time": [2412, 2840, 3578, 3947, 4322, 5262, 5763]}, "edge": {"target": [], "time": []}}, "mouseout": {"state": {"target": ["1", "0", "0", "28", "24", "25", "26", "29"], "time": [1314, 1577, 2682, 2857, 3860, 4265, 4958, 5661]}, "edge": {"target": [], "time": []}}}, "displayed_time": "16.27", "trialTime": 17653, "trial_type": "mouselab-mdp", "trial_index": 47, "time_elapsed": 1755439, "internal_node_id": "0.0-6.0-1.0-32.0"}}, {"uniqueid": "w80168495:a67548033", "current_trial": 48, "dateTime": 1693482795698, "trialdata": {"revealed_states": [], "clicked_states": ["13", "14", "15", "16"], "num_clicks_accrued": [0, 0, 0, 0, 0, 0, 0, 0, 0, 0, 0, 0, 0], "stateRewards": ["", -1, 3, 8, 10, -86, 61, -36, 10, 17, -60, 24, -1, -3, 3, 11, 50, 60, 33, -3, -20, 58, -6, 1, -4, -4, 13, -70, -71, 43, 14, 52, 82, -11], "withholdReward": false, "trial_id": "mdp_trial_34", "block": "test", "trialIndex": 37, "score": 55, "costs": -5, "simulationMode": [null, null, null, null, null], "rewards": [-1, -3, 3, 11, 50], "path": ["0", "0", "12", "13", "14", "15", "16"], "rt": [6513, 24, 90, 110, 69], "actions": ["right", "right", "right", "up", "up"], "actionTimes": [8611, 9139, 9742, 10359, 10940], "queries": {"click": {"state": {"target": ["13", "14", "15", "16"], "time": [3318, 3648, 4085, 4926]}, "edge": {"target": [], "time": []}}, "mouseover": {"state": {"target": ["12", "13", "14", "15", "18", "16", "17", "18"], "time": [2470, 3117, 3504, 3893, 4352, 4609, 5440, 6687]}, "edge": {"target": [], "time": []}}, "mouseout": {"state": {"target": ["27", "28", "0", "12", "13", "14", "15", "18", "16", "16", "17", "15"], "time": [956, 1006, 1036, 2522, 3391, 3791, 4306, 4382, 5023, 5243, 6534, 6645]}, "edge": {"target": [], "time": []}}}, "displayed_time": "16.11", "trialTime": 16439, "trial_type": "mouselab-mdp", "trial_index": 48, "time_elapsed": 1772890, "internal_node_id": "0.0-6.0-1.0-33.0"}}, {"uniqueid": "w80168495:a67548033", "current_trial": 49, "dateTime": 1693482813997, "trialdata": {"revealed_states": [], "clicked_states": ["14", "15", "16", "22"], "num_clicks_accrued": [0, 0, 0, 0, 0, 0, 0, 0, 0, 0, 0, 0, 0], "stateRewards": ["", 2, -4, 7, 3, 23, -42, 4, 7, -81, -33, 7, -2, -4, 5, -1, 50, -57, -14, -13, -14, 44, 55, -2, -2, 5, -2, 33, 1, 57, -13, -7, 58, 87], "withholdReward": false, "trial_id": "mdp_trial_35", "block": "test", "trialIndex": 38, "score": 41.2, "costs": -6.800000000000001, "simulationMode": [null, null, null, null, null, null], "rewards": [-2, -4, 5, -1, 50], "path": ["0", "0", "12", "13", "14", "15", "16"], "rt": [6618, 160, 61, 110, 144, 105], "actions": ["right", "right", "right", "right", "up", "up"], "actionTimes": [8547, 8710, 9299, 10028, 10696, 11303], "queries": {"click": {"state": {"target": ["14", "15", "16", "22"], "time": [3006, 3553, 4006, 7242]}, "edge": {"target": [], "time": []}}, "mouseover": {"state": {"target": ["14", "15", "16", "19", "22", "14"], "time": [2843, 3355, 3854, 5138, 6370, 8055]}, "edge": {"target": [], "time": []}}, "mouseout": {"state": {"target": ["18", "0", "14", "15", "16", "15", "19", "22", "14"], "time": [754, 2385, 3297, 3817, 4192, 4214, 6235, 7560, 8199]}, "edge": {"target": [], "time": []}}}, "displayed_time": "15.93", "trialTime": 17203, "trial_type": "mouselab-mdp", "trial_index": 49, "time_elapsed": 1791190, "internal_node_id": "0.0-6.0-1.0-34.0"}}, {"uniqueid": "w80168495:a67548033", "current_trial": 50, "dateTime": 1693482837419, "trialdata": {"revealed_states": [], "clicked_states": ["13", "14", "15", "16"], "num_clicks_accrued": [0, 0, 0, 0, 0, 0, 0, 0, 0, 0, 0, 0, 0], "stateRewards": ["", 1, -4, -4, 8, 1, -79, 68, -10, -79, 8, -74, -1, -3, -6, 14, 43, 23, 9, 5, -51, 63, 61, -2, 4, 6, -10, 69, -32, 57, 15, -80, -80, -77], "withholdReward": false, "trial_id": "mdp_trial_36", "block": "test", "trialIndex": 39, "score": 42, "costs": -5, "simulationMode": [null, null, null, null, null, null], "rewards": [-1, -3, -6, 14, 43], "path": ["0", "0", "12", "13", "14", "15", "16"], "rt": [4712, 172, 29, 411, 137, 89], "actions": ["right", "right", "right", "right", "up", "up"], "actionTimes": [7163, 7339, 7877, 8808, 9451, 10051], "queries": {"click": {"state": {"target": ["13", "14", "15", "16"], "time": [3174, 3646, 3968, 4754]}, "edge": {"target": [], "time": []}}, "mouseover": {"state": {"target": ["13", "14", "15", "16", "17"], "time": [2914, 3402, 3765, 4563, 5339]}, "edge": {"target": [], "time": []}}, "mouseout": {"state": {"target": ["14", "23", "23", "0", "13", "14", "15", "16", "17"], "time": [1041, 1137, 1349, 2871, 3374, 3710, 4341, 5051, 6525]}, "edge": {"target": [], "time": []}}}, "displayed_time": "16.75", "trialTime": 22072, "trial_type": "mouselab-mdp", "trial_index": 50, "time_elapsed": 1814610, "internal_node_id": "0.0-6.0-1.0-35.0"}}, {"uniqueid": "w80168495:a67548033", "current_trial": 51, "dateTime": 1693482857881, "trialdata": {"revealed_states": [], "clicked_states": ["24", "25", "26", "27"], "num_clicks_accrued": [0, 0, 0, 0, 0, 0, 0, 0, 0, 0, 0, 0, 0], "stateRewards": ["", -2, 1, -3, -16, -39, -52, 30, -7, -41, -59, 11, 2, 1, 8, 2, -11, -26, -42, -13, 87, -59, -48, -1, -1, -1, 16, -79, 31, 50, -1, -84, 34, -82], "withholdReward": false, "trial_id": "mdp_trial_37", "block": "test", "trialIndex": 40, "score": 58, "costs": -5, "simulationMode": [null, null, null, null, null], "rewards": [-1, -1, -1, 16, 50], "path": ["0", "0", "23", "24", "25", "26", "29"], "rt": [8352, 88, 565, 489, 448], "actions": ["left", "left", "left", "up", "left"], "actionTimes": [11013, 11619, 12681, 13666, 14618], "queries": {"click": {"state": {"target": ["24", "25", "26", "27"], "time": [3679, 4233, 5400, 6749]}, "edge": {"target": [], "time": []}}, "mouseover": {"state": {"target": ["0", "23", "24", "25", "26", "28", "28", "27", "29", "26", "28", "26"], "time": [2734, 3133, 3603, 3966, 5149, 5686, 6318, 6550, 7205, 9480, 9523, 9845]}, "edge": {"target": [], "time": []}}, "mouseout": {"state": {"target": ["15", "13", "12", "23", "0", "23", "24", "25", "26", "28", "28", "27", "29", "26", "28"], "time": [791, 882, 1087, 1384, 3087, 3198, 3908, 4459, 5684, 5839, 6337, 7084, 9059, 9501, 9794]}, "edge": {"target": [], "time": []}}}, "displayed_time": "17.16", "trialTime": 18929, "trial_type": "mouselab-mdp", "trial_index": 51, "time_elapsed": 1835073, "internal_node_id": "0.0-6.0-1.0-36.0"}}, {"uniqueid": "w80168495:a67548033", "current_trial": 52, "dateTime": 1693482876091, "trialdata": {"revealed_states": [], "clicked_states": ["2", "3", "4", "5"], "num_clicks_accrued": [0, 0, 0, 0, 0, 0, 0, 0, 0, 0, 0, 0, 0], "stateRewards": ["", -1, 3, -7, 16, -32, -74, -48, 2, 10, 15, -30, 1, 1, -2, 10, 12, -83, 67, 13, -66, 47, 65, -2, 4, 2, -14, -8, -57, 24, 9, 65, 12, 46], "withholdReward": false, "trial_id": "mdp_trial_38", "block": "test", "trialIndex": 41, "score": -68, "costs": -5, "simulationMode": [null, null, null, null, null, null], "rewards": [-1, 3, -7, 16, -74], "path": ["0", "0", "1", "2", "3", "4", "6"], "rt": [5342, 154, 9, 66, 46, 66], "actions": ["up", "up", "up", "up", "right", "right"], "actionTimes": [7042, 7198, 7712, 8302, 8856, 9438], "queries": {"click": {"state": {"target": ["2", "3", "4", "5"], "time": [2735, 3563, 3954, 4362]}, "edge": {"target": [], "time": []}}, "mouseover": {"state": {"target": ["1", "2", "3", "4", "5", "6", "6"], "time": [2174, 2518, 3390, 3764, 4200, 4929, 5349]}, "edge": {"target": [], "time": []}}, "mouseout": {"state": {"target": ["26", "29", "26", "1", "2", "3", "4", "5", "6", "6"], "time": [141, 158, 644, 2257, 2926, 3647, 4107, 4711, 4950, 6331]}, "edge": {"target": [], "time": []}}}, "displayed_time": "15.70", "trialTime": 16817, "trial_type": "mouselab-mdp", "trial_index": 52, "time_elapsed": 1853284, "internal_node_id": "0.0-6.0-1.0-37.0"}}, {"uniqueid": "w80168495:a67548033", "current_trial": 53, "dateTime": 1693482896709, "trialdata": {"revealed_states": [], "clicked_states": ["15", "16", "14", "21", "25", "26", "27"], "num_clicks_accrued": [0, 0, 0, 0, 0, 0, 0, 0, 0, 0, 0, 0, 0], "stateRewards": ["", -2, 2, -4, -4, -59, 88, 62, -3, 69, -15, -34, 1, -2, -5, 7, -54, -20, 78, -16, -74, -53, -21, 2, -4, 2, 13, -8, -44, 26, 9, 72, 4, 17], "withholdReward": false, "trial_id": "mdp_trial_39", "block": "test", "trialIndex": 42, "score": 27.549999999999997, "costs": -11.450000000000001, "simulationMode": [null, null, null, null, null, null], "rewards": [2, -4, 2, 13, 26], "path": ["0", "0", "23", "24", "25", "26", "29"], "rt": [11618, 122, 105, 198, 4, 327], "actions": ["left", "left", "left", "left", "up", "left"], "actionTimes": [14190, 14320, 14953, 15675, 16177, 17036], "queries": {"click": {"state": {"target": ["15", "16", "14", "21", "25", "26", "27"], "time": [3433, 3847, 7405, 8240, 11405, 12256, 12876]}, "edge": {"target": [], "time": []}}, "mouseover": {"state": {"target": ["12", "13", "15", "16", "14", "19", "21", "22", "0", "28", "25", "26", "27", "1", "0"], "time": [2807, 2912, 3227, 3670, 4374, 7835, 7924, 8804, 8991, 9252, 9374, 12018, 12636, 13351, 13578]}, "edge": {"target": [], "time": []}}, "mouseout": {"state": {"target": ["12", "13", "15", "16", "15", "14", "14", "19", "21", "22", "0", "28", "25", "26", "27", "1", "0"], "time": [2846, 2942, 3518, 4141, 4287, 7415, 7756, 7900, 8439, 8845, 9028, 9290, 11976, 12584, 13190, 13503, 13684]}, "edge": {"target": [], "time": []}}}, "displayed_time": "17.54", "trialTime": 19397, "trial_type": "mouselab-mdp", "trial_index": 53, "time_elapsed": 1873900, "internal_node_id": "0.0-6.0-1.0-38.0"}}, {"uniqueid": "w80168495:a67548033", "current_trial": 54, "dateTime": 1693482918474, "trialdata": {"revealed_states": [], "clicked_states": ["14", "15", "16", "3", "4", "5"], "num_clicks_accrued": [0, 0, 0, 0, 0, 0, 0, 0, 0, 0, 0, 0, 0], "stateRewards": ["", 2, -1, -1, 7, 11, -40, -22, -2, 69, 37, 8, -2, 4, -8, -12, -2, -72, -3, -12, 17, 63, 12, 1, 3, -7, 6, 25, 61, 61, -9, 28, -17, 27], "withholdReward": false, "trial_id": "mdp_trial_40", "block": "test", "trialIndex": 43, "score": 8.7, "costs": -9.3, "simulationMode": [null, null, null, null, null], "rewards": [2, -1, -1, 7, 11], "path": ["0", "0", "1", "2", "3", "4", "5"], "rt": [12944, 64, 1284, 467, 89], "actions": ["up", "up", "up", "right", "up"], "actionTimes": [14783, 15361, 17142, 18106, 18717], "queries": {"click": {"state": {"target": ["14", "15", "16", "3", "4", "5"], "time": [3202, 3823, 4421, 8698, 9678, 10500]}, "edge": {"target": [], "time": []}}, "mouseover": {"state": {"target": ["12", "13", "14", "15", "16", "19", "22", "23", "24", "25", "25", "3", "4", "5", "7", "6"], "time": [2388, 2409, 2997, 3660, 4320, 5047, 5397, 5657, 5717, 6350, 6585, 8067, 9042, 10190, 11283, 11741]}, "edge": {"target": [], "time": []}}, "mouseout": {"state": {"target": ["0", "12", "13", "14", "15", "16", "15", "14", "19", "22", "23", "24", "25", "25", "3", "4", "5", "5", "4", "7", "4"], "time": [1141, 2405, 2441, 3467, 4104, 4774, 4857, 4952, 5178, 5472, 5696, 6147, 6406, 7250, 9003, 10115, 10595, 10840, 11049, 11584, 11695]}, "edge": {"target": [], "time": []}}}, "displayed_time": "19.22", "trialTime": 20302, "trial_type": "mouselab-mdp", "trial_index": 54, "time_elapsed": 1895666, "internal_node_id": "0.0-6.0-1.0-39.0"}}, {"uniqueid": "w80168495:a67548033", "current_trial": 55, "dateTime": 1693482979330, "trialdata": {"rt": 60845, "response": {"Q0": "$-2 to $2", "Q1": "$-16 to $16", "Q2": "$-88 to $88", "Q3": "The cost for clicking on nodes varied between nodes.", "Q4": "Very motivated"}, "question_order": [0, 1, 2, 3, 4], "trial_id": "final_quiz_control", "trial_type": "survey-multi-choice", "trial_index": 55, "time_elapsed": 1956522, "internal_node_id": "0.0-6.0-2.0"}}, {"uniqueid": "w80168495:a67548033", "current_trial": 56, "dateTime": 1693483055304, "trialdata": {"rt": 75935, "response": {"Q0": "i chose what i thought had a pattern. ", "Q1": "i did not. ", "Q2": "i did not find it difficult."}, "trial_id": "self_report_control", "trial_type": "survey-text", "trial_index": 56, "time_elapsed": 2032496, "internal_node_id": "0.0-6.0-3.0"}}, {"uniqueid": "w80168495:a67548033", "current_trial": 57, "dateTime": 1693483106475, "trialdata": {"rt": 51158, "response": {"Q0": "Neither disagree nor agree", "Q1": "Strongly disagree", "Q2": "Agree", "Q3": "Agree", "Q4": "Agree", "Q5": "Agree", "Q6": "Strongly disagree"}, "question_order": [0, 1, 2, 3, 4, 5, 6], "trial_id": "self_report_2", "trial_type": "survey-multi-choice", "trial_index": 57, "time_elapsed": 2083668, "internal_node_id": "0.0-6.0-4.0"}}, {"uniqueid": "w80168495:a67548033", "current_trial": 58, "dateTime": 1693483127854, "trialdata": {"rt": 21357, "response": {"gender": "male", "age": "27", "colorblind": "0", "effort": "0"}, "trial_type": "survey-html-form", "trial_index": 58, "time_elapsed": 2105047, "internal_node_id": "0.0-6.0-5.0"}}, {"uniqueid": "w80168495:a67548033", "current_trial": 59, "dateTime": 1693483189411, "trialdata": {"rt": 61518, "response": {"Q0": "no instructions were clear", "Q1": "i did not.", "Q2": ""}, "trial_type": "survey-text", "trial_index": 59, "time_elapsed": 2166604, "internal_node_id": "0.0-6.0-6.0"}}, {"uniqueid": "w80168495:a67548033", "current_trial": 60, "dateTime": 1693483196777, "trialdata": {"rt": 7341, "stimulus": "<h1>Completion Code Instructions (1/2)</h1>\n<br><br><br><br>\nYou have reached the end of the experiment! The completion code consists of two parts: (1) a code with 2 characters (2) a code with 6 characters. On this page, you will receive the second part of the code. The first part of the completion code will be on the next page.\n<br><br>\nThe second part of your completion code is: <b>EWEK22</b>\n<br><br>\nPlease note this down. Then, press 'Finish HIT' in order to find the first part of your completion code. Once the data has been saved, you will receive this code either in this window or in the original browser window where you started the experiment.\n", "response": 0, "trial_type": "html-button-response", "trial_index": 60, "time_elapsed": 2173969, "internal_node_id": "0.0-6.0-7.0"}}, {"uniqueid": "w80168495:a67548033", "current_trial": 61, "dateTime": 1693483197804, "trialdata": {"success": true, "trial_type": "fullscreen", "trial_index": 61, "time_elapsed": 2174997, "internal_node_id": "0.0-7.0"}}], "questiondata": {"params": {"CODE": "C6DMOQA6", "MIN_TIME": 14, "inspectCost": 1, "startTime": "Thu Aug 31 2023 13:23:29 GMT+0200 (Central European Summer Time)", "bonusRate": 0.002, "variance": "1_2_4_8_44", "branching": "31123"}, "final_score": 574.65}, "eventdata": [{"eventtype": "initialized", "value": null, "timestamp": 1693481008799, "interval": 0}, {"eventtype": "window_resize", "value": [1028, 744], "timestamp": 1693481008799, "interval": 0}, {"eventtype": "window_resize", "value": [1028, 744], "timestamp": 1693481009363, "interval": 564}, {"eventtype": "window_resize", "value": [1536, 864], "timestamp": 1693481025171, "interval": 15808}, {"eventtype": "focus", "value": "off", "timestamp": 1693481706269, "interval": 681098}, {"eventtype": "focus", "value": "on", "timestamp": 1693481706270, "interval": 1}, {"eventtype": "window_resize", "value": [1028, 744], "timestamp": 1693481706495, "interval": 225}, {"eventtype": "window_resize", "value": [1536, 864], "timestamp": 1693481708175, "interval": 1680}, {"eventtype": "window_resize", "value": [1028, 744], "timestamp": 1693483197140, "interval": 1488965}], "useragent": "Mozilla/5.0 (Windows NT 10.0; Win64; x64) AppleWebKit/537.36 (KHTML, like Gecko) Chrome/116.0.0.0 Safari/537.36 AVG/116.0.0.0", "mode": "live", "id": "w80168495:a67548033", "status": "user data saved", "Beginhit": "2023-08-31 11:22:57.171532", "Beginexp": "2023-08-31 11:23:37.101243", "Endhit": "2023-08-31 11:59:52.594256", "psiturkStatus": 3, "browser": "<redacted>", "platform": "windows", "language": "en-US"}