{"condition": 1, "counterbalance": 0, "assignmentId": "a88317458", "workerId": "w89223538", "hitId": "h55802209", "currenttrial": 56, "bonus": 0, "data": [{"uniqueid": "w89223538:a88317458", "current_trial": 0, "dateTime": 1693660493998, "trialdata": {"success": true, "trial_type": "fullscreen", "trial_index": 0, "time_elapsed": 99318, "internal_node_id": "0.0-0.0"}}, {"uniqueid": "w89223538:a88317458", "current_trial": 1, "dateTime": 1693660554959, "trialdata": {"view_history": [{"page_index": 0, "viewing_time": 60940}], "rt": 60941, "trial_id": "exp_instructions_misaligned", "trial_type": "instructions", "trial_index": 1, "time_elapsed": 160281, "internal_node_id": "0.0-1.0"}}, {"uniqueid": "w89223538:a88317458", "current_trial": 2, "dateTime": 1693660914392, "trialdata": {"view_history": [{"page_index": 0, "viewing_time": 119292}, {"page_index": 1, "viewing_time": 118754}, {"page_index": 2, "viewing_time": 53731}, {"page_index": 3, "viewing_time": 67652}], "rt": 359430, "trial_id": "mouselab_instructions_1_misaligned", "trial_type": "instructions", "trial_index": 2, "time_elapsed": 519713, "internal_node_id": "0.0-2.0-1.0"}}, {"uniqueid": "w89223538:a88317458", "current_trial": 3, "dateTime": 1693660968471, "trialdata": {"revealed_states": [], "clicked_states": ["12", "23", "1", "2", "13", "14", "10", "8", "9", "24", "25"], "num_clicks_accrued": [0, 0, 0, 0, 0, 0, 0, 0, 0, 0, 0, 0, 0], "stateRewards": ["", -10, -10, -10, -10, 10, -10, 10, -10, -10, 10, 10, 10, 10, -10, 10, 10, -10, 10, 10, 10, 10, -10, -10, -10, -10, -10, -10, 10, 10, 10, 10, -10, -10], "withholdReward": false, "trial_id": "practice_1", "block": "test", "trialIndex": 0, "score": 28, "costs": -5.5, "simulationMode": [null, null, null, null, null], "rewards": [10, 10, -10, 10, 10], "path": ["0", "0", "12", "13", "14", "19", "20"], "rt": [35369, 2433, 505, 379, 375], "actions": ["right", "right", "right", "down", "right"], "actionTimes": [40582, 43543, 44560, 45440, 46339], "queries": {"click": {"state": {"target": ["12", "23", "1", "2", "13", "14", "10", "8", "9", "24", "25"], "time": [10387, 13289, 14957, 17117, 18779, 20193, 25853, 31161, 32440, 35812, 37423]}, "edge": {"target": [], "time": []}}, "mouseover": {"state": {"target": ["12", "12", "0", "23", "0", "1", "2", "12", "13", "14", "19", "15", "18", "1", "2", "10", "8", "8", "8", "9", "3", "7", "15", "0", "23", "24", "23", "24", "25", "30", "31"], "time": [7532, 10133, 12561, 12947, 14116, 14648, 16664, 18365, 18487, 19096, 22215, 22892, 23939, 24614, 24923, 25198, 28072, 29465, 30391, 31821, 33140, 33615, 33865, 34048, 34137, 34639, 34854, 35469, 36748, 38454, 38682]}, "edge": {"target": [], "time": []}}, "mouseout": {"state": {"target": ["13", "13", "12", "12", "12", "12", "0", "23", "0", "1", "2", "2", "12", "13", "14", "19", "14", "15", "18", "1", "2", "10", "8", "8", "8", "9", "3", "7", "15", "0", "23", "24", "23", "24", "25", "30", "31"], "time": [433, 1946, 2021, 8467, 11614, 12521, 12820, 14086, 14323, 16331, 17789, 18044, 18434, 19036, 21850, 22566, 22622, 23864, 24004, 24694, 24960, 26418, 28532, 29848, 31436, 32948, 33411, 33704, 33921, 34107, 34167, 34799, 35204, 36510, 38054, 38490, 38728]}, "edge": {"target": [], "time": []}}}, "displayed_time": "46.86", "trialTime": 53583, "trial_type": "mouselab-mdp", "trial_index": 3, "time_elapsed": 573790, "internal_node_id": "0.0-2.0-2.0-0.0"}}, {"uniqueid": "w89223538:a88317458", "current_trial": 4, "dateTime": 1693661000910, "trialdata": {"revealed_states": [], "clicked_states": ["23", "24", "25", "30", "26", "28"], "num_clicks_accrued": [0, 0, 0, 0, 0, 0, 0, 0, 0, 0, 0, 0, 0], "stateRewards": ["", -10, 10, -10, -10, 10, 10, -10, 10, 10, -10, 10, 10, 10, -10, 10, -10, -10, -10, -10, 10, -10, -10, 10, 10, -10, 10, 10, 10, -10, -10, 10, -10, 10], "withholdReward": false, "trial_id": "practice_2", "block": "test", "trialIndex": 1, "score": 30.5, "costs": -3, "simulationMode": [null, null, null, null, null], "rewards": [10, 10, -10, 10, 10], "path": ["0", "0", "23", "24", "25", "26", "28"], "rt": [18987, 406, 1695, 702, 310], "actions": ["left", "left", "left", "up", "right"], "actionTimes": [21666, 22592, 24793, 26012, 26834], "queries": {"click": {"state": {"target": ["23", "24", "25", "30", "26", "28"], "time": [4534, 7229, 10173, 13707, 16261, 17881]}, "edge": {"target": [], "time": []}}, "mouseover": {"state": {"target": ["0", "23", "24", "25", "30", "25", "26", "28", "23", "23"], "time": [3447, 4069, 5783, 9260, 12893, 15753, 15932, 17018, 19700, 20068]}, "edge": {"target": [], "time": []}}, "mouseout": {"state": {"target": ["0", "0", "23", "24", "25", "30", "25", "26", "28", "23", "23"], "time": [2004, 3696, 5749, 8996, 11946, 15714, 15832, 16907, 19611, 19771, 20385]}, "edge": {"target": [], "time": []}}}, "displayed_time": "27.35", "trialTime": 32084, "trial_type": "mouselab-mdp", "trial_index": 4, "time_elapsed": 606230, "internal_node_id": "0.0-2.0-2.0-1.0"}}, {"uniqueid": "w89223538:a88317458", "current_trial": 5, "dateTime": 1693661069097, "trialdata": {"view_history": [{"page_index": 0, "viewing_time": 56559}, {"page_index": 1, "viewing_time": 11614}], "rt": 68174, "trial_id": "mouselab_instructions_2_misaligned", "trial_type": "instructions", "trial_index": 5, "time_elapsed": 674419, "internal_node_id": "0.0-2.0-3.0"}}, {"uniqueid": "w89223538:a88317458", "current_trial": 6, "dateTime": 1693661162469, "trialdata": {"rt": 93366, "response": {"Q0": "The cost for clicking on nodes may vary between nodes.", "Q1": "The better I perform the higher my bonus will be.", "Q2": "No, the amount of cash at each node of the web may be different each time.", "Q3": "To get the highest total score.", "Q4": "Only before moving the spider.", "Q5": "3 seconds"}, "question_order": [0, 1, 2, 3, 4, 5], "correct": {"Q0": "The cost for clicking on nodes may vary between nodes.", "Q1": "The better I perform the higher my bonus will be.", "Q2": "No, the amount of cash at each node of the web may be different each time.", "Q3": "To get the highest total score.", "Q4": "Only before moving the spider.", "Q5": "3 seconds"}, "trial_id": "mouselab_quiz_misaligned", "trial_type": "survey-multi-choice", "trial_index": 6, "time_elapsed": 767791, "internal_node_id": "0.0-2.0-4.0"}}, {"uniqueid": "w89223538:a88317458", "current_trial": 7, "dateTime": 1693661173976, "trialdata": {"rt": 11498, "response": {"Q0": "No"}, "question_order": [0], "trial_id": "repeat_check", "trial_type": "survey-multi-choice", "trial_index": 7, "time_elapsed": 779297, "internal_node_id": "0.0-4.0-0.0"}}, {"uniqueid": "w89223538:a88317458", "current_trial": 8, "dateTime": 1693661207152, "trialdata": {"rt": 33167, "stimulus": "\n<h1> Get ready to start the game! </h1>\n\nThank you for reading the instructions. Get ready start with the 40 rounds of this game.\n<br><br>\nIf you need to take a break, feel free to take one after the end of a round, before continuing to the next one.\n<br><br>\nRemember, the more money the spider gets, the bigger your bonus will be!\n<br><br>\n<div style='text-align: center;'>Press <code>space</code> to begin.</div>\n\n<br><br>\n(If, at any point, the <code>space</code> key does not take you to the next page, click once on the text and try again.)", "response": " ", "trial_id": "mdp_ready", "trial_type": "html-keyboard-response", "trial_index": 8, "time_elapsed": 812474, "internal_node_id": "0.0-6.0-0.0"}}, {"uniqueid": "w89223538:a88317458", "current_trial": 9, "dateTime": 1693661266902, "trialdata": {"revealed_states": [], "clicked_states": ["1", "2", "12", "13", "23", "24", "25", "14", "19", "20"], "num_clicks_accrued": [0, 0, 0, 0, 0, 0, 0, 0, 0, 0, 0, 0, 0], "stateRewards": ["", 1, -4, -6, 11, -20, 8, -30, 1, -38, 88, 42, 2, 3, 5, -12, -8, -74, 30, -8, 67, -19, 42, 2, -1, 4, 13, 50, -68, 2, -8, -15, 87, -46], "withholdReward": false, "trial_id": "mdp_trial_1", "block": "test", "trialIndex": 2, "score": 63.1, "costs": -5.9, "simulationMode": [null, null, null, null, null], "rewards": [2, 3, 5, -8, 67], "path": ["0", "0", "12", "13", "14", "19", "20"], "rt": [26195, 1393, 1967, 1468, 1547], "actions": ["right", "right", "right", "down", "right"], "actionTimes": [39050, 40969, 43443, 45419, 47491], "queries": {"click": {"state": {"target": ["1", "2", "12", "13", "23", "24", "25", "14", "19", "20"], "time": [13816, 15120, 17138, 18247, 20041, 21207, 22398, 24080, 25276, 26866]}, "edge": {"target": [], "time": []}}, "mouseover": {"state": {"target": ["1", "2", "10", "0", "12", "13", "23", "24", "25", "12", "13", "14", "19", "20", "22", "12", "1", "2", "3", "2", "18", "19", "22", "19", "20"], "time": [13537, 14746, 15773, 16782, 16872, 17489, 19814, 20715, 21959, 23468, 23524, 23920, 24703, 25976, 27742, 28247, 28388, 28672, 28875, 30104, 30706, 32931, 33035, 34271, 34506]}, "edge": {"target": [], "time": []}}, "mouseout": {"state": {"target": ["10", "2", "18", "17", "14", "13", "12", "0", "1", "2", "10", "0", "12", "13", "23", "23", "24", "25", "12", "13", "14", "19", "20", "22", "12", "1", "2", "3", "2", "18", "19", "22", "19", "20"], "time": [184, 592, 1624, 4109, 4475, 6784, 7976, 8292, 13856, 15635, 16333, 16869, 17372, 19496, 20088, 20464, 21899, 22970, 23496, 23688, 24418, 25769, 27545, 27774, 28278, 28420, 28730, 30013, 30299, 30741, 32988, 33604, 34447, 34649]}, "edge": {"target": [], "time": []}}}, "displayed_time": "48.00", "trialTime": 59352, "trial_type": "mouselab-mdp", "trial_index": 9, "time_elapsed": 872221, "internal_node_id": "0.0-6.0-1.0-0.0"}}, {"uniqueid": "w89223538:a88317458", "current_trial": 10, "dateTime": 1693661310744, "trialdata": {"revealed_states": [], "clicked_states": ["23", "1", "2", "5", "27", "24"], "num_clicks_accrued": [0, 0, 0, 0, 0, 0, 0, 0, 0, 0, 0, 0, 0], "stateRewards": ["", -1, 4, -8, 12, 14, 69, -8, 5, -72, -14, 56, -1, -1, -1, 9, 67, 19, 11, -9, -88, -58, 3, 2, -4, -8, 4, 62, 77, -74, 5, -31, 65, 88], "withholdReward": false, "trial_id": "mdp_trial_2", "block": "test", "trialIndex": 3, "score": 16.5, "costs": -4.5, "simulationMode": [null, null, null, null, null], "rewards": [-1, 4, -8, 12, 14], "path": ["0", "0", "1", "2", "3", "4", "5"], "rt": [27115, 1207, 1070, 671, 639], "actions": ["up", "up", "up", "right", "up"], "actionTimes": [31534, 33242, 34821, 36005, 37157], "queries": {"click": {"state": {"target": ["23", "1", "2", "5", "27", "24"], "time": [5552, 7765, 10433, 12048, 14961, 20360]}, "edge": {"target": [], "time": []}}, "mouseover": {"state": {"target": ["23", "1", "2", "3", "5", "4", "5", "4", "6", "16", "15", "15", "25", "26", "27", "26", "24", "25", "24", "23", "0", "12", "0", "23", "24", "30", "25", "31", "21"], "time": [4961, 6905, 8928, 10766, 11108, 11214, 11578, 12839, 12876, 13026, 13089, 13350, 13965, 14169, 14642, 15379, 15649, 16250, 17850, 18106, 18612, 19030, 19582, 19683, 20073, 22255, 23292, 24273, 24430]}, "edge": {"target": [], "time": []}}, "mouseout": {"state": {"target": ["20", "19", "32", "30", "31", "0", "23", "1", "2", "3", "5", "4", "5", "4", "6", "16", "15", "15", "25", "26", "27", "26", "24", "25", "24", "23", "0", "12", "0", "23", "24", "30", "25", "31", "21"], "time": [1453, 1527, 1627, 2018, 2251, 4882, 6610, 7946, 10522, 10799, 11176, 11443, 12506, 12872, 12909, 13057, 13234, 13387, 14082, 14348, 15231, 15416, 16163, 17794, 17912, 18150, 18929, 19489, 19646, 19923, 21821, 23073, 23972, 24319, 24468]}, "edge": {"target": [], "time": []}}}, "displayed_time": "37.68", "trialTime": 43467, "trial_type": "mouselab-mdp", "trial_index": 10, "time_elapsed": 916064, "internal_node_id": "0.0-6.0-1.0-1.0"}}, {"uniqueid": "w89223538:a88317458", "current_trial": 11, "dateTime": 1693661354340, "trialdata": {"revealed_states": [], "clicked_states": ["1", "2", "3", "8", "9"], "num_clicks_accrued": [0, 0, 0, 0, 0, 0, 0, 0, 0, 0, 0, 0, 0], "stateRewards": ["", -2, 4, -7, -3, -76, 39, -28, 10, 14, 12, 60, 2, -3, 6, -10, 88, -34, -41, -3, 72, -13, -56, 1, 3, 2, 8, -51, 23, -57, 1, 14, -46, -16], "withholdReward": false, "trial_id": "mdp_trial_3", "block": "test", "trialIndex": 4, "score": 14.25, "costs": -4.75, "simulationMode": [null, null, null, null, null], "rewards": [-2, 4, -7, 10, 14], "path": ["0", "0", "1", "2", "3", "8", "9"], "rt": [26900, 1333, 1205, 2022, 581], "actions": ["up", "up", "up", "left", "up"], "actionTimes": [30359, 32197, 33920, 36457, 37537], "queries": {"click": {"state": {"target": ["1", "2", "3", "8", "9"], "time": [6362, 7832, 9599, 11212, 13166]}, "edge": {"target": [], "time": []}}, "mouseover": {"state": {"target": ["0", "12", "1", "1", "2", "3", "8", "9", "4", "4", "7", "12", "12"], "time": [3492, 4243, 4609, 6144, 6843, 8941, 10368, 12018, 14709, 15149, 18849, 19082, 23084]}, "edge": {"target": [], "time": []}}, "mouseout": {"state": {"target": ["20", "22", "12", "0", "0", "12", "1", "1", "2", "3", "8", "9", "4", "4", "7", "12"], "time": [1621, 1857, 2022, 2264, 3862, 4427, 4672, 6779, 8518, 10222, 11763, 13811, 14918, 18701, 18916, 22692]}, "edge": {"target": [], "time": []}}}, "displayed_time": "38.04", "trialTime": 43216, "trial_type": "mouselab-mdp", "trial_index": 11, "time_elapsed": 959660, "internal_node_id": "0.0-6.0-1.0-2.0"}}, {"uniqueid": "w89223538:a88317458", "current_trial": 12, "dateTime": 1693661402222, "trialdata": {"revealed_states": [], "clicked_states": ["23", "24", "25", "12", "13", "14", "1", "2", "10", "4", "5", "9"], "num_clicks_accrued": [0, 0, 0, 0, 0, 0, 0, 0, 0, 0, 0, 0, 0], "stateRewards": ["", 2, 2, 3, -15, 23, -14, 73, -7, -32, -20, -6, 1, 1, -5, -12, 73, 6, -84, 11, -81, -57, 13, -2, -1, -4, -8, -52, -58, 49, 13, 5, -41, -41], "withholdReward": false, "trial_id": "mdp_trial_4", "block": "test", "trialIndex": 5, "score": 4.800000000000001, "costs": -10.2, "simulationMode": [null, null, null, null, null], "rewards": [2, 2, 3, -15, 23], "path": ["0", "0", "1", "2", "3", "4", "5"], "rt": [34029, 404, 565, 293, 266], "actions": ["up", "up", "up", "right", "up"], "actionTimes": [37236, 38147, 39232, 40026, 40791], "queries": {"click": {"state": {"target": ["23", "24", "25", "12", "13", "14", "1", "2", "10", "4", "5", "9"], "time": [5129, 7747, 9320, 11613, 13770, 15807, 17334, 18705, 20591, 24442, 26047, 30322]}, "edge": {"target": [], "time": []}}, "mouseover": {"state": {"target": ["0", "23", "0", "12", "0", "24", "25", "0", "12", "12", "13", "14", "1", "1", "2", "10", "10", "3", "3", "4", "5", "9", "3", "4", "16"], "time": [3654, 4225, 5455, 5692, 7083, 7469, 8487, 10749, 10936, 11405, 12461, 15448, 16369, 16832, 18238, 19694, 20015, 21187, 23848, 24209, 25504, 26980, 32558, 34795, 35095]}, "edge": {"target": [], "time": []}}, "mouseout": {"state": {"target": ["12", "0", "0", "23", "0", "12", "0", "23", "24", "25", "0", "12", "12", "13", "14", "1", "1", "2", "10", "10", "3", "3", "4", "4", "5", "9", "3", "4", "16"], "time": [1194, 3265, 3703, 5393, 5516, 7044, 7116, 7375, 8280, 10565, 10851, 11131, 12318, 14885, 16279, 16401, 18055, 19636, 19803, 21100, 23029, 24150, 24886, 25161, 26503, 31082, 32647, 34831, 35135]}, "edge": {"target": [], "time": []}}}, "displayed_time": "41.29", "trialTime": 47500, "trial_type": "mouselab-mdp", "trial_index": 12, "time_elapsed": 1007542, "internal_node_id": "0.0-6.0-1.0-3.0"}}, {"uniqueid": "w89223538:a88317458", "current_trial": 13, "dateTime": 1693661426873, "trialdata": {"revealed_states": [], "clicked_states": [], "num_clicks_accrued": [0, 0, 0, 0, 0, 0, 0, 0, 0, 0, 0, 0, 0], "stateRewards": ["", 1, -3, -6, -5, 47, 80, -29, 11, -71, 10, -29, -2, 3, -6, 12, 2, -78, -6, 8, 34, -16, -5, -1, 3, 3, -13, 84, -36, -62, -3, -27, 66, 15], "withholdReward": false, "trial_id": "mdp_trial_5", "block": "test", "trialIndex": 6, "score": 68, "costs": 0, "simulationMode": [null, null, null, null, null], "rewards": [-1, 3, 3, -3, 66], "path": ["0", "0", "23", "24", "25", "30", "32"], "rt": [10908, 349, 340, 249, 375], "actions": ["left", "left", "left", "down", "down"], "actionTimes": [13068, 13914, 14764, 15539, 16440], "queries": {"click": {"state": {"target": [], "time": []}, "edge": {"target": [], "time": []}}, "mouseover": {"state": {"target": ["23", "24", "25", "24", "23", "0", "0", "12"], "time": [4210, 5067, 5370, 7871, 8112, 8454, 9112, 9899]}, "edge": {"target": [], "time": []}}, "mouseout": {"state": {"target": ["18", "0", "23", "24", "25", "24", "23", "0", "0"], "time": [1343, 2954, 5020, 5126, 7456, 8044, 8195, 8661, 9836]}, "edge": {"target": [], "time": []}}}, "displayed_time": "16.95", "trialTime": 24256, "trial_type": "mouselab-mdp", "trial_index": 13, "time_elapsed": 1032193, "internal_node_id": "0.0-6.0-1.0-4.0"}}, {"uniqueid": "w89223538:a88317458", "current_trial": 14, "dateTime": 1693661510274, "trialdata": {"revealed_states": [], "clicked_states": ["23", "24", "25", "12", "13", "14", "15", "16", "19", "21", "20"], "num_clicks_accrued": [0, 0, 0, 0, 0, 0, 0, 0, 0, 0, 0, 0, 0], "stateRewards": ["", 1, 1, -2, 7, -31, -6, 76, 1, -36, -16, -53, 2, 1, 7, 13, -47, -10, 47, -7, 72, 46, -56, -2, -2, -2, 11, -80, 44, 38, 16, 67, 85, -78], "withholdReward": false, "trial_id": "mdp_trial_6", "block": "test", "trialIndex": 7, "score": 63.35, "costs": -11.649999999999999, "simulationMode": [null, null, null, null, null], "rewards": [2, 1, 7, -7, 72], "path": ["0", "0", "12", "13", "14", "19", "20"], "rt": [24389, 420, 2389, 421, 318], "actions": ["right", "right", "right", "down", "right"], "actionTimes": [29247, 30184, 33098, 34031, 34863], "queries": {"click": {"state": {"target": ["23", "24", "25", "12", "13", "14", "15", "16", "19", "21", "20"], "time": [6523, 7876, 9308, 10973, 12451, 13914, 15664, 16925, 20200, 22291, 25267]}, "edge": {"target": [], "time": []}}, "mouseover": {"state": {"target": ["23", "24", "25", "12", "13", "14", "15", "16", "17", "19", "21", "20"], "time": [6030, 7284, 8765, 10344, 12053, 13109, 15004, 16342, 19229, 19769, 21737, 24982]}, "edge": {"target": [], "time": []}}, "mouseout": {"state": {"target": ["12", "12", "23", "24", "25", "12", "13", "14", "15", "16", "17", "19", "21", "20", "32", "32"], "time": [3103, 3476, 7103, 8676, 9945, 12017, 13020, 14603, 15973, 17802, 19372, 21621, 22765, 25657, 67782, 68433]}, "edge": {"target": [], "time": []}}}, "displayed_time": "35.38", "trialTime": 83004, "trial_type": "mouselab-mdp", "trial_index": 14, "time_elapsed": 1115595, "internal_node_id": "0.0-6.0-1.0-5.0"}}, {"uniqueid": "w89223538:a88317458", "current_trial": 15, "dateTime": 1693661549668, "trialdata": {"revealed_states": [], "clicked_states": ["1", "2", "3", "4", "23", "24", "12", "13", "14"], "num_clicks_accrued": [0, 0, 0, 0, 0, 0, 0, 0, 0, 0, 0, 0, 0], "stateRewards": ["", -2, 2, 8, -6, -25, 3, 87, 2, -62, -2, 74, -2, -1, 2, -1, 79, 49, -37, -14, 5, 67, -9, -1, 2, -2, 5, 15, 38, 32, -14, -38, -38, 30], "withholdReward": false, "trial_id": "mdp_trial_7", "block": "test", "trialIndex": 8, "score": 80.25, "costs": -3.75, "simulationMode": [null, null, null, null, null], "rewards": [-2, 2, 8, 2, 74], "path": ["0", "0", "1", "2", "3", "8", "11"], "rt": [21612, 962, 797, 451, 1063], "actions": ["up", "up", "up", "left", "left"], "actionTimes": [25061, 26535, 27850, 28815, 30385], "queries": {"click": {"state": {"target": ["1", "2", "3", "4", "23", "24", "12", "13", "14"], "time": [5132, 6634, 8405, 10284, 12333, 13862, 15773, 17584, 19595]}, "edge": {"target": [], "time": []}}, "mouseover": {"state": {"target": ["0", "3", "5", "4", "2", "1", "2", "3", "4", "10", "26", "24", "23", "24", "12", "13", "14", "1", "1"], "time": [3811, 3899, 4139, 4229, 4407, 4625, 5668, 7463, 9100, 10749, 11041, 11466, 11891, 13114, 15241, 16313, 18646, 19879, 22577]}, "edge": {"target": [], "time": []}}, "mouseout": {"state": {"target": ["0", "0", "0", "3", "5", "4", "2", "1", "2", "3", "4", "3", "10", "26", "24", "23", "24", "23", "12", "12", "13", "14", "1", "1"], "time": [1619, 2385, 3869, 3929, 4199, 4260, 4488, 5309, 7082, 8574, 10599, 10659, 10781, 11073, 11547, 12475, 14277, 14370, 15894, 16195, 18599, 19790, 20022, 23249]}, "edge": {"target": [], "time": []}}}, "displayed_time": "30.90", "trialTime": 39018, "trial_type": "mouselab-mdp", "trial_index": 15, "time_elapsed": 1154988, "internal_node_id": "0.0-6.0-1.0-6.0"}}, {"uniqueid": "w89223538:a88317458", "current_trial": 16, "dateTime": 1693661586278, "trialdata": {"revealed_states": [], "clicked_states": ["23", "24", "25", "30", "31", "27", "13", "19"], "num_clicks_accrued": [0, 0, 0, 0, 0, 0, 0, 0, 0, 0, 0, 0, 0], "stateRewards": ["", -1, 3, 2, 9, 41, 4, -46, -12, -54, -87, -25, 2, 3, -1, 11, -77, 12, -33, -9, -32, 35, 72, 1, 3, -7, 4, 37, 65, -73, 6, 77, -43, 8], "withholdReward": false, "trial_id": "mdp_trial_8", "block": "test", "trialIndex": 9, "score": 71.2, "costs": -8.8, "simulationMode": [null, null, null, null, null], "rewards": [1, 3, -7, 6, 77], "path": ["0", "0", "23", "24", "25", "30", "31"], "rt": [24764, 417, 407, 317, 348], "actions": ["left", "left", "left", "down", "right"], "actionTimes": [26979, 27912, 28832, 29651, 30503], "queries": {"click": {"state": {"target": ["23", "24", "25", "30", "31", "27", "13", "19"], "time": [3505, 4727, 6258, 7796, 9802, 14445, 19685, 21493]}, "edge": {"target": [], "time": []}}, "mouseover": {"state": {"target": ["23", "24", "25", "30", "31", "28", "26", "27", "28", "12", "12", "12", "13", "13", "19", "20", "19", "22", "22", "19"], "time": [3177, 4235, 5537, 7043, 8921, 11608, 11729, 13838, 15033, 15344, 16250, 16610, 18839, 19294, 20986, 24545, 25222, 25312, 25837, 25905]}, "edge": {"target": [], "time": []}}, "mouseout": {"state": {"target": ["7", "0", "23", "24", "25", "30", "31", "28", "26", "27", "28", "12", "12", "12", "13", "13", "13", "19", "19", "20", "19", "22", "22"], "time": [809, 1594, 4087, 5505, 6837, 8718, 10266, 11698, 13573, 14829, 15093, 15874, 16392, 17662, 19172, 20276, 20587, 23073, 24029, 25113, 25275, 25377, 25901]}, "edge": {"target": [], "time": []}}}, "displayed_time": "31.00", "trialTime": 36189, "trial_type": "mouselab-mdp", "trial_index": 16, "time_elapsed": 1191598, "internal_node_id": "0.0-6.0-1.0-7.0"}}, {"uniqueid": "w89223538:a88317458", "current_trial": 17, "dateTime": 1693661612454, "trialdata": {"revealed_states": [], "clicked_states": ["12", "13", "14", "15", "16"], "num_clicks_accrued": [0, 0, 0, 0, 0, 0, 0, 0, 0, 0, 0, 0, 0], "stateRewards": ["", -1, 4, -5, 9, 29, -75, -42, -16, 24, -28, -41, 2, -3, 1, 10, 60, 47, 55, -1, -53, 22, -40, 2, -3, -6, 4, -26, 44, 54, 15, -76, 42, 14], "withholdReward": false, "trial_id": "mdp_trial_9", "block": "test", "trialIndex": 10, "score": 65.25, "costs": -4.75, "simulationMode": [null, null, null, null, null], "rewards": [2, -3, 1, 10, 60], "path": ["0", "0", "12", "13", "14", "15", "16"], "rt": [15628, 513, 333, 396, 362], "actions": ["right", "right", "right", "up", "up"], "actionTimes": [17521, 18555, 19390, 20306, 21187], "queries": {"click": {"state": {"target": ["12", "13", "14", "15", "16"], "time": [3731, 4929, 6803, 8693, 10689]}, "edge": {"target": [], "time": []}}, "mouseover": {"state": {"target": ["12", "13", "14", "15", "16", "23", "23", "24", "23", "0", "12", "13"], "time": [2921, 4530, 5690, 7298, 10180, 11904, 12853, 15463, 15717, 15774, 15893, 15966]}, "edge": {"target": [], "time": []}}, "mouseout": {"state": {"target": ["19", "1", "0", "12", "13", "14", "15", "16", "23", "23", "24", "23", "0", "12", "13", "22"], "time": [688, 901, 1368, 4266, 5572, 7149, 9299, 11123, 12275, 15197, 15682, 15747, 15854, 15933, 16020, 25181]}, "edge": {"target": [], "time": []}}}, "displayed_time": "21.71", "trialTime": 25772, "trial_type": "mouselab-mdp", "trial_index": 17, "time_elapsed": 1217774, "internal_node_id": "0.0-6.0-1.0-8.0"}}, {"uniqueid": "w89223538:a88317458", "current_trial": 18, "dateTime": 1693661672775, "trialdata": {"revealed_states": [], "clicked_states": ["9", "17", "21", "31", "32", "27", "5", "6", "16"], "num_clicks_accrued": [0, 0, 0, 0, 0, 0, 0, 0, 0, 0, 0, 0, 0], "stateRewards": ["", 2, 4, 4, 9, -88, -10, 44, 16, -54, 64, 78, 1, 2, 5, 16, 80, 36, 7, -4, 9, -47, -70, -1, -3, 6, -16, 11, 80, 28, 8, -1, 34, -17], "withholdReward": false, "trial_id": "mdp_trial_10", "block": "test", "trialIndex": 11, "score": 84.65, "costs": -19.349999999999998, "simulationMode": [null, null, null, null, null], "rewards": [1, 2, 5, 16, 80], "path": ["0", "0", "12", "13", "14", "15", "16"], "rt": [44704, 320, 204, 248, 215], "actions": ["right", "right", "right", "up", "up"], "actionTimes": [49128, 49952, 50674, 51441, 52166], "queries": {"click": {"state": {"target": ["9", "17", "21", "31", "32", "27", "5", "6", "16"], "time": [6306, 11475, 16547, 19378, 24405, 29577, 34841, 38414, 41702]}, "edge": {"target": [], "time": []}}, "mouseover": {"state": {"target": ["8", "9", "9", "5", "17", "20", "21", "31", "30", "33", "32", "30", "25", "29", "27", "28", "1", "2", "4", "5", "6", "16", "16", "18", "15"], "time": [5502, 5670, 5945, 6823, 10812, 12719, 15895, 18805, 20976, 21041, 23354, 25141, 25318, 25469, 26035, 31185, 33663, 33969, 34214, 34406, 36491, 40548, 40816, 44147, 45937]}, "edge": {"target": [], "time": []}}, "mouseout": {"state": {"target": ["0", "8", "9", "9", "9", "5", "17", "20", "21", "31", "30", "33", "32", "30", "25", "29", "27", "28", "1", "2", "4", "5", "6", "16", "16", "18", "15"], "time": [2291, 5539, 5800, 6407, 6531, 10346, 12340, 15519, 17349, 20888, 21007, 23063, 25050, 25228, 25379, 25943, 30190, 33338, 33871, 34071, 34272, 36065, 40457, 40608, 43682, 45822, 46037]}, "edge": {"target": [], "time": []}}}, "displayed_time": "52.68", "trialTime": 59925, "trial_type": "mouselab-mdp", "trial_index": 18, "time_elapsed": 1278095, "internal_node_id": "0.0-6.0-1.0-9.0"}}, {"uniqueid": "w89223538:a88317458", "current_trial": 19, "dateTime": 1693661726326, "trialdata": {"revealed_states": [], "clicked_states": ["9", "5", "6", "17", "21", "22"], "num_clicks_accrued": [0, 0, 0, 0, 0, 0, 0, 0, 0, 0, 0, 0, 0], "stateRewards": ["", 1, 4, 5, -5, 58, -80, 75, 6, 25, -39, 46, 2, -2, 4, 2, 59, 31, -22, -12, -61, 15, 72, 1, -2, -7, 8, 77, 76, -23, -7, 71, -15, -3], "withholdReward": false, "trial_id": "mdp_trial_11", "block": "test", "trialIndex": 12, "score": 51.1, "costs": -12.9, "simulationMode": [null, null, null, null, null], "rewards": [2, -2, 4, -12, 72], "path": ["0", "0", "12", "13", "14", "19", "22"], "rt": [32696, 49, 160, 180, 199], "actions": ["right", "right", "right", "down", "left"], "actionTimes": [36035, 36588, 37284, 37972, 38686], "queries": {"click": {"state": {"target": ["9", "5", "6", "17", "21", "22"], "time": [4843, 7629, 10860, 15159, 20122, 25203]}, "edge": {"target": [], "time": []}}, "mouseover": {"state": {"target": ["1", "2", "3", "9", "5", "6", "17", "16", "6", "16", "17", "15", "18", "14", "20", "21", "21", "20", "19", "22", "31", "30", "25", "26", "27", "26", "25", "30", "30", "32", "20", "19", "22", "22"], "time": [3816, 3878, 3914, 4344, 5355, 8049, 9074, 9287, 10083, 11894, 14095, 16403, 16721, 18361, 19085, 19461, 19778, 20763, 24675, 24919, 26526, 26856, 27071, 27136, 27172, 30585, 30752, 30816, 31173, 31595, 33379, 33941, 34005, 34382]}, "edge": {"target": [], "time": []}}, "mouseout": {"state": {"target": ["13", "12", "0", "1", "2", "3", "9", "5", "6", "17", "16", "6", "16", "17", "15", "18", "14", "20", "21", "21", "20", "19", "22", "31", "30", "25", "26", "27", "26", "25", "30", "30", "32", "20", "19", "22", "22"], "time": [1933, 2140, 3757, 3847, 3910, 3968, 5240, 7908, 8081, 9225, 9648, 11222, 13752, 16371, 16435, 18113, 18689, 19114, 19509, 20470, 24633, 24711, 26062, 26783, 27039, 27103, 27169, 30536, 30668, 30787, 31059, 31452, 32203, 33896, 33976, 34035, 34443]}, "edge": {"target": [], "time": []}}}, "displayed_time": "39.21", "trialTime": 53139, "trial_type": "mouselab-mdp", "trial_index": 19, "time_elapsed": 1331646, "internal_node_id": "0.0-6.0-1.0-10.0"}}, {"uniqueid": "w89223538:a88317458", "current_trial": 20, "dateTime": 1693661749783, "trialdata": {"revealed_states": [], "clicked_states": ["10"], "num_clicks_accrued": [0, 0, 0, 0, 0, 0, 0, 0, 0, 0, 0, 0, 0], "stateRewards": ["", -1, -2, -8, 8, -27, -82, 19, -14, -62, 4, 1, -2, 2, 6, 10, 73, -51, -2, 2, 73, -48, 54, -1, 2, -4, 11, -25, 47, 86, 15, 33, 43, -42], "withholdReward": false, "trial_id": "mdp_trial_12", "block": "test", "trialIndex": 13, "score": 59.85, "costs": -2.15, "simulationMode": [null, null, null, null, null], "rewards": [-2, 2, 6, 2, 54], "path": ["0", "0", "12", "13", "14", "19", "22"], "rt": [13595, 326, 350, 203, 352], "actions": ["right", "right", "right", "down", "left"], "actionTimes": [15538, 16390, 17263, 17987, 18849], "queries": {"click": {"state": {"target": ["10"], "time": [3235]}, "edge": {"target": [], "time": []}}, "mouseover": {"state": {"target": ["10", "2", "7", "4", "5", "0", "12", "13", "14"], "time": [2385, 3575, 3880, 8542, 8886, 12586, 12681, 13037, 13819]}, "edge": {"target": [], "time": []}}, "mouseout": {"state": {"target": ["22", "12", "0", "10", "2", "7", "4", "5", "0", "12", "13", "14"], "time": [511, 864, 1058, 3509, 3729, 8477, 8641, 11043, 12650, 12966, 13646, 13884]}, "edge": {"target": [], "time": []}}}, "displayed_time": "19.35", "trialTime": 23034, "trial_type": "mouselab-mdp", "trial_index": 20, "time_elapsed": 1355103, "internal_node_id": "0.0-6.0-1.0-11.0"}}, {"uniqueid": "w89223538:a88317458", "current_trial": 21, "dateTime": 1693661794516, "trialdata": {"revealed_states": [], "clicked_states": ["32", "31", "28", "9", "5", "7", "18"], "num_clicks_accrued": [0, 0, 0, 0, 0, 0, 0, 0, 0, 0, 0, 0, 0], "stateRewards": ["", -2, -3, 7, -13, 60, 9, 37, -6, 37, 20, 1, 2, -2, -8, 6, -80, -31, -10, -7, 70, -65, -44, -1, 1, 7, 6, -11, 73, -85, 16, -21, 47, 34], "withholdReward": false, "trial_id": "mdp_trial_13", "block": "test", "trialIndex": 14, "score": 70.95, "costs": -15.05, "simulationMode": [null, null, null, null, null], "rewards": [-1, 1, 7, 6, 73], "path": ["0", "0", "23", "24", "25", "26", "28"], "rt": [30877, 269, 82, 69, 134], "actions": ["left", "left", "left", "up", "right"], "actionTimes": [33794, 34570, 35170, 35758, 36403], "queries": {"click": {"state": {"target": ["32", "31", "28", "9", "5", "7", "18"], "time": [4334, 7699, 11091, 14081, 17943, 21711, 25609]}, "edge": {"target": [], "time": []}}, "mouseover": {"state": {"target": ["23", "32", "33", "30", "31", "25", "29", "26", "28", "27", "9", "11", "8", "3", "4", "6", "5", "6", "7", "16", "17", "15", "18", "13", "22", "24", "25"], "time": [3739, 4264, 5304, 6513, 6998, 8441, 8535, 10267, 10538, 11648, 13830, 16138, 16592, 16687, 16813, 17173, 17435, 18464, 20919, 22271, 22479, 24805, 25206, 26146, 26439, 30839, 30899]}, "edge": {"target": [], "time": []}}, "mouseout": {"state": {"target": ["15", "18", "23", "32", "32", "33", "30", "31", "25", "29", "26", "28", "27", "9", "11", "8", "3", "4", "6", "5", "6", "7", "16", "17", "15", "18", "13", "22", "24", "25"], "time": [1079, 1460, 3779, 4365, 4719, 6480, 6609, 8322, 8474, 10193, 10385, 11522, 13022, 14512, 16560, 16655, 16750, 16956, 17288, 18233, 20689, 22032, 22331, 24682, 24872, 25996, 26238, 30775, 30869, 31102]}, "edge": {"target": [], "time": []}}}, "displayed_time": "36.92", "trialTime": 44329, "trial_type": "mouselab-mdp", "trial_index": 21, "time_elapsed": 1399836, "internal_node_id": "0.0-6.0-1.0-12.0"}}, {"uniqueid": "w89223538:a88317458", "current_trial": 22, "dateTime": 1693661864527, "trialdata": {"revealed_states": [], "clicked_states": ["20", "32", "9", "7", "28", "16", "22", "21", "6", "5", "10"], "num_clicks_accrued": [0, 0, 0, 0, 0, 0, 0, 0, 0, 0, 0, 0, 0], "stateRewards": ["", -2, -3, 1, -7, 39, -67, 16, 5, -20, 73, 66, -1, 4, 5, -3, 23, -68, -87, -8, 3, -3, 17, 1, -4, -2, -13, -32, 34, 61, -5, -11, -18, 12], "withholdReward": false, "trial_id": "mdp_trial_14", "block": "test", "trialIndex": 15, "score": 50.35000000000001, "costs": -23.649999999999995, "simulationMode": [null, null, null, null, null], "rewards": [-2, -3, 1, 5, 73], "path": ["0", "0", "1", "2", "3", "8", "10"], "rt": [56472, 300, 202, 260, 134], "actions": ["up", "up", "up", "left", "down"], "actionTimes": [63603, 64421, 65127, 65914, 66573], "queries": {"click": {"state": {"target": ["20", "32", "9", "7", "28", "16", "22", "21", "6", "5", "10"], "time": [9779, 14438, 17245, 22689, 27144, 32925, 38072, 42669, 45466, 48895, 52676]}, "edge": {"target": [], "time": []}}, "mouseover": {"state": {"target": ["12", "13", "14", "14", "19", "20", "19", "22", "21", "32", "11", "9", "5", "4", "7", "28", "26", "29", "26", "28", "1", "18", "15", "17", "16", "15", "18", "13", "22", "19", "20", "21", "21", "16", "4", "6", "4", "5", "8", "10", "27"], "time": [7846, 7915, 8193, 8495, 9177, 9356, 10411, 10690, 11284, 13826, 16011, 16167, 18407, 22353, 22424, 23578, 23642, 23706, 26478, 26794, 28114, 28207, 28247, 28417, 31511, 33927, 34157, 37629, 37761, 38887, 39574, 39894, 42250, 44546, 44646, 45123, 46736, 47173, 49669, 49871, 53817]}, "edge": {"target": [], "time": []}}, "mouseout": {"state": {"target": ["12", "0", "12", "13", "14", "14", "19", "20", "19", "22", "21", "32", "11", "9", "5", "4", "7", "28", "26", "29", "26", "28", "1", "18", "15", "17", "16", "15", "18", "13", "22", "19", "20", "21", "21", "16", "4", "6", "4", "5", "8", "10", "27"], "time": [1248, 1659, 7883, 8089, 8232, 9111, 9212, 10231, 10596, 10753, 12938, 15515, 16045, 17912, 22312, 22392, 23168, 23610, 23674, 26433, 26653, 27960, 28146, 28243, 28286, 31346, 33500, 34017, 37103, 37712, 38855, 38948, 39605, 41078, 43283, 44578, 44976, 46675, 47024, 49491, 49779, 53363, 59496]}, "edge": {"target": [], "time": []}}}, "displayed_time": "67.08", "trialTime": 69594, "trial_type": "mouselab-mdp", "trial_index": 22, "time_elapsed": 1469846, "internal_node_id": "0.0-6.0-1.0-13.0"}}, {"uniqueid": "w89223538:a88317458", "current_trial": 23, "dateTime": 1693661904238, "trialdata": {"revealed_states": [], "clicked_states": ["25", "13", "16", "9", "32", "18", "20"], "num_clicks_accrued": [0, 0, 0, 0, 0, 0, 0, 0, 0, 0, 0, 0, 0], "stateRewards": ["", -1, 3, 1, -7, 56, 76, 57, 3, 11, -9, 14, 1, -2, 2, 8, -77, -3, 79, -5, 88, 24, -66, -2, -1, 7, -7, -30, 14, -76, 11, -36, 28, -6], "withholdReward": false, "trial_id": "mdp_trial_15", "block": "test", "trialIndex": 16, "score": 75.95, "costs": -12.05, "simulationMode": [null, null, null, null, null], "rewards": [1, -2, 2, 8, 79], "path": ["0", "0", "12", "13", "14", "15", "18"], "rt": [29485, 122, 175, 191, 313], "actions": ["right", "right", "right", "up", "left"], "actionTimes": [31759, 32404, 33133, 33834, 34658], "queries": {"click": {"state": {"target": ["25", "13", "16", "9", "32", "18", "20"], "time": [4608, 6844, 9407, 13805, 18397, 23247, 27130]}, "edge": {"target": [], "time": []}}, "mouseover": {"state": {"target": ["23", "24", "25", "24", "0", "12", "13", "13", "15", "16", "5", "9", "27", "29", "30", "32", "33", "29", "26", "28", "1", "18", "15", "17", "17", "20", "17"], "time": [3240, 4072, 4167, 5102, 5202, 5266, 5452, 5840, 7457, 7695, 11003, 13184, 14982, 17541, 17984, 18037, 19115, 19581, 19786, 19911, 22579, 22966, 24085, 24149, 25075, 25615, 27777]}, "edge": {"target": [], "time": []}}, "mouseout": {"state": {"target": ["0", "23", "24", "25", "24", "0", "12", "13", "13", "15", "16", "5", "9", "27", "29", "30", "32", "33", "29", "26", "28", "1", "18", "15", "17", "17", "20", "17"], "time": [1755, 4008, 4138, 4975, 5139, 5234, 5360, 5602, 7306, 7548, 10014, 12673, 14483, 17425, 17834, 18033, 18932, 19151, 19754, 19846, 22533, 22639, 24081, 24117, 24238, 25219, 27432, 30175]}, "edge": {"target": [], "time": []}}}, "displayed_time": "35.17", "trialTime": 39316, "trial_type": "mouselab-mdp", "trial_index": 23, "time_elapsed": 1509558, "internal_node_id": "0.0-6.0-1.0-14.0"}}, {"uniqueid": "w89223538:a88317458", "current_trial": 24, "dateTime": 1693661967240, "trialdata": {"revealed_states": [], "clicked_states": ["9", "6", "10", "27", "29", "33", "28", "16", "18", "22", "21"], "num_clicks_accrued": [0, 0, 0, 0, 0, 0, 0, 0, 0, 0, 0, 0, 0], "stateRewards": ["", -1, 1, 8, -3, -24, 11, -65, -6, -77, 48, 44, -2, 1, -2, -7, -55, -35, 33, 8, -28, 19, -53, -1, -1, -5, -5, -70, 10, 44, 8, -58, -70, 51], "withholdReward": false, "trial_id": "mdp_trial_16", "block": "test", "trialIndex": 17, "score": -80.64999999999999, "costs": -23.649999999999995, "simulationMode": [null, null, null, null, null], "rewards": [-1, -1, -5, 8, -58], "path": ["0", "0", "23", "24", "25", "30", "31"], "rt": [47716, 250, 379, 330, 388], "actions": ["left", "left", "left", "down", "right"], "actionTimes": [55965, 56734, 57613, 58446, 59356], "queries": {"click": {"state": {"target": ["9", "6", "10", "27", "29", "33", "28", "16", "18", "22", "21"], "time": [9692, 12935, 17229, 20912, 25111, 29045, 32847, 37147, 40910, 43910, 48295]}, "edge": {"target": [], "time": []}}, "mouseover": {"state": {"target": ["1", "2", "3", "9", "5", "6", "7", "2", "10", "11", "27", "29", "30", "32", "33", "29", "26", "28", "25", "33", "30", "31", "24", "28", "12", "32", "22", "13", "15", "16", "17", "15", "18", "13", "22", "19", "20", "21", "20"], "time": [8868, 8919, 8952, 9359, 10149, 12054, 13991, 16286, 16693, 18068, 20136, 21909, 22241, 22381, 23792, 24169, 25624, 25864, 28410, 28591, 29493, 29674, 31628, 31850, 33669, 34070, 36279, 36410, 36643, 36889, 38116, 39983, 40304, 41510, 43179, 44589, 44941, 48042, 50309]}, "edge": {"target": [], "time": []}}, "mouseout": {"state": {"target": ["0", "1", "2", "3", "9", "5", "6", "7", "2", "10", "11", "27", "29", "30", "32", "33", "29", "26", "28", "25", "33", "30", "31", "24", "28", "12", "32", "22", "13", "15", "16", "16", "17", "15", "18", "13", "22", "19", "20", "21", "20"], "time": [8736, 8916, 8948, 8982, 9988, 11835, 13663, 16111, 16343, 17872, 19968, 21586, 22148, 22305, 23642, 23888, 25563, 25686, 28361, 28492, 29430, 29583, 31594, 31724, 33520, 33731, 35125, 36342, 36439, 36712, 37289, 37795, 39892, 40178, 41398, 43087, 44528, 44707, 47620, 48413, 50353]}, "edge": {"target": [], "time": []}}}, "displayed_time": "59.88", "trialTime": 62600, "trial_type": "mouselab-mdp", "trial_index": 24, "time_elapsed": 1572559, "internal_node_id": "0.0-6.0-1.0-15.0"}}, {"uniqueid": "w89223538:a88317458", "current_trial": 25, "dateTime": 1693661991690, "trialdata": {"revealed_states": [], "clicked_states": [], "num_clicks_accrued": [0, 0, 0, 0, 0, 0, 0, 0, 0, 0, 0, 0, 0], "stateRewards": ["", -2, -1, -1, 5, -54, -87, 35, 2, -8, 20, -22, 1, 3, 6, 13, -75, -32, -55, -3, 56, 62, -22, -1, -4, -1, -7, -51, 84, 70, 7, -15, 5, 55], "withholdReward": false, "trial_id": "mdp_trial_17", "block": "test", "trialIndex": 18, "score": 63, "costs": 0, "simulationMode": [null, null, null, null, null], "rewards": [1, 3, 6, -3, 56], "path": ["0", "0", "12", "13", "14", "19", "20"], "rt": [7380, 182, 236, 185, 334], "actions": ["right", "right", "right", "down", "right"], "actionTimes": [10453, 11151, 11910, 12617, 13476], "queries": {"click": {"state": {"target": [], "time": []}, "edge": {"target": [], "time": []}}, "mouseover": {"state": {"target": ["1", "22", "21", "22", "19", "20"], "time": [3646, 4921, 5462, 8553, 8654, 8740]}, "edge": {"target": [], "time": []}}, "mouseout": {"state": {"target": ["14", "13", "12", "0", "1", "22", "21", "22", "19", "20"], "time": [1803, 1833, 1967, 3411, 3705, 5036, 6680, 8608, 8699, 8781]}, "edge": {"target": [], "time": []}}}, "displayed_time": "17.07", "trialTime": 24043, "trial_type": "mouselab-mdp", "trial_index": 25, "time_elapsed": 1597010, "internal_node_id": "0.0-6.0-1.0-16.0"}}, {"uniqueid": "w89223538:a88317458", "current_trial": 26, "dateTime": 1693662018783, "trialdata": {"revealed_states": [], "clicked_states": ["21", "20", "16"], "num_clicks_accrued": [0, 0, 0, 0, 0, 0, 0, 0, 0, 0, 0, 0, 0], "stateRewards": ["", 1, -3, -2, 14, 49, -40, -39, 2, 26, -61, 73, 1, -4, -8, 12, 79, 29, -65, -13, 55, -26, 27, -1, 3, 3, 9, -17, -60, -18, -8, 35, -88, 69], "withholdReward": false, "trial_id": "mdp_trial_18", "block": "test", "trialIndex": 19, "score": 73.55, "costs": -6.449999999999999, "simulationMode": [null, null, null, null, null], "rewards": [1, -4, -8, 12, 79], "path": ["0", "0", "12", "13", "14", "15", "16"], "rt": [16844, 42, 238, 289, 205], "actions": ["right", "right", "right", "up", "up"], "actionTimes": [20934, 21490, 22239, 23046, 23779], "queries": {"click": {"state": {"target": ["21", "20", "16"], "time": [5373, 9667, 13579]}, "edge": {"target": [], "time": []}}, "mouseover": {"state": {"target": ["0", "22", "19", "21", "20", "19", "22", "19", "20", "14", "17", "16", "18"], "time": [4472, 4520, 4558, 4889, 5841, 7204, 7420, 8652, 8714, 10659, 11160, 12663, 14625]}, "edge": {"target": [], "time": []}}, "mouseout": {"state": {"target": ["14", "13", "12", "0", "0", "22", "19", "21", "20", "19", "22", "19", "20", "14", "17", "16", "18"], "time": [1712, 1744, 1997, 3310, 4516, 4555, 4597, 5688, 7081, 7326, 8614, 8683, 10306, 10894, 12488, 14273, 17615]}, "edge": {"target": [], "time": []}}}, "displayed_time": "24.29", "trialTime": 26662, "trial_type": "mouselab-mdp", "trial_index": 26, "time_elapsed": 1624103, "internal_node_id": "0.0-6.0-1.0-17.0"}}, {"uniqueid": "w89223538:a88317458", "current_trial": 27, "dateTime": 1693662094525, "trialdata": {"revealed_states": [], "clicked_states": ["33", "31", "21", "22", "16", "5", "10", "7", "27", "28", "32", "17", "20", "18"], "num_clicks_accrued": [0, 0, 0, 0, 0, 0, 0, 0, 0, 0, 0, 0, 0], "stateRewards": ["", 1, 4, -8, -5, -15, -7, 21, 13, -30, 40, -65, 1, 1, 5, -14, 35, 27, -38, -11, 36, -58, -47, -2, 4, -3, 13, -16, -49, 22, 15, -56, -44, -10], "withholdReward": false, "trial_id": "mdp_trial_19", "block": "test", "trialIndex": 20, "score": -85.1, "costs": -30.09999999999999, "simulationMode": [null, null, null, null, null], "rewards": [1, 4, -8, 13, -65], "path": ["0", "0", "1", "2", "3", "8", "11"], "rt": [63559, 153, 188, 310, 228], "actions": ["up", "up", "up", "left", "left"], "actionTimes": [66947, 67617, 68320, 69141, 69886], "queries": {"click": {"state": {"target": ["33", "31", "21", "22", "16", "5", "10", "7", "27", "28", "32", "17", "20", "18"], "time": [5783, 9597, 13315, 16136, 19888, 24171, 27830, 31454, 34761, 38893, 44002, 49426, 54899, 60291]}, "edge": {"target": [], "time": []}}, "mouseover": {"state": {"target": ["1", "0", "23", "23", "24", "25", "33", "32", "31", "32", "32", "21", "22", "19", "20", "15", "16", "5", "9", "8", "10", "2", "7", "2", "27", "29", "26", "28", "24", "25", "30", "32", "15", "17", "15", "18", "15", "20", "19", "22", "13", "18", "18"], "time": [3863, 4302, 4400, 4700, 5134, 5215, 5535, 6716, 8736, 10438, 10744, 12650, 14139, 16439, 16534, 18935, 19191, 22305, 25005, 26692, 27057, 28410, 28614, 31858, 32249, 35623, 38228, 38611, 39882, 40282, 40881, 41160, 45510, 45749, 51351, 51618, 53759, 54511, 58753, 58826, 59594, 59702, 60021]}, "edge": {"target": [], "time": []}}, "mouseout": {"state": {"target": ["20", "19", "0", "1", "0", "23", "23", "24", "25", "33", "32", "31", "32", "32", "21", "22", "19", "20", "15", "16", "5", "9", "8", "10", "2", "7", "2", "10", "27", "29", "26", "28", "24", "25", "30", "32", "15", "17", "17", "15", "18", "15", "20", "20", "19", "22", "13", "18", "18"], "time": [2180, 2210, 3670, 4103, 4368, 4432, 5094, 5175, 5359, 6389, 8364, 10050, 10483, 11846, 13985, 16283, 16471, 18638, 19126, 21435, 24507, 26573, 26874, 28348, 28502, 31826, 31891, 31952, 35324, 38182, 38405, 39600, 40221, 40782, 40950, 44412, 45659, 50085, 51320, 51498, 53687, 53853, 55153, 58712, 58787, 59364, 59662, 59761, 60681]}, "edge": {"target": [], "time": []}}}, "displayed_time": "70.40", "trialTime": 75332, "trial_type": "mouselab-mdp", "trial_index": 27, "time_elapsed": 1699845, "internal_node_id": "0.0-6.0-1.0-18.0"}}, {"uniqueid": "w89223538:a88317458", "current_trial": 28, "dateTime": 1693662137790, "trialdata": {"revealed_states": [], "clicked_states": ["20", "5", "17", "32", "9"], "num_clicks_accrued": [0, 0, 0, 0, 0, 0, 0, 0, 0, 0, 0, 0, 0], "stateRewards": ["", -2, 2, -2, -7, -50, -62, -45, 7, 36, -24, -72, -1, -1, 8, -1, -67, 20, -52, 2, 35, -50, 80, -1, 1, 6, -6, -70, 6, 88, 8, -47, 74, -19], "withholdReward": false, "trial_id": "mdp_trial_20", "block": "test", "trialIndex": 21, "score": 77.25, "costs": -10.75, "simulationMode": [null, null, null, null, null], "rewards": [-1, 1, 6, 8, 74], "path": ["0", "0", "23", "24", "25", "30", "32"], "rt": [21927, 158, 166, 146, 483], "actions": ["left", "left", "left", "down", "down"], "actionTimes": [30393, 31067, 31742, 32387, 33397], "queries": {"click": {"state": {"target": ["20", "5", "17", "32", "9"], "time": [11079, 13884, 19073, 23559, 26748]}, "edge": {"target": [], "time": []}}, "mouseover": {"state": {"target": ["1", "12", "13", "14", "20", "21", "22", "8", "5", "6", "16", "17", "15", "18", "1", "26", "29", "32", "30", "11", "8", "9", "8", "1", "12"], "time": [9166, 9574, 9674, 9787, 10610, 11759, 12864, 12961, 13629, 14567, 17806, 17965, 19823, 19894, 19995, 20296, 20393, 23027, 25769, 25978, 26105, 26262, 27477, 27573, 27609]}, "edge": {"target": [], "time": []}}, "mouseout": {"state": {"target": ["20", "19", "0", "1", "12", "13", "14", "20", "21", "22", "8", "5", "6", "16", "17", "15", "18", "1", "26", "29", "32", "30", "11", "8", "9", "8", "1", "12"], "time": [7372, 7448, 7640, 9413, 9636, 9749, 10467, 11545, 12860, 12898, 12997, 14265, 17674, 17878, 19757, 19858, 19929, 20029, 20330, 22801, 25494, 25810, 26043, 26139, 27384, 27540, 27606, 27642]}, "edge": {"target": [], "time": []}}}, "displayed_time": "33.92", "trialTime": 42834, "trial_type": "mouselab-mdp", "trial_index": 28, "time_elapsed": 1743110, "internal_node_id": "0.0-6.0-1.0-19.0"}}, {"uniqueid": "w89223538:a88317458", "current_trial": 29, "dateTime": 1693662170562, "trialdata": {"revealed_states": [], "clicked_states": ["9", "6", "32", "33", "21"], "num_clicks_accrued": [0, 0, 0, 0, 0, 0, 0, 0, 0, 0, 0, 0, 0], "stateRewards": ["", -1, 1, 3, -8, -23, -15, -14, -11, -23, 58, 68, 1, 3, 5, 12, -17, -41, -7, -10, -4, 82, 10, 1, 4, -4, 11, 73, 55, -55, -1, -86, -86, 54], "withholdReward": false, "trial_id": "mdp_trial_21", "block": "test", "trialIndex": 22, "score": 70.25, "costs": -10.75, "simulationMode": [null, null, null, null, null], "rewards": [1, 3, 5, -10, 82], "path": ["0", "0", "12", "13", "14", "19", "21"], "rt": [23712, 297, 241, 161, 399], "actions": ["right", "right", "right", "down", "down"], "actionTimes": [26666, 27495, 28245, 28934, 29849], "queries": {"click": {"state": {"target": ["9", "6", "32", "33", "21"], "time": [4782, 8366, 13000, 16210, 20803]}, "edge": {"target": [], "time": []}}, "mouseover": {"state": {"target": ["4", "5", "9", "5", "6", "7", "2", "10", "28", "24", "32", "33", "30", "31", "21", "21", "31", "22", "19", "20", "20"], "time": [4114, 4211, 4547, 5469, 7857, 9282, 11547, 11824, 12029, 12114, 12497, 14361, 16717, 17082, 19656, 20022, 21811, 24179, 24245, 24455, 25035]}, "edge": {"target": [], "time": []}}, "mouseout": {"state": {"target": ["12", "4", "5", "9", "5", "6", "7", "2", "10", "28", "24", "32", "33", "30", "31", "21", "21", "31", "22", "19", "20", "20"], "time": [1445, 4155, 4242, 5085, 7585, 8976, 11331, 11615, 11964, 12080, 12155, 13678, 16592, 16929, 19079, 19699, 21414, 24047, 24215, 24296, 24908, 25090]}, "edge": {"target": [], "time": []}}}, "displayed_time": "30.37", "trialTime": 32318, "trial_type": "mouselab-mdp", "trial_index": 29, "time_elapsed": 1775882, "internal_node_id": "0.0-6.0-1.0-20.0"}}, {"uniqueid": "w89223538:a88317458", "current_trial": 30, "dateTime": 1693662231936, "trialdata": {"revealed_states": [], "clicked_states": ["21", "16", "22", "27", "9", "7", "6", "17", "29", "31"], "num_clicks_accrued": [0, 0, 0, 0, 0, 0, 0, 0, 0, 0, 0, 0, 0], "stateRewards": ["", -1, 4, -6, -5, -22, -38, -38, -2, -56, 88, 14, -1, -1, -7, -6, 61, -60, 21, 11, 57, 31, -30, -2, -2, 6, -9, -44, -70, -44, -15, 34, 16, -78], "withholdReward": false, "trial_id": "mdp_trial_22", "block": "test", "trialIndex": 23, "score": 61.5, "costs": -21.499999999999996, "simulationMode": [null, null, null, null, null], "rewards": [-1, 4, -6, -2, 88], "path": ["0", "0", "1", "2", "3", "8", "10"], "rt": [50971, 273, 160, 268, 937], "actions": ["up", "up", "up", "left", "down"], "actionTimes": [54424, 55198, 55889, 56677, 58131], "queries": {"click": {"state": {"target": ["21", "16", "22", "27", "9", "7", "6", "17", "29", "31"], "time": [4874, 8830, 13003, 17563, 22554, 27134, 32049, 35005, 40372, 45623]}, "edge": {"target": [], "time": []}}, "mouseover": {"state": {"target": ["0", "22", "21", "20", "16", "20", "19", "22", "22", "19", "32", "26", "27", "30", "32", "31", "10", "8", "9", "5", "4", "7", "2", "10", "4", "6", "16", "17", "15", "18", "29", "33", "30", "31", "28", "12", "13", "19"], "time": [3882, 3998, 4266, 5824, 7909, 9642, 11652, 11961, 12689, 13505, 14380, 17051, 17244, 19274, 19645, 21714, 21783, 21817, 22166, 24023, 26049, 26366, 27732, 27888, 30351, 30583, 33406, 33560, 35760, 35974, 39901, 42069, 44001, 44299, 47648, 50435, 50533, 50667]}, "edge": {"target": [], "time": []}}, "mouseout": {"state": {"target": ["16", "18", "0", "0", "22", "21", "20", "16", "20", "19", "22", "22", "19", "32", "26", "27", "30", "32", "31", "10", "8", "9", "5", "4", "7", "2", "10", "4", "6", "16", "17", "15", "18", "29", "33", "30", "31", "28", "12", "13", "19"], "time": [1431, 1514, 2201, 3926, 4029, 5277, 7407, 9400, 11616, 11847, 12225, 13502, 13643, 16652, 17092, 18943, 19307, 21584, 21744, 21813, 21849, 23668, 25984, 26217, 27699, 27825, 30233, 30400, 33342, 33443, 35722, 35911, 39400, 41930, 43966, 44149, 47153, 50154, 50483, 50604, 50698]}, "edge": {"target": [], "time": []}}}, "displayed_time": "58.65", "trialTime": 60942, "trial_type": "mouselab-mdp", "trial_index": 30, "time_elapsed": 1837256, "internal_node_id": "0.0-6.0-1.0-21.0"}}, {"uniqueid": "w89223538:a88317458", "current_trial": 31, "dateTime": 1693662291034, "trialdata": {"revealed_states": [], "clicked_states": ["21", "17", "5", "10", "32", "29", "28", "33", "9"], "num_clicks_accrued": [0, 0, 0, 0, 0, 0, 0, 0, 0, 0, 0, 0, 0], "stateRewards": ["", 2, -1, -1, 7, 11, -40, -22, -2, 69, 37, 8, -2, 4, -8, -12, -2, -72, -3, -12, 17, 63, 12, 1, 3, -7, 6, 25, 61, 61, -9, 28, -17, 27], "withholdReward": false, "trial_id": "mdp_trial_23", "block": "test", "trialIndex": 24, "score": 47.650000000000006, "costs": -19.349999999999998, "simulationMode": [null, null, null, null, null], "rewards": [2, -1, -1, -2, 69], "path": ["0", "0", "1", "2", "3", "8", "9"], "rt": [44719, 213, 188, 128, 278], "actions": ["up", "up", "up", "left", "up"], "actionTimes": [50216, 50930, 51627, 52257, 53037], "queries": {"click": {"state": {"target": ["21", "17", "5", "10", "32", "29", "28", "33", "9"], "time": [6933, 12384, 17460, 22130, 27296, 32097, 37408, 41603, 44641]}, "edge": {"target": [], "time": []}}, "mouseover": {"state": {"target": ["0", "22", "21", "21", "32", "22", "19", "20", "17", "16", "6", "5", "9", "8", "10", "2", "7", "28", "30", "32", "26", "27", "29", "26", "25", "31", "24", "28", "31", "30", "33", "8", "9", "2", "1", "13", "14"], "time": [5903, 5975, 6053, 6232, 8163, 8914, 10604, 11004, 11513, 13946, 16146, 16488, 18495, 20354, 20694, 22635, 22881, 26139, 26498, 26938, 28695, 28882, 31264, 33185, 33310, 33471, 36355, 36435, 38388, 38518, 38614, 43857, 44347, 45976, 46307, 47085, 47366]}, "edge": {"target": [], "time": []}}, "mouseout": {"state": {"target": ["20", "0", "0", "22", "21", "21", "32", "22", "19", "20", "17", "16", "6", "5", "9", "8", "10", "2", "7", "28", "30", "32", "26", "27", "29", "26", "25", "31", "24", "28", "31", "30", "33", "8", "9", "2", "1", "13", "14"], "time": [1604, 2527, 5943, 6007, 6103, 7381, 8476, 10531, 10921, 11238, 13067, 15972, 16217, 18002, 20266, 20522, 22570, 22758, 26010, 26355, 26547, 27499, 28758, 31104, 33006, 33248, 33343, 36306, 36404, 38038, 38455, 38580, 43413, 43890, 45501, 46158, 46694, 47286, 47479]}, "edge": {"target": [], "time": []}}}, "displayed_time": "53.55", "trialTime": 58694, "trial_type": "mouselab-mdp", "trial_index": 31, "time_elapsed": 1896354, "internal_node_id": "0.0-6.0-1.0-22.0"}}, {"uniqueid": "w89223538:a88317458", "current_trial": 32, "dateTime": 1693662345090, "trialdata": {"revealed_states": [], "clicked_states": ["17", "28", "32", "29", "27", "20", "31", "11"], "num_clicks_accrued": [0, 0, 0, 0, 0, 0, 0, 0, 0, 0, 0, 0, 0], "stateRewards": ["", 2, 3, -6, -5, -3, 55, 40, 11, 61, 11, 51, 2, -4, -6, 9, -25, 29, -15, -6, 7, -77, -2, -2, -4, 1, 14, -43, -1, 56, -12, -54, 41, -74], "withholdReward": false, "trial_id": "mdp_trial_24", "block": "test", "trialIndex": 25, "score": 53.8, "costs": -17.2, "simulationMode": [null, null, null, null, null], "rewards": [2, 3, -6, 11, 61], "path": ["0", "0", "1", "2", "3", "8", "9"], "rt": [40355, 85, 131, 51, 234], "actions": ["up", "up", "up", "left", "up"], "actionTimes": [42890, 43502, 44161, 44715, 45455], "queries": {"click": {"state": {"target": ["17", "28", "32", "29", "27", "20", "31", "11"], "time": [4544, 9701, 14597, 17421, 22373, 27269, 32123, 37170]}, "edge": {"target": [], "time": []}}, "mouseover": {"state": {"target": ["12", "13", "19", "19", "14", "17", "16", "6", "7", "2", "10", "28", "18", "12", "0", "32", "25", "29", "27", "9", "11", "27", "10", "2", "4", "5", "6", "15", "14", "20", "21", "24", "31", "23", "1", "7", "6", "4", "3", "8", "11", "8", "7", "18"], "time": [3239, 3449, 3570, 3855, 3971, 4231, 5286, 5803, 5963, 8300, 8462, 8571, 11374, 13080, 13154, 13838, 16329, 16666, 18955, 19080, 21137, 21374, 23449, 23516, 23676, 23893, 25971, 26132, 26177, 26596, 28633, 31590, 31636, 33248, 33314, 33380, 33653, 36272, 36390, 36455, 36701, 40272, 40890, 40991]}, "edge": {"target": [], "time": []}}, "mouseout": {"state": {"target": ["13", "12", "12", "13", "19", "19", "14", "17", "16", "6", "7", "2", "10", "28", "18", "12", "0", "32", "25", "29", "27", "9", "11", "27", "10", "2", "4", "5", "6", "15", "14", "20", "21", "24", "31", "23", "1", "7", "6", "4", "3", "8", "11", "8", "7", "18"], "time": [1228, 1404, 3405, 3483, 3698, 3920, 4104, 4680, 5320, 5869, 8260, 8422, 8505, 10691, 12957, 13123, 13183, 15250, 16421, 17638, 18989, 21073, 21188, 23294, 23483, 23552, 23771, 25890, 26000, 26174, 26221, 28389, 30824, 31631, 33006, 33281, 33347, 33473, 36172, 36356, 36425, 36538, 40206, 40339, 40931, 41026]}, "edge": {"target": [], "time": []}}}, "displayed_time": "45.98", "trialTime": 53664, "trial_type": "mouselab-mdp", "trial_index": 32, "time_elapsed": 1950410, "internal_node_id": "0.0-6.0-1.0-23.0"}}, {"uniqueid": "w89223538:a88317458", "current_trial": 33, "dateTime": 1693662392175, "trialdata": {"revealed_states": [], "clicked_states": ["20", "17", "6", "10", "32", "27", "33"], "num_clicks_accrued": [0, 0, 0, 0, 0, 0, 0, 0, 0, 0, 0, 0, 0], "stateRewards": ["", 2, -4, 7, 3, 23, -42, 4, 7, -81, -33, 7, -2, -4, 5, -1, 50, -57, -14, -13, -14, 44, 55, -2, -2, 5, -2, 33, 1, 57, -13, -7, 58, 87], "withholdReward": false, "trial_id": "mdp_trial_25", "block": "test", "trialIndex": 26, "score": -15.05, "costs": -15.05, "simulationMode": [null, null, null, null, null], "rewards": [-2, -2, 5, -2, 1], "path": ["0", "0", "23", "24", "25", "26", "28"], "rt": [34664, 105, 542, 151, 278], "actions": ["left", "left", "left", "up", "right"], "actionTimes": [37624, 38231, 39286, 39960, 40746], "queries": {"click": {"state": {"target": ["20", "17", "6", "10", "32", "27", "33"], "time": [5676, 9786, 13657, 17613, 22597, 25827, 31042]}, "edge": {"target": [], "time": []}}, "mouseover": {"state": {"target": ["1", "14", "13", "14", "20", "21", "19", "15", "16", "17", "16", "6", "5", "6", "4", "3", "8", "11", "10", "2", "7", "1", "32", "33", "29", "27", "28", "29", "33"], "time": [3652, 4100, 4419, 4700, 5364, 6679, 8404, 8498, 8961, 9260, 10596, 10942, 11292, 12788, 14113, 14183, 14250, 14533, 16752, 18113, 18282, 21423, 22219, 24270, 24417, 24916, 26380, 27183, 30737]}, "edge": {"target": [], "time": []}}, "mouseout": {"state": {"target": ["18", "12", "0", "1", "14", "13", "14", "20", "21", "19", "15", "16", "17", "16", "6", "5", "6", "4", "3", "8", "11", "10", "2", "7", "1", "32", "33", "29", "27", "28", "29", "33", "13"], "time": [1017, 1133, 3488, 3940, 4368, 4635, 5269, 6130, 8369, 8467, 8649, 9019, 10069, 10877, 10976, 12253, 13957, 14148, 14217, 14347, 16566, 18109, 18181, 21385, 21457, 23599, 24309, 24493, 26257, 26654, 30012, 31852, 44822]}, "edge": {"target": [], "time": []}}}, "displayed_time": "41.26", "trialTime": 46626, "trial_type": "mouselab-mdp", "trial_index": 33, "time_elapsed": 1997495, "internal_node_id": "0.0-6.0-1.0-24.0"}}, {"uniqueid": "w89223538:a88317458", "current_trial": 34, "dateTime": 1693662449731, "trialdata": {"revealed_states": [], "clicked_states": ["5", "6", "10", "21", "20", "17", "18", "31", "32", "27", "28"], "num_clicks_accrued": [0, 0, 0, 0, 0, 0, 0, 0, 0, 0, 0, 0, 0], "stateRewards": ["", -1, 2, 5, -6, 13, -64, -47, 8, -79, -80, -33, 1, 2, -2, -16, 56, -71, -10, 3, 29, 44, 85, -1, 4, 5, 4, -36, -56, 19, 8, 52, -13, -2], "withholdReward": false, "trial_id": "mdp_trial_26", "block": "test", "trialIndex": 27, "score": 65.35000000000001, "costs": -23.649999999999995, "simulationMode": [null, null, null, null, null], "rewards": [1, 2, -2, 3, 85], "path": ["0", "0", "12", "13", "14", "19", "22"], "rt": [49490, 117, 101, 93, 240], "actions": ["right", "right", "right", "down", "left"], "actionTimes": [51316, 51934, 52547, 53150, 53920], "queries": {"click": {"state": {"target": ["5", "6", "10", "21", "20", "17", "18", "31", "32", "27", "28"], "time": [3051, 6349, 10683, 15412, 18468, 22997, 28291, 31101, 34831, 38633, 44393]}, "edge": {"target": [], "time": []}}, "mouseover": {"state": {"target": ["1", "5", "6", "6", "4", "7", "2", "10", "2", "7", "13", "19", "21", "20", "19", "22", "14", "17", "14", "14", "15", "16", "18", "0", "31", "30", "30", "32", "33", "26", "27", "26", "29", "26", "28", "0", "23", "14"], "time": [2105, 2705, 3799, 6065, 6784, 7184, 9389, 9871, 11602, 11699, 14271, 14417, 14621, 16587, 19169, 19566, 22222, 22605, 23542, 24000, 24037, 24384, 27061, 29732, 30307, 32240, 32577, 32672, 35626, 38205, 38274, 39362, 39774, 40865, 41066, 45641, 47391, 48839]}, "edge": {"target": [], "time": []}}, "mouseout": {"state": {"target": ["12", "0", "0", "1", "5", "6", "6", "6", "4", "7", "2", "10", "2", "7", "13", "19", "21", "20", "19", "22", "14", "17", "17", "14", "14", "15", "16", "18", "18", "0", "31", "30", "30", "32", "33", "26", "27", "26", "29", "26", "28", "0", "23", "14"], "time": [326, 575, 1961, 2186, 3614, 5771, 6450, 6629, 6819, 9149, 9570, 11505, 11696, 14146, 14337, 14523, 15559, 19006, 19272, 22170, 22255, 23120, 23423, 23668, 24034, 24072, 26911, 29158, 29580, 29829, 32117, 32395, 32610, 35353, 38124, 38240, 39292, 39405, 40861, 40910, 45006, 45699, 48144, 49321]}, "edge": {"target": [], "time": []}}}, "displayed_time": "54.44", "trialTime": 57168, "trial_type": "mouselab-mdp", "trial_index": 34, "time_elapsed": 2055051, "internal_node_id": "0.0-6.0-1.0-25.0"}}, {"uniqueid": "w89223538:a88317458", "current_trial": 35, "dateTime": 1693662495053, "trialdata": {"revealed_states": [], "clicked_states": ["20", "16", "29", "31", "28", "33"], "num_clicks_accrued": [0, 0, 0, 0, 0, 0, 0, 0, 0, 0, 0, 0, 0], "stateRewards": ["", 1, -1, 4, -2, -75, -75, 84, -9, -60, -79, 59, 2, -4, 8, 9, -17, -82, 80, 14, -4, 49, 49, -1, 3, 6, -11, -33, 34, 55, 9, -57, 5, 59], "withholdReward": false, "trial_id": "mdp_trial_27", "block": "test", "trialIndex": 28, "score": 56.1, "costs": -12.9, "simulationMode": [null, null, null, null, null], "rewards": [2, -4, 8, 14, 49], "path": ["0", "0", "12", "13", "14", "19", "22"], "rt": [30245, 58, 316, 182, 413], "actions": ["right", "right", "right", "down", "left"], "actionTimes": [34037, 34614, 35443, 36132, 37041], "queries": {"click": {"state": {"target": ["20", "16", "29", "31", "28", "33"], "time": [5823, 10475, 15541, 18341, 21632, 26661]}, "edge": {"target": [], "time": []}}, "mouseover": {"state": {"target": ["13", "14", "20", "14", "5", "6", "16", "17", "16", "6", "5", "3", "8", "27", "29", "29", "25", "31", "24", "28", "30", "30", "25", "26", "27", "26", "25", "30", "30", "33", "32", "22", "19", "20"], "time": [4841, 4889, 5505, 6342, 6838, 7046, 7180, 7392, 9243, 11456, 11823, 14169, 14209, 14271, 14454, 15023, 17439, 17942, 21205, 21327, 22384, 22989, 23231, 23332, 23588, 25304, 25371, 25450, 26022, 26121, 28231, 32191, 32414, 32616]}, "edge": {"target": [], "time": []}}, "mouseout": {"state": {"target": ["16", "13", "14", "20", "14", "5", "6", "16", "17", "16", "6", "5", "3", "8", "27", "29", "29", "25", "31", "24", "28", "28", "30", "30", "25", "26", "27", "26", "25", "30", "30", "33", "32", "22", "19", "20", "20"], "time": [2019, 4884, 5439, 5978, 6406, 7011, 7081, 7217, 8938, 11240, 11521, 14123, 14206, 14240, 14308, 14641, 16863, 17472, 21146, 21271, 21749, 22229, 22507, 23053, 23299, 23367, 25257, 25340, 25421, 25480, 26063, 27802, 31756, 32304, 32568, 32687, 42789]}, "edge": {"target": [], "time": []}}}, "displayed_time": "37.55", "trialTime": 44922, "trial_type": "mouselab-mdp", "trial_index": 35, "time_elapsed": 2100373, "internal_node_id": "0.0-6.0-1.0-26.0"}}, {"uniqueid": "w89223538:a88317458", "current_trial": 36, "dateTime": 1693662552048, "trialdata": {"revealed_states": [], "clicked_states": ["20", "32", "27", "22", "5", "18", "28", "29"], "num_clicks_accrued": [0, 0, 0, 0, 0, 0, 0, 0, 0, 0, 0, 0, 0], "stateRewards": ["", 1, -4, 6, -3, 40, 76, -51, 5, -24, -63, 44, -2, -2, 8, 1, 76, -85, -58, 10, 59, 20, 11, -2, 3, -3, 3, -82, -10, 54, -7, -57, -6, -32], "withholdReward": false, "trial_id": "mdp_trial_28", "block": "test", "trialIndex": 29, "score": -83.2, "costs": -17.2, "simulationMode": [null, null, null, null, null], "rewards": [-2, 3, -3, -7, -57], "path": ["0", "0", "23", "24", "25", "30", "31"], "rt": [41485, 198, 437, 221, 291], "actions": ["left", "left", "left", "down", "right"], "actionTimes": [45025, 45740, 46697, 47434, 48232], "queries": {"click": {"state": {"target": ["20", "32", "27", "22", "5", "18", "28", "29"], "time": [5006, 8973, 13960, 19259, 24223, 28883, 34383, 39444]}, "edge": {"target": [], "time": []}}, "mouseover": {"state": {"target": ["0", "12", "20", "21", "32", "33", "26", "27", "29", "33", "30", "22", "22", "14", "16", "16", "6", "5", "6", "16", "16", "18", "15", "17", "15", "28", "26", "25", "25", "29"], "time": [4026, 4075, 4641, 5785, 8158, 10047, 13074, 13134, 14537, 14910, 18117, 18643, 18844, 19834, 20047, 20730, 23226, 23443, 24885, 25138, 25491, 28092, 29718, 30027, 32941, 33652, 35176, 35392, 38435, 39186]}, "edge": {"target": [], "time": []}}, "mouseout": {"state": {"target": ["20", "12", "0", "0", "12", "20", "21", "32", "33", "26", "27", "29", "33", "30", "22", "22", "14", "16", "16", "6", "5", "5", "6", "16", "16", "18", "15", "17", "15", "18", "28", "26", "25", "25", "29"], "time": [902, 1351, 1706, 4069, 4107, 5504, 7668, 9739, 13008, 13104, 14408, 14570, 18076, 18190, 18707, 19712, 19867, 20410, 23113, 23262, 24402, 24761, 24957, 25293, 27826, 29683, 29905, 32892, 32972, 33004, 35112, 35209, 35426, 38465, 39701]}, "edge": {"target": [], "time": []}}}, "displayed_time": "48.75", "trialTime": 56584, "trial_type": "mouselab-mdp", "trial_index": 36, "time_elapsed": 2157368, "internal_node_id": "0.0-6.0-1.0-27.0"}}, {"uniqueid": "w89223538:a88317458", "current_trial": 37, "dateTime": 1693662587340, "trialdata": {"revealed_states": [], "clicked_states": ["17", "20", "32", "9"], "num_clicks_accrued": [0, 0, 0, 0, 0, 0, 0, 0, 0, 0, 0, 0, 0], "stateRewards": ["", -1, 2, -7, -12, -62, 12, -13, 5, 77, -71, 83, 1, -4, 7, 15, -42, -87, -4, 5, -25, 44, 88, -1, 4, -5, -8, 14, 51, 8, -5, 83, -24, -19], "withholdReward": false, "trial_id": "mdp_trial_29", "block": "test", "trialIndex": 30, "score": 67.4, "costs": -8.6, "simulationMode": [null, null, null, null, null], "rewards": [-1, 2, -7, 5, 77], "path": ["0", "0", "1", "2", "3", "8", "9"], "rt": [25881, 603, 347, 127, 248], "actions": ["up", "up", "up", "left", "up"], "actionTimes": [28653, 29783, 30654, 31305, 32060], "queries": {"click": {"state": {"target": ["17", "20", "32", "9"], "time": [4585, 9438, 13658, 18840]}, "edge": {"target": [], "time": []}}, "mouseover": {"state": {"target": ["1", "2", "4", "15", "17", "20", "21", "20", "19", "31", "32", "33", "26", "27", "11", "9", "5", "6"], "time": [3251, 3351, 3422, 3817, 4137, 5449, 5613, 8363, 10095, 10350, 13152, 14474, 14728, 15131, 17437, 17821, 20061, 23854]}, "edge": {"target": [], "time": []}}, "mouseout": {"state": {"target": ["29", "13", "12", "0", "1", "2", "4", "15", "17", "20", "21", "20", "19", "31", "32", "33", "26", "27", "11", "9", "5"], "time": [902, 1734, 1772, 3198, 3318, 3388, 3534, 3858, 5158, 5484, 8153, 10061, 10130, 13037, 14192, 14633, 14825, 17337, 17519, 19775, 23606]}, "edge": {"target": [], "time": []}}}, "displayed_time": "32.57", "trialTime": 34824, "trial_type": "mouselab-mdp", "trial_index": 37, "time_elapsed": 2192662, "internal_node_id": "0.0-6.0-1.0-28.0"}}, {"uniqueid": "w89223538:a88317458", "current_trial": 38, "dateTime": 1693662645018, "trialdata": {"revealed_states": [], "clicked_states": ["20", "6", "11", "29", "31", "28", "32", "21", "16", "18"], "num_clicks_accrued": [0, 0, 0, 0, 0, 0, 0, 0, 0, 0, 0, 0, 0], "stateRewards": ["", -2, 4, -5, -12, 85, -24, -18, -15, -78, -22, 26, -1, -1, 2, 14, -45, 52, -23, 7, -33, 24, -6, -2, -4, 5, -7, -16, 36, -39, 5, 71, -87, -23], "withholdReward": false, "trial_id": "mdp_trial_30", "block": "test", "trialIndex": 31, "score": -117.5, "costs": -21.499999999999996, "simulationMode": [null, null, null, null, null], "rewards": [-2, 4, -5, -15, -78], "path": ["0", "0", "1", "2", "3", "8", "9"], "rt": [46519, 154, 178, 155, 384], "actions": ["up", "up", "up", "left", "up"], "actionTimes": [48899, 49548, 50221, 50886, 51795], "queries": {"click": {"state": {"target": ["20", "6", "11", "29", "31", "28", "32", "21", "16", "18"], "time": [4420, 9070, 13641, 18067, 22948, 25763, 30325, 33129, 37718, 41896]}, "edge": {"target": [], "time": []}}, "mouseover": {"state": {"target": ["12", "13", "14", "20", "15", "4", "5", "6", "9", "11", "27", "29", "25", "24", "28", "24", "31", "24", "28", "28", "25", "26", "27", "26", "32", "21", "19", "15", "16", "16", "17", "15", "18", "15"], "time": [3073, 3115, 3151, 4013, 5132, 5336, 5666, 8551, 10180, 13205, 15156, 17439, 19108, 19237, 19671, 21655, 22179, 24275, 24715, 25328, 26760, 26830, 27334, 28988, 29640, 31750, 36482, 36547, 36583, 37040, 40808, 41422, 41656, 42151]}, "edge": {"target": [], "time": []}}, "mouseout": {"state": {"target": ["6", "0", "12", "13", "14", "20", "15", "4", "5", "6", "9", "11", "11", "27", "29", "25", "24", "28", "24", "31", "24", "28", "28", "28", "25", "26", "27", "26", "32", "21", "21", "19", "15", "16", "16", "17", "15", "18", "15"], "time": [753, 1503, 3111, 3146, 3822, 4631, 5170, 5371, 8410, 9687, 13090, 14217, 15123, 17155, 18924, 19233, 19608, 21606, 21855, 23988, 24355, 25059, 25921, 26407, 26795, 26865, 28906, 29020, 30976, 35026, 36440, 36515, 36579, 36615, 40655, 41374, 41559, 42118, 42184]}, "edge": {"target": [], "time": []}}}, "displayed_time": "52.30", "trialTime": 57129, "trial_type": "mouselab-mdp", "trial_index": 38, "time_elapsed": 2250337, "internal_node_id": "0.0-6.0-1.0-29.0"}}, {"uniqueid": "w89223538:a88317458", "current_trial": 39, "dateTime": 1693662673133, "trialdata": {"revealed_states": [], "clicked_states": ["21", "16", "5", "13"], "num_clicks_accrued": [0, 0, 0, 0, 0, 0, 0, 0, 0, 0, 0, 0, 0], "stateRewards": ["", 1, 2, 2, -15, -84, 28, -26, 13, 31, 86, 30, -2, 1, -1, -8, 66, -40, -1, -10, -32, 57, -17, 1, 2, -2, 9, -23, 77, 85, 12, -32, -62, -35], "withholdReward": false, "trial_id": "mdp_trial_31", "block": "test", "trialIndex": 32, "score": 49.2, "costs": -6.799999999999999, "simulationMode": [null, null, null, null, null], "rewards": [-2, 1, -1, -8, 66], "path": ["0", "0", "12", "13", "14", "15", "16"], "rt": [18291, 166, 157, 151, 91], "actions": ["right", "right", "right", "up", "up"], "actionTimes": [21431, 22117, 22795, 23467, 24080], "queries": {"click": {"state": {"target": ["21", "16", "5", "13"], "time": [5175, 9943, 13407, 17408]}, "edge": {"target": [], "time": []}}, "mouseover": {"state": {"target": ["0", "19", "21", "19", "14", "17", "16", "5", "6", "16", "18", "13", "14"], "time": [3934, 4211, 4768, 6011, 6323, 6910, 9206, 12055, 15197, 16695, 16826, 16977, 19162]}, "edge": {"target": [], "time": []}}, "mouseout": {"state": {"target": ["20", "19", "14", "13", "12", "0", "19", "21", "19", "14", "17", "16", "5", "6", "16", "18", "13", "14"], "time": [1643, 1776, 1850, 2026, 2169, 3980, 4462, 5376, 6167, 6449, 8411, 10103, 14737, 15308, 16745, 16858, 18132, 19420]}, "edge": {"target": [], "time": []}}}, "displayed_time": "24.59", "trialTime": 27649, "trial_type": "mouselab-mdp", "trial_index": 39, "time_elapsed": 2278453, "internal_node_id": "0.0-6.0-1.0-30.0"}}, {"uniqueid": "w89223538:a88317458", "current_trial": 40, "dateTime": 1693662720702, "trialdata": {"revealed_states": [], "clicked_states": ["29", "5", "20", "9", "7", "6"], "num_clicks_accrued": [0, 0, 0, 0, 0, 0, 0, 0, 0, 0, 0, 0, 0], "stateRewards": ["", -2, -4, -6, 12, -58, -70, -80, 2, 16, -88, -62, 1, 2, -5, 11, 77, -35, -44, -5, 18, -83, 87, 1, -3, -5, 13, -44, -21, -86, 10, -52, 8, 29], "withholdReward": false, "trial_id": "mdp_trial_32", "block": "test", "trialIndex": 33, "score": 67.1, "costs": -12.9, "simulationMode": [null, null, null, null, null], "rewards": [1, 2, -5, -5, 87], "path": ["0", "0", "12", "13", "14", "19", "22"], "rt": [37098, 61, 367, 148, 833], "actions": ["right", "right", "right", "down", "left"], "actionTimes": [41440, 42021, 42906, 43563, 44904], "queries": {"click": {"state": {"target": ["29", "5", "20", "9", "7", "6"], "time": [6857, 11146, 16140, 21116, 26397, 29814]}, "edge": {"target": [], "time": []}}, "mouseover": {"state": {"target": ["23", "24", "25", "29", "29", "27", "11", "9", "5", "9", "3", "4", "7", "18", "14", "20", "20", "17", "3", "9", "11", "10", "2", "7", "2", "10", "2", "6", "10", "28", "24", "31", "30", "33", "30", "31"], "time": [5611, 5738, 6036, 6227, 6512, 7865, 8281, 8699, 10884, 12021, 14628, 14693, 14730, 14795, 14867, 15217, 15711, 17251, 19844, 20733, 21975, 25662, 25708, 25826, 27010, 27200, 28762, 29078, 30678, 30899, 30966, 31357, 33957, 34312, 37306, 37341]}, "edge": {"target": [], "time": []}}, "mouseout": {"state": {"target": ["19", "0", "23", "24", "25", "29", "29", "27", "11", "9", "5", "9", "3", "4", "7", "18", "14", "20", "20", "17", "3", "9", "11", "10", "2", "7", "2", "10", "2", "6", "10", "28", "24", "31", "30", "33", "30", "31"], "time": [1710, 2593, 5695, 5774, 6125, 6270, 7000, 8247, 8315, 9861, 11470, 14562, 14660, 14726, 14762, 14827, 14898, 15555, 16639, 19711, 19873, 21763, 25523, 25704, 25794, 26901, 27166, 28728, 28797, 30427, 30835, 30963, 30999, 33913, 34164, 37262, 37338, 37371]}, "edge": {"target": [], "time": []}}}, "displayed_time": "45.42", "trialTime": 47150, "trial_type": "mouselab-mdp", "trial_index": 40, "time_elapsed": 2326022, "internal_node_id": "0.0-6.0-1.0-31.0"}}, {"uniqueid": "w89223538:a88317458", "current_trial": 41, "dateTime": 1693662747982, "trialdata": {"revealed_states": [], "clicked_states": ["21", "33", "29", "9"], "num_clicks_accrued": [0, 0, 0, 0, 0, 0, 0, 0, 0, 0, 0, 0, 0], "stateRewards": ["", -1, 2, -6, 6, 43, 78, 78, -2, 55, -29, -17, -2, -4, 1, -15, 13, 7, -79, 8, -28, -68, 36, -1, -3, 3, -16, 84, -18, 87, 10, 32, 13, -81], "withholdReward": false, "trial_id": "mdp_trial_33", "block": "test", "trialIndex": 34, "score": 61.4, "costs": -8.6, "simulationMode": [null, null, null, null, null], "rewards": [-1, -3, 3, -16, 87], "path": ["0", "0", "23", "24", "25", "26", "29"], "rt": [18129, 200, 99, 126, 201], "actions": ["left", "left", "left", "up", "left"], "actionTimes": [20163, 20880, 21493, 22131, 22844], "queries": {"click": {"state": {"target": ["21", "33", "29", "9"], "time": [3943, 8602, 13908, 16997]}, "edge": {"target": [], "time": []}}, "mouseover": {"state": {"target": ["1", "2", "19", "21", "32", "33", "30", "32", "31", "26", "29", "27", "27", "11", "9", "8", "2"], "time": [2814, 2962, 3245, 3562, 5478, 7979, 9615, 10599, 12762, 12996, 13480, 14726, 15088, 16021, 16383, 18236, 18425]}, "edge": {"target": [], "time": []}}, "mouseout": {"state": {"target": ["0", "1", "2", "19", "21", "32", "33", "30", "32", "31", "26", "29", "27", "27", "11", "9", "8", "2"], "time": [2599, 2895, 2995, 3278, 4488, 7613, 9161, 10487, 12648, 12862, 13289, 14484, 14975, 15974, 16061, 18202, 18301, 18489]}, "edge": {"target": [], "time": []}}}, "displayed_time": "23.31", "trialTime": 26846, "trial_type": "mouselab-mdp", "trial_index": 41, "time_elapsed": 2353302, "internal_node_id": "0.0-6.0-1.0-32.0"}}, {"uniqueid": "w89223538:a88317458", "current_trial": 42, "dateTime": 1693662786871, "trialdata": {"revealed_states": [], "clicked_states": ["20", "5", "7", "10", "28", "32", "29", "25"], "num_clicks_accrued": [0, 0, 0, 0, 0, 0, 0, 0, 0, 0, 0, 0, 0], "stateRewards": ["", -1, -3, 1, 13, -64, -29, 12, -4, -33, 50, 56, 2, -3, 4, 11, -64, -58, -55, 12, 47, 38, -25, -2, 2, 5, -15, 85, 7, 84, 10, 8, 57, 26], "withholdReward": false, "trial_id": "mdp_trial_34", "block": "test", "trialIndex": 35, "score": 58, "costs": -16, "simulationMode": [null, null, null, null, null], "rewards": [-2, 2, 5, -15, 84], "path": ["0", "0", "23", "24", "25", "26", "29"], "rt": [30699, 131, 106, 58, 115], "actions": ["left", "left", "left", "up", "left"], "actionTimes": [33115, 33764, 34388, 34975, 35628], "queries": {"click": {"state": {"target": ["20", "5", "7", "10", "28", "32", "29", "25"], "time": [4247, 9282, 12539, 17697, 20699, 24023, 26926, 29867]}, "edge": {"target": [], "time": []}}, "mouseover": {"state": {"target": ["12", "13", "14", "20", "20", "17", "16", "16", "6", "5", "6", "16", "7", "16", "16", "2", "10", "28", "32", "29", "25", "31"], "time": [2976, 3091, 3197, 3329, 3783, 5277, 5467, 5656, 8249, 8771, 9761, 10034, 11010, 13034, 13423, 16934, 17066, 19163, 22487, 25559, 28847, 31218]}, "edge": {"target": [], "time": []}}, "mouseout": {"state": {"target": ["0", "12", "13", "14", "20", "20", "17", "16", "16", "6", "5", "6", "16", "7", "16", "16", "7", "2", "10", "28", "32", "29", "25", "31"], "time": [2883, 3051, 3167, 3229, 3533, 4865, 5311, 5533, 8101, 8280, 9634, 9796, 10508, 12877, 13194, 16616, 16866, 17000, 18831, 22199, 24591, 28268, 30774, 31267]}, "edge": {"target": [], "time": []}}}, "displayed_time": "36.12", "trialTime": 38472, "trial_type": "mouselab-mdp", "trial_index": 42, "time_elapsed": 2392190, "internal_node_id": "0.0-6.0-1.0-33.0"}}, {"uniqueid": "w89223538:a88317458", "current_trial": 43, "dateTime": 1693662816647, "trialdata": {"revealed_states": [], "clicked_states": ["20", "22", "21", "16"], "num_clicks_accrued": [0, 0, 0, 0, 0, 0, 0, 0, 0, 0, 0, 0, 0], "stateRewards": ["", -2, 2, -5, -6, 10, -66, -58, -10, -11, -63, -70, -1, -4, -5, 7, 66, -64, -43, -3, 45, -37, 4, -2, -2, -6, -4, -30, 33, 43, 15, -32, -65, -59], "withholdReward": false, "trial_id": "mdp_trial_35", "block": "test", "trialIndex": 36, "score": 54.4, "costs": -8.6, "simulationMode": [null, null, null, null, null], "rewards": [-1, -4, -5, 7, 66], "path": ["0", "0", "12", "13", "14", "15", "16"], "rt": [22006, 67, 53, 117, 72], "actions": ["right", "right", "right", "up", "up"], "actionTimes": [24810, 25396, 25962, 26612, 27194], "queries": {"click": {"state": {"target": ["20", "22", "21", "16"], "time": [4574, 7645, 10907, 16435]}, "edge": {"target": [], "time": []}}, "mouseover": {"state": {"target": ["0", "22", "20", "19", "22", "19", "14", "17", "19", "21", "17", "16", "6", "18", "15"], "time": [3495, 3623, 4174, 5112, 5338, 8302, 8876, 9232, 10214, 10459, 12527, 14996, 18427, 22158, 23160]}, "edge": {"target": [], "time": []}}, "mouseout": {"state": {"target": ["0", "0", "22", "20", "19", "22", "19", "14", "17", "19", "21", "17", "16", "16", "6", "18", "15"], "time": [1773, 3542, 3705, 5016, 5240, 8265, 8338, 9076, 9707, 10310, 11649, 14224, 17284, 18052, 21712, 23060, 23243]}, "edge": {"target": [], "time": []}}}, "displayed_time": "27.70", "trialTime": 29337, "trial_type": "mouselab-mdp", "trial_index": 43, "time_elapsed": 2421967, "internal_node_id": "0.0-6.0-1.0-34.0"}}, {"uniqueid": "w89223538:a88317458", "current_trial": 44, "dateTime": 1693662874987, "trialdata": {"revealed_states": [], "clicked_states": ["33", "9", "7", "17", "16", "18", "22", "20", "27", "6"], "num_clicks_accrued": [0, 0, 0, 0, 0, 0, 0, 0, 0, 0, 0, 0, 0], "stateRewards": ["", -1, -3, -7, -7, -76, 30, -49, 11, -70, 56, 2, 1, 4, -3, -14, -59, -83, -25, -9, -21, -67, -73, -2, 4, 4, -9, -11, -32, 60, 9, -87, 22, -64], "withholdReward": false, "trial_id": "mdp_trial_36", "block": "test", "trialIndex": 37, "score": -93.5, "costs": -21.499999999999996, "simulationMode": [null, null, null, null, null], "rewards": [-2, 4, 4, 9, -87], "path": ["0", "0", "23", "24", "25", "30", "31"], "rt": [46490, 144, 158, 135, 304], "actions": ["left", "left", "left", "down", "right"], "actionTimes": [52721, 53388, 54069, 54715, 55537], "queries": {"click": {"state": {"target": ["33", "9", "7", "17", "16", "18", "22", "20", "27", "6"], "time": [8303, 13037, 17937, 23802, 26625, 29705, 33008, 36075, 40330, 43208]}, "edge": {"target": [], "time": []}}, "mouseover": {"state": {"target": ["0", "0", "23", "23", "24", "25", "33", "30", "31", "28", "26", "32", "23", "10", "9", "8", "10", "2", "7", "18", "14", "20", "20", "19", "17", "16", "16", "18", "13", "13", "22", "19", "20", "13", "12", "28", "27", "10", "3", "4", "6", "5", "3", "8", "10", "11", "10", "1", "12", "22"], "time": [6512, 7099, 7274, 7518, 7579, 7652, 8074, 8757, 8917, 9046, 9301, 9801, 11105, 11558, 12174, 13915, 14290, 17223, 17430, 18809, 18910, 19011, 19340, 22551, 22957, 24606, 25373, 27639, 30436, 30653, 30959, 33382, 33693, 36954, 36992, 37090, 37518, 41336, 41434, 41500, 42292, 44395, 45199, 45328, 45548, 47891, 50209, 50519, 50716, 51418]}, "edge": {"target": [], "time": []}}, "mouseout": {"state": {"target": ["17", "14", "21", "23", "0", "0", "0", "23", "23", "24", "25", "33", "33", "30", "31", "28", "26", "32", "23", "10", "9", "8", "10", "2", "7", "18", "14", "20", "20", "19", "17", "16", "16", "18", "13", "13", "22", "19", "20", "13", "12", "28", "27", "27", "10", "3", "4", "6", "5", "3", "8", "10", "11", "10", "1", "12"], "time": [1072, 1172, 3482, 4972, 5755, 6773, 7172, 7323, 7576, 7622, 8023, 8449, 8632, 8822, 8981, 9080, 9337, 10888, 11137, 11689, 13792, 14105, 17180, 17349, 18746, 18870, 18958, 19050, 22191, 22592, 24481, 24825, 27386, 30373, 30470, 30737, 33318, 33536, 36706, 36988, 37025, 37425, 40501, 41041, 41370, 41467, 41593, 44055, 45121, 45240, 45364, 47568, 49925, 50357, 50589, 51142]}, "edge": {"target": [], "time": []}}}, "displayed_time": "56.06", "trialTime": 57907, "trial_type": "mouselab-mdp", "trial_index": 44, "time_elapsed": 2480307, "internal_node_id": "0.0-6.0-1.0-35.0"}}, {"uniqueid": "w89223538:a88317458", "current_trial": 45, "dateTime": 1693662901355, "trialdata": {"revealed_states": [], "clicked_states": ["20", "22"], "num_clicks_accrued": [0, 0, 0, 0, 0, 0, 0, 0, 0, 0, 0, 0, 0], "stateRewards": ["", 1, 2, 3, 16, 63, -25, 16, -4, -14, 82, -66, -1, -3, -3, -11, -14, 19, 46, 3, -34, -82, 66, -2, -3, 4, -5, -63, 77, -37, -1, -45, -41, 84], "withholdReward": false, "trial_id": "mdp_trial_37", "block": "test", "trialIndex": 38, "score": 57.7, "costs": -4.3, "simulationMode": [null, null, null, null, null], "rewards": [-1, -3, -3, 3, 66], "path": ["0", "0", "12", "13", "14", "19", "22"], "rt": [17655, 229, 118, 35, 142], "actions": ["right", "right", "right", "down", "left"], "actionTimes": [21060, 21809, 22444, 22984, 23640], "queries": {"click": {"state": {"target": ["20", "22"], "time": [5420, 10170]}, "edge": {"target": [], "time": []}}, "mouseover": {"state": {"target": ["12", "13", "14", "20", "21", "22", "7", "2", "10", "2", "18", "15"], "time": [4213, 4251, 4762, 4961, 6657, 9147, 10953, 15871, 16263, 17524, 17813, 17884]}, "edge": {"target": [], "time": []}}, "mouseout": {"state": {"target": ["22", "0", "12", "13", "14", "20", "20", "21", "22", "7", "2", "10", "2", "18", "15"], "time": [929, 4168, 4247, 4546, 4844, 5538, 6241, 8690, 10571, 15832, 16045, 17279, 17676, 17852, 18182]}, "edge": {"target": [], "time": []}}}, "displayed_time": "24.14", "trialTime": 25928, "trial_type": "mouselab-mdp", "trial_index": 45, "time_elapsed": 2506675, "internal_node_id": "0.0-6.0-1.0-36.0"}}, {"uniqueid": "w89223538:a88317458", "current_trial": 46, "dateTime": 1693662931114, "trialdata": {"revealed_states": [], "clicked_states": ["32", "27", "9", "17", "20"], "num_clicks_accrued": [0, 0, 0, 0, 0, 0, 0, 0, 0, 0, 0, 0, 0], "stateRewards": ["", 1, 2, 7, 13, 88, -71, 27, 3, 60, 5, -53, -2, 2, -6, -1, -30, 79, 47, -4, -14, 46, 68, 1, 1, 8, 10, -14, 86, 48, -11, -67, -44, 5], "withholdReward": false, "trial_id": "mdp_trial_38", "block": "test", "trialIndex": 39, "score": 61.25, "costs": -10.75, "simulationMode": [null, null, null, null, null], "rewards": [-2, 2, -6, -1, 79], "path": ["0", "0", "12", "13", "14", "15", "17"], "rt": [22115, 142, 193, 142, 487], "actions": ["right", "right", "right", "up", "right"], "actionTimes": [24296, 24949, 25656, 26306, 27303], "queries": {"click": {"state": {"target": ["32", "27", "9", "17", "20"], "time": [3975, 6982, 11062, 16906, 21203]}, "edge": {"target": [], "time": []}}, "mouseover": {"state": {"target": ["31", "30", "32", "32", "30", "25", "26", "27", "11", "9", "5", "6", "16", "17", "16", "5", "6", "16", "20"], "time": [3029, 3066, 3379, 3626, 4698, 4861, 4962, 5217, 8325, 8694, 11509, 15475, 15572, 16052, 17398, 17994, 20241, 20325, 20743]}, "edge": {"target": [], "time": []}}, "mouseout": {"state": {"target": ["13", "12", "0", "31", "30", "32", "32", "30", "25", "26", "27", "11", "9", "5", "6", "16", "17", "16", "5", "6", "16", "20"], "time": [1283, 1374, 2990, 3063, 3100, 3424, 4444, 4795, 4896, 5058, 8130, 8359, 11443, 15426, 15542, 15625, 17268, 17433, 20161, 20274, 20356, 21713]}, "edge": {"target": [], "time": []}}}, "displayed_time": "27.82", "trialTime": 29317, "trial_type": "mouselab-mdp", "trial_index": 46, "time_elapsed": 2536433, "internal_node_id": "0.0-6.0-1.0-37.0"}}, {"uniqueid": "w89223538:a88317458", "current_trial": 47, "dateTime": 1693662981314, "trialdata": {"revealed_states": [], "clicked_states": ["20", "17", "7", "28", "11", "32", "29", "31", "6", "5"], "num_clicks_accrued": [0, 0, 0, 0, 0, 0, 0, 0, 0, 0, 0, 0, 0], "stateRewards": ["", -2, 4, 3, 5, -61, 4, 30, 1, -47, 83, 10, 1, 4, 7, -14, 19, -74, -83, 6, -2, -2, -65, -1, -2, 4, -11, 12, -1, -68, 11, -38, -28, 66], "withholdReward": false, "trial_id": "mdp_trial_39", "block": "test", "trialIndex": 40, "score": 67.5, "costs": -21.499999999999996, "simulationMode": [null, null, null, null, null], "rewards": [-2, 4, 3, 1, 83], "path": ["0", "0", "1", "2", "3", "8", "10"], "rt": [40653, 962, 684, 236, 125], "actions": ["up", "up", "up", "left", "down"], "actionTimes": [42858, 44348, 45558, 46303, 46947], "queries": {"click": {"state": {"target": ["20", "17", "7", "28", "11", "32", "29", "31", "6", "5"], "time": [4034, 6857, 12141, 17820, 20973, 24348, 27794, 31174, 34259, 37827]}, "edge": {"target": [], "time": []}}, "mouseover": {"state": {"target": ["0", "13", "14", "20", "17", "16", "17", "16", "6", "4", "8", "8", "2", "7", "2", "11", "28", "11", "32", "30", "29", "25", "31", "12", "18", "6", "6", "5"], "time": [2260, 3448, 3631, 3747, 5114, 5246, 5856, 7621, 8271, 10948, 11217, 11316, 11502, 11765, 12637, 13042, 16966, 19515, 23532, 25883, 26256, 29842, 30447, 32429, 32531, 32692, 33977, 37265]}, "edge": {"target": [], "time": []}}, "mouseout": {"state": {"target": ["21", "0", "0", "13", "14", "20", "17", "16", "17", "16", "6", "4", "8", "8", "2", "7", "2", "11", "28", "11", "28", "32", "30", "29", "25", "31", "12", "18", "6", "6", "6", "5", "6"], "time": [948, 1804, 2831, 3492, 3697, 4831, 5148, 5695, 7398, 7909, 10832, 11147, 11261, 11381, 11582, 12572, 12730, 16733, 19254, 23044, 23283, 25181, 25948, 29618, 30000, 31814, 32495, 32566, 33175, 34413, 36980, 38161, 38535]}, "edge": {"target": [], "time": []}}}, "displayed_time": "47.46", "trialTime": 49772, "trial_type": "mouselab-mdp", "trial_index": 47, "time_elapsed": 2586634, "internal_node_id": "0.0-6.0-1.0-38.0"}}, {"uniqueid": "w89223538:a88317458", "current_trial": 48, "dateTime": 1693663005386, "trialdata": {"revealed_states": [], "clicked_states": ["21", "32", "27"], "num_clicks_accrued": [0, 0, 0, 0, 0, 0, 0, 0, 0, 0, 0, 0, 0], "stateRewards": ["", 1, -2, -8, -3, 31, -84, -55, -14, 15, -58, 17, -2, -3, 7, 7, -12, 48, 67, 4, -44, -68, 46, 2, 3, -5, -7, 76, 27, 5, 11, 57, 52, 59], "withholdReward": false, "trial_id": "mdp_trial_40", "block": "test", "trialIndex": 41, "score": 62.55, "costs": -6.449999999999999, "simulationMode": [null, null, null, null, null], "rewards": [2, 3, -5, -7, 76], "path": ["0", "0", "23", "24", "25", "26", "27"], "rt": [16244, 37, 130, 65, 175], "actions": ["left", "left", "left", "up", "up"], "actionTimes": [18960, 19525, 20192, 20791, 21481], "queries": {"click": {"state": {"target": ["21", "32", "27"], "time": [4582, 7419, 12860]}, "edge": {"target": [], "time": []}}, "mouseover": {"state": {"target": ["0", "12", "19", "21", "32", "25", "26", "27", "27", "11", "9"], "time": [3466, 3575, 3951, 4164, 5959, 8643, 8713, 8855, 9283, 13402, 13692]}, "edge": {"target": [], "time": []}}, "mouseout": {"state": {"target": ["17", "13", "12", "0", "0", "12", "19", "21", "32", "25", "26", "27", "27", "11", "9"], "time": [1066, 1247, 1314, 2156, 3532, 3613, 4032, 5239, 8234, 8679, 8852, 9040, 13304, 13469, 17124]}, "edge": {"target": [], "time": []}}}, "displayed_time": "22.02", "trialTime": 23643, "trial_type": "mouselab-mdp", "trial_index": 48, "time_elapsed": 2610706, "internal_node_id": "0.0-6.0-1.0-39.0"}}, {"uniqueid": "w89223538:a88317458", "current_trial": 49, "dateTime": 1693663116421, "trialdata": {"rt": 111020, "response": {"Q0": "$-2 to $2", "Q1": "$-16 to $16", "Q2": "$-88 to $88", "Q3": "It was less costly to inspect further nodes.", "Q4": "Very motivated"}, "question_order": [0, 1, 2, 3, 4], "trial_id": "final_quiz_control", "trial_type": "survey-multi-choice", "trial_index": 49, "time_elapsed": 2721743, "internal_node_id": "0.0-6.0-2.0"}}, {"uniqueid": "w89223538:a88317458", "current_trial": 50, "dateTime": 1693663252666, "trialdata": {"rt": 136230, "response": {"Q0": "I just clicked on the last nodes & aimed for the highest one", "Q1": "Not really, my strategy remained mostly the same", "Q2": "My performance remained hit & miss throughout, not really improving"}, "trial_id": "self_report_control", "trial_type": "survey-text", "trial_index": 50, "time_elapsed": 2857988, "internal_node_id": "0.0-6.0-3.0"}}, {"uniqueid": "w89223538:a88317458", "current_trial": 51, "dateTime": 1693663322549, "trialdata": {"rt": 69877, "response": {"Q0": "Strongly disagree", "Q1": "Disagree", "Q2": "Agree", "Q3": "Agree", "Q4": "Disagree", "Q5": "Strongly agree", "Q6": "Strongly disagree"}, "question_order": [0, 1, 2, 3, 4, 5, 6], "trial_id": "self_report_2", "trial_type": "survey-multi-choice", "trial_index": 51, "time_elapsed": 2927871, "internal_node_id": "0.0-6.0-4.0"}}, {"uniqueid": "w89223538:a88317458", "current_trial": 52, "dateTime": 1693663347565, "trialdata": {"rt": 25007, "response": {"gender": "female", "age": "55", "colorblind": "0", "effort": "0"}, "trial_type": "survey-html-form", "trial_index": 52, "time_elapsed": 2952886, "internal_node_id": "0.0-6.0-5.0"}}, {"uniqueid": "w89223538:a88317458", "current_trial": 53, "dateTime": 1693663374893, "trialdata": {"rt": 27320, "response": {"Q0": "No", "Q1": "No", "Q2": "None"}, "trial_type": "survey-text", "trial_index": 53, "time_elapsed": 2980214, "internal_node_id": "0.0-6.0-6.0"}}, {"uniqueid": "w89223538:a88317458", "current_trial": 54, "dateTime": 1693663434254, "trialdata": {"rt": 59354, "stimulus": "<h1>Completion Code Instructions (1/2)</h1>\n<br><br><br><br>\nYou have reached the end of the experiment! The completion code consists of two parts: (1) a code with 2 characters (2) a code with 6 characters. On this page, you will receive the second part of the code. The first part of the completion code will be on the next page.\n<br><br>\nThe second part of your completion code is: <b>EWEK22</b>\n<br><br>\nPlease note this down. Then, press 'Next' in order to find the first part of your completion code. Once the data has been saved, you will receive this code either in this window or in the original browser window where you started the experiment.\n <br><br>\n<h2 style='color: red;'>Note: this is <strong>NOT</strong> the full completion code. Copy this down and click 'Next' to get the full completion code on the next page.</h2>", "response": 0, "trial_type": "html-button-response", "trial_index": 54, "time_elapsed": 3039576, "internal_node_id": "0.0-6.0-7.0"}}, {"uniqueid": "w89223538:a88317458", "current_trial": 55, "dateTime": 1693663435262, "trialdata": {"success": true, "trial_type": "fullscreen", "trial_index": 55, "time_elapsed": 3040584, "internal_node_id": "0.0-7.0"}}], "questiondata": {"params": {"CODE": "C6DMOQA6", "MIN_TIME": 14, "inspectCost": 1, "startTime": "Sat Sep 02 2023 14:13:14 GMT+0100 (British Summer Time)", "bonusRate": 0.002, "variance": "1_2_4_8_44", "branching": "31123"}, "final_score": 1539.5}, "eventdata": [{"eventtype": "initialized", "value": null, "timestamp": 1693660393616, "interval": 0}, {"eventtype": "window_resize", "value": [1024, 767], "timestamp": 1693660393617, "interval": 1}, {"eventtype": "window_resize", "value": [1024, 767], "timestamp": 1693660393942, "interval": 325}, {"eventtype": "window_resize", "value": [1920, 1080], "timestamp": 1693660493224, "interval": 99282}, {"eventtype": "focus", "value": "off", "timestamp": 1693660623921, "interval": 130697}, {"eventtype": "focus", "value": "on", "timestamp": 1693660634171, "interval": 10250}, {"eventtype": "window_resize", "value": [1920, 1080], "timestamp": 1693660634468, "interval": 297}, {"eventtype": "focus", "value": "off", "timestamp": 1693660637645, "interval": 3177}, {"eventtype": "focus", "value": "on", "timestamp": 1693660637752, "interval": 107}, {"eventtype": "window_resize", "value": [1920, 1080], "timestamp": 1693660637955, "interval": 203}, {"eventtype": "focus", "value": "off", "timestamp": 1693660638186, "interval": 231}, {"eventtype": "window_resize", "value": [1920, 1079], "timestamp": 1693660639141, "interval": 955}, {"eventtype": "focus", "value": "on", "timestamp": 1693660646345, "interval": 7204}, {"eventtype": "window_resize", "value": [1920, 1080], "timestamp": 1693660646555, "interval": 210}, {"eventtype": "focus", "value": "off", "timestamp": 1693660754588, "interval": 108033}, {"eventtype": "window_resize", "value": [1920, 1079], "timestamp": 1693660755134, "interval": 546}, {"eventtype": "focus", "value": "on", "timestamp": 1693660761542, "interval": 6408}, {"eventtype": "window_resize", "value": [1920, 1080], "timestamp": 1693660761863, "interval": 321}, {"eventtype": "focus", "value": "off", "timestamp": 1693660764673, "interval": 2810}, {"eventtype": "focus", "value": "on", "timestamp": 1693660764744, "interval": 71}, {"eventtype": "focus", "value": "off", "timestamp": 1693660764961, "interval": 217}, {"eventtype": "window_resize", "value": [1920, 1080], "timestamp": 1693660764971, "interval": 10}, {"eventtype": "focus", "value": "on", "timestamp": 1693660788736, "interval": 23765}, {"eventtype": "focus", "value": "off", "timestamp": 1693660798324, "interval": 9588}, {"eventtype": "focus", "value": "on", "timestamp": 1693660806044, "interval": 7720}, {"eventtype": "window_resize", "value": [1920, 1080], "timestamp": 1693660806346, "interval": 302}, {"eventtype": "focus", "value": "off", "timestamp": 1693660808642, "interval": 2296}, {"eventtype": "focus", "value": "on", "timestamp": 1693660808719, "interval": 77}, {"eventtype": "focus", "value": "off", "timestamp": 1693660808905, "interval": 186}, {"eventtype": "window_resize", "value": [1920, 1080], "timestamp": 1693660808936, "interval": 31}, {"eventtype": "focus", "value": "on", "timestamp": 1693660846713, "interval": 37777}, {"eventtype": "focus", "value": "off", "timestamp": 1693660866533, "interval": 19820}, {"eventtype": "window_resize", "value": [1920, 1079], "timestamp": 1693660867134, "interval": 601}, {"eventtype": "focus", "value": "on", "timestamp": 1693660871964, "interval": 4830}, {"eventtype": "window_resize", "value": [1920, 1080], "timestamp": 1693660872201, "interval": 237}, {"eventtype": "focus", "value": "off", "timestamp": 1693660875040, "interval": 2839}, {"eventtype": "focus", "value": "on", "timestamp": 1693660875124, "interval": 84}, {"eventtype": "window_resize", "value": [1920, 1080], "timestamp": 1693660875340, "interval": 216}, {"eventtype": "focus", "value": "off", "timestamp": 1693660875430, "interval": 90}, {"eventtype": "focus", "value": "on", "timestamp": 1693660914279, "interval": 38849}, {"eventtype": "focus", "value": "off", "timestamp": 1693661044853, "interval": 130574}, {"eventtype": "window_resize", "value": [1920, 1079], "timestamp": 1693661046134, "interval": 1281}, {"eventtype": "focus", "value": "on", "timestamp": 1693661050619, "interval": 4485}, {"eventtype": "window_resize", "value": [1920, 1080], "timestamp": 1693661050858, "interval": 239}, {"eventtype": "focus", "value": "off", "timestamp": 1693661054085, "interval": 3227}, {"eventtype": "focus", "value": "on", "timestamp": 1693661054165, "interval": 80}, {"eventtype": "window_resize", "value": [1920, 1080], "timestamp": 1693661054398, "interval": 233}, {"eventtype": "focus", "value": "off", "timestamp": 1693661054433, "interval": 35}, {"eventtype": "focus", "value": "on", "timestamp": 1693661057373, "interval": 2940}, {"eventtype": "focus", "value": "off", "timestamp": 1693661089700, "interval": 32327}, {"eventtype": "focus", "value": "on", "timestamp": 1693661138845, "interval": 49145}, {"eventtype": "focus", "value": "off", "timestamp": 1693661481526, "interval": 342681}, {"eventtype": "focus", "value": "on", "timestamp": 1693661509514, "interval": 27988}, {"eventtype": "focus", "value": "off", "timestamp": 1693663035506, "interval": 1525992}, {"eventtype": "focus", "value": "on", "timestamp": 1693663048759, "interval": 13253}, {"eventtype": "focus", "value": "off", "timestamp": 1693663168403, "interval": 119644}, {"eventtype": "window_resize", "value": [1920, 1079], "timestamp": 1693663168627, "interval": 224}, {"eventtype": "focus", "value": "on", "timestamp": 1693663172903, "interval": 4276}, {"eventtype": "window_resize", "value": [1920, 1080], "timestamp": 1693663173159, "interval": 256}, {"eventtype": "focus", "value": "off", "timestamp": 1693663226088, "interval": 52929}, {"eventtype": "window_resize", "value": [1920, 1079], "timestamp": 1693663226302, "interval": 214}, {"eventtype": "focus", "value": "on", "timestamp": 1693663228662, "interval": 2360}, {"eventtype": "window_resize", "value": [1920, 1080], "timestamp": 1693663228879, "interval": 217}, {"eventtype": "focus", "value": "off", "timestamp": 1693663327114, "interval": 98235}, {"eventtype": "window_resize", "value": [1920, 1079], "timestamp": 1693663327346, "interval": 232}, {"eventtype": "focus", "value": "on", "timestamp": 1693663328953, "interval": 1607}, {"eventtype": "window_resize", "value": [1920, 1080], "timestamp": 1693663329199, "interval": 246}, {"eventtype": "focus", "value": "off", "timestamp": 1693663381225, "interval": 52026}, {"eventtype": "focus", "value": "on", "timestamp": 1693663383110, "interval": 1885}, {"eventtype": "window_resize", "value": [1024, 767], "timestamp": 1693663434508, "interval": 51398}], "useragent": "Mozilla/5.0 (Windows NT 10.0; Win64; x64) AppleWebKit/537.36 (KHTML, like Gecko) Chrome/116.0.0.0 Safari/537.36", "mode": "live", "id": "w89223538:a88317458", "status": "user data saved", "Beginhit": "2023-09-02 13:13:11.986726", "Beginexp": "2023-09-02 13:14:53.822921", "Endhit": "2023-09-02 14:03:55.358331", "psiturkStatus": 3, "browser": "<redacted>", "platform": "windows", "language": "en-GB"}