{"condition": 0, "counterbalance": 0, "assignmentId": "a43690214", "workerId": "w38273212", "hitId": "h95160954", "currenttrial": 51, "bonus": 0, "data": [{"uniqueid": "w38273212:a43690214", "current_trial": 0, "dateTime": 1693834713578, "trialdata": {"success": true, "trial_type": "fullscreen", "trial_index": 0, "time_elapsed": 12854, "internal_node_id": "0.0-0.0"}}, {"uniqueid": "w38273212:a43690214", "current_trial": 1, "dateTime": 1693834732455, "trialdata": {"view_history": [{"page_index": 0, "viewing_time": 18870}], "rt": 18871, "trial_id": "exp_instructions_misaligned", "trial_type": "instructions", "trial_index": 1, "time_elapsed": 31731, "internal_node_id": "0.0-1.0"}}, {"uniqueid": "w38273212:a43690214", "current_trial": 2, "dateTime": 1693834985140, "trialdata": {"view_history": [{"page_index": 0, "viewing_time": 60180}, {"page_index": 1, "viewing_time": 120819}, {"page_index": 2, "viewing_time": 27843}, {"page_index": 3, "viewing_time": 43840}], "rt": 252683, "trial_id": "mouselab_instructions_1_misaligned", "trial_type": "instructions", "trial_index": 2, "time_elapsed": 284416, "internal_node_id": "0.0-2.0-1.0"}}, {"uniqueid": "w38273212:a43690214", "current_trial": 3, "dateTime": 1693835022388, "trialdata": {"revealed_states": [], "clicked_states": ["23", "2", "26", "30"], "num_clicks_accrued": [0, 0, 0, 0, 0, 0, 0, 0, 0, 0, 0, 0, 0], "stateRewards": ["", -10, 10, -10, 10, -10, 10, -10, 10, -10, 10, 10, 10, 10, 10, -10, 10, -10, -10, 10, -10, 10, -10, 10, 10, -10, -10, -10, -10, 10, 10, 10, 10, -10], "withholdReward": false, "trial_id": "practice_1", "block": "test", "trialIndex": 0, "score": 51.5, "costs": -2, "simulationMode": [null, null, null, null, null, null, null, null, null, null, null, null], "rewards": [10, 10, 10, 10, -10, 10, 10], "path": ["0", "0", "23", "23", "24", "24", "25", "30", "32"], "rt": [18302, 17287, 2619, 2115, 771, 265, 2286, 1796, 1148, 652, 1538, 1150], "actions": ["left", "left", "left", "left", "left", "left", "left", "left", "left", "left", "down", "down"], "actionTimes": [17286, 17290, 19913, 19915, 20691, 20695, 22987, 22991, 24143, 24146, 26198, 27856], "queries": {"click": {"state": {"target": ["23", "2", "26", "30"], "time": [3185, 5759, 10685, 14079]}, "edge": {"target": [], "time": []}}, "mouseover": {"state": {"target": ["1", "1", "23", "24", "24", "2", "12", "12", "1", "26", "24", "30", "31"], "time": [null, 690, 2089, 3851, 4399, 5399, 7029, 8280, 8728, 9646, 13006, 13710, 14936]}, "edge": {"target": [], "time": []}}, "mouseout": {"state": {"target": ["0", "1", "0", "1", "1", "23", "23", "24", "24", "2", "12", "12", "1", "26", "24", "30", "31"], "time": [null, null, null, null, 773, 3306, 3701, 4067, 4882, 6847, 7047, 8296, 8861, 12440, 13422, 14888, 14954]}, "edge": {"target": [], "time": []}}}, "displayed_time": "28.37", "trialTime": 31157, "trial_type": "mouselab-mdp", "trial_index": 3, "time_elapsed": 321665, "internal_node_id": "0.0-2.0-2.0-0.0"}}, {"uniqueid": "w38273212:a43690214", "current_trial": 4, "dateTime": 1693835055080, "trialdata": {"revealed_states": [], "clicked_states": ["4", "26", "15", "19", "30"], "num_clicks_accrued": [0, 0, 0, 0, 0, 0, 0, 0, 0, 0, 0, 0, 0], "stateRewards": ["", -10, -10, 10, -10, -10, -10, 10, -10, -10, 10, 10, -10, -10, -10, -10, 10, -10, -10, -10, 10, 10, 10, -10, 10, 10, -10, 10, -10, -10, 10, -10, 10, -10], "withholdReward": false, "trial_id": "practice_2", "block": "test", "trialIndex": 1, "score": 31, "costs": -2.5, "simulationMode": [null, null, null, null, null], "rewards": [-10, 10, 10, 10, 10], "path": ["0", "0", "23", "24", "25", "30", "32"], "rt": [15054, 1433, 1435, 824, 3467], "actions": ["left", "left", "left", "down", "down"], "actionTimes": [18269, 20209, 22159, 23499, 27486], "queries": {"click": {"state": {"target": ["4", "26", "15", "19", "30"], "time": [4989, 7063, 9958, 11663, 13709]}, "edge": {"target": [], "time": []}}, "mouseover": {"state": {"target": ["1", "2", "3", "4", "3", "10", "28", "25", "26", "23", "22", "19", "14", "15", "14", "19", "22", "31", "30", "24", "23", "23", "24"], "time": [3695, 3744, 4178, 4477, 5459, 5926, 6042, 6308, 6590, 7757, 8322, 8671, 9406, 9454, 10520, 11485, 12283, 12899, 13483, 14397, 14447, 16911, 17012]}, "edge": {"target": [], "time": []}}, "mouseout": {"state": {"target": ["0", "1", "1", "2", "3", "4", "3", "10", "28", "25", "26", "23", "22", "19", "14", "15", "14", "19", "22", "31", "30", "24", "23", "23", "24"], "time": [1182, 1547, 3728, 3780, 4462, 5409, 5576, 5958, 6224, 6491, 7655, 7789, 8372, 9403, 9438, 10486, 10918, 11719, 12300, 13398, 14297, 14414, 14480, 16960, 25317]}, "edge": {"target": [], "time": []}}}, "displayed_time": "28.00", "trialTime": 32451, "trial_type": "mouselab-mdp", "trial_index": 4, "time_elapsed": 354356, "internal_node_id": "0.0-2.0-2.0-1.0"}}, {"uniqueid": "w38273212:a43690214", "current_trial": 5, "dateTime": 1693835096075, "trialdata": {"view_history": [{"page_index": 0, "viewing_time": 28574}, {"page_index": 1, "viewing_time": 12418}], "rt": 40992, "trial_id": "mouselab_instructions_2_misaligned", "trial_type": "instructions", "trial_index": 5, "time_elapsed": 395352, "internal_node_id": "0.0-2.0-3.0"}}, {"uniqueid": "w38273212:a43690214", "current_trial": 6, "dateTime": 1693835140235, "trialdata": {"rt": 44156, "response": {"Q0": "The cost for clicking on nodes may vary between nodes.", "Q1": "The better I perform the higher my bonus will be.", "Q2": "No, the structure of the web will be different each time.", "Q3": "To get the highest total score.", "Q4": "Only before moving the spider.", "Q5": "3 seconds"}, "question_order": [0, 1, 2, 3, 4, 5], "correct": {"Q0": "The cost for clicking on nodes may vary between nodes.", "Q1": "The better I perform the higher my bonus will be.", "Q2": "No, the amount of cash at each node of the web may be different each time.", "Q3": "To get the highest total score.", "Q4": "Only before moving the spider.", "Q5": "3 seconds"}, "trial_id": "mouselab_quiz_misaligned", "trial_type": "survey-multi-choice", "trial_index": 6, "time_elapsed": 439511, "internal_node_id": "0.0-2.0-4.0"}}, {"uniqueid": "w38273212:a43690214", "current_trial": 7, "dateTime": 1693835152872, "trialdata": {"success": true, "trial_type": "fullscreen", "trial_index": 7, "time_elapsed": 452149, "internal_node_id": "0.0-2.1-0.1-0.1"}}, {"uniqueid": "w38273212:a43690214", "current_trial": 8, "dateTime": 1693835238997, "trialdata": {"view_history": [{"page_index": 0, "viewing_time": 33150}, {"page_index": 1, "viewing_time": 25445}, {"page_index": 2, "viewing_time": 12777}, {"page_index": 3, "viewing_time": 14751}], "rt": 86123, "trial_id": "mouselab_instructions_1_misaligned", "trial_type": "instructions", "trial_index": 8, "time_elapsed": 538274, "internal_node_id": "0.0-2.1-1.1"}}, {"uniqueid": "w38273212:a43690214", "current_trial": 9, "dateTime": 1693835276820, "trialdata": {"revealed_states": [], "clicked_states": ["1", "2", "3", "12", "13", "14", "19", "22", "20", "21"], "num_clicks_accrued": [0, 0, 0, 0, 0, 0, 0, 0, 0, 0, 0, 0, 0], "stateRewards": ["", -10, 10, -10, 10, -10, 10, -10, 10, -10, 10, 10, 10, 10, 10, -10, 10, -10, -10, 10, -10, 10, -10, 10, 10, -10, -10, -10, -10, 10, 10, 10, 10, -10], "withholdReward": false, "trial_id": "practice_1", "block": "test", "trialIndex": 2, "score": 48.5, "costs": -5, "simulationMode": [null, null, null, null, null], "rewards": [10, 10, 10, 10, 10], "path": ["0", "0", "12", "13", "14", "19", "21"], "rt": [29876, 283, 301, 218, 337], "actions": ["right", "right", "right", "down", "down"], "actionTimes": [31895, 32690, 33506, 34238, 35090], "queries": {"click": {"state": {"target": ["1", "2", "3", "12", "13", "14", "19", "22", "20", "21"], "time": [3137, 5071, 7362, 14473, 17362, 19580, 21897, 23470, 27965, 29790]}, "edge": {"target": [], "time": []}}, "mouseover": {"state": {"target": ["1", "2", "3", "4", "3", "4", "12", "0", "23", "0", "13", "13", "14", "19", "22", "20", "21", "19"], "time": [2546, 3477, 5791, 6476, 7177, 8371, 14263, 14812, 15245, 16246, 16577, 17062, 18473, 20454, 22940, 25066, 29409, 30707]}, "edge": {"target": [], "time": []}}, "mouseout": {"state": {"target": ["0", "1", "1", "2", "3", "4", "3", "4", "12", "0", "23", "0", "12", "13", "13", "14", "19", "22", "20", "21", "19", "22"], "time": [631, 1178, 3264, 5357, 6441, 6956, 7988, 13864, 14795, 14829, 16227, 16261, 16310, 16611, 17925, 19971, 22435, 24132, 28759, 29915, 30757, 36482]}, "edge": {"target": [], "time": []}}}, "displayed_time": "35.60", "trialTime": 37584, "trial_type": "mouselab-mdp", "trial_index": 9, "time_elapsed": 576096, "internal_node_id": "0.0-2.1-2.1-0.1"}}, {"uniqueid": "w38273212:a43690214", "current_trial": 10, "dateTime": 1693835303883, "trialdata": {"revealed_states": [], "clicked_states": ["19", "30", "23", "1", "12", "32"], "num_clicks_accrued": [0, 0, 0, 0, 0, 0, 0, 0, 0, 0, 0, 0, 0], "stateRewards": ["", -10, -10, 10, -10, -10, -10, 10, -10, -10, 10, 10, -10, -10, -10, -10, 10, -10, -10, -10, 10, 10, 10, -10, 10, 10, -10, 10, -10, -10, 10, -10, 10, -10], "withholdReward": false, "trial_id": "practice_2", "block": "test", "trialIndex": 3, "score": 30.5, "costs": -3, "simulationMode": [null, null, null, null, null], "rewards": [-10, 10, 10, 10, 10], "path": ["0", "0", "23", "24", "25", "30", "32"], "rt": [19387, 286, 953, 213, 226], "actions": ["left", "left", "left", "down", "down"], "actionTimes": [21488, 22284, 23749, 24475, 25219], "queries": {"click": {"state": {"target": ["19", "30", "23", "1", "12", "32"], "time": [4448, 6468, 10551, 13558, 15150, 18485]}, "edge": {"target": [], "time": []}}, "mouseover": {"state": {"target": ["12", "13", "19", "19", "22", "31", "30", "25", "25", "25", "24", "23", "1", "1", "12", "0", "23", "31", "30", "32", "31"], "time": [2954, 3037, 3105, 3421, 4885, 5185, 5984, 7265, 8165, 8380, 8964, 9363, 12842, 13292, 14556, 15705, 17986, 18035, 18185, 18267, 19465]}, "edge": {"target": [], "time": []}}, "mouseout": {"state": {"target": ["0", "12", "13", "19", "19", "22", "31", "30", "25", "25", "25", "24", "23", "23", "1", "1", "1", "12", "0", "23", "31", "30", "32", "31", "23"], "time": [1106, 3004, 3071, 3123, 4868, 4902, 5251, 7215, 7332, 8197, 8931, 9346, 11261, 12744, 12974, 13602, 14090, 15670, 15804, 18001, 18135, 18201, 18899, 23111, 26489]}, "edge": {"target": [], "time": []}}}, "displayed_time": "25.73", "trialTime": 26825, "trial_type": "mouselab-mdp", "trial_index": 10, "time_elapsed": 603160, "internal_node_id": "0.0-2.1-2.1-1.1"}}, {"uniqueid": "w38273212:a43690214", "current_trial": 11, "dateTime": 1693835316782, "trialdata": {"view_history": [{"page_index": 0, "viewing_time": 10533}, {"page_index": 1, "viewing_time": 2362}], "rt": 12896, "trial_id": "mouselab_instructions_2_misaligned", "trial_type": "instructions", "trial_index": 11, "time_elapsed": 616059, "internal_node_id": "0.0-2.1-3.1"}}, {"uniqueid": "w38273212:a43690214", "current_trial": 12, "dateTime": 1693835398257, "trialdata": {"rt": 81472, "response": {"Q0": "The cost for clicking on nodes may vary between nodes.", "Q1": "The better I perform the higher my bonus will be.", "Q2": "No, the amount of cash at each node of the web may be different each time.", "Q3": "To get the highest total score.", "Q4": "Only before moving the spider.", "Q5": "3 seconds"}, "question_order": [0, 1, 2, 3, 4, 5], "correct": {"Q0": "The cost for clicking on nodes may vary between nodes.", "Q1": "The better I perform the higher my bonus will be.", "Q2": "No, the amount of cash at each node of the web may be different each time.", "Q3": "To get the highest total score.", "Q4": "Only before moving the spider.", "Q5": "3 seconds"}, "trial_id": "mouselab_quiz_misaligned", "trial_type": "survey-multi-choice", "trial_index": 12, "time_elapsed": 697534, "internal_node_id": "0.0-2.1-4.1"}}, {"uniqueid": "w38273212:a43690214", "current_trial": 13, "dateTime": 1693835405478, "trialdata": {"rt": 7214, "response": {"Q0": "No"}, "question_order": [0], "trial_id": "repeat_check", "trial_type": "survey-multi-choice", "trial_index": 13, "time_elapsed": 704755, "internal_node_id": "0.0-4.0-0.0"}}, {"uniqueid": "w38273212:a43690214", "current_trial": 14, "dateTime": 1693835436406, "trialdata": {"rt": 30922, "stimulus": "\n<h1> Get ready to start the game! </h1>\n\nThank you for reading the instructions. Get ready start with the 40 rounds of this game.\n<br><br>\nIf you need to take a break, feel free to take one after the end of a round, before continuing to the next one.\n<br><br>\nRemember, the more money the spider gets, the bigger your bonus will be!\n<br><br>\n<div style='text-align: center;'>Press <code>space</code> to begin.</div>\n\n<br><br>\n(If, at any point, the <code>space</code> key does not take you to the next page, click once on the text and try again.)", "response": " ", "trial_id": "mdp_ready", "trial_type": "html-keyboard-response", "trial_index": 14, "time_elapsed": 735683, "internal_node_id": "0.0-6.0-0.0"}}, {"uniqueid": "w38273212:a43690214", "current_trial": 15, "dateTime": 1693835468499, "trialdata": {"revealed_states": [], "clicked_states": ["4", "1", "12", "23", "6"], "num_clicks_accrued": [0, 0, 0, 0, 0, 0, 0, 0, 0, 0, 0, 0, 0], "stateRewards": ["", 2, 3, -1, 6, 44, -4, -59, -14, -3, 64, 16, 1, -3, 3, 6, 3, 49, 19, 3, -49, -14, -86, 1, 2, -3, -8, -33, 14, 32, -13, -77, -47, -67], "withholdReward": false, "trial_id": "mdp_trial_1", "block": "test", "trialIndex": 4, "score": 51.05, "costs": -2.95, "simulationMode": [null, null, null, null, null], "rewards": [2, 3, -1, 6, 44], "path": ["0", "0", "1", "2", "3", "4", "5"], "rt": [19813, 404, 357, 277, 501], "actions": ["up", "up", "up", "right", "up"], "actionTimes": [23341, 24257, 25124, 25909, 26916], "queries": {"click": {"state": {"target": ["4", "1", "12", "23", "6"], "time": [5370, 8227, 9584, 11310, 13473]}, "edge": {"target": [], "time": []}}, "mouseover": {"state": {"target": ["1", "2", "4", "3", "2", "1", "12", "0", "23", "1", "2", "2", "3", "4", "6", "7", "4", "4", "7", "18", "4", "7", "4", "4", "7", "7"], "time": [4028, 4293, 4711, 6107, 7405, 7822, 8987, 10019, 10418, 12066, 12099, 12548, 12748, 12798, 13131, 14862, 17359, 18075, 18109, 18325, 18608, 18691, 18943, 19227, 19309, 20023]}, "edge": {"target": [], "time": []}}, "mouseout": {"state": {"target": ["7", "0", "0", "1", "1", "2", "4", "3", "4", "2", "1", "12", "0", "23", "1", "2", "2", "3", "4", "6", "7", "4", "4", "7", "18", "6", "4", "7", "4", "4", "7", "7", "4", "5", "4", "7"], "time": [898, 1313, 1749, 2299, 4259, 4309, 5857, 6207, 7255, 7755, 8571, 9968, 10119, 11799, 12083, 12132, 12598, 12765, 12865, 14029, 17275, 17791, 18092, 18125, 18342, 18460, 18641, 18908, 18973, 19273, 19427, 28045, 28144, 28294, 28727, 28744]}, "edge": {"target": [], "time": []}}}, "displayed_time": "27.43", "trialTime": 31795, "trial_type": "mouselab-mdp", "trial_index": 15, "time_elapsed": 767774, "internal_node_id": "0.0-6.0-1.0-0.0"}}, {"uniqueid": "w38273212:a43690214", "current_trial": 16, "dateTime": 1693835489480, "trialdata": {"revealed_states": [], "clicked_states": ["15", "19", "25", "27", "23"], "num_clicks_accrued": [0, 0, 0, 0, 0, 0, 0, 0, 0, 0, 0, 0, 0], "stateRewards": ["", -1, -4, 8, 8, -68, 47, 24, -7, -61, 49, -69, -1, -1, 8, -7, 42, 1, -45, -11, 10, -63, -6, 1, 4, 6, -16, 79, -37, -58, -12, 81, 18, -53], "withholdReward": false, "trial_id": "mdp_trial_2", "block": "test", "trialIndex": 5, "score": 68.05, "costs": -5.949999999999999, "simulationMode": [null, null, null, null, null], "rewards": [1, 4, 6, -16, 79], "path": ["0", "0", "23", "24", "25", "26", "27"], "rt": [12268, 587, 404, 257, 311], "actions": ["left", "left", "left", "up", "up"], "actionTimes": [14736, 15833, 16747, 17516, 18336], "queries": {"click": {"state": {"target": ["15", "19", "25", "27", "23"], "time": [4881, 6306, 8154, 9638, 13294]}, "edge": {"target": [], "time": []}}, "mouseover": {"state": {"target": ["12", "13", "14", "15", "14", "19", "12", "0", "23", "25", "26", "27", "26", "30", "24", "23", "24"], "time": [3111, 3892, 3943, 4175, 5274, 5390, 7054, 7121, 7389, 7555, 8719, 9250, 10134, 10682, 11168, 11548, 13995]}, "edge": {"target": [], "time": []}}, "mouseout": {"state": {"target": ["0", "12", "13", "14", "15", "15", "14", "19", "12", "0", "23", "25", "26", "27", "26", "25", "30", "24", "23", "23", "24"], "time": [3060, 3876, 3910, 4110, 5000, 5257, 5340, 6755, 7087, 7137, 7404, 8602, 8918, 10069, 10201, 10352, 11133, 11216, 13416, 13979, 19839]}, "edge": {"target": [], "time": []}}}, "displayed_time": "18.86", "trialTime": 20704, "trial_type": "mouselab-mdp", "trial_index": 16, "time_elapsed": 788757, "internal_node_id": "0.0-6.0-1.0-1.0"}}, {"uniqueid": "w38273212:a43690214", "current_trial": 17, "dateTime": 1693835513556, "trialdata": {"revealed_states": [], "clicked_states": ["19", "32", "25", "2", "27", "3"], "num_clicks_accrued": [0, 0, 0, 0, 0, 0, 0, 0, 0, 0, 0, 0, 0], "stateRewards": ["", -1, 3, 1, -7, 56, 76, 57, 3, 11, -9, 14, 1, -2, 2, 8, -77, -3, 79, -5, 88, 24, -66, -2, -1, 7, -7, -30, 14, -76, 11, -36, 28, -6], "withholdReward": false, "trial_id": "mdp_trial_3", "block": "test", "trialIndex": 6, "score": 34.9, "costs": -8.1, "simulationMode": [null, null, null, null, null], "rewards": [-2, -1, 7, 11, 28], "path": ["0", "0", "23", "24", "25", "30", "32"], "rt": [17098, 266, 235, 149, 380], "actions": ["left", "left", "left", "down", "down"], "actionTimes": [19308, 20084, 20835, 21497, 22394], "queries": {"click": {"state": {"target": ["19", "32", "25", "2", "27", "3"], "time": [3199, 4440, 7794, 9576, 11579, 15085]}, "edge": {"target": [], "time": []}}, "mouseover": {"state": {"target": ["0", "12", "19", "32", "30", "25", "24", "23", "2", "3", "1", "28", "27", "8", "3", "3", "4", "6"], "time": [2523, 2571, 2840, 4119, 5018, 5234, 8580, 8863, 9096, 10245, 10561, 10994, 11243, 12226, 12276, 12908, 17154, 17434]}, "edge": {"target": [], "time": []}}, "mouseout": {"state": {"target": ["0", "12", "19", "32", "30", "25", "24", "23", "2", "3", "2", "1", "28", "27", "8", "3", "3", "4"], "time": [2556, 2592, 3621, 4885, 5136, 8480, 8664, 8913, 10195, 10495, 10529, 10879, 11061, 12126, 12242, 12442, 17138, 17325]}, "edge": {"target": [], "time": []}}}, "displayed_time": "22.91", "trialTime": 23803, "trial_type": "mouselab-mdp", "trial_index": 17, "time_elapsed": 812832, "internal_node_id": "0.0-6.0-1.0-2.0"}}, {"uniqueid": "w38273212:a43690214", "current_trial": 18, "dateTime": 1693835542911, "trialdata": {"revealed_states": [], "clicked_states": ["14", "30", "26", "27", "28", "29"], "num_clicks_accrued": [0, 0, 0, 0, 0, 0, 0, 0, 0, 0, 0, 0, 0], "stateRewards": ["", 2, 3, 6, -12, -29, 12, 87, 4, 35, -30, 67, 2, 3, -5, -9, 44, 69, -8, 1, 45, -8, 28, -2, -1, -8, 11, -12, -5, 81, 9, 87, 82, 88], "withholdReward": false, "trial_id": "mdp_trial_4", "block": "test", "trialIndex": 7, "score": 70.5, "costs": -10.5, "simulationMode": [null, null, null, null, null], "rewards": [-2, -1, -8, 11, 81], "path": ["0", "0", "23", "24", "25", "26", "29"], "rt": [18280, 211, 205, 106, 82], "actions": ["left", "left", "left", "up", "left"], "actionTimes": [20748, 21474, 22186, 22809, 23410], "queries": {"click": {"state": {"target": ["14", "30", "26", "27", "28", "29"], "time": [4817, 7341, 8446, 10500, 13271, 16929]}, "edge": {"target": [], "time": []}}, "mouseover": {"state": {"target": ["12", "13", "14", "19", "14", "19", "22", "24", "25", "30", "25", "30", "25", "26", "10", "4", "6", "4", "3", "27", "27", "28", "29", "10", "2", "4", "6", "6"], "time": [2988, 3136, 3670, 4086, 4353, 5284, 5554, 5616, 6066, 6200, 6781, 6949, 7747, 7832, 8998, 9362, 9396, 9695, 9749, 9811, 10162, 11242, 14555, 17800, 17833, 18266, 18583, 20081]}, "edge": {"target": [], "time": []}}, "mouseout": {"state": {"target": ["6", "18", "1", "12", "13", "14", "19", "14", "19", "22", "24", "25", "30", "25", "30", "25", "26", "10", "4", "6", "4", "3", "27", "27", "28", "29", "10", "2", "4", "6"], "time": [807, 924, 1307, 3021, 3170, 4054, 4268, 5251, 5552, 5565, 5633, 6166, 6684, 6899, 7463, 7780, 8946, 9112, 9378, 9678, 9734, 9760, 9944, 11059, 13922, 17634, 17817, 18217, 18283, 19731]}, "edge": {"target": [], "time": []}}}, "displayed_time": "23.93", "trialTime": 29108, "trial_type": "mouselab-mdp", "trial_index": 18, "time_elapsed": 842188, "internal_node_id": "0.0-6.0-1.0-3.0"}}, {"uniqueid": "w38273212:a43690214", "current_trial": 19, "dateTime": 1693835562099, "trialdata": {"revealed_states": [], "clicked_states": ["12", "23", "19", "22"], "num_clicks_accrued": [0, 0, 0, 0, 0, 0, 0, 0, 0, 0, 0, 0, 0], "stateRewards": ["", 2, -3, 5, -14, -63, -9, -24, -11, -54, -43, 68, 2, -2, -4, 7, -64, 30, 47, 12, -74, 11, 86, 1, -3, 3, 10, -71, -42, -52, -1, -29, -16, 69], "withholdReward": false, "trial_id": "mdp_trial_5", "block": "test", "trialIndex": 8, "score": 90.8, "costs": -3.2, "simulationMode": [null, null, null, null, null], "rewards": [2, -2, -4, 12, 86], "path": ["0", "0", "12", "13", "14", "19", "22"], "rt": [10494, 262, 161, 54, 107], "actions": ["right", "right", "right", "down", "left"], "actionTimes": [12867, 13639, 14319, 14879, 15514], "queries": {"click": {"state": {"target": ["12", "23", "19", "22"], "time": [4638, 5852, 7436, 8664]}, "edge": {"target": [], "time": []}}, "mouseover": {"state": {"target": ["12", "13", "14", "13", "13", "12", "1", "23", "1", "13", "19", "22", "20", "19"], "time": [2688, 2739, 2988, 3754, 4137, 4253, 5068, 5317, 6483, 6633, 7084, 8233, 9796, 12426]}, "edge": {"target": [], "time": []}}, "mouseout": {"state": {"target": ["6", "16", "0", "12", "13", "14", "13", "13", "12", "1", "23", "1", "13", "19", "22", "19", "20"], "time": [628, 890, 2654, 2705, 2805, 3722, 3956, 4173, 4761, 5218, 6366, 6500, 6934, 7899, 9164, 9613, 12409]}, "edge": {"target": [], "time": []}}}, "displayed_time": "16.38", "trialTime": 18918, "trial_type": "mouselab-mdp", "trial_index": 19, "time_elapsed": 861375, "internal_node_id": "0.0-6.0-1.0-4.0"}}, {"uniqueid": "w38273212:a43690214", "current_trial": 20, "dateTime": 1693835603690, "trialdata": {"revealed_states": [], "clicked_states": ["2", "23", "12", "8", "10", "6", "7", "9", "11", "5"], "num_clicks_accrued": [0, 0, 0, 0, 0, 0, 0, 0, 0, 0, 0, 0, 0], "stateRewards": ["", -2, 1, 6, -2, -10, -78, -69, 14, -15, 7, -1, 1, -1, -2, 13, 77, 32, 87, 5, -74, 30, -26, 1, 3, 4, 12, 39, 54, -43, 2, 10, 23, 13], "withholdReward": false, "trial_id": "mdp_trial_6", "block": "test", "trialIndex": 9, "score": 44.7, "costs": -14.3, "simulationMode": [null, null, null, null, null], "rewards": [1, 3, 4, 12, 39], "path": ["0", "0", "23", "24", "25", "26", "27"], "rt": [32607, 149, 164, 126, 158], "actions": ["left", "left", "left", "up", "up"], "actionTimes": [35540, 36211, 36890, 37534, 38198], "queries": {"click": {"state": {"target": ["2", "23", "12", "8", "10", "6", "7", "9", "11", "5"], "time": [4836, 6811, 7930, 9778, 10726, 15276, 18518, 22288, 25616, 30571]}, "edge": {"target": [], "time": []}}, "mouseover": {"state": {"target": ["1", "2", "2", "1", "23", "24", "23", "0", "12", "1", "2", "8", "10", "4", "5", "6", "7", "4", "5", "9", "11", "8", "5", "5"], "time": [3354, 3668, 4435, 5516, 5600, 5668, 6131, 7213, 7429, 8546, 8597, 8728, 10329, 11475, 12140, 14920, 16201, 19380, 19464, 19863, 23558, 26820, 29384, 29699]}, "edge": {"target": [], "time": []}}, "mouseout": {"state": {"target": ["19", "22", "12", "0", "1", "2", "2", "1", "23", "24", "23", "0", "12", "1", "2", "8", "10", "4", "5", "6", "7", "4", "5", "9", "11", "8", "5", "5", "16", "15"], "time": [823, 904, 1171, 1339, 3635, 4034, 5232, 5532, 5633, 6064, 7163, 7296, 8496, 8562, 8661, 10209, 11293, 11558, 14454, 15802, 19363, 19414, 19580, 23092, 25744, 29319, 29533, 31584, 39404, 39436]}, "edge": {"target": [], "time": []}}}, "displayed_time": "38.71", "trialTime": 41332, "trial_type": "mouselab-mdp", "trial_index": 20, "time_elapsed": 902966, "internal_node_id": "0.0-6.0-1.0-5.0"}}, {"uniqueid": "w38273212:a43690214", "current_trial": 21, "dateTime": 1693835626359, "trialdata": {"revealed_states": [], "clicked_states": ["19", "30", "26", "29", "27"], "num_clicks_accrued": [0, 0, 0, 0, 0, 0, 0, 0, 0, 0, 0, 0, 0], "stateRewards": ["", -1, 1, 3, -8, -23, -15, -14, -11, -23, 58, 68, 1, 3, 5, 12, -17, -41, -7, -10, -4, 82, 10, 1, 4, -4, 11, 73, 55, -55, -1, -86, -86, 54], "withholdReward": false, "trial_id": "mdp_trial_7", "block": "test", "trialIndex": 10, "score": 76.05, "costs": -8.950000000000001, "simulationMode": [null, null, null, null, null], "rewards": [1, 4, -4, 11, 73], "path": ["0", "0", "23", "24", "25", "26", "27"], "rt": [13239, 225, 235, 95, 144], "actions": ["left", "left", "left", "up", "up"], "actionTimes": [16317, 17057, 17799, 18407, 19073], "queries": {"click": {"state": {"target": ["19", "30", "26", "29", "27"], "time": [4846, 6387, 7658, 8919, 12484]}, "edge": {"target": [], "time": []}}, "mouseover": {"state": {"target": ["12", "13", "14", "19", "22", "31", "30", "25", "26", "29", "27", "28"], "time": [3501, 3615, 4131, 4431, 5296, 5463, 5996, 6928, 7127, 8457, 9990, 13467]}, "edge": {"target": [], "time": []}}, "mouseout": {"state": {"target": ["14", "19", "21", "0", "12", "13", "14", "19", "22", "31", "30", "25", "26", "26", "29", "27"], "time": [636, 669, 804, 3466, 3564, 3731, 4315, 4969, 5312, 5862, 6510, 7081, 8193, 8407, 9036, 13251]}, "edge": {"target": [], "time": []}}}, "displayed_time": "19.58", "trialTime": 22404, "trial_type": "mouselab-mdp", "trial_index": 21, "time_elapsed": 925635, "internal_node_id": "0.0-6.0-1.0-6.0"}}, {"uniqueid": "w38273212:a43690214", "current_trial": 22, "dateTime": 1693835657118, "trialdata": {"revealed_states": [], "clicked_states": ["14", "25", "3", "32", "17", "21", "20"], "num_clicks_accrued": [0, 0, 0, 0, 0, 0, 0, 0, 0, 0, 0, 0, 0], "stateRewards": ["", 1, 1, -5, 8, -6, 45, 16, -6, -7, -22, -38, -1, -4, 8, -11, -16, 21, -45, -15, -59, -32, 42, -1, 3, 6, 11, -7, 34, -27, -8, 85, 43, -9], "withholdReward": false, "trial_id": "mdp_trial_8", "block": "test", "trialIndex": 11, "score": 31.549999999999997, "costs": -11.450000000000001, "simulationMode": [null, null, null, null, null], "rewards": [-1, 3, 6, -8, 43], "path": ["0", "0", "23", "24", "25", "30", "32"], "rt": [21829, 205, 123, 171, 227], "actions": ["left", "left", "left", "down", "down"], "actionTimes": [25857, 26582, 27216, 27896, 28634], "queries": {"click": {"state": {"target": ["14", "25", "3", "32", "17", "21", "20"], "time": [5783, 7169, 8252, 11039, 14868, 18420, 21959]}, "edge": {"target": [], "time": []}}, "mouseover": {"state": {"target": ["1", "12", "13", "14", "13", "12", "0", "24", "25", "10", "3", "4", "6", "7", "0", "23", "24", "25", "30", "32", "12", "13", "17", "16", "20", "21", "19", "20", "14", "12", "0", "31"], "time": [4338, 4721, 4803, 5153, 6152, 6185, 6209, 6352, 6784, 7667, 7838, 8798, 9181, 9614, 9751, 9879, 9906, 10220, 10252, 10580, 11478, 11497, 11977, 15606, 17303, 17736, 19783, 19866, 22514, 23129, 23395, 23462]}, "edge": {"target": [], "time": []}}, "mouseout": {"state": {"target": ["28", "12", "0", "1", "12", "13", "14", "13", "12", "0", "24", "25", "10", "3", "4", "6", "7", "0", "23", "24", "25", "30", "32", "12", "13", "17", "16", "20", "21", "19", "20", "14", "12", "0"], "time": [594, 3273, 4206, 4688, 4754, 5003, 6135, 6169, 6205, 6219, 6385, 7600, 7683, 8748, 8898, 9581, 9647, 9865, 9903, 9916, 10249, 10264, 11398, 11495, 11528, 15406, 17204, 17639, 19251, 19850, 22449, 22534, 23378, 23412]}, "edge": {"target": [], "time": []}}}, "displayed_time": "29.14", "trialTime": 30485, "trial_type": "mouselab-mdp", "trial_index": 22, "time_elapsed": 956394, "internal_node_id": "0.0-6.0-1.0-7.0"}}, {"uniqueid": "w38273212:a43690214", "current_trial": 23, "dateTime": 1693835680058, "trialdata": {"revealed_states": [], "clicked_states": ["4", "1", "23", "12", "19", "16", "22"], "num_clicks_accrued": [0, 0, 0, 0, 0, 0, 0, 0, 0, 0, 0, 0, 0], "stateRewards": ["", -1, -3, -3, 1, -38, 2, -53, -2, -1, -81, 70, -1, 1, -5, -9, 46, 15, 35, -1, -22, 38, 59, -2, 4, -8, 13, 1, -83, -43, 4, 76, 13, 48], "withholdReward": false, "trial_id": "mdp_trial_9", "block": "test", "trialIndex": 12, "score": 46.35, "costs": -6.65, "simulationMode": [null, null, null, null, null], "rewards": [-1, 1, -5, -1, 59], "path": ["0", "0", "12", "13", "14", "19", "22"], "rt": [15257, 164, 177, 49, 31], "actions": ["right", "right", "right", "down", "left"], "actionTimes": [17576, 18256, 18955, 19523, 20088], "queries": {"click": {"state": {"target": ["4", "1", "23", "12", "19", "16", "22"], "time": [3498, 4817, 6125, 7180, 8585, 10497, 14278]}, "edge": {"target": [], "time": []}}, "mouseover": {"state": {"target": ["1", "2", "7", "4", "2", "1", "23", "12", "13", "19", "19", "14", "14", "15", "16", "17", "15", "18", "13", "22", "14"], "time": [2780, 2845, 2944, 3028, 4027, 4260, 5407, 6856, 7638, 7872, 8220, 9320, 9702, 9807, 10152, 11150, 12531, 13080, 13447, 13530, 15213]}, "edge": {"target": [], "time": []}}, "mouseout": {"state": {"target": ["31", "0", "1", "2", "7", "4", "2", "1", "23", "12", "13", "19", "19", "14", "14", "15", "16", "16", "17", "15", "18", "13", "22"], "time": [582, 931, 2796, 2878, 2961, 3961, 4109, 5308, 6556, 7604, 7655, 7971, 9253, 9453, 9751, 10120, 10623, 11017, 12466, 12631, 13432, 13480, 14402]}, "edge": {"target": [], "time": []}}}, "displayed_time": "20.62", "trialTime": 22652, "trial_type": "mouselab-mdp", "trial_index": 23, "time_elapsed": 979332, "internal_node_id": "0.0-6.0-1.0-8.0"}}, {"uniqueid": "w38273212:a43690214", "current_trial": 24, "dateTime": 1693835712049, "trialdata": {"revealed_states": [], "clicked_states": ["12", "3", "25", "14", "21", "32", "27", "11", "6"], "num_clicks_accrued": [0, 0, 0, 0, 0, 0, 0, 0, 0, 0, 0, 0, 0], "stateRewards": ["", 1, -1, 8, 4, 76, -33, -17, -3, -1, -54, -74, -2, 2, -5, 13, -51, 63, 83, 1, 84, 29, -36, 2, -1, 7, -12, -10, -44, -43, -14, 8, -69, 19], "withholdReward": false, "trial_id": "mdp_trial_10", "block": "test", "trialIndex": 13, "score": 11.649999999999999, "costs": -13.350000000000001, "simulationMode": [null, null, null, null, null], "rewards": [-2, 2, -5, 1, 29], "path": ["0", "0", "12", "13", "14", "19", "21"], "rt": [25092, 74, 123, 35, 100], "actions": ["right", "right", "right", "down", "down"], "actionTimes": [26685, 27274, 27922, 28468, 29080], "queries": {"click": {"state": {"target": ["12", "3", "25", "14", "21", "32", "27", "11", "6"], "time": [3064, 4989, 6169, 7584, 9237, 13059, 16510, 19893, 23435]}, "edge": {"target": [], "time": []}}, "mouseover": {"state": {"target": ["12", "13", "14", "13", "12", "1", "2", "3", "10", "28", "25", "13", "14", "14", "19", "22", "21", "31", "32", "30", "27", "11", "8", "4", "6"], "time": [2017, 2085, 2331, 2498, 2581, 3546, 3865, 4631, 5412, 5444, 5693, 6792, 6811, 7125, 8057, 8191, 8912, 10520, 11602, 13567, 13999, 17580, 20391, 20523, 20824]}, "edge": {"target": [], "time": []}}, "mouseout": {"state": {"target": ["14", "13", "12", "12", "13", "14", "13", "12", "1", "2", "3", "10", "28", "25", "13", "14", "14", "19", "22", "21", "31", "32", "30", "27", "11", "8", "4", "6", "18", "13"], "time": [667, 718, 984, 2050, 2131, 2466, 2534, 3188, 3580, 4563, 5397, 5427, 5495, 6695, 6809, 6825, 8007, 8140, 8772, 9806, 11138, 13550, 13587, 17345, 20374, 20424, 20673, 24102, 31044, 31077]}, "edge": {"target": [], "time": []}}}, "displayed_time": "29.60", "trialTime": 31698, "trial_type": "mouselab-mdp", "trial_index": 24, "time_elapsed": 1011326, "internal_node_id": "0.0-6.0-1.0-9.0"}}, {"uniqueid": "w38273212:a43690214", "current_trial": 25, "dateTime": 1693835735692, "trialdata": {"revealed_states": [], "clicked_states": ["21", "33", "6", "27"], "num_clicks_accrued": [0, 0, 0, 0, 0, 0, 0, 0, 0, 0, 0, 0, 0], "stateRewards": ["", 1, 1, 1, -3, -7, -1, -41, -10, 20, -72, -63, 1, -4, -2, 2, -66, 30, -84, -2, 49, 23, 71, -1, -4, 4, -12, 67, 5, 18, -16, 88, 56, -5], "withholdReward": false, "trial_id": "mdp_trial_11", "block": "test", "trialIndex": 14, "score": 45.4, "costs": -8.6, "simulationMode": [null, null, null, null, null], "rewards": [-1, -4, 4, -12, 67], "path": ["0", "0", "23", "24", "25", "26", "27"], "rt": [16664, 128, 162, 78, 115], "actions": ["left", "left", "left", "up", "up"], "actionTimes": [18625, 19265, 19932, 20531, 21167], "queries": {"click": {"state": {"target": ["21", "33", "6", "27"], "time": [4505, 8036, 11386, 14937]}, "edge": {"target": [], "time": []}}, "mouseover": {"state": {"target": ["1", "18", "15", "14", "19", "21", "30", "33", "25", "28", "10", "2", "4", "6", "6", "10", "28", "25", "26", "27", "28"], "time": [2376, 2691, 2792, 2941, 3077, 3674, 5138, 5538, 8666, 8733, 8784, 9099, 9598, 9681, 9864, 12146, 12199, 12894, 13743, 14342, 17288]}, "edge": {"target": [], "time": []}}, "mouseout": {"state": {"target": ["12", "1", "18", "15", "14", "19", "21", "21", "30", "33", "25", "28", "10", "2", "4", "6", "6", "10", "28", "25", "26", "27"], "time": [661, 2659, 2741, 2841, 3009, 3523, 4629, 4839, 5171, 8584, 8683, 8749, 8816, 9166, 9632, 9714, 12030, 12163, 12230, 13694, 13843, 15710]}, "edge": {"target": [], "time": []}}}, "displayed_time": "21.68", "trialTime": 23327, "trial_type": "mouselab-mdp", "trial_index": 25, "time_elapsed": 1034968, "internal_node_id": "0.0-6.0-1.0-10.0"}}, {"uniqueid": "w38273212:a43690214", "current_trial": 26, "dateTime": 1693835754309, "trialdata": {"revealed_states": [], "clicked_states": ["30", "26", "5"], "num_clicks_accrued": [0, 0, 0, 0, 0, 0, 0, 0, 0, 0, 0, 0, 0], "stateRewards": ["", 1, 1, 7, -11, 80, -20, -53, -14, 3, 31, 27, 2, -1, -8, -10, 33, 41, 86, 9, 78, -37, -13, -1, -2, -6, -8, -80, 75, 4, -16, -49, -74, 24], "withholdReward": false, "trial_id": "mdp_trial_12", "block": "test", "trialIndex": 15, "score": 72.75, "costs": -5.25, "simulationMode": [null, null, null, null, null], "rewards": [1, 1, 7, -11, 80], "path": ["0", "0", "1", "2", "3", "4", "5"], "rt": [8779, 154, 151, 50, 89], "actions": ["up", "up", "up", "right", "up"], "actionTimes": [11614, 12289, 12951, 13516, 14138], "queries": {"click": {"state": {"target": ["30", "26", "5"], "time": [4473, 6214, 7491]}, "edge": {"target": [], "time": []}}, "mouseover": {"state": {"target": ["0", "23", "24", "25", "30", "26", "26", "27", "27", "26", "8", "5", "18", "19", "21", "19"], "time": [3131, 3228, 3479, 3712, 3927, 5027, 5286, 5375, 5695, 5859, 6773, 7173, 8055, 8123, 8986, 11084]}, "edge": {"target": [], "time": []}}, "mouseout": {"state": {"target": ["28", "0", "23", "24", "25", "30", "26", "26", "27", "27", "26", "8", "5", "18", "19", "21", "19"], "time": [1880, 3195, 3262, 3528, 3777, 4925, 5058, 5358, 5408, 5758, 6673, 6807, 7938, 8071, 8421, 11051, 11101]}, "edge": {"target": [], "time": []}}}, "displayed_time": "16.84", "trialTime": 18346, "trial_type": "mouselab-mdp", "trial_index": 26, "time_elapsed": 1053586, "internal_node_id": "0.0-6.0-1.0-11.0"}}, {"uniqueid": "w38273212:a43690214", "current_trial": 27, "dateTime": 1693835778981, "trialdata": {"revealed_states": [], "clicked_states": ["21", "16", "9", "27"], "num_clicks_accrued": [0, 0, 0, 0, 0, 0, 0, 0, 0, 0, 0, 0, 0], "stateRewards": ["", 1, 3, 1, -13, 52, -28, 67, -14, 3, 63, -70, -1, -4, 7, -11, -10, 47, -18, 6, 69, -9, -61, 2, 3, -6, 10, 63, -34, 40, -6, -79, -35, -32], "withholdReward": false, "trial_id": "mdp_trial_13", "block": "test", "trialIndex": 16, "score": 63.4, "costs": -8.6, "simulationMode": [null, null, null, null, null], "rewards": [2, 3, -6, 10, 63], "path": ["0", "0", "23", "24", "25", "26", "27"], "rt": [17959, 104, 137, 168, 134], "actions": ["left", "left", "left", "up", "up"], "actionTimes": [19484, 20100, 20749, 21429, 22077], "queries": {"click": {"state": {"target": ["21", "16", "9", "27"], "time": [2592, 5943, 9280, 12374]}, "edge": {"target": [], "time": []}}, "mouseover": {"state": {"target": ["12", "22", "21", "21", "17", "16", "4", "5", "9", "11", "27", "29", "33", "32", "32"], "time": [1685, 1752, 1869, 2218, 3216, 3366, 6430, 6930, 7211, 9874, 10140, 13935, 14552, 17516, 17797]}, "edge": {"target": [], "time": []}}, "mouseout": {"state": {"target": ["13", "12", "12", "22", "21", "21", "17", "16", "4", "5", "9", "11", "27", "29", "33", "32"], "time": [687, 736, 1719, 1807, 1905, 2715, 3317, 6346, 6446, 7128, 9791, 9991, 13519, 14035, 17467, 17547]}, "edge": {"target": [], "time": []}}}, "displayed_time": "22.59", "trialTime": 24384, "trial_type": "mouselab-mdp", "trial_index": 27, "time_elapsed": 1078258, "internal_node_id": "0.0-6.0-1.0-12.0"}}, {"uniqueid": "w38273212:a43690214", "current_trial": 28, "dateTime": 1693835796024, "trialdata": {"revealed_states": [], "clicked_states": ["21"], "num_clicks_accrued": [0, 0, 0, 0, 0, 0, 0, 0, 0, 0, 0, 0, 0], "stateRewards": ["", 2, -1, 1, 10, -52, 86, -22, -2, -14, -63, 38, 1, 3, 7, -8, 11, -32, -27, 9, -71, 40, -87, -2, -1, 5, -7, 12, 31, -57, 13, 86, -58, 29], "withholdReward": false, "trial_id": "mdp_trial_14", "block": "test", "trialIndex": 17, "score": 57.85, "costs": -2.15, "simulationMode": [null, null, null, null, null], "rewards": [1, 3, 7, 9, 40], "path": ["0", "0", "12", "13", "14", "19", "21"], "rt": [7078, 257, 204, 50, 221], "actions": ["right", "right", "right", "down", "down"], "actionTimes": [8558, 9329, 10045, 10602, 11357], "queries": {"click": {"state": {"target": ["21"], "time": [3385]}, "edge": {"target": [], "time": []}}, "mouseover": {"state": {"target": ["12", "22", "19", "21", "32", "32"], "time": [1646, 1746, 1811, 1995, 3992, 4359]}, "edge": {"target": [], "time": []}}, "mouseout": {"state": {"target": ["32", "0", "12", "22", "19", "21", "32", "32"], "time": [581, 1613, 1678, 1778, 1846, 3745, 4182, 7661]}, "edge": {"target": [], "time": []}}}, "displayed_time": "15.48", "trialTime": 16751, "trial_type": "mouselab-mdp", "trial_index": 28, "time_elapsed": 1095300, "internal_node_id": "0.0-6.0-1.0-13.0"}}, {"uniqueid": "w38273212:a43690214", "current_trial": 29, "dateTime": 1693835813011, "trialdata": {"revealed_states": [], "clicked_states": ["21", "16"], "num_clicks_accrued": [0, 0, 0, 0, 0, 0, 0, 0, 0, 0, 0, 0, 0], "stateRewards": ["", -1, 1, 8, -8, -49, 62, -78, 16, 28, -81, 78, -2, -3, -1, -4, 67, 49, -2, -13, -16, -39, 83, 1, -4, 4, -5, -20, 7, 84, 7, -32, -59, 19], "withholdReward": false, "trial_id": "mdp_trial_15", "block": "test", "trialIndex": 18, "score": 52.7, "costs": -4.3, "simulationMode": [null, null, null, null, null], "rewards": [-2, -3, -1, -4, 67], "path": ["0", "0", "12", "13", "14", "15", "16"], "rt": [8682, 162, 158, 120, 180], "actions": ["right", "right", "right", "up", "up"], "actionTimes": [10137, 10818, 11496, 12140, 12832], "queries": {"click": {"state": {"target": ["21", "16"], "time": [2558, 5963]}, "edge": {"target": [], "time": []}}, "mouseover": {"state": {"target": ["12", "13", "19", "21", "19", "14", "15", "16", "6", "5", "9"], "time": [1682, 1781, 1897, 2200, 2964, 3030, 3179, 3545, 6525, 6625, 7341]}, "edge": {"target": [], "time": []}}, "mouseout": {"state": {"target": ["12", "13", "19", "21", "19", "14", "15", "16", "6", "5"], "time": [1747, 1831, 2131, 2677, 2996, 3064, 3247, 6492, 6558, 6757]}, "edge": {"target": [], "time": []}}}, "displayed_time": "15.46", "trialTime": 16665, "trial_type": "mouselab-mdp", "trial_index": 29, "time_elapsed": 1112287, "internal_node_id": "0.0-6.0-1.0-14.0"}}, {"uniqueid": "w38273212:a43690214", "current_trial": 30, "dateTime": 1693835847164, "trialdata": {"revealed_states": [], "clicked_states": ["33", "28", "10", "5", "17", "22", "18"], "num_clicks_accrued": [0, 0, 0, 0, 0, 0, 0, 0, 0, 0, 0, 0, 0], "stateRewards": ["", 2, -3, -4, -1, 25, -16, 16, 10, -71, -20, -55, 1, 3, -4, -9, 1, 32, 11, -6, 32, -50, -41, -1, 4, 4, -8, 7, -81, 70, 2, -52, 45, -10], "withholdReward": false, "trial_id": "mdp_trial_16", "block": "test", "trialIndex": 19, "score": 7.949999999999999, "costs": -15.05, "simulationMode": [null, null, null, null, null], "rewards": [1, 3, -4, -9, 32], "path": ["0", "0", "12", "13", "14", "15", "17"], "rt": [27532, 77, 136, 81, 168], "actions": ["right", "right", "right", "up", "right"], "actionTimes": [29322, 29912, 30555, 31148, 31834], "queries": {"click": {"state": {"target": ["33", "28", "10", "5", "17", "22", "18"], "time": [3291, 6613, 10033, 13416, 17800, 21971, 25975]}, "edge": {"target": [], "time": []}}, "mouseover": {"state": {"target": ["31", "33", "25", "26", "28", "10", "3", "3", "8", "11", "10", "3", "4", "5", "6", "16", "17", "14", "22", "13", "18", "18", "18"], "time": [2136, 2872, 3712, 3818, 3920, 7280, 7330, 7580, 7629, 7712, 8612, 10559, 10642, 11310, 14321, 14454, 17383, 18632, 19080, 22659, 22760, 24175, 25690]}, "edge": {"target": [], "time": []}}, "mouseout": {"state": {"target": ["9", "8", "10", "0", "31", "33", "25", "26", "28", "10", "3", "3", "8", "11", "10", "3", "4", "5", "6", "16", "17", "14", "22", "13", "18", "18", "18"], "time": [589, 705, 772, 2054, 2176, 3672, 3735, 3885, 7230, 7297, 7379, 7613, 7646, 8328, 10151, 10608, 10658, 14272, 14354, 17318, 18482, 18715, 22610, 22709, 22842, 25489, 26094]}, "edge": {"target": [], "time": []}}}, "displayed_time": "32.35", "trialTime": 33864, "trial_type": "mouselab-mdp", "trial_index": 30, "time_elapsed": 1146440, "internal_node_id": "0.0-6.0-1.0-15.0"}}, {"uniqueid": "w38273212:a43690214", "current_trial": 31, "dateTime": 1693835865360, "trialdata": {"revealed_states": [], "clicked_states": ["32", "28"], "num_clicks_accrued": [0, 0, 0, 0, 0, 0, 0, 0, 0, 0, 0, 0, 0], "stateRewards": ["", -2, -1, -2, -15, 87, 57, 29, -10, 77, -80, -7, 1, -3, 6, 14, -11, 87, -59, 4, -71, 16, -11, 2, 2, -7, 2, -47, 61, 50, 14, -20, 17, 81], "withholdReward": false, "trial_id": "mdp_trial_17", "block": "test", "trialIndex": 20, "score": 55.7, "costs": -4.3, "simulationMode": [null, null, null, null, null], "rewards": [2, 2, -7, 2, 61], "path": ["0", "0", "23", "24", "25", "26", "28"], "rt": [9333, 126, 184, 113, 109], "actions": ["left", "left", "left", "up", "right"], "actionTimes": [12000, 12641, 13331, 13959, 14587], "queries": {"click": {"state": {"target": ["32", "28"], "time": [4574, 8231]}, "edge": {"target": [], "time": []}}, "mouseover": {"state": {"target": ["23", "30", "31", "32", "24", "28", "28", "11"], "time": [3009, 3225, 3792, 4307, 5105, 5305, 5555, 9783]}, "edge": {"target": [], "time": []}}, "mouseout": {"state": {"target": ["18", "23", "30", "31", "32", "24", "28", "28"], "time": [845, 3027, 3758, 4092, 4696, 5239, 5340, 9253]}, "edge": {"target": [], "time": []}}}, "displayed_time": "16.67", "trialTime": 17878, "trial_type": "mouselab-mdp", "trial_index": 31, "time_elapsed": 1164636, "internal_node_id": "0.0-6.0-1.0-16.0"}}, {"uniqueid": "w38273212:a43690214", "current_trial": 32, "dateTime": 1693835887704, "trialdata": {"revealed_states": [], "clicked_states": ["21", "17", "5"], "num_clicks_accrued": [0, 0, 0, 0, 0, 0, 0, 0, 0, 0, 0, 0, 0], "stateRewards": ["", -1, 4, -3, 3, 57, -61, 5, -11, 23, -1, 34, -2, -4, -1, -13, 27, 38, -36, 4, -45, 21, 88, 1, -2, -1, 1, -69, -5, -78, -12, -9, 38, -54], "withholdReward": false, "trial_id": "mdp_trial_18", "block": "test", "trialIndex": 21, "score": 53.55, "costs": -6.449999999999999, "simulationMode": [null, null, null, null, null], "rewards": [-1, 4, -3, 3, 57], "path": ["0", "0", "1", "2", "3", "4", "5"], "rt": [16090, 81, 113, 154, 98], "actions": ["up", "up", "up", "right", "up"], "actionTimes": [17776, 18371, 19003, 19676, 20286], "queries": {"click": {"state": {"target": ["21", "17", "5"], "time": [3523, 7024, 10862]}, "edge": {"target": [], "time": []}}, "mouseover": {"state": {"target": ["12", "13", "14", "19", "21", "19", "17", "16", "6", "5", "3", "10", "24", "24", "31", "25", "24", "2"], "time": [1928, 2011, 2078, 2228, 2625, 3965, 4074, 7686, 7771, 7920, 12748, 15559, 15643, 15892, 16491, 17239, 17391, 17439]}, "edge": {"target": [], "time": []}}, "mouseout": {"state": {"target": ["11", "8", "0", "12", "13", "14", "19", "21", "19", "17", "16", "6", "5", "3", "10", "24", "24", "31", "25", "24", "2"], "time": [479, 562, 1879, 1978, 2061, 2110, 2261, 3909, 3977, 7136, 7720, 7786, 12630, 12996, 15593, 15659, 15942, 17157, 17389, 17406, 17473]}, "edge": {"target": [], "time": []}}}, "displayed_time": "20.80", "trialTime": 22014, "trial_type": "mouselab-mdp", "trial_index": 32, "time_elapsed": 1186980, "internal_node_id": "0.0-6.0-1.0-17.0"}}, {"uniqueid": "w38273212:a43690214", "current_trial": 33, "dateTime": 1693835922924, "trialdata": {"revealed_states": [], "clicked_states": ["33", "28", "11", "5", "17", "21", "22", "18"], "num_clicks_accrued": [0, 0, 0, 0, 0, 0, 0, 0, 0, 0, 0, 0, 0], "stateRewards": ["", -1, -2, 4, 9, 10, -75, 39, 16, -43, 88, -19, -1, 1, 2, 4, -31, 10, 73, 12, 41, -64, -81, -2, 2, -6, 1, -81, -1, -26, 3, -59, -3, -20], "withholdReward": false, "trial_id": "mdp_trial_19", "block": "test", "trialIndex": 22, "score": 61.8, "costs": -17.2, "simulationMode": [null, null, null, null, null], "rewards": [-1, 1, 2, 4, 73], "path": ["0", "0", "12", "13", "14", "15", "18"], "rt": [28948, 71, 135, 96, 117], "actions": ["right", "right", "right", "up", "left"], "actionTimes": [30862, 31442, 32105, 32714, 33351], "queries": {"click": {"state": {"target": ["33", "28", "11", "5", "17", "21", "22", "18"], "time": [3088, 6462, 10115, 13487, 17336, 20678, 24027, 27185]}, "edge": {"target": [], "time": []}}, "mouseover": {"state": {"target": ["31", "30", "32", "33", "25", "28", "11", "8", "5", "6", "16", "17", "20", "21", "22", "13", "18", "16"], "time": [2207, 2257, 2441, 2741, 3638, 4204, 7516, 10878, 11328, 16355, 16823, 17004, 18452, 18636, 22695, 25260, 25592, 29420]}, "edge": {"target": [], "time": []}}, "mouseout": {"state": {"target": ["31", "30", "32", "33", "25", "28", "11", "8", "5", "6", "16", "17", "20", "21", "22", "13", "18"], "time": [2239, 2373, 2657, 3571, 3671, 6967, 10862, 10894, 16271, 16437, 16870, 18103, 18487, 21732, 25061, 25409, 29072]}, "edge": {"target": [], "time": []}}}, "displayed_time": "33.87", "trialTime": 34911, "trial_type": "mouselab-mdp", "trial_index": 33, "time_elapsed": 1222200, "internal_node_id": "0.0-6.0-1.0-18.0"}}, {"uniqueid": "w38273212:a43690214", "current_trial": 34, "dateTime": 1693835954570, "trialdata": {"revealed_states": [], "clicked_states": ["32", "11", "5", "7", "22"], "num_clicks_accrued": [0, 0, 0, 0, 0, 0, 0, 0, 0, 0, 0, 0, 0], "stateRewards": ["", -2, -4, 4, -11, -63, -60, -7, 2, -14, 81, -43, -1, -1, -5, 7, 10, 69, 40, 8, -83, 52, 60, 1, 2, 5, -5, 16, 64, 14, -3, 29, 7, -51], "withholdReward": false, "trial_id": "mdp_trial_20", "block": "test", "trialIndex": 23, "score": 50.25, "costs": -10.75, "simulationMode": [null, null, null, null, null], "rewards": [-1, -1, -5, 8, 60], "path": ["0", "0", "12", "13", "14", "19", "22"], "rt": [22682, 140, 146, 2, 80], "actions": ["right", "right", "right", "down", "left"], "actionTimes": [27167, 27827, 28480, 29016, 29627], "queries": {"click": {"state": {"target": ["32", "11", "5", "7", "22"], "time": [7162, 11548, 14997, 18547, 22684]}, "edge": {"target": [], "time": []}}, "mouseover": {"state": {"target": ["23", "24", "25", "30", "32", "11", "8", "3", "4", "4", "5", "6", "7", "18", "13", "22", "21"], "time": [5880, 6011, 6076, 6294, 6592, 8506, 12353, 12451, 12537, 13001, 13434, 15663, 15980, 19891, 21940, 22288, 24535]}, "edge": {"target": [], "time": []}}, "mouseout": {"state": {"target": ["16", "23", "24", "25", "30", "32", "11", "8", "3", "4", "4", "5", "5", "6", "7", "7", "18", "13", "22", "21"], "time": [718, 5994, 6043, 6277, 6361, 7757, 12336, 12385, 12519, 12556, 13034, 15114, 15533, 15913, 18664, 19259, 21923, 21955, 24152, 26317]}, "edge": {"target": [], "time": []}}}, "displayed_time": "30.15", "trialTime": 31347, "trial_type": "mouselab-mdp", "trial_index": 34, "time_elapsed": 1253846, "internal_node_id": "0.0-6.0-1.0-19.0"}}, {"uniqueid": "w38273212:a43690214", "current_trial": 35, "dateTime": 1693835971601, "trialdata": {"revealed_states": [], "clicked_states": ["21", "17"], "num_clicks_accrued": [0, 0, 0, 0, 0, 0, 0, 0, 0, 0, 0, 0, 0], "stateRewards": ["", -1, 1, -1, 2, 19, 85, -18, 2, -3, -26, 36, 2, 4, 7, -9, -18, 70, 72, -5, 35, -20, -28, 1, -2, -4, -3, -59, -11, -63, -2, -72, 59, -69], "withholdReward": false, "trial_id": "mdp_trial_21", "block": "test", "trialIndex": 24, "score": 69.7, "costs": -4.3, "simulationMode": [null, null, null, null, null], "rewards": [2, 4, 7, -9, 70], "path": ["0", "0", "12", "13", "14", "15", "17"], "rt": [8637, 145, 101, 88, 65], "actions": ["right", "right", "right", "up", "right"], "actionTimes": [10433, 11096, 11732, 12337, 12913], "queries": {"click": {"state": {"target": ["21", "17"], "time": [2786, 6340]}, "edge": {"target": [], "time": []}}, "mouseover": {"state": {"target": ["12", "22", "19", "21", "17", "16", "6"], "time": [2102, 2177, 2196, 2360, 3477, 7370, 8037]}, "edge": {"target": [], "time": []}}, "mouseout": {"state": {"target": ["0", "12", "22", "19", "21", "17", "16"], "time": [862, 2144, 2194, 2244, 3226, 7304, 7471]}, "edge": {"target": [], "time": []}}}, "displayed_time": "15.81", "trialTime": 16718, "trial_type": "mouselab-mdp", "trial_index": 35, "time_elapsed": 1270878, "internal_node_id": "0.0-6.0-1.0-20.0"}}, {"uniqueid": "w38273212:a43690214", "current_trial": 36, "dateTime": 1693836002367, "trialdata": {"revealed_states": [], "clicked_states": ["32", "29", "11", "7", "5", "16"], "num_clicks_accrued": [0, 0, 0, 0, 0, 0, 0, 0, 0, 0, 0, 0, 0], "stateRewards": ["", -2, -4, -2, 10, -8, -15, -47, 7, -84, 53, 5, -1, 2, -7, 3, 83, 31, 47, -1, 30, -8, 69, 2, -4, -1, 8, -7, 12, -8, -8, -13, 30, -84], "withholdReward": false, "trial_id": "mdp_trial_22", "block": "test", "trialIndex": 25, "score": 67.1, "costs": -12.9, "simulationMode": [null, null, null, null, null], "rewards": [-1, 2, -7, 3, 83], "path": ["0", "0", "12", "13", "14", "15", "16"], "rt": [24375, 110, 260, 109, 259], "actions": ["right", "right", "right", "up", "up"], "actionTimes": [25942, 26569, 27337, 27967, 28737], "queries": {"click": {"state": {"target": ["32", "29", "11", "7", "5", "16"], "time": [2927, 6540, 10584, 14890, 18761, 22143]}, "edge": {"target": [], "time": []}}, "mouseover": {"state": {"target": ["0", "23", "31", "32", "32", "30", "29", "26", "28", "11", "10", "2", "7", "7", "4", "5", "6", "16", "17", "20"], "time": [1858, 1896, 1957, 2223, 2557, 3371, 3538, 7482, 9897, 10095, 13343, 14108, 14208, 14530, 15855, 16388, 19301, 19783, 22881, 23078]}, "edge": {"target": [], "time": []}}, "mouseout": {"state": {"target": ["6", "7", "1", "0", "23", "31", "32", "32", "30", "29", "26", "28", "11", "10", "2", "7", "7", "4", "5", "6", "16", "17"], "time": [559, 658, 759, 1874, 1908, 1990, 2291, 3322, 3388, 6662, 7516, 10013, 13195, 14091, 14191, 14257, 15806, 16055, 19233, 19366, 22646, 22897]}, "edge": {"target": [], "time": []}}}, "displayed_time": "29.26", "trialTime": 30449, "trial_type": "mouselab-mdp", "trial_index": 36, "time_elapsed": 1301642, "internal_node_id": "0.0-6.0-1.0-21.0"}}, {"uniqueid": "w38273212:a43690214", "current_trial": 37, "dateTime": 1693836019853, "trialdata": {"revealed_states": [], "clicked_states": ["21"], "num_clicks_accrued": [0, 0, 0, 0, 0, 0, 0, 0, 0, 0, 0, 0, 0], "stateRewards": ["", 2, 3, -3, 12, -43, 81, -82, -15, 58, -7, -75, -1, -1, 3, -5, 50, -25, -8, 4, 66, 65, -66, 2, -4, 2, -1, -10, 10, 37, 11, 88, -37, 8], "withholdReward": false, "trial_id": "mdp_trial_23", "block": "test", "trialIndex": 26, "score": 67.85, "costs": -2.15, "simulationMode": [null, null, null, null, null], "rewards": [-1, -1, 3, 4, 65], "path": ["0", "0", "12", "13", "14", "19", "21"], "rt": [6522, 179, 165, 96, 121], "actions": ["right", "right", "right", "down", "down"], "actionTimes": [8109, 8794, 9478, 10091, 10732], "queries": {"click": {"state": {"target": ["21"], "time": [3177]}, "edge": {"target": [], "time": []}}, "mouseover": {"state": {"target": ["12", "13", "19", "21", "31", "31", "32", "30", "24"], "time": [2105, 2139, 2204, 2770, 4634, 6214, 6582, 6897, 6916]}, "edge": {"target": [], "time": []}}, "mouseout": {"state": {"target": ["20", "19", "22", "0", "12", "13", "19", "21", "31", "31", "32", "30", "24"], "time": [589, 622, 672, 955, 2121, 2155, 2271, 3702, 5998, 6315, 6855, 6914, 6930]}, "edge": {"target": [], "time": []}}}, "displayed_time": "15.59", "trialTime": 17176, "trial_type": "mouselab-mdp", "trial_index": 37, "time_elapsed": 1319129, "internal_node_id": "0.0-6.0-1.0-22.0"}}, {"uniqueid": "w38273212:a43690214", "current_trial": 38, "dateTime": 1693836036370, "trialdata": {"revealed_states": [], "clicked_states": ["32", "28"], "num_clicks_accrued": [0, 0, 0, 0, 0, 0, 0, 0, 0, 0, 0, 0, 0], "stateRewards": ["", -2, -3, 1, -14, 48, -49, 67, -1, -35, -48, 3, -2, 1, -4, -5, 86, -84, 39, 1, 48, 41, -42, -1, -4, 2, -7, 18, -86, 17, 7, -9, 57, -69], "withholdReward": false, "trial_id": "mdp_trial_24", "block": "test", "trialIndex": 27, "score": 56.7, "costs": -4.3, "simulationMode": [null, null, null, null, null], "rewards": [-1, -4, 2, 7, 57], "path": ["0", "0", "23", "24", "25", "30", "32"], "rt": [9379, 119, 131, 80, 160], "actions": ["left", "left", "left", "down", "down"], "actionTimes": [10829, 11464, 12109, 12706, 13402], "queries": {"click": {"state": {"target": ["32", "28"], "time": [2955, 6941]}, "edge": {"target": [], "time": []}}, "mouseover": {"state": {"target": ["23", "24", "25", "30", "32", "33", "30", "24", "28", "28", "11"], "time": [1705, 1822, 1938, 2037, 2608, 4168, 5799, 5933, 6131, 6500, 8296]}, "edge": {"target": [], "time": []}}, "mouseout": {"state": {"target": ["23", "24", "25", "30", "32", "33", "30", "24", "28", "28"], "time": [1788, 1856, 2004, 2071, 3077, 5770, 5833, 6015, 6215, 7063]}, "edge": {"target": [], "time": []}}}, "displayed_time": "15.45", "trialTime": 16200, "trial_type": "mouselab-mdp", "trial_index": 38, "time_elapsed": 1335646, "internal_node_id": "0.0-6.0-1.0-23.0"}}, {"uniqueid": "w38273212:a43690214", "current_trial": 39, "dateTime": 1693836082562, "trialdata": {"revealed_states": [], "clicked_states": ["6", "10", "27", "33", "21", "20", "16", "18", "5", "7"], "num_clicks_accrued": [0, 0, 0, 0, 0, 0, 0, 0, 0, 0, 0, 0, 0], "stateRewards": ["", 2, -1, -1, -9, -81, -30, 55, -6, 78, 25, 62, 2, 4, -1, 9, -85, 1, -19, 1, -60, 12, -34, 1, 4, -1, -13, -24, -16, -83, -8, 16, 43, 9], "withholdReward": false, "trial_id": "mdp_trial_25", "block": "test", "trialIndex": 28, "score": 24.500000000000004, "costs": -21.499999999999996, "simulationMode": [null, null, null, null, null], "rewards": [2, -1, -1, -9, 55], "path": ["0", "0", "1", "2", "3", "4", "7"], "rt": [38161, 65, 68, 768, 117], "actions": ["up", "up", "up", "right", "down"], "actionTimes": [40638, 41211, 41815, 43113, 43745], "queries": {"click": {"state": {"target": ["6", "10", "27", "33", "21", "20", "16", "18", "5", "7"], "time": [3410, 6744, 10531, 14119, 17818, 21463, 24836, 28429, 33476, 36886]}, "edge": {"target": [], "time": []}}, "mouseover": {"state": {"target": ["6", "2", "10", "27", "26", "33", "30", "31", "22", "21", "20", "15", "18", "16", "18", "13", "22", "14", "17", "4", "5", "4", "7", "3", "9"], "time": [3013, 3911, 4011, 9753, 11617, 13569, 15706, 15745, 16694, 17477, 19474, 22120, 22869, 23518, 26482, 31757, 32056, 32441, 32490, 32740, 33073, 34120, 35918, 37700, 39081]}, "edge": {"target": [], "time": []}}, "mouseout": {"state": {"target": ["11", "10", "0", "6", "2", "10", "27", "26", "33", "30", "31", "22", "21", "20", "15", "18", "16", "18", "13", "22", "14", "17", "4", "5", "4", "7", "3", "9"], "time": [682, 765, 2568, 3814, 3961, 9422, 11586, 11651, 14237, 15729, 15778, 16761, 17941, 21584, 22137, 23456, 26015, 31725, 31890, 32411, 32457, 32557, 32756, 34020, 35787, 37650, 37755, 40246]}, "edge": {"target": [], "time": []}}}, "displayed_time": "44.26", "trialTime": 45891, "trial_type": "mouselab-mdp", "trial_index": 39, "time_elapsed": 1381838, "internal_node_id": "0.0-6.0-1.0-24.0"}}, {"uniqueid": "w38273212:a43690214", "current_trial": 40, "dateTime": 1693836100732, "trialdata": {"revealed_states": [], "clicked_states": ["21", "33", "28"], "num_clicks_accrued": [0, 0, 0, 0, 0, 0, 0, 0, 0, 0, 0, 0, 0], "stateRewards": ["", 1, 4, -8, -13, -13, -87, -77, -10, -44, 54, 42, 2, -3, -4, 12, -9, -80, 52, 9, 84, -2, -65, 1, -4, -5, -6, 8, 80, 32, 13, -59, -5, -13], "withholdReward": false, "trial_id": "mdp_trial_26", "block": "test", "trialIndex": 29, "score": 59.55, "costs": -6.449999999999999, "simulationMode": [null, null, null, null, null], "rewards": [1, -4, -5, -6, 80], "path": ["0", "0", "23", "24", "25", "26", "28"], "rt": [11873, 136, 139, 126, 124], "actions": ["left", "left", "left", "up", "right"], "actionTimes": [13459, 14107, 14759, 15395, 16025], "queries": {"click": {"state": {"target": ["21", "33", "28"], "time": [2818, 6133, 9460]}, "edge": {"target": [], "time": []}}, "mouseover": {"state": {"target": ["13", "19", "21", "32", "33", "25", "28", "11"], "time": [2051, 2135, 2486, 3417, 4133, 6829, 6928, 10940]}, "edge": {"target": [], "time": []}}, "mouseout": {"state": {"target": ["2", "1", "0", "0", "13", "19", "21", "32", "33", "25", "28"], "time": [620, 670, 736, 1904, 2068, 2185, 3318, 3667, 6762, 6865, 10625]}, "edge": {"target": [], "time": []}}}, "displayed_time": "16.54", "trialTime": 17878, "trial_type": "mouselab-mdp", "trial_index": 40, "time_elapsed": 1400008, "internal_node_id": "0.0-6.0-1.0-25.0"}}, {"uniqueid": "w38273212:a43690214", "current_trial": 41, "dateTime": 1693836123580, "trialdata": {"revealed_states": [], "clicked_states": ["6", "9", "33", "21"], "num_clicks_accrued": [0, 0, 0, 0, 0, 0, 0, 0, 0, 0, 0, 0, 0], "stateRewards": ["", 2, -3, 5, 11, -79, 54, 11, -9, -78, 33, 22, -2, -1, 2, 14, 43, 34, 1, 10, 49, -65, 39, -1, 1, -1, 3, -16, -2, 11, 2, 12, 48, -65], "withholdReward": false, "trial_id": "mdp_trial_27", "block": "test", "trialIndex": 30, "score": 60.4, "costs": -8.6, "simulationMode": [null, null, null, null, null], "rewards": [2, -3, 5, 11, 54], "path": ["0", "0", "1", "2", "3", "4", "6"], "rt": [16248, 87, 79, 81, 117], "actions": ["up", "up", "up", "right", "right"], "actionTimes": [17938, 18533, 19124, 19725, 20361], "queries": {"click": {"state": {"target": ["6", "9", "33", "21"], "time": [2797, 6886, 11364, 14734]}, "edge": {"target": [], "time": []}}, "mouseover": {"state": {"target": ["1", "4", "6", "7", "2", "10", "2", "7", "2", "8", "9", "8", "26", "33", "30", "22", "21", "19", "16"], "time": [2083, 2222, 2349, 3332, 3398, 3498, 5314, 5479, 5861, 5960, 6360, 7559, 10272, 10972, 12021, 12220, 12918, 15298, 15423]}, "edge": {"target": [], "time": []}}, "mouseout": {"state": {"target": ["11", "10", "1", "1", "4", "6", "6", "7", "2", "10", "2", "7", "2", "8", "9", "8", "26", "33", "30", "22", "21", "19", "16", "18", "13"], "time": [785, 850, 1083, 2099, 2316, 2916, 3264, 3364, 3464, 5296, 5361, 5845, 5894, 6077, 7508, 7626, 10306, 12019, 12036, 12585, 14854, 15315, 15447, 21607, 21640]}, "edge": {"target": [], "time": []}}}, "displayed_time": "20.88", "trialTime": 22550, "trial_type": "mouselab-mdp", "trial_index": 41, "time_elapsed": 1422857, "internal_node_id": "0.0-6.0-1.0-26.0"}}, {"uniqueid": "w38273212:a43690214", "current_trial": 42, "dateTime": 1693836157430, "trialdata": {"revealed_states": [], "clicked_states": ["21", "6", "9", "33", "27", "28"], "num_clicks_accrued": [0, 0, 0, 0, 0, 0, 0, 0, 0, 0, 0, 0, 0], "stateRewards": ["", -1, 3, 2, 9, 41, 4, -46, -12, -54, -87, -25, 2, 3, -1, 11, -77, 12, -33, -9, -32, 35, 72, 1, 3, -7, 4, 37, 65, -73, 6, 77, -43, 8], "withholdReward": false, "trial_id": "mdp_trial_28", "block": "test", "trialIndex": 31, "score": 53.1, "costs": -12.9, "simulationMode": [null, null, null, null, null], "rewards": [1, 3, -7, 4, 65], "path": ["0", "0", "23", "24", "25", "26", "28"], "rt": [25973, 77, 137, 147, 311], "actions": ["left", "left", "left", "up", "right"], "actionTimes": [27394, 28011, 28668, 29329, 30158], "queries": {"click": {"state": {"target": ["21", "6", "9", "33", "27", "28"], "time": [3955, 8202, 12053, 16297, 19719, 23610]}, "edge": {"target": [], "time": []}}, "mouseover": {"state": {"target": ["12", "13", "19", "21", "19", "14", "16", "6", "4", "9", "11", "27", "29", "33", "26", "27", "28", "24"], "time": [1915, 2215, 2614, 2680, 4427, 4461, 4893, 7673, 8755, 9172, 12983, 13418, 14481, 15513, 16877, 18492, 21089, 26964]}, "edge": {"target": [], "time": []}}, "mouseout": {"state": {"target": ["0", "12", "13", "19", "21", "19", "14", "16", "6", "4", "9", "11", "27", "29", "33", "26", "27", "28", "28", "24"], "time": [1849, 2165, 2280, 2646, 4378, 4444, 4495, 7624, 8326, 8789, 12799, 13283, 13466, 15380, 16745, 16977, 20772, 23727, 25116, 26998]}, "edge": {"target": [], "time": []}}}, "displayed_time": "30.68", "trialTime": 33493, "trial_type": "mouselab-mdp", "trial_index": 42, "time_elapsed": 1456705, "internal_node_id": "0.0-6.0-1.0-27.0"}}, {"uniqueid": "w38273212:a43690214", "current_trial": 43, "dateTime": 1693836184500, "trialdata": {"revealed_states": [], "clicked_states": ["21", "16", "11", "28", "33"], "num_clicks_accrued": [0, 0, 0, 0, 0, 0, 0, 0, 0, 0, 0, 0, 0], "stateRewards": ["", 1, -1, 1, -14, -10, 67, -28, -11, 72, 40, -65, -1, 1, 1, -2, 8, -55, 34, -10, 61, 33, -15, 2, -4, 7, 4, -75, 63, -21, -16, 61, 19, 21], "withholdReward": false, "trial_id": "mdp_trial_29", "block": "test", "trialIndex": 32, "score": 61.25, "costs": -10.75, "simulationMode": [null, null, null, null, null], "rewards": [2, -4, 7, 4, 63], "path": ["0", "0", "23", "24", "25", "26", "28"], "rt": [20697, 116, 56, 123, 209], "actions": ["left", "left", "left", "up", "right"], "actionTimes": [22468, 23105, 23677, 24328, 25045], "queries": {"click": {"state": {"target": ["21", "16", "11", "28", "33"], "time": [3264, 6832, 10943, 14831, 19142]}, "edge": {"target": [], "time": []}}, "mouseover": {"state": {"target": ["12", "22", "21", "19", "14", "15", "16", "4", "3", "11", "10", "28", "25", "33"], "time": [2417, 2465, 2847, 3746, 3781, 3830, 4652, 7790, 10172, 10620, 13266, 14449, 17348, 18099]}, "edge": {"target": [], "time": []}}, "mouseout": {"state": {"target": ["23", "12", "22", "21", "19", "14", "15", "16", "4", "3", "11", "10", "28", "25", "33"], "time": [867, 2433, 2482, 3696, 3763, 3796, 3863, 7657, 10104, 10238, 11553, 14383, 17145, 17560, 19265]}, "edge": {"target": [], "time": []}}}, "displayed_time": "25.55", "trialTime": 26727, "trial_type": "mouselab-mdp", "trial_index": 43, "time_elapsed": 1483776, "internal_node_id": "0.0-6.0-1.0-28.0"}}, {"uniqueid": "w38273212:a43690214", "current_trial": 44, "dateTime": 1693836205036, "trialdata": {"revealed_states": [], "clicked_states": ["21", "33", "28"], "num_clicks_accrued": [0, 0, 0, 0, 0, 0, 0, 0, 0, 0, 0, 0, 0], "stateRewards": ["", -2, 3, 3, -14, 62, 36, 49, 16, 11, 17, -84, 2, -1, 6, 2, -82, -73, 49, -6, -87, 48, 50, -1, -2, -1, -16, -11, 37, -44, 4, 55, 73, -10], "withholdReward": false, "trial_id": "mdp_trial_30", "block": "test", "trialIndex": 33, "score": 42.55, "costs": -6.449999999999999, "simulationMode": [null, null, null, null, null], "rewards": [2, -1, 6, -6, 48], "path": ["0", "0", "12", "13", "14", "19", "21"], "rt": [14232, 65, 103, 71, 179], "actions": ["right", "right", "right", "down", "down"], "actionTimes": [16302, 16878, 17515, 18098, 18790], "queries": {"click": {"state": {"target": ["21", "33", "28"], "time": [4606, 8327, 12222]}, "edge": {"target": [], "time": []}}, "mouseover": {"state": {"target": ["12", "22", "19", "21", "32", "32", "33", "25", "28", "8", "9", "5"], "time": [3928, 3978, 4011, 4277, 5227, 5727, 7190, 10319, 10602, 13099, 13149, 15996]}, "edge": {"target": [], "time": []}}, "mouseout": {"state": {"target": ["33", "25", "24", "23", "0", "12", "22", "19", "21", "32", "32", "33", "25", "28", "8", "9"], "time": [550, 598, 649, 715, 3895, 3944, 3994, 4028, 5143, 5260, 6058, 10086, 10374, 12967, 13117, 15796]}, "edge": {"target": [], "time": []}}}, "displayed_time": "19.31", "trialTime": 20183, "trial_type": "mouselab-mdp", "trial_index": 44, "time_elapsed": 1504312, "internal_node_id": "0.0-6.0-1.0-29.0"}}, {"uniqueid": "w38273212:a43690214", "current_trial": 45, "dateTime": 1693836222369, "trialdata": {"revealed_states": [], "clicked_states": ["21"], "num_clicks_accrued": [0, 0, 0, 0, 0, 0, 0, 0, 0, 0, 0, 0, 0], "stateRewards": ["", -1, -4, -6, -15, 21, -67, -63, 9, 51, 69, -14, -1, 3, 8, -8, 39, 72, 63, 15, 19, 47, 15, 1, 4, 5, 16, -18, 34, 35, -14, -80, 40, 1], "withholdReward": false, "trial_id": "mdp_trial_31", "block": "test", "trialIndex": 34, "score": 69.85, "costs": -2.15, "simulationMode": [null, null, null, null, null], "rewards": [-1, 3, 8, 15, 47], "path": ["0", "0", "12", "13", "14", "19", "21"], "rt": [8369, 62, 131, 64, 112], "actions": ["right", "right", "right", "down", "down"], "actionTimes": [10067, 10638, 11290, 11871, 12544], "queries": {"click": {"state": {"target": ["21"], "time": [2981]}, "edge": {"target": [], "time": []}}, "mouseover": {"state": {"target": ["12", "22", "21", "21", "19", "17", "16", "6", "5", "4", "18"], "time": [1953, 2072, 2187, 2602, 3384, 3633, 6829, 8393, 8660, 9659, 9726]}, "edge": {"target": [], "time": []}}, "mouseout": {"state": {"target": ["5", "4", "2", "1", "12", "22", "21", "21", "19", "17", "16", "6", "5", "4", "18"], "time": [554, 787, 838, 904, 1986, 2120, 2320, 3335, 3404, 6796, 8346, 8444, 9627, 9675, 9742]}, "edge": {"target": [], "time": []}}}, "displayed_time": "15.70", "trialTime": 16999, "trial_type": "mouselab-mdp", "trial_index": 45, "time_elapsed": 1521646, "internal_node_id": "0.0-6.0-1.0-30.0"}}, {"uniqueid": "w38273212:a43690214", "current_trial": 46, "dateTime": 1693836239134, "trialdata": {"revealed_states": [], "clicked_states": ["32"], "num_clicks_accrued": [0, 0, 0, 0, 0, 0, 0, 0, 0, 0, 0, 0, 0], "stateRewards": ["", -1, 4, -8, 12, 14, 69, -8, 5, -72, -14, 56, -1, -1, -1, 9, 67, 19, 11, -9, -88, -58, 3, 2, -4, -8, 4, 62, 77, -74, 5, -31, 65, 88], "withholdReward": false, "trial_id": "mdp_trial_32", "block": "test", "trialIndex": 35, "score": 57.85, "costs": -2.15, "simulationMode": [null, null, null, null, null], "rewards": [2, -4, -8, 5, 65], "path": ["0", "0", "23", "24", "25", "30", "32"], "rt": [5928, 184, 132, 125, 245], "actions": ["left", "left", "left", "down", "down"], "actionTimes": [7571, 8269, 8916, 9557, 10310], "queries": {"click": {"state": {"target": ["32"], "time": [3578]}, "edge": {"target": [], "time": []}}, "mouseover": {"state": {"target": ["12", "13", "14", "21", "32", "28", "10"], "time": [1959, 2024, 2091, 2457, 3223, 4138, 4687]}, "edge": {"target": [], "time": []}}, "mouseout": {"state": {"target": ["12", "12", "13", "14", "21", "32", "28"], "time": [978, 2007, 2057, 2124, 2839, 4004, 4204]}, "edge": {"target": [], "time": []}}}, "displayed_time": "15.64", "trialTime": 16441, "trial_type": "mouselab-mdp", "trial_index": 46, "time_elapsed": 1538410, "internal_node_id": "0.0-6.0-1.0-31.0"}}, {"uniqueid": "w38273212:a43690214", "current_trial": 47, "dateTime": 1693836257754, "trialdata": {"revealed_states": [], "clicked_states": ["16", "10"], "num_clicks_accrued": [0, 0, 0, 0, 0, 0, 0, 0, 0, 0, 0, 0, 0], "stateRewards": ["", 1, -4, -6, -1, -21, 17, -72, 10, 77, 67, -46, -1, 4, -2, 14, -66, -49, -45, -15, -52, 23, -67, 2, -2, -2, 15, -3, 45, -64, 5, -44, 83, 61], "withholdReward": false, "trial_id": "mdp_trial_33", "block": "test", "trialIndex": 36, "score": 63.7, "costs": -4.3, "simulationMode": [null, null, null, null, null], "rewards": [1, -4, -6, 10, 67], "path": ["0", "0", "1", "2", "3", "8", "10"], "rt": [9929, 79, 85, 77, 60], "actions": ["up", "up", "up", "left", "down"], "actionTimes": [13144, 13739, 14343, 14936, 15517], "queries": {"click": {"state": {"target": ["16", "10"], "time": [5224, 8723]}, "edge": {"target": [], "time": []}}, "mouseover": {"state": {"target": ["12", "15", "16", "7", "2", "10", "27"], "time": [3620, 3870, 4269, 5734, 5754, 6101, 12226]}, "edge": {"target": [], "time": []}}, "mouseout": {"state": {"target": ["10", "0", "12", "15", "16", "7", "2", "10", "10", "27", "23"], "time": [1159, 3573, 3670, 4253, 5700, 5751, 5767, 8844, 9628, 17336, 17518]}, "edge": {"target": [], "time": []}}}, "displayed_time": "17.23", "trialTime": 18267, "trial_type": "mouselab-mdp", "trial_index": 47, "time_elapsed": 1557030, "internal_node_id": "0.0-6.0-1.0-32.0"}}, {"uniqueid": "w38273212:a43690214", "current_trial": 48, "dateTime": 1693836274742, "trialdata": {"revealed_states": [], "clicked_states": ["21"], "num_clicks_accrued": [0, 0, 0, 0, 0, 0, 0, 0, 0, 0, 0, 0, 0], "stateRewards": ["", 2, 3, 8, 11, 25, -80, 6, -4, -56, 84, -23, -2, -4, -3, 4, -51, -9, -61, -15, -64, 67, -35, 1, -1, -7, -6, 83, 59, -15, 12, -79, 56, 41], "withholdReward": false, "trial_id": "mdp_trial_34", "block": "test", "trialIndex": 37, "score": 40.85, "costs": -2.15, "simulationMode": [null, null, null, null, null], "rewards": [-2, -4, -3, -15, 67], "path": ["0", "0", "12", "13", "14", "19", "21"], "rt": [5254, 133, 187, 103, 159], "actions": ["right", "right", "right", "down", "down"], "actionTimes": [6702, 7355, 8059, 8674, 9347], "queries": {"click": {"state": {"target": ["21"], "time": [2669]}, "edge": {"target": [], "time": []}}, "mouseover": {"state": {"target": ["12", "21", "21", "13", "18"], "time": [1961, 2061, 2362, 3346, 3609]}, "edge": {"target": [], "time": []}}, "mouseout": {"state": {"target": ["0", "12", "21", "21", "13"], "time": [1944, 1978, 2095, 3245, 3376]}, "edge": {"target": [], "time": []}}}, "displayed_time": "15.45", "trialTime": 16651, "trial_type": "mouselab-mdp", "trial_index": 48, "time_elapsed": 1574018, "internal_node_id": "0.0-6.0-1.0-33.0"}}, {"uniqueid": "w38273212:a43690214", "current_trial": 49, "dateTime": 1693836313389, "trialdata": {"revealed_states": [], "clicked_states": ["33", "28", "6", "7", "21", "17", "18", "11", "9"], "num_clicks_accrued": [0, 0, 0, 0, 0, 0, 0, 0, 0, 0, 0, 0, 0], "stateRewards": ["", -1, -3, -7, -7, -76, 30, -49, 11, -70, 56, 2, 1, 4, -3, -14, -59, -83, -25, -9, -21, -67, -73, -2, 4, 4, -9, -11, -32, 60, 9, -87, 22, -64], "withholdReward": false, "trial_id": "mdp_trial_35", "block": "test", "trialIndex": 38, "score": -7.349999999999994, "costs": -19.349999999999998, "simulationMode": [null, null, null, null, null], "rewards": [-1, -3, -7, -7, 30], "path": ["0", "0", "1", "2", "3", "4", "6"], "rt": [32724, 17, 81, 80, 89], "actions": ["up", "up", "up", "right", "right"], "actionTimes": [34447, 34984, 35580, 36179, 36787], "queries": {"click": {"state": {"target": ["33", "28", "6", "7", "21", "17", "18", "11", "9"], "time": [3928, 7340, 10697, 13954, 17413, 20838, 24400, 27784, 31242]}, "edge": {"target": [], "time": []}}, "mouseover": {"state": {"target": ["23", "24", "25", "30", "33", "25", "24", "28", "10", "2", "4", "6", "2", "2", "7", "2", "13", "22", "21", "17", "15", "18", "2", "10", "11", "9"], "time": [2479, 2526, 2593, 2860, 3175, 4557, 4640, 4957, 8085, 8104, 8136, 8186, 11747, 12130, 12480, 14993, 15609, 15643, 16359, 19670, 22682, 23300, 26078, 26144, 26362, 30504]}, "edge": {"target": [], "time": []}}, "mouseout": {"state": {"target": ["18", "0", "23", "24", "25", "30", "33", "25", "24", "28", "10", "2", "4", "6", "2", "2", "7", "2", "13", "22", "21", "17", "15", "18", "2", "10", "11"], "time": [778, 2476, 2510, 2560, 2829, 2893, 4051, 4590, 4656, 8052, 8102, 8120, 8155, 11681, 11965, 12180, 14843, 15126, 15628, 15658, 17533, 20949, 22716, 25979, 26127, 26161, 30222]}, "edge": {"target": [], "time": []}}}, "displayed_time": "37.30", "trialTime": 38272, "trial_type": "mouselab-mdp", "trial_index": 49, "time_elapsed": 1612665, "internal_node_id": "0.0-6.0-1.0-34.0"}}, {"uniqueid": "w38273212:a43690214", "current_trial": 50, "dateTime": 1693836334752, "trialdata": {"revealed_states": [], "clicked_states": ["21", "17", "10", "33"], "num_clicks_accrued": [0, 0, 0, 0, 0, 0, 0, 0, 0, 0, 0, 0, 0], "stateRewards": ["", 1, -1, 4, 5, -32, 18, 20, 6, -88, -74, 9, -2, 1, -2, -14, 34, -77, -38, -1, 80, -36, 73, 2, 3, -8, 10, -48, -73, -71, -11, -22, 20, 54], "withholdReward": false, "trial_id": "mdp_trial_36", "block": "test", "trialIndex": 39, "score": 31.4, "costs": -8.6, "simulationMode": [null, null, null, null, null], "rewards": [2, 3, -8, -11, 54], "path": ["0", "0", "23", "24", "25", "30", "33"], "rt": [15026, 94, 77, 133, 100], "actions": ["left", "left", "left", "down", "left"], "actionTimes": [16860, 17471, 18053, 18694, 19310], "queries": {"click": {"state": {"target": ["21", "17", "10", "33"], "time": [2854, 6234, 9630, 13179]}, "edge": {"target": [], "time": []}}, "mouseover": {"state": {"target": ["19", "21", "19", "17", "15", "7", "2", "10", "28", "24", "31", "30", "33", "32"], "time": [2298, 2378, 3493, 3927, 6773, 6822, 7208, 7389, 11258, 11304, 11383, 11833, 12717, 15727]}, "edge": {"target": [], "time": []}}, "mouseout": {"state": {"target": ["9", "8", "1", "0", "19", "21", "19", "17", "15", "7", "2", "10", "28", "24", "31", "30", "33", "33"], "time": [565, 630, 1130, 2215, 2329, 3477, 3511, 6764, 6792, 6872, 7255, 11169, 11276, 11341, 11750, 12099, 13305, 15178]}, "edge": {"target": [], "time": []}}}, "displayed_time": "19.82", "trialTime": 20971, "trial_type": "mouselab-mdp", "trial_index": 50, "time_elapsed": 1634028, "internal_node_id": "0.0-6.0-1.0-35.0"}}], "questiondata": {"params": {"CODE": "C6DMOQA6", "MIN_TIME": 14, "inspectCost": 1, "startTime": "Mon Sep 04 2023 15:38:14 GMT+0200 (Central European Summer Time)", "bonusRate": 0.002, "variance": "1_2_4_8_44", "branching": "31123"}}, "eventdata": [{"eventtype": "initialized", "value": null, "timestamp": 1693834694326, "interval": 0}, {"eventtype": "window_resize", "value": [1010, 682], "timestamp": 1693834694326, "interval": 0}, {"eventtype": "window_resize", "value": [1010, 682], "timestamp": 1693834694658, "interval": 332}, {"eventtype": "focus", "value": "off", "timestamp": 1693834708435, "interval": 13777}, {"eventtype": "focus", "value": "on", "timestamp": 1693834711253, "interval": 2818}, {"eventtype": "window_resize", "value": [1536, 864], "timestamp": 1693834712826, "interval": 1573}, {"eventtype": "focus", "value": "off", "timestamp": 1693835148489, "interval": 435663}, {"eventtype": "window_resize", "value": [1010, 682], "timestamp": 1693835148704, "interval": 215}, {"eventtype": "focus", "value": "on", "timestamp": 1693835151744, "interval": 3040}, {"eventtype": "window_resize", "value": [1536, 864], "timestamp": 1693835152130, "interval": 386}], "useragent": "Mozilla/5.0 (Windows NT 10.0; Win64; x64) AppleWebKit/537.36 (KHTML, like Gecko) Chrome/115.0.0.0 Safari/537.36 OPR/101.0.0.0", "mode": "live", "id": "w38273212:a43690214", "status": "user data saved", "Beginhit": "2023-09-04 13:38:04.09678", "Beginexp": "2023-09-04 13:38:34.362383", "Endhit": null, "psiturkStatus": 2, "browser": "<redacted>", "platform": "windows", "language": "en-GB", "excludeReason": "dataincomplete"}