{"condition": 1, "counterbalance": 0, "assignmentId": "a19676734", "workerId": "w54185835", "hitId": "h27297732", "currenttrial": 56, "bonus": 0, "data": [{"uniqueid": "w54185835:a19676734", "current_trial": 0, "dateTime": 1693564750872, "trialdata": {"success": true, "trial_type": "fullscreen", "trial_index": 0, "time_elapsed": 7969, "internal_node_id": "0.0-0.0"}}, {"uniqueid": "w54185835:a19676734", "current_trial": 1, "dateTime": 1693564777192, "trialdata": {"view_history": [{"page_index": 0, "viewing_time": 26307}], "rt": 26307, "trial_id": "exp_instructions_misaligned", "trial_type": "instructions", "trial_index": 1, "time_elapsed": 34290, "internal_node_id": "0.0-1.0"}}, {"uniqueid": "w54185835:a19676734", "current_trial": 2, "dateTime": 1693565155817, "trialdata": {"view_history": [{"page_index": 0, "viewing_time": 120589}, {"page_index": 1, "viewing_time": 138684}, {"page_index": 2, "viewing_time": 49577}, {"page_index": 3, "viewing_time": 69772}], "rt": 378622, "trial_id": "mouselab_instructions_1_misaligned", "trial_type": "instructions", "trial_index": 2, "time_elapsed": 412915, "internal_node_id": "0.0-2.0-1.0"}}, {"uniqueid": "w54185835:a19676734", "current_trial": 3, "dateTime": 1693565264587, "trialdata": {"revealed_states": [], "clicked_states": ["23", "24", "25", "30", "32", "33", "31"], "num_clicks_accrued": [0, 0, 0, 0, 0, 0, 0, 0, 0, 0, 0, 0, 0], "stateRewards": ["", 10, 10, -10, 10, -10, -10, -10, -10, -10, 10, -10, 10, 10, -10, -10, 10, 10, -10, 10, 10, -10, 10, -10, -10, 10, -10, 10, -10, -10, 10, 10, 10, 10], "withholdReward": false, "trial_id": "practice_1", "block": "test", "trialIndex": 0, "score": 10, "costs": -3.5, "simulationMode": [null, null, null, null, null], "rewards": [10, 10, -10, 10, -10], "path": ["0", "0", "12", "13", "14", "19", "21"], "rt": [52155, 1881, 4975, 715, 482], "actions": ["right", "right", "right", "down", "down"], "actionTimes": [57094, 59486, 64979, 66203, 67186], "queries": {"click": {"state": {"target": ["23", "24", "25", "30", "32", "33", "31"], "time": [5266, 7290, 8829, 10102, 12066, 16991, 27353]}, "edge": {"target": [], "time": []}}, "mouseover": {"state": {"target": ["23", "24", "25", "30", "32", "30", "33", "30", "25", "30", "25", "30", "31", "30", "25", "24", "12", "13", "12", "0", "12", "12", "13", "12"], "time": [4961, 6559, 8305, 9617, 11649, 15429, 16523, 18116, 19283, 23566, 24663, 25951, 26801, 30179, 33940, 35340, 37096, 37130, 48063, 48416, 49746, 55000, 55200, 56575]}, "edge": {"target": [], "time": []}}, "mouseout": {"state": {"target": ["0", "23", "23", "1", "1", "23", "24", "25", "25", "30", "32", "30", "33", "30", "25", "30", "25", "30", "31", "30", "25", "24", "12", "13", "12", "0", "12", "12", "13", "12", "13", "13", "19", "19", "14", "19", "22", "19", "20", "19", "19", "19", "19", "22", "14", "15", "13", "12", "0", "0", "12", "13", "14", "14"], "time": [664, 849, 2023, 3766, 4039, 5375, 7393, 8957, 9517, 11316, 12191, 15562, 17106, 19189, 23494, 24611, 25643, 26750, 30128, 33472, 35223, 37046, 37120, 37139, 48179, 49695, 52933, 55073, 55473, 56590, 61633, 64383, 77467, 82159, 83323, 83590, 84423, 84491, 88667, 90066, 93842, 95794, 98148, 98951, 99006, 99174, 100090, 100173, 100316, 101890, 101921, 101966, 102144, 102616]}, "edge": {"target": [], "time": []}}}, "displayed_time": "67.69", "trialTime": 107622, "trial_type": "mouselab-mdp", "trial_index": 3, "time_elapsed": 521683, "internal_node_id": "0.0-2.0-2.0-0.0"}}, {"uniqueid": "w54185835:a19676734", "current_trial": 4, "dateTime": 1693565289028, "trialdata": {"revealed_states": [], "clicked_states": [], "num_clicks_accrued": [0, 0, 0, 0, 0, 0, 0, 0, 0, 0, 0, 0, 0], "stateRewards": ["", 10, -10, -10, -10, -10, 10, 10, 10, 10, 10, 10, 10, -10, -10, 10, -10, 10, 10, -10, 10, -10, 10, -10, -10, -10, 10, -10, -10, 10, -10, -10, 10, 10], "withholdReward": false, "trial_id": "practice_2", "block": "test", "trialIndex": 1, "score": -6.5, "costs": 0, "simulationMode": [null, null, null, null, null], "rewards": [10, -10, -10, -10, 10], "path": ["0", "0", "1", "2", "3", "4", "7"], "rt": [3098, 652, 2426, 866, 2870], "actions": ["up", "up", "up", "right", "down"], "actionTimes": [6373, 7544, 10483, 11874, 15262], "queries": {"click": {"state": {"target": [], "time": []}, "edge": {"target": [], "time": []}}, "mouseover": {"state": {"target": [], "time": []}, "edge": {"target": [], "time": []}}, "mouseout": {"state": {"target": ["12", "0", "0"], "time": [1669, 1869, 21299]}, "edge": {"target": [], "time": []}}}, "displayed_time": "15.77", "trialTime": 23984, "trial_type": "mouselab-mdp", "trial_index": 4, "time_elapsed": 546124, "internal_node_id": "0.0-2.0-2.0-1.0"}}, {"uniqueid": "w54185835:a19676734", "current_trial": 5, "dateTime": 1693565346880, "trialdata": {"view_history": [{"page_index": 0, "viewing_time": 43224}, {"page_index": 1, "viewing_time": 14615}], "rt": 57840, "trial_id": "mouselab_instructions_2_misaligned", "trial_type": "instructions", "trial_index": 5, "time_elapsed": 603978, "internal_node_id": "0.0-2.0-3.0"}}, {"uniqueid": "w54185835:a19676734", "current_trial": 6, "dateTime": 1693565407622, "trialdata": {"rt": 60729, "response": {"Q0": "The cost for clicking on nodes may vary between nodes.", "Q1": "The better I perform the higher my bonus will be.", "Q2": "No, the amount of cash at each node of the web may be different each time.", "Q3": "To get the highest total score.", "Q4": "Only before moving the spider.", "Q5": "3 seconds"}, "question_order": [0, 1, 2, 3, 4, 5], "correct": {"Q0": "The cost for clicking on nodes may vary between nodes.", "Q1": "The better I perform the higher my bonus will be.", "Q2": "No, the amount of cash at each node of the web may be different each time.", "Q3": "To get the highest total score.", "Q4": "Only before moving the spider.", "Q5": "3 seconds"}, "trial_id": "mouselab_quiz_misaligned", "trial_type": "survey-multi-choice", "trial_index": 6, "time_elapsed": 664719, "internal_node_id": "0.0-2.0-4.0"}}, {"uniqueid": "w54185835:a19676734", "current_trial": 7, "dateTime": 1693565416918, "trialdata": {"rt": 9278, "response": {"Q0": "No"}, "question_order": [0], "trial_id": "repeat_check", "trial_type": "survey-multi-choice", "trial_index": 7, "time_elapsed": 674015, "internal_node_id": "0.0-4.0-0.0"}}, {"uniqueid": "w54185835:a19676734", "current_trial": 8, "dateTime": 1693565436300, "trialdata": {"rt": 19366, "stimulus": "\n<h1> Get ready to start the game! </h1>\n\nThank you for reading the instructions. Get ready start with the 40 rounds of this game.\n<br><br>\nIf you need to take a break, feel free to take one after the end of a round, before continuing to the next one.\n<br><br>\nRemember, the more money the spider gets, the bigger your bonus will be!\n<br><br>\n<div style='text-align: center;'>Press <code>space</code> to begin.</div>\n\n<br><br>\n(If, at any point, the <code>space</code> key does not take you to the next page, click once on the text and try again.)", "response": " ", "trial_id": "mdp_ready", "trial_type": "html-keyboard-response", "trial_index": 8, "time_elapsed": 693398, "internal_node_id": "0.0-6.0-0.0"}}, {"uniqueid": "w54185835:a19676734", "current_trial": 9, "dateTime": 1693565457064, "trialdata": {"revealed_states": [], "clicked_states": [], "num_clicks_accrued": [0, 0, 0, 0, 0, 0, 0, 0, 0, 0, 0, 0, 0], "stateRewards": ["", -1, 1, 8, -3, -24, 11, -65, -6, -77, 48, 44, -2, 1, -2, -7, -55, -35, 33, 8, -28, 19, -53, -1, -1, -5, -5, -70, 10, 44, 8, -58, -70, 51], "withholdReward": false, "trial_id": "mdp_trial_1", "block": "test", "trialIndex": 2, "score": -82, "costs": 0, "simulationMode": [null, null, null, null, null], "rewards": [-1, -1, -5, -5, -70], "path": ["0", "0", "23", "24", "25", "26", "27"], "rt": [2779, 330, 695, 2285, 328], "actions": ["left", "left", "left", "up", "up"], "actionTimes": [5467, 6314, 7512, 10319, 11145], "queries": {"click": {"state": {"target": [], "time": []}, "edge": {"target": [], "time": []}}, "mouseover": {"state": {"target": ["23"], "time": [4443]}, "edge": {"target": [], "time": []}}, "mouseout": {"state": {"target": ["0", "23", "23", "28", "27", "26", "26", "28"], "time": [1820, 4713, 12941, 13080, 14297, 14464, 16021, 16088]}, "edge": {"target": [], "time": []}}}, "displayed_time": "16.69", "trialTime": 20314, "trial_type": "mouselab-mdp", "trial_index": 9, "time_elapsed": 714160, "internal_node_id": "0.0-6.0-1.0-0.0"}}, {"uniqueid": "w54185835:a19676734", "current_trial": 10, "dateTime": 1693565476024, "trialdata": {"revealed_states": [], "clicked_states": [], "num_clicks_accrued": [0, 0, 0, 0, 0, 0, 0, 0, 0, 0, 0, 0, 0], "stateRewards": ["", -2, -4, 4, -11, -63, -60, -7, 2, -14, 81, -43, -1, -1, -5, 7, 10, 69, 40, 8, -83, 52, 60, 1, 2, 5, -5, 16, 64, 14, -3, 29, 7, -51], "withholdReward": false, "trial_id": "mdp_trial_2", "block": "test", "trialIndex": 3, "score": 53, "costs": 0, "simulationMode": [null, null, null, null, null], "rewards": [-1, -1, -5, 8, 52], "path": ["0", "0", "12", "13", "14", "19", "21"], "rt": [2399, 630, 1227, 621, 468], "actions": ["right", "right", "right", "down", "down"], "actionTimes": [4611, 5751, 7479, 8606, 9570], "queries": {"click": {"state": {"target": [], "time": []}, "edge": {"target": [], "time": []}}, "mouseover": {"state": {"target": [], "time": []}, "edge": {"target": [], "time": []}}, "mouseout": {"state": {"target": ["0"], "time": [11849]}, "edge": {"target": [], "time": []}}}, "displayed_time": "16.22", "trialTime": 18474, "trial_type": "mouselab-mdp", "trial_index": 10, "time_elapsed": 733120, "internal_node_id": "0.0-6.0-1.0-1.0"}}, {"uniqueid": "w54185835:a19676734", "current_trial": 11, "dateTime": 1693565496033, "trialdata": {"revealed_states": [], "clicked_states": [], "num_clicks_accrued": [0, 0, 0, 0, 0, 0, 0, 0, 0, 0, 0, 0, 0], "stateRewards": ["", -2, 1, -8, 12, -65, -79, 16, 7, -80, -17, -45, -2, 2, -5, -2, -85, 23, -4, -7, 48, 27, -76, 2, 3, 5, 2, 43, 71, -13, 7, -49, 59, -31], "withholdReward": false, "trial_id": "mdp_trial_3", "block": "test", "trialIndex": 4, "score": -32, "costs": 0, "simulationMode": [null, null, null, null, null], "rewards": [2, 3, 5, 7, -49], "path": ["0", "0", "23", "24", "25", "30", "31"], "rt": [770, 370, 326, 293, 889], "actions": ["left", "left", "left", "down", "right"], "actionTimes": [4551, 5424, 6263, 7064, 8460], "queries": {"click": {"state": {"target": [], "time": []}, "edge": {"target": [], "time": []}}, "mouseover": {"state": {"target": [], "time": []}, "edge": {"target": [], "time": []}}, "mouseout": {"state": {"target": ["0", "0", "31"], "time": [3381, 10033, 11994]}, "edge": {"target": [], "time": []}}}, "displayed_time": "17.79", "trialTime": 19490, "trial_type": "mouselab-mdp", "trial_index": 11, "time_elapsed": 753131, "internal_node_id": "0.0-6.0-1.0-2.0"}}, {"uniqueid": "w54185835:a19676734", "current_trial": 12, "dateTime": 1693565514740, "trialdata": {"revealed_states": [], "clicked_states": [], "num_clicks_accrued": [0, 0, 0, 0, 0, 0, 0, 0, 0, 0, 0, 0, 0], "stateRewards": ["", -2, 1, -3, -16, -39, -52, 30, -7, -41, -59, 11, 2, 1, 8, 2, -11, -26, -42, -13, 87, -59, -48, -1, -1, -1, 16, -79, 31, 50, -1, -84, 34, -82], "withholdReward": false, "trial_id": "mdp_trial_4", "block": "test", "trialIndex": 5, "score": -52, "costs": 0, "simulationMode": [null, null, null, null, null], "rewards": [-2, 1, -3, -7, -41], "path": ["0", "0", "1", "2", "3", "8", "9"], "rt": [1407, 256, 474, 611, 485], "actions": ["up", "up", "up", "left", "up"], "actionTimes": [3924, 4684, 5670, 6793, 7780], "queries": {"click": {"state": {"target": [], "time": []}, "edge": {"target": [], "time": []}}, "mouseover": {"state": {"target": [], "time": []}, "edge": {"target": [], "time": []}}, "mouseout": {"state": {"target": ["0"], "time": [9074]}, "edge": {"target": [], "time": []}}}, "displayed_time": "16.52", "trialTime": 18167, "trial_type": "mouselab-mdp", "trial_index": 12, "time_elapsed": 771836, "internal_node_id": "0.0-6.0-1.0-3.0"}}, {"uniqueid": "w54185835:a19676734", "current_trial": 13, "dateTime": 1693565532938, "trialdata": {"revealed_states": [], "clicked_states": [], "num_clicks_accrued": [0, 0, 0, 0, 0, 0, 0, 0, 0, 0, 0, 0, 0], "stateRewards": ["", -1, 2, -2, 5, 80, -61, -27, 12, 44, -26, -75, -2, -4, 1, -16, 42, -49, -50, 4, -44, 2, 80, -2, -2, 5, -2, 59, 10, 24, 7, -48, -86, -44], "withholdReward": false, "trial_id": "mdp_trial_5", "block": "test", "trialIndex": 6, "score": 23, "costs": 0, "simulationMode": [null, null, null, null, null], "rewards": [-2, -2, 5, -2, 24], "path": ["0", "0", "23", "24", "25", "26", "29"], "rt": [2928, 741, 320, 397, 1086], "actions": ["left", "left", "left", "up", "left"], "actionTimes": [4857, 6094, 6940, 7853, 9443], "queries": {"click": {"state": {"target": [], "time": []}, "edge": {"target": [], "time": []}}, "mouseover": {"state": {"target": ["0", "0"], "time": [2799, 3248]}, "edge": {"target": [], "time": []}}, "mouseout": {"state": {"target": ["0", "0", "0", "0", "0", "23"], "time": [1189, 1513, 2950, 3448, 11549, 11849]}, "edge": {"target": [], "time": []}}}, "displayed_time": "15.93", "trialTime": 17623, "trial_type": "mouselab-mdp", "trial_index": 13, "time_elapsed": 790034, "internal_node_id": "0.0-6.0-1.0-4.0"}}, {"uniqueid": "w54185835:a19676734", "current_trial": 14, "dateTime": 1693565551312, "trialdata": {"revealed_states": [], "clicked_states": [], "num_clicks_accrued": [0, 0, 0, 0, 0, 0, 0, 0, 0, 0, 0, 0, 0], "stateRewards": ["", -1, 1, -1, 2, 19, 85, -18, 2, -3, -26, 36, 2, 4, 7, -9, -18, 70, 72, -5, 35, -20, -28, 1, -2, -4, -3, -59, -11, -63, -2, -72, 59, -69], "withholdReward": false, "trial_id": "mdp_trial_6", "block": "test", "trialIndex": 7, "score": -76, "costs": 0, "simulationMode": [null, null, null, null, null], "rewards": [1, -2, -4, -2, -69], "path": ["0", "0", "23", "24", "25", "30", "33"], "rt": [3448, 661, 372, 843, 646], "actions": ["left", "left", "left", "down", "left"], "actionTimes": [5490, 6657, 7551, 8890, 10058], "queries": {"click": {"state": {"target": [], "time": []}, "edge": {"target": [], "time": []}}, "mouseover": {"state": {"target": ["0"], "time": [2626]}, "edge": {"target": [], "time": []}}, "mouseout": {"state": {"target": ["0"], "time": [3466]}, "edge": {"target": [], "time": []}}}, "displayed_time": "16.05", "trialTime": 17824, "trial_type": "mouselab-mdp", "trial_index": 14, "time_elapsed": 808408, "internal_node_id": "0.0-6.0-1.0-5.0"}}, {"uniqueid": "w54185835:a19676734", "current_trial": 15, "dateTime": 1693565569822, "trialdata": {"revealed_states": [], "clicked_states": [], "num_clicks_accrued": [0, 0, 0, 0, 0, 0, 0, 0, 0, 0, 0, 0, 0], "stateRewards": ["", 1, 2, 3, 16, 63, -25, 16, -4, -14, 82, -66, -1, -3, -3, -11, -14, 19, 46, 3, -34, -82, 66, -2, -3, 4, -5, -63, 77, -37, -1, -45, -41, 84], "withholdReward": false, "trial_id": "mdp_trial_7", "block": "test", "trialIndex": 8, "score": 38, "costs": 0, "simulationMode": [null, null, null, null, null], "rewards": [1, 2, 3, 16, 16], "path": ["0", "0", "1", "2", "3", "4", "7"], "rt": [3384, 435, 302, 249, 806], "actions": ["up", "up", "up", "right", "down"], "actionTimes": [5895, 6826, 7627, 8373, 9680], "queries": {"click": {"state": {"target": [], "time": []}, "edge": {"target": [], "time": []}}, "mouseover": {"state": {"target": [], "time": []}, "edge": {"target": [], "time": []}}, "mouseout": {"state": {"target": ["0"], "time": [11420]}, "edge": {"target": [], "time": []}}}, "displayed_time": "16.51", "trialTime": 17911, "trial_type": "mouselab-mdp", "trial_index": 15, "time_elapsed": 826918, "internal_node_id": "0.0-6.0-1.0-6.0"}}, {"uniqueid": "w54185835:a19676734", "current_trial": 16, "dateTime": 1693565586938, "trialdata": {"revealed_states": [], "clicked_states": [], "num_clicks_accrued": [0, 0, 0, 0, 0, 0, 0, 0, 0, 0, 0, 0, 0], "stateRewards": ["", -1, -2, -8, 8, -27, -82, 19, -14, -62, 4, 1, -2, 2, 6, 10, 73, -51, -2, 2, 73, -48, 54, -1, 2, -4, 11, -25, 47, 86, 15, 33, 43, -42], "withholdReward": false, "trial_id": "mdp_trial_8", "block": "test", "trialIndex": 9, "score": -24, "costs": 0, "simulationMode": [null, null, null, null, null], "rewards": [-1, -2, -8, -14, 1], "path": ["0", "0", "1", "2", "3", "8", "11"], "rt": [3488, 430, 386, 369, 461], "actions": ["up", "up", "up", "left", "left"], "actionTimes": [4987, 5924, 6829, 7712, 8687], "queries": {"click": {"state": {"target": [], "time": []}, "edge": {"target": [], "time": []}}, "mouseover": {"state": {"target": ["0", "0"], "time": [2001, 3021]}, "edge": {"target": [], "time": []}}, "mouseout": {"state": {"target": ["0", "0"], "time": [1056, 2016]}, "edge": {"target": [], "time": []}}}, "displayed_time": "15.50", "trialTime": 16563, "trial_type": "mouselab-mdp", "trial_index": 16, "time_elapsed": 844034, "internal_node_id": "0.0-6.0-1.0-7.0"}}, {"uniqueid": "w54185835:a19676734", "current_trial": 17, "dateTime": 1693565604687, "trialdata": {"revealed_states": [], "clicked_states": [], "num_clicks_accrued": [0, 0, 0, 0, 0, 0, 0, 0, 0, 0, 0, 0, 0], "stateRewards": ["", -2, -4, -2, -13, -15, 87, -19, -6, -80, 30, 12, 1, 1, -8, 2, 55, 56, 15, 11, -68, -7, 55, -2, 3, -3, -3, 48, 62, 4, 1, -3, 69, -33], "withholdReward": false, "trial_id": "mdp_trial_9", "block": "test", "trialIndex": 10, "score": 60, "costs": 0, "simulationMode": [null, null, null, null, null], "rewards": [1, 1, -8, 11, 55], "path": ["0", "0", "12", "13", "14", "19", "22"], "rt": [1849, 421, 434, 711, 968], "actions": ["right", "right", "right", "down", "left"], "actionTimes": [3599, 4529, 5459, 6669, 8160], "queries": {"click": {"state": {"target": [], "time": []}, "edge": {"target": [], "time": []}}, "mouseover": {"state": {"target": ["0"], "time": [1971]}, "edge": {"target": [], "time": []}}, "mouseout": {"state": {"target": ["0", "0", "0"], "time": [623, 2720, 15887]}, "edge": {"target": [], "time": []}}}, "displayed_time": "15.76", "trialTime": 17193, "trial_type": "mouselab-mdp", "trial_index": 17, "time_elapsed": 861783, "internal_node_id": "0.0-6.0-1.0-8.0"}}, {"uniqueid": "w54185835:a19676734", "current_trial": 18, "dateTime": 1693565622524, "trialdata": {"revealed_states": [], "clicked_states": [], "num_clicks_accrued": [0, 0, 0, 0, 0, 0, 0, 0, 0, 0, 0, 0, 0], "stateRewards": ["", -2, -1, 3, -3, 71, -58, -21, 7, -10, -75, -37, 2, 4, -1, -12, -79, -29, -48, 3, -41, -10, -30, -1, -2, 1, -15, 13, 66, 22, -1, -42, -86, -55], "withholdReward": false, "trial_id": "mdp_trial_10", "block": "test", "trialIndex": 11, "score": -24, "costs": 0, "simulationMode": [null, null, null, null, null], "rewards": [-2, -1, 3, -3, -21], "path": ["0", "0", "1", "2", "3", "4", "7"], "rt": [1118, 395, 342, 316, 436], "actions": ["up", "up", "up", "right", "down"], "actionTimes": [3190, 4089, 4936, 5759, 6714], "queries": {"click": {"state": {"target": [], "time": []}, "edge": {"target": [], "time": []}}, "mouseover": {"state": {"target": [], "time": []}, "edge": {"target": [], "time": []}}, "mouseout": {"state": {"target": ["0"], "time": [8339]}, "edge": {"target": [], "time": []}}}, "displayed_time": "16.07", "trialTime": 17266, "trial_type": "mouselab-mdp", "trial_index": 18, "time_elapsed": 879620, "internal_node_id": "0.0-6.0-1.0-9.0"}}, {"uniqueid": "w54185835:a19676734", "current_trial": 19, "dateTime": 1693565642119, "trialdata": {"revealed_states": [], "clicked_states": [], "num_clicks_accrued": [0, 0, 0, 0, 0, 0, 0, 0, 0, 0, 0, 0, 0], "stateRewards": ["", 1, 1, -5, 8, -6, 45, 16, -6, -7, -22, -38, -1, -4, 8, -11, -16, 21, -45, -15, -59, -32, 42, -1, 3, 6, 11, -7, 34, -27, -8, 85, 43, -9], "withholdReward": false, "trial_id": "mdp_trial_11", "block": "test", "trialIndex": 12, "score": 85, "costs": 0, "simulationMode": [null, null, null, null, null], "rewards": [-1, 3, 6, -8, 85], "path": ["0", "0", "23", "24", "25", "30", "31"], "rt": [1597, 463, 460, 581, 639], "actions": ["left", "left", "left", "down", "right"], "actionTimes": [3301, 4284, 5263, 6353, 7509], "queries": {"click": {"state": {"target": [], "time": []}, "edge": {"target": [], "time": []}}, "mouseover": {"state": {"target": [], "time": []}, "edge": {"target": [], "time": []}}, "mouseout": {"state": {"target": ["0", "0", "0", "12"], "time": [2227, 8932, 17375, 17682]}, "edge": {"target": [], "time": []}}}, "displayed_time": "15.71", "trialTime": 18988, "trial_type": "mouselab-mdp", "trial_index": 19, "time_elapsed": 899215, "internal_node_id": "0.0-6.0-1.0-10.0"}}, {"uniqueid": "w54185835:a19676734", "current_trial": 20, "dateTime": 1693565660512, "trialdata": {"revealed_states": [], "clicked_states": [], "num_clicks_accrued": [0, 0, 0, 0, 0, 0, 0, 0, 0, 0, 0, 0, 0], "stateRewards": ["", -1, -4, -6, -15, 21, -67, -63, 9, 51, 69, -14, -1, 3, 8, -8, 39, 72, 63, 15, 19, 47, 15, 1, 4, 5, 16, -18, 34, 35, -14, -80, 40, 1], "withholdReward": false, "trial_id": "mdp_trial_12", "block": "test", "trialIndex": 13, "score": 67, "costs": 0, "simulationMode": [null, null, null, null, null], "rewards": [-1, -4, -6, 9, 69], "path": ["0", "0", "1", "2", "3", "8", "10"], "rt": [1545, 232, 390, 1844, 274], "actions": ["up", "up", "up", "left", "down"], "actionTimes": [3606, 4351, 5243, 7613, 8392], "queries": {"click": {"state": {"target": [], "time": []}, "edge": {"target": [], "time": []}}, "mouseover": {"state": {"target": [], "time": []}, "edge": {"target": [], "time": []}}, "mouseout": {"state": {"target": ["0", "1", "0"], "time": [736, 996, 10031]}, "edge": {"target": [], "time": []}}}, "displayed_time": "16.06", "trialTime": 17796, "trial_type": "mouselab-mdp", "trial_index": 20, "time_elapsed": 917608, "internal_node_id": "0.0-6.0-1.0-11.0"}}, {"uniqueid": "w54185835:a19676734", "current_trial": 21, "dateTime": 1693565677775, "trialdata": {"revealed_states": [], "clicked_states": [], "num_clicks_accrued": [0, 0, 0, 0, 0, 0, 0, 0, 0, 0, 0, 0, 0], "stateRewards": ["", 1, 1, -3, 2, 22, -25, -11, -5, 50, 49, 3, 1, -1, 8, 14, -85, -30, 57, -6, -39, -16, 59, -2, -1, 5, 5, 59, -16, 8, 4, 67, 56, -9], "withholdReward": false, "trial_id": "mdp_trial_13", "block": "test", "trialIndex": 14, "score": -24, "costs": 0, "simulationMode": [null, null, null, null, null], "rewards": [1, 1, -3, 2, -25], "path": ["0", "0", "1", "2", "3", "4", "6"], "rt": [2357, 140, 391, 157, 478], "actions": ["up", "up", "up", "right", "right"], "actionTimes": [3711, 4347, 5248, 5932, 6936], "queries": {"click": {"state": {"target": [], "time": []}, "edge": {"target": [], "time": []}}, "mouseover": {"state": {"target": [], "time": []}, "edge": {"target": [], "time": []}}, "mouseout": {"state": {"target": ["0", "0"], "time": [932, 8319]}, "edge": {"target": [], "time": []}}}, "displayed_time": "15.36", "trialTime": 16663, "trial_type": "mouselab-mdp", "trial_index": 21, "time_elapsed": 934871, "internal_node_id": "0.0-6.0-1.0-12.0"}}, {"uniqueid": "w54185835:a19676734", "current_trial": 22, "dateTime": 1693565695502, "trialdata": {"revealed_states": [], "clicked_states": [], "num_clicks_accrued": [0, 0, 0, 0, 0, 0, 0, 0, 0, 0, 0, 0, 0], "stateRewards": ["", -1, 2, 5, -6, 13, -64, -47, 8, -79, -80, -33, 1, 2, -2, -16, 56, -71, -10, 3, 29, 44, 85, -1, 4, 5, 4, -36, -56, 19, 8, 52, -13, -2], "withholdReward": false, "trial_id": "mdp_trial_14", "block": "test", "trialIndex": 15, "score": -47, "costs": 0, "simulationMode": [null, null, null, null, null], "rewards": [-1, 2, 5, -6, -47], "path": ["0", "0", "1", "2", "3", "4", "7"], "rt": [2570, 149, 728, 469, 206], "actions": ["up", "up", "up", "right", "down"], "actionTimes": [4078, 4727, 5955, 6929, 7635], "queries": {"click": {"state": {"target": [], "time": []}, "edge": {"target": [], "time": []}}, "mouseover": {"state": {"target": [], "time": []}, "edge": {"target": [], "time": []}}, "mouseout": {"state": {"target": ["0", "0"], "time": [1013, 9755]}, "edge": {"target": [], "time": []}}}, "displayed_time": "15.51", "trialTime": 17027, "trial_type": "mouselab-mdp", "trial_index": 22, "time_elapsed": 952598, "internal_node_id": "0.0-6.0-1.0-13.0"}}, {"uniqueid": "w54185835:a19676734", "current_trial": 23, "dateTime": 1693565713342, "trialdata": {"revealed_states": [], "clicked_states": [], "num_clicks_accrued": [0, 0, 0, 0, 0, 0, 0, 0, 0, 0, 0, 0, 0], "stateRewards": ["", 1, -2, -2, 10, -31, -77, 35, 9, -47, 8, 48, -2, 1, -4, -3, -26, -50, 43, -11, 76, -38, 17, 1, -1, 6, 10, 15, -9, 12, -8, 85, 11, -55], "withholdReward": false, "trial_id": "mdp_trial_15", "block": "test", "trialIndex": 16, "score": 28, "costs": 0, "simulationMode": [null, null, null, null, null], "rewards": [1, -1, 6, 10, 12], "path": ["0", "0", "23", "24", "25", "26", "29"], "rt": [2669, 739, 389, 539, 733], "actions": ["left", "left", "left", "up", "left"], "actionTimes": [4370, 5608, 6516, 7555, 8783], "queries": {"click": {"state": {"target": [], "time": []}, "edge": {"target": [], "time": []}}, "mouseover": {"state": {"target": [], "time": []}, "edge": {"target": [], "time": []}}, "mouseout": {"state": {"target": ["0", "0"], "time": [782, 10162]}, "edge": {"target": [], "time": []}}}, "displayed_time": "15.70", "trialTime": 17224, "trial_type": "mouselab-mdp", "trial_index": 23, "time_elapsed": 970438, "internal_node_id": "0.0-6.0-1.0-14.0"}}, {"uniqueid": "w54185835:a19676734", "current_trial": 24, "dateTime": 1693565731508, "trialdata": {"revealed_states": [], "clicked_states": [], "num_clicks_accrued": [0, 0, 0, 0, 0, 0, 0, 0, 0, 0, 0, 0, 0], "stateRewards": ["", 1, 2, -8, 9, 18, -83, -11, 6, -64, -48, 17, -2, -2, -5, -3, -24, -3, -86, -2, 48, -41, -22, -2, 4, 7, 8, 81, 13, -48, 10, 61, 19, 57], "withholdReward": false, "trial_id": "mdp_trial_16", "block": "test", "trialIndex": 17, "score": -36, "costs": 0, "simulationMode": [null, null, null, null, null], "rewards": [-2, -2, -5, -3, -24], "path": ["0", "0", "12", "13", "14", "15", "16"], "rt": [1431, 159, 449, 1101, 379], "actions": ["right", "right", "right", "up", "up"], "actionTimes": [3435, 4102, 5057, 6676, 7555], "queries": {"click": {"state": {"target": [], "time": []}, "edge": {"target": [], "time": []}}, "mouseover": {"state": {"target": [], "time": []}, "edge": {"target": [], "time": []}}, "mouseout": {"state": {"target": ["0", "0"], "time": [1580, 10037]}, "edge": {"target": [], "time": []}}}, "displayed_time": "16.01", "trialTime": 17498, "trial_type": "mouselab-mdp", "trial_index": 24, "time_elapsed": 988605, "internal_node_id": "0.0-6.0-1.0-15.0"}}, {"uniqueid": "w54185835:a19676734", "current_trial": 25, "dateTime": 1693565749109, "trialdata": {"revealed_states": [], "clicked_states": [], "num_clicks_accrued": [0, 0, 0, 0, 0, 0, 0, 0, 0, 0, 0, 0, 0], "stateRewards": ["", -2, -2, -3, -6, -15, -11, 41, -12, -63, -76, 2, -2, -3, 8, 9, -36, -2, -18, -16, -32, -85, -17, -2, 1, 5, -16, 82, 35, -88, -1, 80, -82, -20], "withholdReward": false, "trial_id": "mdp_trial_17", "block": "test", "trialIndex": 18, "score": 10, "costs": 0, "simulationMode": [null, null, null, null, null], "rewards": [-2, -3, 8, 9, -2], "path": ["0", "0", "12", "13", "14", "15", "17"], "rt": [1191, 449, 49, 1164, 194], "actions": ["right", "right", "right", "up", "right"], "actionTimes": [2477, 3454, 4004, 5684, 6381], "queries": {"click": {"state": {"target": [], "time": []}, "edge": {"target": [], "time": []}}, "mouseover": {"state": {"target": [], "time": []}, "edge": {"target": [], "time": []}}, "mouseout": {"state": {"target": ["0", "0"], "time": [841, 7883]}, "edge": {"target": [], "time": []}}}, "displayed_time": "15.29", "trialTime": 16978, "trial_type": "mouselab-mdp", "trial_index": 25, "time_elapsed": 1006206, "internal_node_id": "0.0-6.0-1.0-16.0"}}, {"uniqueid": "w54185835:a19676734", "current_trial": 26, "dateTime": 1693565767033, "trialdata": {"revealed_states": [], "clicked_states": [], "num_clicks_accrued": [0, 0, 0, 0, 0, 0, 0, 0, 0, 0, 0, 0, 0], "stateRewards": ["", 1, 4, 5, -5, 58, -80, 75, 6, 25, -39, 46, 2, -2, 4, 2, 59, 31, -22, -12, -61, 15, 72, 1, -2, -7, 8, 77, 76, -23, -7, 71, -15, -3], "withholdReward": false, "trial_id": "mdp_trial_18", "block": "test", "trialIndex": 19, "score": 64, "costs": 0, "simulationMode": [null, null, null, null, null], "rewards": [2, -2, 4, -12, 72], "path": ["0", "0", "12", "13", "14", "19", "22"], "rt": [2743, 833, 509, 290, 914], "actions": ["right", "right", "right", "down", "left"], "actionTimes": [4449, 5803, 6812, 7610, 9056], "queries": {"click": {"state": {"target": [], "time": []}, "edge": {"target": [], "time": []}}, "mouseover": {"state": {"target": [], "time": []}, "edge": {"target": [], "time": []}}, "mouseout": {"state": {"target": ["0", "0"], "time": [726, 10232]}, "edge": {"target": [], "time": []}}}, "displayed_time": "15.71", "trialTime": 17251, "trial_type": "mouselab-mdp", "trial_index": 26, "time_elapsed": 1024129, "internal_node_id": "0.0-6.0-1.0-17.0"}}, {"uniqueid": "w54185835:a19676734", "current_trial": 27, "dateTime": 1693565784896, "trialdata": {"revealed_states": [], "clicked_states": [], "num_clicks_accrued": [0, 0, 0, 0, 0, 0, 0, 0, 0, 0, 0, 0, 0], "stateRewards": ["", 1, 2, -5, 14, 54, -14, -25, 16, -5, -87, 78, -1, 1, 3, -3, 52, 53, 53, -10, 73, -69, -48, 2, 3, 1, 8, -62, -7, 85, 7, 82, 52, -28], "withholdReward": false, "trial_id": "mdp_trial_19", "block": "test", "trialIndex": 20, "score": -73, "costs": 0, "simulationMode": [null, null, null, null, null], "rewards": [1, 2, -5, 16, -87], "path": ["0", "0", "1", "2", "3", "8", "10"], "rt": [3158, 331, 377, 142, 344], "actions": ["up", "up", "up", "left", "down"], "actionTimes": [4857, 5703, 6583, 7247, 8099], "queries": {"click": {"state": {"target": [], "time": []}, "edge": {"target": [], "time": []}}, "mouseover": {"state": {"target": [], "time": []}, "edge": {"target": [], "time": []}}, "mouseout": {"state": {"target": ["0", "0"], "time": [1226, 12183]}, "edge": {"target": [], "time": []}}}, "displayed_time": "15.70", "trialTime": 17233, "trial_type": "mouselab-mdp", "trial_index": 27, "time_elapsed": 1041992, "internal_node_id": "0.0-6.0-1.0-18.0"}}, {"uniqueid": "w54185835:a19676734", "current_trial": 28, "dateTime": 1693565803183, "trialdata": {"revealed_states": [], "clicked_states": [], "num_clicks_accrued": [0, 0, 0, 0, 0, 0, 0, 0, 0, 0, 0, 0, 0], "stateRewards": ["", 2, 4, 4, -8, -36, -33, 38, 16, -51, 57, 57, 1, 3, 4, -6, 45, 68, 87, 1, 63, 24, -55, -2, 2, -6, -13, -63, -50, 8, 2, 80, 6, 60], "withholdReward": false, "trial_id": "mdp_trial_20", "block": "test", "trialIndex": 21, "score": -25, "costs": 0, "simulationMode": [null, null, null, null, null], "rewards": [2, 4, 4, 16, -51], "path": ["0", "0", "1", "2", "3", "8", "9"], "rt": [1698, 374, 524, 256, 1212], "actions": ["up", "up", "up", "left", "up"], "actionTimes": [3480, 4359, 5392, 6176, 7915], "queries": {"click": {"state": {"target": [], "time": []}, "edge": {"target": [], "time": []}}, "mouseover": {"state": {"target": [], "time": []}, "edge": {"target": [], "time": []}}, "mouseout": {"state": {"target": ["0", "0"], "time": [1232, 9297]}, "edge": {"target": [], "time": []}}}, "displayed_time": "15.79", "trialTime": 17666, "trial_type": "mouselab-mdp", "trial_index": 28, "time_elapsed": 1060279, "internal_node_id": "0.0-6.0-1.0-19.0"}}, {"uniqueid": "w54185835:a19676734", "current_trial": 29, "dateTime": 1693565821418, "trialdata": {"revealed_states": [], "clicked_states": ["1"], "num_clicks_accrued": [0, 0, 0, 0, 0, 0, 0, 0, 0, 0, 0, 0, 0], "stateRewards": ["", 2, 3, -1, 6, 44, -4, -59, -14, -3, 64, 16, 1, -3, 3, 6, 3, 49, 19, 3, -49, -14, -86, 1, 2, -3, -8, -33, 14, 32, -13, -77, -47, -67], "withholdReward": false, "trial_id": "mdp_trial_21", "block": "test", "trialIndex": 22, "score": -48.75, "costs": 0.25, "simulationMode": [null, null, null, null, null], "rewards": [2, 3, -1, 6, -59], "path": ["0", "0", "1", "2", "3", "4", "7"], "rt": [3612, 594, 436, 106, 626], "actions": ["up", "up", "up", "right", "down"], "actionTimes": [5733, 6828, 7787, 8406, 9543], "queries": {"click": {"state": {"target": ["1"], "time": [3770]}, "edge": {"target": [], "time": []}}, "mouseover": {"state": {"target": ["1"], "time": [3159]}, "edge": {"target": [], "time": []}}, "mouseout": {"state": {"target": ["0", "1", "0"], "time": [615, 11646, 12875]}, "edge": {"target": [], "time": []}}}, "displayed_time": "16.12", "trialTime": 17517, "trial_type": "mouselab-mdp", "trial_index": 29, "time_elapsed": 1078515, "internal_node_id": "0.0-6.0-1.0-20.0"}}, {"uniqueid": "w54185835:a19676734", "current_trial": 30, "dateTime": 1693565839844, "trialdata": {"revealed_states": [], "clicked_states": ["28"], "num_clicks_accrued": [0, 0, 0, 0, 0, 0, 0, 0, 0, 0, 0, 0, 0], "stateRewards": ["", 2, -1, 8, -2, -16, 69, -39, -7, -13, -27, -86, 2, -2, 2, 13, -34, -16, -20, -5, 19, 81, 32, -2, -1, 2, -14, 20, 80, 58, 4, 70, 12, 73], "withholdReward": false, "trial_id": "mdp_trial_22", "block": "test", "trialIndex": 23, "score": 75.85, "costs": -2.15, "simulationMode": [null, null, null, null, null, null], "rewards": [2, -2, 2, -5, 81], "path": ["0", "0", "12", "13", "14", "19", "21"], "rt": [3376, 917, 256, 161, 278, 5], "actions": ["right", "right", "right", "right", "down", "down"], "actionTimes": [5285, 6209, 6973, 7646, 8430, 8956], "queries": {"click": {"state": {"target": ["28"], "time": [3637]}, "edge": {"target": [], "time": []}}, "mouseover": {"state": {"target": ["23", "24", "28", "23"], "time": [2741, 2829, 3087, 4572]}, "edge": {"target": [], "time": []}}, "mouseout": {"state": {"target": ["0", "23", "24", "28", "23"], "time": [2724, 2780, 2996, 4197, 11880]}, "edge": {"target": [], "time": []}}}, "displayed_time": "15.91", "trialTime": 17564, "trial_type": "mouselab-mdp", "trial_index": 30, "time_elapsed": 1096942, "internal_node_id": "0.0-6.0-1.0-21.0"}}, {"uniqueid": "w54185835:a19676734", "current_trial": 31, "dateTime": 1693565859454, "trialdata": {"revealed_states": [], "clicked_states": ["23"], "num_clicks_accrued": [0, 0, 0, 0, 0, 0, 0, 0, 0, 0, 0, 0, 0], "stateRewards": ["", 1, 1, -7, -9, -44, 24, -83, -15, 44, -24, 72, -2, -3, 4, -5, 57, 55, 29, -11, 22, 12, -25, -1, 2, 7, 12, 33, -8, 47, -4, 8, 50, -4], "withholdReward": false, "trial_id": "mdp_trial_23", "block": "test", "trialIndex": 24, "score": 0.25, "costs": 0.25, "simulationMode": [null, null, null, null, null], "rewards": [-2, -3, 4, -11, 12], "path": ["0", "0", "12", "13", "14", "19", "21"], "rt": [4441, 14, 62, 322, 23], "actions": ["right", "right", "right", "down", "down"], "actionTimes": [6470, 7004, 7602, 8429, 8964], "queries": {"click": {"state": {"target": ["23"], "time": [4366]}, "edge": {"target": [], "time": []}}, "mouseover": {"state": {"target": ["12", "13", "12", "23"], "time": [2629, 2669, 3235, 3711]}, "edge": {"target": [], "time": []}}, "mouseout": {"state": {"target": ["23", "12", "13", "12", "23"], "time": [859, 2655, 2719, 3336, 4464]}, "edge": {"target": [], "time": []}}}, "displayed_time": "16.03", "trialTime": 18943, "trial_type": "mouselab-mdp", "trial_index": 31, "time_elapsed": 1116551, "internal_node_id": "0.0-6.0-1.0-22.0"}}, {"uniqueid": "w54185835:a19676734", "current_trial": 32, "dateTime": 1693565877255, "trialdata": {"revealed_states": [], "clicked_states": ["2"], "num_clicks_accrued": [0, 0, 0, 0, 0, 0, 0, 0, 0, 0, 0, 0, 0], "stateRewards": ["", -1, 2, -6, 6, 43, 78, 78, -2, 55, -29, -17, -2, -4, 1, -15, 13, 7, -79, 8, -28, -68, 36, -1, -3, 3, -16, 84, -18, 87, 10, 32, 13, -81], "withholdReward": false, "trial_id": "mdp_trial_24", "block": "test", "trialIndex": 25, "score": -35.35, "costs": -0.35, "simulationMode": [null, null, null, null, null], "rewards": [-1, -3, 3, -16, -18], "path": ["0", "0", "23", "24", "25", "26", "28"], "rt": [4052, 403, 14, 425, 274], "actions": ["left", "left", "left", "up", "right"], "actionTimes": [5911, 6833, 7358, 8319, 9103], "queries": {"click": {"state": {"target": ["2"], "time": [3276]}, "edge": {"target": [], "time": []}}, "mouseover": {"state": {"target": ["1", "2", "2", "1"], "time": [2504, 2551, 2824, 4176]}, "edge": {"target": [], "time": []}}, "mouseout": {"state": {"target": ["0", "1", "2", "2", "1"], "time": [871, 2537, 2674, 4109, 4259]}, "edge": {"target": [], "time": []}}}, "displayed_time": "15.86", "trialTime": 17099, "trial_type": "mouselab-mdp", "trial_index": 32, "time_elapsed": 1134351, "internal_node_id": "0.0-6.0-1.0-23.0"}}, {"uniqueid": "w54185835:a19676734", "current_trial": 33, "dateTime": 1693565895401, "trialdata": {"revealed_states": [], "clicked_states": ["23"], "num_clicks_accrued": [0, 0, 0, 0, 0, 0, 0, 0, 0, 0, 0, 0, 0], "stateRewards": ["", 2, -4, 4, 9, 69, 9, -75, 12, -86, 66, 25, -1, 3, 2, -13, -88, -3, 1, 4, -69, 49, -84, 2, -1, 4, 2, -18, -81, -52, -15, -69, -54, 25], "withholdReward": false, "trial_id": "mdp_trial_25", "block": "test", "trialIndex": 26, "score": -78.75, "costs": 0.25, "simulationMode": [null, null, null, null, null], "rewards": [2, -1, 4, -15, -69], "path": ["0", "0", "23", "24", "25", "30", "31"], "rt": [3126, 746, 208, 239, 333], "actions": ["left", "left", "left", "down", "right"], "actionTimes": [4854, 6141, 6869, 7635, 8478], "queries": {"click": {"state": {"target": ["23"], "time": [2717]}, "edge": {"target": [], "time": []}}, "mouseover": {"state": {"target": ["23"], "time": [2265]}, "edge": {"target": [], "time": []}}, "mouseout": {"state": {"target": ["0", "12", "0", "23"], "time": [257, 623, 873, 2824]}, "edge": {"target": [], "time": []}}}, "displayed_time": "15.73", "trialTime": 17445, "trial_type": "mouselab-mdp", "trial_index": 33, "time_elapsed": 1152497, "internal_node_id": "0.0-6.0-1.0-24.0"}}, {"uniqueid": "w54185835:a19676734", "current_trial": 34, "dateTime": 1693565913915, "trialdata": {"revealed_states": [], "clicked_states": ["3"], "num_clicks_accrued": [0, 0, 0, 0, 0, 0, 0, 0, 0, 0, 0, 0, 0], "stateRewards": ["", 2, -2, 7, -11, -76, -65, -23, 16, -58, 30, 81, 1, 2, 7, 14, 9, 55, -2, 6, 11, -15, 31, -1, -1, -3, 2, 15, 2, 46, 15, 18, 45, -34], "withholdReward": false, "trial_id": "mdp_trial_26", "block": "test", "trialIndex": 27, "score": 21.05, "costs": -0.95, "simulationMode": [null, null, null, null, null], "rewards": [1, 2, 7, 14, -2], "path": ["0", "0", "12", "13", "14", "15", "18"], "rt": [3778, 70, 27, 989, 96], "actions": ["right", "right", "right", "up", "left"], "actionTimes": [5619, 6217, 6771, 8266, 8874], "queries": {"click": {"state": {"target": ["3"], "time": [3357]}, "edge": {"target": [], "time": []}}, "mouseover": {"state": {"target": ["1", "2", "3", "2"], "time": [2385, 2441, 2673, 4440]}, "edge": {"target": [], "time": []}}, "mouseout": {"state": {"target": ["1", "2", "3", "2"], "time": [2418, 2540, 4341, 4590]}, "edge": {"target": [], "time": []}}}, "displayed_time": "15.84", "trialTime": 17808, "trial_type": "mouselab-mdp", "trial_index": 34, "time_elapsed": 1171011, "internal_node_id": "0.0-6.0-1.0-25.0"}}, {"uniqueid": "w54185835:a19676734", "current_trial": 35, "dateTime": 1693565932238, "trialdata": {"revealed_states": [], "clicked_states": ["24"], "num_clicks_accrued": [0, 0, 0, 0, 0, 0, 0, 0, 0, 0, 0, 0, 0], "stateRewards": ["", -1, 1, 6, -6, 70, 66, 67, -16, -75, -35, 37, -1, 4, 4, -6, 47, -9, 63, 15, 21, -63, 13, 1, 3, -6, 10, 79, -29, 18, -15, 9, -67, -19], "withholdReward": false, "trial_id": "mdp_trial_27", "block": "test", "trialIndex": 28, "score": 66.65, "costs": -0.35, "simulationMode": [null, null, null, null, null], "rewards": [-1, 1, 6, -6, 67], "path": ["0", "0", "1", "2", "3", "4", "7"], "rt": [4550, 292, 333, 101, 132], "actions": ["up", "up", "up", "right", "down"], "actionTimes": [6383, 7188, 8046, 8647, 9295], "queries": {"click": {"state": {"target": ["24"], "time": [4000]}, "edge": {"target": [], "time": []}}, "mouseover": {"state": {"target": ["23", "24", "23", "0", "12"], "time": [3055, 3375, 4761, 4830, 5110]}, "edge": {"target": [], "time": []}}, "mouseout": {"state": {"target": ["1", "23", "24", "23", "0", "12"], "time": [816, 3286, 4092, 4781, 4851, 5342]}, "edge": {"target": [], "time": []}}}, "displayed_time": "15.83", "trialTime": 17600, "trial_type": "mouselab-mdp", "trial_index": 35, "time_elapsed": 1189334, "internal_node_id": "0.0-6.0-1.0-26.0"}}, {"uniqueid": "w54185835:a19676734", "current_trial": 36, "dateTime": 1693565951401, "trialdata": {"revealed_states": [], "clicked_states": ["12"], "num_clicks_accrued": [0, 0, 0, 0, 0, 0, 0, 0, 0, 0, 0, 0, 0], "stateRewards": ["", -2, -1, -6, -14, -55, 78, -13, 11, 14, -71, 59, 2, 2, 6, -6, 9, 38, 14, 7, 85, 11, 68, 1, -4, -1, -3, -63, -85, 9, -2, 63, -86, -10], "withholdReward": false, "trial_id": "mdp_trial_28", "block": "test", "trialIndex": 29, "score": 85.25, "costs": 0.25, "simulationMode": [null, null, null, null, null], "rewards": [2, 2, 6, 7, 68], "path": ["0", "0", "12", "13", "14", "19", "22"], "rt": [3318, 525, 49, 488, 608], "actions": ["right", "right", "right", "down", "left"], "actionTimes": [5358, 6485, 7057, 8063, 9176], "queries": {"click": {"state": {"target": ["12"], "time": [3799]}, "edge": {"target": [], "time": []}}, "mouseover": {"state": {"target": ["12", "0"], "time": [2804, 4638]}, "edge": {"target": [], "time": []}}, "mouseout": {"state": {"target": ["0", "12", "0"], "time": [2747, 4588, 10320]}, "edge": {"target": [], "time": []}}}, "displayed_time": "16.04", "trialTime": 18375, "trial_type": "mouselab-mdp", "trial_index": 36, "time_elapsed": 1208497, "internal_node_id": "0.0-6.0-1.0-27.0"}}, {"uniqueid": "w54185835:a19676734", "current_trial": 37, "dateTime": 1693565969706, "trialdata": {"revealed_states": [], "clicked_states": ["1"], "num_clicks_accrued": [0, 0, 0, 0, 0, 0, 0, 0, 0, 0, 0, 0, 0], "stateRewards": ["", 2, 3, 8, 14, 69, -27, 17, 2, -71, -65, -10, 2, -3, 7, 8, 65, -10, 65, -12, 73, -12, 13, -2, -2, 6, 10, -79, -69, -18, 10, -85, 67, 74], "withholdReward": false, "trial_id": "mdp_trial_29", "block": "test", "trialIndex": 30, "score": 96.25, "costs": 0.25, "simulationMode": [null, null, null, null, null], "rewards": [2, 3, 8, 14, 69], "path": ["0", "0", "1", "2", "3", "4", "5"], "rt": [3326, 434, 380, 31, 173], "actions": ["up", "up", "up", "right", "up"], "actionTimes": [5067, 6007, 6903, 7454, 8148], "queries": {"click": {"state": {"target": ["1"], "time": [3630]}, "edge": {"target": [], "time": []}}, "mouseover": {"state": {"target": ["1"], "time": [2318]}, "edge": {"target": [], "time": []}}, "mouseout": {"state": {"target": ["0", "1", "0"], "time": [639, 10077, 10134]}, "edge": {"target": [], "time": []}}}, "displayed_time": "15.74", "trialTime": 17577, "trial_type": "mouselab-mdp", "trial_index": 37, "time_elapsed": 1226803, "internal_node_id": "0.0-6.0-1.0-28.0"}}, {"uniqueid": "w54185835:a19676734", "current_trial": 38, "dateTime": 1693565988404, "trialdata": {"revealed_states": [], "clicked_states": ["24"], "num_clicks_accrued": [0, 0, 0, 0, 0, 0, 0, 0, 0, 0, 0, 0, 0], "stateRewards": ["", 1, -2, -8, -3, 31, -84, -55, -14, 15, -58, 17, -2, -3, 7, 7, -12, 48, 67, 4, -44, -68, 46, 2, 3, -5, -7, 76, 27, 5, 11, 57, 52, 59], "withholdReward": false, "trial_id": "mdp_trial_30", "block": "test", "trialIndex": 31, "score": 56.65, "costs": -0.35, "simulationMode": [null, null, null, null, null], "rewards": [-2, -3, 7, 7, 48], "path": ["0", "0", "12", "13", "14", "15", "17"], "rt": [3377, 67, 95, 312, 66], "actions": ["right", "right", "right", "up", "right"], "actionTimes": [5679, 6253, 6864, 7699, 8269], "queries": {"click": {"state": {"target": ["24"], "time": [4043]}, "edge": {"target": [], "time": []}}, "mouseover": {"state": {"target": ["23", "24", "24", "23"], "time": [3006, 3081, 3465, 4735]}, "edge": {"target": [], "time": []}}, "mouseout": {"state": {"target": ["0", "23", "24", "24", "23"], "time": [2976, 3048, 3232, 4716, 4769]}, "edge": {"target": [], "time": []}}}, "displayed_time": "16.30", "trialTime": 17956, "trial_type": "mouselab-mdp", "trial_index": 38, "time_elapsed": 1245500, "internal_node_id": "0.0-6.0-1.0-29.0"}}, {"uniqueid": "w54185835:a19676734", "current_trial": 39, "dateTime": 1693566007120, "trialdata": {"revealed_states": [], "clicked_states": ["1"], "num_clicks_accrued": [0, 0, 0, 0, 0, 0, 0, 0, 0, 0, 0, 0, 0], "stateRewards": ["", -1, -3, 4, -10, -5, 79, -87, -2, 53, 29, -20, -2, -1, -5, 10, 27, 86, 46, -16, -29, 40, 3, 2, 4, -1, -6, 37, 79, -29, 7, 86, -62, 29], "withholdReward": false, "trial_id": "mdp_trial_31", "block": "test", "trialIndex": 32, "score": 51.25, "costs": 0.25, "simulationMode": [null, null, null, null, null], "rewards": [-1, -3, 4, -2, 53], "path": ["0", "0", "1", "2", "3", "8", "9"], "rt": [3048, 654, 26, 339, 60], "actions": ["up", "up", "up", "left", "up"], "actionTimes": [5240, 6395, 6917, 7779, 8335], "queries": {"click": {"state": {"target": ["1"], "time": [3485]}, "edge": {"target": [], "time": []}}, "mouseover": {"state": {"target": ["1"], "time": [2962]}, "edge": {"target": [], "time": []}}, "mouseout": {"state": {"target": ["12", "1"], "time": [1041, 3614]}, "edge": {"target": [], "time": []}}}, "displayed_time": "16.20", "trialTime": 17976, "trial_type": "mouselab-mdp", "trial_index": 39, "time_elapsed": 1264217, "internal_node_id": "0.0-6.0-1.0-30.0"}}, {"uniqueid": "w54185835:a19676734", "current_trial": 40, "dateTime": 1693566026477, "trialdata": {"revealed_states": [], "clicked_states": ["12"], "num_clicks_accrued": [0, 0, 0, 0, 0, 0, 0, 0, 0, 0, 0, 0, 0], "stateRewards": ["", 1, 1, 6, -14, -40, 37, 16, -13, 33, -68, 49, 2, 4, 3, 6, 55, 27, 32, 10, -65, 20, -87, 2, 1, -6, -5, -42, 12, 29, -8, 16, 76, -33], "withholdReward": false, "trial_id": "mdp_trial_32", "block": "test", "trialIndex": 33, "score": 70.25, "costs": 0.25, "simulationMode": [null, null, null, null, null], "rewards": [2, 4, 3, 6, 55], "path": ["0", "0", "12", "13", "14", "15", "16"], "rt": [3687, 752, 79, 772, 731], "actions": ["right", "right", "right", "up", "up"], "actionTimes": [6114, 7394, 7970, 9265, 10522], "queries": {"click": {"state": {"target": ["12"], "time": [4671]}, "edge": {"target": [], "time": []}}, "mouseover": {"state": {"target": ["23", "12"], "time": [3479, 4053]}, "edge": {"target": [], "time": []}}, "mouseout": {"state": {"target": ["1", "0", "0", "23", "12"], "time": [269, 418, 1492, 3981, 4801]}, "edge": {"target": [], "time": []}}}, "displayed_time": "16.43", "trialTime": 18454, "trial_type": "mouselab-mdp", "trial_index": 40, "time_elapsed": 1283574, "internal_node_id": "0.0-6.0-1.0-31.0"}}, {"uniqueid": "w54185835:a19676734", "current_trial": 41, "dateTime": 1693566043927, "trialdata": {"revealed_states": [], "clicked_states": [], "num_clicks_accrued": [0, 0, 0, 0, 0, 0, 0, 0, 0, 0, 0, 0, 0], "stateRewards": ["", 2, -3, -5, 5, 11, -9, -33, 6, 67, 6, -30, -1, -2, -6, 13, 55, 13, 72, -14, 75, 21, -66, -2, -4, 6, 15, -1, -35, 60, 2, 51, -73, 12], "withholdReward": false, "trial_id": "mdp_trial_33", "block": "test", "trialIndex": 34, "score": -30, "costs": 0, "simulationMode": [null, null, null, null, null], "rewards": [2, -3, -5, 6, -30], "path": ["0", "0", "1", "2", "3", "8", "11"], "rt": [1540, 431, 423, 116, 110], "actions": ["up", "up", "up", "left", "left"], "actionTimes": [3221, 4157, 5100, 5728, 6357], "queries": {"click": {"state": {"target": [], "time": []}, "edge": {"target": [], "time": []}}, "mouseover": {"state": {"target": [], "time": []}, "edge": {"target": [], "time": []}}, "mouseout": {"state": {"target": ["0"], "time": [7655]}, "edge": {"target": [], "time": []}}}, "displayed_time": "15.68", "trialTime": 16702, "trial_type": "mouselab-mdp", "trial_index": 41, "time_elapsed": 1301023, "internal_node_id": "0.0-6.0-1.0-32.0"}}, {"uniqueid": "w54185835:a19676734", "current_trial": 42, "dateTime": 1693566062295, "trialdata": {"revealed_states": [], "clicked_states": [], "num_clicks_accrued": [0, 0, 0, 0, 0, 0, 0, 0, 0, 0, 0, 0, 0], "stateRewards": ["", 2, -2, -8, 9, -20, 55, -58, 14, 42, 2, 36, 1, -3, -5, 5, -58, 57, 60, 16, 57, 30, -70, -2, 1, 3, 10, 59, 23, 77, -13, -26, 88, -72], "withholdReward": false, "trial_id": "mdp_trial_34", "block": "test", "trialIndex": 35, "score": 35, "costs": 0, "simulationMode": [null, null, null, null, null], "rewards": [-2, 1, 3, 10, 23], "path": ["0", "0", "23", "24", "25", "26", "28"], "rt": [1548, 108, 409, 284, 1671], "actions": ["left", "left", "left", "up", "right"], "actionTimes": [3115, 3749, 4667, 5477, 7646], "queries": {"click": {"state": {"target": [], "time": []}, "edge": {"target": [], "time": []}}, "mouseover": {"state": {"target": ["23"], "time": [2486]}, "edge": {"target": [], "time": []}}, "mouseout": {"state": {"target": ["0", "23"], "time": [2320, 8821]}, "edge": {"target": [], "time": []}}}, "displayed_time": "15.57", "trialTime": 17538, "trial_type": "mouselab-mdp", "trial_index": 42, "time_elapsed": 1319392, "internal_node_id": "0.0-6.0-1.0-33.0"}}, {"uniqueid": "w54185835:a19676734", "current_trial": 43, "dateTime": 1693566079851, "trialdata": {"revealed_states": [], "clicked_states": [], "num_clicks_accrued": [0, 0, 0, 0, 0, 0, 0, 0, 0, 0, 0, 0, 0], "stateRewards": ["", 1, -1, -7, -7, -22, 15, -13, 13, 26, -32, 38, -1, 1, -7, -4, 16, -62, 86, 12, -54, 56, 64, -2, -1, 6, 14, -57, 37, 62, -6, -25, 50, -70], "withholdReward": false, "trial_id": "mdp_trial_35", "block": "test", "trialIndex": 36, "score": -36, "costs": 0, "simulationMode": [null, null, null, null, null], "rewards": [1, -1, -7, -7, -22], "path": ["0", "0", "1", "2", "3", "4", "5"], "rt": [1472, 63, 192, 153, 186], "actions": ["up", "up", "up", "right", "up"], "actionTimes": [3281, 3863, 4575, 5254, 5954], "queries": {"click": {"state": {"target": [], "time": []}, "edge": {"target": [], "time": []}}, "mouseover": {"state": {"target": [], "time": []}, "edge": {"target": [], "time": []}}, "mouseout": {"state": {"target": ["23"], "time": [703]}, "edge": {"target": [], "time": []}}}, "displayed_time": "15.81", "trialTime": 16800, "trial_type": "mouselab-mdp", "trial_index": 43, "time_elapsed": 1336947, "internal_node_id": "0.0-6.0-1.0-34.0"}}, {"uniqueid": "w54185835:a19676734", "current_trial": 44, "dateTime": 1693566097878, "trialdata": {"revealed_states": [], "clicked_states": [], "num_clicks_accrued": [0, 0, 0, 0, 0, 0, 0, 0, 0, 0, 0, 0, 0], "stateRewards": ["", 1, -4, -6, 11, -20, 8, -30, 1, -38, 88, 42, 2, 3, 5, -12, -8, -74, 30, -8, 67, -19, 42, 2, -1, 4, 13, 50, -68, 2, -8, -15, 87, -46], "withholdReward": false, "trial_id": "mdp_trial_36", "block": "test", "trialIndex": 37, "score": 80, "costs": 0, "simulationMode": [null, null, null, null, null], "rewards": [1, -4, -6, 1, 88], "path": ["0", "0", "1", "2", "3", "8", "10"], "rt": [2799, 252, 1349, 48, 248], "actions": ["up", "up", "up", "left", "down"], "actionTimes": [4674, 5446, 7310, 7860, 8642], "queries": {"click": {"state": {"target": [], "time": []}, "edge": {"target": [], "time": []}}, "mouseover": {"state": {"target": [], "time": []}, "edge": {"target": [], "time": []}}, "mouseout": {"state": {"target": ["0"], "time": [789]}, "edge": {"target": [], "time": []}}}, "displayed_time": "15.88", "trialTime": 17271, "trial_type": "mouselab-mdp", "trial_index": 44, "time_elapsed": 1354974, "internal_node_id": "0.0-6.0-1.0-35.0"}}, {"uniqueid": "w54185835:a19676734", "current_trial": 45, "dateTime": 1693566116153, "trialdata": {"revealed_states": [], "clicked_states": [], "num_clicks_accrued": [0, 0, 0, 0, 0, 0, 0, 0, 0, 0, 0, 0, 0], "stateRewards": ["", 2, -1, -4, -13, 74, 77, 3, 2, -43, -2, -11, 2, 3, 7, 11, -26, -29, -33, -3, -3, -13, -3, 1, 3, -7, 14, -59, 33, 9, -5, 34, 79, 68], "withholdReward": false, "trial_id": "mdp_trial_37", "block": "test", "trialIndex": 38, "score": -48, "costs": 0, "simulationMode": [null, null, null, null, null], "rewards": [1, 3, -7, 14, -59], "path": ["0", "0", "23", "24", "25", "26", "27"], "rt": [1731, 565, 173, 253, 7], "actions": ["left", "left", "left", "up", "up"], "actionTimes": [3810, 4893, 5585, 6349, 6853], "queries": {"click": {"state": {"target": [], "time": []}, "edge": {"target": [], "time": []}}, "mouseover": {"state": {"target": [], "time": []}, "edge": {"target": [], "time": []}}, "mouseout": {"state": {"target": ["0"], "time": [10874]}, "edge": {"target": [], "time": []}}}, "displayed_time": "16.08", "trialTime": 17430, "trial_type": "mouselab-mdp", "trial_index": 45, "time_elapsed": 1373249, "internal_node_id": "0.0-6.0-1.0-36.0"}}, {"uniqueid": "w54185835:a19676734", "current_trial": 46, "dateTime": 1693566133706, "trialdata": {"revealed_states": [], "clicked_states": [], "num_clicks_accrued": [0, 0, 0, 0, 0, 0, 0, 0, 0, 0, 0, 0, 0], "stateRewards": ["", -2, -3, 8, -4, -30, 31, 69, 9, 66, 87, 64, -2, 2, 8, 5, 47, 16, -39, -8, -54, 51, -19, 1, -2, -2, -11, -25, -26, 43, -9, 19, -84, 86], "withholdReward": false, "trial_id": "mdp_trial_38", "block": "test", "trialIndex": 39, "score": -19, "costs": 0, "simulationMode": [null, null, null, null, null], "rewards": [-2, 2, 8, -8, -19], "path": ["0", "0", "12", "13", "14", "19", "22"], "rt": [2875, 413, 347, 468, 771], "actions": ["right", "right", "right", "down", "left"], "actionTimes": [4698, 5633, 6501, 7489, 8776], "queries": {"click": {"state": {"target": [], "time": []}, "edge": {"target": [], "time": []}}, "mouseover": {"state": {"target": ["1", "12"], "time": [2393, 4126]}, "edge": {"target": [], "time": []}}, "mouseout": {"state": {"target": ["0", "1"], "time": [256, 3528]}, "edge": {"target": [], "time": []}}}, "displayed_time": "15.82", "trialTime": 16775, "trial_type": "mouselab-mdp", "trial_index": 46, "time_elapsed": 1390802, "internal_node_id": "0.0-6.0-1.0-37.0"}}, {"uniqueid": "w54185835:a19676734", "current_trial": 47, "dateTime": 1693566151419, "trialdata": {"revealed_states": [], "clicked_states": [], "num_clicks_accrued": [0, 0, 0, 0, 0, 0, 0, 0, 0, 0, 0, 0, 0], "stateRewards": ["", 1, -4, -6, -1, -21, 17, -72, 10, 77, 67, -46, -1, 4, -2, 14, -66, -49, -45, -15, -52, 23, -67, 2, -2, -2, 15, -3, 45, -64, 5, -44, 83, 61], "withholdReward": false, "trial_id": "mdp_trial_39", "block": "test", "trialIndex": 40, "score": 9, "costs": 0, "simulationMode": [null, null, null, null, null], "rewards": [-1, 4, -2, -15, 23], "path": ["0", "0", "12", "13", "14", "19", "21"], "rt": [555, 130, 205, 83, 52], "actions": ["right", "right", "right", "down", "down"], "actionTimes": [2291, 2925, 3648, 4245, 4797], "queries": {"click": {"state": {"target": [], "time": []}, "edge": {"target": [], "time": []}}, "mouseover": {"state": {"target": [], "time": []}, "edge": {"target": [], "time": []}}, "mouseout": {"state": {"target": ["12", "0"], "time": [480, 6206]}, "edge": {"target": [], "time": []}}}, "displayed_time": "15.74", "trialTime": 16911, "trial_type": "mouselab-mdp", "trial_index": 47, "time_elapsed": 1408515, "internal_node_id": "0.0-6.0-1.0-38.0"}}, {"uniqueid": "w54185835:a19676734", "current_trial": 48, "dateTime": 1693566169517, "trialdata": {"revealed_states": [], "clicked_states": [], "num_clicks_accrued": [0, 0, 0, 0, 0, 0, 0, 0, 0, 0, 0, 0, 0], "stateRewards": ["", -1, 1, -5, -6, -78, 47, -13, 12, 48, -88, 20, 2, -3, -2, 13, -20, 37, -57, 14, -38, 30, 31, -2, -2, 8, 2, -23, 78, 28, 12, -74, -88, 8], "withholdReward": false, "trial_id": "mdp_trial_40", "block": "test", "trialIndex": 41, "score": -89, "costs": 0, "simulationMode": [null, null, null, null, null], "rewards": [-1, 1, -5, -6, -78], "path": ["0", "0", "1", "2", "3", "4", "5"], "rt": [1867, 314, 268, 218, 556], "actions": ["up", "up", "up", "right", "up"], "actionTimes": [3470, 4302, 5089, 5807, 6861], "queries": {"click": {"state": {"target": [], "time": []}, "edge": {"target": [], "time": []}}, "mouseover": {"state": {"target": [], "time": []}, "edge": {"target": [], "time": []}}, "mouseout": {"state": {"target": ["0", "0"], "time": [957, 9717]}, "edge": {"target": [], "time": []}}}, "displayed_time": "15.61", "trialTime": 17287, "trial_type": "mouselab-mdp", "trial_index": 48, "time_elapsed": 1426613, "internal_node_id": "0.0-6.0-1.0-39.0"}}, {"uniqueid": "w54185835:a19676734", "current_trial": 49, "dateTime": 1693566235850, "trialdata": {"rt": 66266, "response": {"Q0": "$-2 to $2", "Q1": "$-16 to $16", "Q2": "$-88 to $88", "Q3": "The cost for clicking on nodes varied between nodes.", "Q4": "Very motivated"}, "question_order": [0, 1, 2, 3, 4], "trial_id": "final_quiz_control", "trial_type": "survey-multi-choice", "trial_index": 49, "time_elapsed": 1492947, "internal_node_id": "0.0-6.0-2.0"}}, {"uniqueid": "w54185835:a19676734", "current_trial": 50, "dateTime": 1693566384222, "trialdata": {"rt": 148301, "response": {"Q0": "I had no strategy I just went with my instincts. I also made sure not to reveal as many nodes as possible.", "Q1": "yes, I did improve my strategy.  I use fewer node revealers ", "Q2": "It was difficult since the game is unpredictable "}, "trial_id": "self_report_control", "trial_type": "survey-text", "trial_index": 50, "time_elapsed": 1641319, "internal_node_id": "0.0-6.0-3.0"}}, {"uniqueid": "w54185835:a19676734", "current_trial": 51, "dateTime": 1693566452832, "trialdata": {"rt": 68595, "response": {"Q0": "Strongly agree", "Q1": "Neither disagree nor agree", "Q2": "Neither disagree nor agree", "Q3": "Strongly agree", "Q4": "Disagree", "Q5": "Strongly agree", "Q6": "Disagree"}, "question_order": [0, 1, 2, 3, 4, 5, 6], "trial_id": "self_report_2", "trial_type": "survey-multi-choice", "trial_index": 51, "time_elapsed": 1709930, "internal_node_id": "0.0-6.0-4.0"}}, {"uniqueid": "w54185835:a19676734", "current_trial": 52, "dateTime": 1693566493819, "trialdata": {"rt": 40955, "response": {"gender": "female", "age": "21", "colorblind": "0", "effort": "0"}, "trial_type": "survey-html-form", "trial_index": 52, "time_elapsed": 1750916, "internal_node_id": "0.0-6.0-5.0"}}, {"uniqueid": "w54185835:a19676734", "current_trial": 53, "dateTime": 1693566513605, "trialdata": {"rt": 19768, "response": {"Q0": "no", "Q1": "no", "Q2": ""}, "trial_type": "survey-text", "trial_index": 53, "time_elapsed": 1770703, "internal_node_id": "0.0-6.0-6.0"}}, {"uniqueid": "w54185835:a19676734", "current_trial": 54, "dateTime": 1693566521351, "trialdata": {"rt": 7735, "stimulus": "<h1>Completion Code Instructions (1/2)</h1>\n<br><br><br><br>\nYou have reached the end of the experiment! The completion code consists of two parts: (1) a code with 2 characters (2) a code with 6 characters. On this page, you will receive the second part of the code. The first part of the completion code will be on the next page.\n<br><br>\nThe second part of your completion code is: <b>EWEK22</b>\n<br><br>\nPlease note this down. Then, press 'Finish HIT' in order to find the first part of your completion code. Once the data has been saved, you will receive this code either in this window or in the original browser window where you started the experiment.\n", "response": 0, "trial_type": "html-button-response", "trial_index": 54, "time_elapsed": 1778448, "internal_node_id": "0.0-6.0-7.0"}}, {"uniqueid": "w54185835:a19676734", "current_trial": 55, "dateTime": 1693566522362, "trialdata": {"success": true, "trial_type": "fullscreen", "trial_index": 55, "time_elapsed": 1779459, "internal_node_id": "0.0-7.0"}}], "questiondata": {"params": {"CODE": "C6DMOQA6", "MIN_TIME": 14, "inspectCost": 1, "startTime": "Fri Sep 01 2023 12:39:00 GMT+0200 (South Africa Standard Time)", "bonusRate": 0.002, "variance": "1_2_4_8_44", "branching": "31123"}, "final_score": 195.6}, "eventdata": [{"eventtype": "initialized", "value": null, "timestamp": 1693564739599, "interval": 0}, {"eventtype": "window_resize", "value": [1024, 646], "timestamp": 1693564739599, "interval": 0}, {"eventtype": "window_resize", "value": [1024, 646], "timestamp": 1693564740119, "interval": 520}, {"eventtype": "window_resize", "value": [1366, 768], "timestamp": 1693564750098, "interval": 9979}, {"eventtype": "window_resize", "value": [1024, 646], "timestamp": 1693566521651, "interval": 1771553}], "useragent": "Mozilla/5.0 (Windows NT 10.0; Win64; x64) AppleWebKit/537.36 (KHTML, like Gecko) Chrome/116.0.0.0 Safari/537.36", "mode": "live", "id": "w54185835:a19676734", "status": "user data saved", "Beginhit": "2023-09-01 10:38:36.580648", "Beginexp": "2023-09-01 10:38:51.965817", "Endhit": "2023-09-01 11:08:26.8864", "psiturkStatus": 3, "browser": "<redacted>", "platform": "windows", "language": "en-ZA"}