{"condition": 1, "counterbalance": 0, "assignmentId": "a15385361", "workerId": "w72368262", "hitId": "h80419448", "currenttrial": 56, "bonus": 0, "data": [{"uniqueid": "w72368262:a15385361", "current_trial": 0, "dateTime": 1691142213250, "trialdata": {"success": true, "trial_type": "fullscreen", "trial_index": 0, "time_elapsed": 18000, "internal_node_id": "0.0-0.0"}}, {"uniqueid": "w72368262:a15385361", "current_trial": 1, "dateTime": 1691142268061, "trialdata": {"view_history": [{"page_index": 0, "viewing_time": 54789}], "rt": 54792, "trial_id": "exp_instructions_misaligned", "trial_type": "instructions", "trial_index": 1, "time_elapsed": 72812, "internal_node_id": "0.0-1.0"}}, {"uniqueid": "w72368262:a15385361", "current_trial": 2, "dateTime": 1691142272632, "trialdata": {"success": true, "trial_type": "fullscreen", "trial_index": 2, "time_elapsed": 77382, "internal_node_id": "0.0-2.0-0.0"}}, {"uniqueid": "w72368262:a15385361", "current_trial": 3, "dateTime": 1691142514927, "trialdata": {"view_history": [{"page_index": 0, "viewing_time": 74558}, {"page_index": 1, "viewing_time": 98791}, {"page_index": 2, "viewing_time": 41306}, {"page_index": 3, "viewing_time": 27629}], "rt": 242284, "trial_id": "mouselab_instructions_1_misaligned", "trial_type": "instructions", "trial_index": 3, "time_elapsed": 319678, "internal_node_id": "0.0-2.0-1.0"}}, {"uniqueid": "w72368262:a15385361", "current_trial": 4, "dateTime": 1691142546756, "trialdata": {"revealed_states": [], "clicked_states": [], "num_clicks_accrued": [0, 0, 0, 0, 0, 0, 0, 0, 0, 0, 0, 0, 0], "stateRewards": ["", -10, -10, 10, -10, 10, -10, -10, 10, 10, -10, 10, -10, -10, 10, -10, -10, 10, -10, 10, -10, -10, 10, 10, 10, 10, 10, -10, 10, -10, 10, 10, -10, -10], "withholdReward": false, "trial_id": "practice_1", "block": "test", "trialIndex": 0, "score": 33.5, "costs": 0, "simulationMode": [null, null, null, null, null], "rewards": [10, 10, 10, 10, -10], "path": ["0", "0", "23", "24", "25", "26", "27"], "rt": [2762, 664, 356, 99, 7557], "actions": ["left", "left", "left", "up", "up"], "actionTimes": [11104, 12310, 13190, 13798, 21901], "queries": {"click": {"state": {"target": [], "time": []}, "edge": {"target": [], "time": []}}, "mouseover": {"state": {"target": [], "time": []}, "edge": {"target": [], "time": []}}, "mouseout": {"state": {"target": ["0"], "time": [10807]}, "edge": {"target": [], "time": []}}}, "displayed_time": "22.43", "trialTime": 29610, "trial_type": "mouselab-mdp", "trial_index": 4, "time_elapsed": 351506, "internal_node_id": "0.0-2.0-2.0-0.0"}}, {"uniqueid": "w72368262:a15385361", "current_trial": 5, "dateTime": 1691142569826, "trialdata": {"revealed_states": [], "clicked_states": [], "num_clicks_accrued": [0, 0, 0, 0, 0, 0, 0, 0, 0, 0, 0, 0, 0], "stateRewards": ["", 10, -10, -10, -10, -10, 10, 10, 10, 10, 10, -10, 10, -10, -10, -10, -10, -10, -10, -10, 10, -10, 10, 10, 10, 10, -10, 10, -10, 10, -10, 10, -10, 10], "withholdReward": false, "trial_id": "practice_2", "block": "test", "trialIndex": 1, "score": -26.5, "costs": 0, "simulationMode": [null, null, null, null, null], "rewards": [10, -10, -10, -10, -10], "path": ["0", "0", "12", "13", "14", "15", "17"], "rt": [1479, 489, 365, 1505, 502], "actions": ["right", "right", "right", "up", "right"], "actionTimes": [7673, 8676, 9560, 11598, 12627], "queries": {"click": {"state": {"target": [], "time": []}, "edge": {"target": [], "time": []}}, "mouseover": {"state": {"target": [], "time": []}, "edge": {"target": [], "time": []}}, "mouseout": {"state": {"target": ["26", "12", "13", "12", "0", "23"], "time": [3947, 4031, 4334, 4419, 16868, 17051]}, "edge": {"target": [], "time": []}}}, "displayed_time": "13.16", "trialTime": 21288, "trial_type": "mouselab-mdp", "trial_index": 5, "time_elapsed": 374575, "internal_node_id": "0.0-2.0-2.0-1.0"}}, {"uniqueid": "w72368262:a15385361", "current_trial": 6, "dateTime": 1691142582125, "trialdata": {"view_history": [{"page_index": 0, "viewing_time": 8563}, {"page_index": 1, "viewing_time": 3727}], "rt": 12291, "trial_id": "mouselab_instructions_2_misaligned", "trial_type": "instructions", "trial_index": 6, "time_elapsed": 386876, "internal_node_id": "0.0-2.0-3.0"}}, {"uniqueid": "w72368262:a15385361", "current_trial": 7, "dateTime": 1691142621152, "trialdata": {"rt": 39014, "response": {"Q0": "The cost for clicking on nodes may vary between nodes.", "Q1": "The better I perform the higher my bonus will be.", "Q2": "No, the amount of cash at each node of the web may be different each time.", "Q3": "To get the highest total score.", "Q4": "Only before moving the spider.", "Q5": "3 seconds"}, "question_order": [0, 1, 2, 3, 4, 5], "correct": {"Q0": "The cost for clicking on nodes may vary between nodes.", "Q1": "The better I perform the higher my bonus will be.", "Q2": "No, the amount of cash at each node of the web may be different each time.", "Q3": "To get the highest total score.", "Q4": "Only before moving the spider.", "Q5": "3 seconds"}, "trial_id": "mouselab_quiz_misaligned", "trial_type": "survey-multi-choice", "trial_index": 7, "time_elapsed": 425903, "internal_node_id": "0.0-2.0-4.0"}}, {"uniqueid": "w72368262:a15385361", "current_trial": 8, "dateTime": 1691142624057, "trialdata": {"rt": 2883, "stimulus": "\n<h1> Get ready to start the game! </h1>\n\nThank you for reading the instructions. Get ready start with the 40 rounds of this game.\n<br><br>\nIf you need to take a break, feel free to take one after the end of a round, before continuing to the next one.\n<br><br>\nRemember, the more money the spider gets, the bigger your bonus will be!\n<br><br>\n<div style='text-align: center;'>Press <code>space</code> to begin.</div>\n\n<br><br>\n(If, at any point, the <code>space</code> key does not take you to the next page, click once on the text and try again.)", "response": " ", "trial_id": "mdp_ready", "trial_type": "html-keyboard-response", "trial_index": 8, "time_elapsed": 428807, "internal_node_id": "0.0-4.0-0.0"}}, {"uniqueid": "w72368262:a15385361", "current_trial": 9, "dateTime": 1691142664252, "trialdata": {"revealed_states": [], "clicked_states": ["26", "15", "17", "8", "30", "33"], "num_clicks_accrued": [0, 0, 0, 0, 0, 0, 0, 0, 0, 0, 0, 0, 0], "stateRewards": ["", -2, 3, 8, -9, 59, 41, -50, -1, 82, 66, 33, 2, -2, 7, 8, 1, -38, 12, -16, 24, -37, 67, 1, 4, -2, 5, 35, -83, 28, 8, -27, 69, -64], "withholdReward": false, "trial_id": "mdp_trial_1", "block": "test", "trialIndex": 2, "score": -63.5, "costs": -10.5, "simulationMode": [null, null, null, null, null], "rewards": [1, 4, -2, 8, -64], "path": ["0", "0", "23", "24", "25", "30", "33"], "rt": [18455, 3, 856, 84, 3775], "actions": ["left", "left", "left", "down", "left"], "actionTimes": [24735, 25283, 26703, 27298, 31616], "queries": {"click": {"state": {"target": ["26", "15", "17", "8", "30", "33"], "time": [8169, 10509, 13048, 17029, 19080, 21712]}, "edge": {"target": [], "time": []}}, "mouseover": {"state": {"target": ["0", "23", "26", "18", "15", "7", "3", "4", "17", "17", "16", "3", "8", "10", "30", "25", "33", "30"], "time": [7175, 7239, 7363, 9538, 9955, 11399, 11526, 12100, 12293, 12480, 14030, 14716, 15128, 17967, 18438, 20262, 21207, 23552]}, "edge": {"target": [], "time": []}}, "mouseout": {"state": {"target": ["0", "0", "23", "26", "18", "15", "7", "3", "4", "15", "17", "17", "16", "3", "8", "10", "30", "25", "33", "30", "30", "33"], "time": [4955, 7230, 7278, 9458, 9607, 10641, 11438, 12091, 12131, 12241, 12348, 13762, 14281, 14981, 17948, 18022, 19210, 20673, 22381, 23674, 31124, 31465]}, "edge": {"target": [], "time": []}}}, "displayed_time": "32.15", "trialTime": 38288, "trial_type": "mouselab-mdp", "trial_index": 9, "time_elapsed": 469002, "internal_node_id": "0.0-4.0-1.0-0.0"}}, {"uniqueid": "w72368262:a15385361", "current_trial": 10, "dateTime": 1691142693490, "trialdata": {"revealed_states": [], "clicked_states": [], "num_clicks_accrued": [0, 0, 0, 0, 0, 0, 0, 0, 0, 0, 0, 0, 0], "stateRewards": ["", 2, -4, 7, 3, 23, -42, 4, 7, -81, -33, 7, -2, -4, 5, -1, 50, -57, -14, -13, -14, 44, 55, -2, -2, 5, -2, 33, 1, 57, -13, -7, 58, 87], "withholdReward": false, "trial_id": "mdp_trial_2", "block": "test", "trialIndex": 3, "score": 41, "costs": 0, "simulationMode": [null, null, null, null, null], "rewards": [-2, -4, 5, -13, 55], "path": ["0", "0", "12", "13", "14", "19", "22"], "rt": [4208, 890, 471, 255, 1007], "actions": ["right", "right", "right", "down", "left"], "actionTimes": [12719, 14124, 15139, 15937, 17476], "queries": {"click": {"state": {"target": [], "time": []}, "edge": {"target": [], "time": []}}, "mouseover": {"state": {"target": [], "time": []}, "edge": {"target": [], "time": []}}, "mouseout": {"state": {"target": ["23"], "time": [6775]}, "edge": {"target": [], "time": []}}}, "displayed_time": "22.52", "trialTime": 26981, "trial_type": "mouselab-mdp", "trial_index": 10, "time_elapsed": 498240, "internal_node_id": "0.0-4.0-1.0-1.0"}}, {"uniqueid": "w72368262:a15385361", "current_trial": 11, "dateTime": 1691142731461, "trialdata": {"revealed_states": [], "clicked_states": ["33", "27", "8"], "num_clicks_accrued": [0, 0, 0, 0, 0, 0, 0, 0, 0, 0, 0, 0, 0], "stateRewards": ["", -1, 1, 8, -3, -24, 11, -65, -6, -77, 48, 44, -2, 1, -2, -7, -55, -35, 33, 8, -28, 19, -53, -1, -1, -5, -5, -70, 10, 44, 8, -58, -70, 51], "withholdReward": false, "trial_id": "mdp_trial_3", "block": "test", "trialIndex": 4, "score": -24.85, "costs": -5.85, "simulationMode": [null, null, null, null, null], "rewards": [-1, 1, 8, -3, -24], "path": ["0", "0", "1", "2", "3", "4", "5"], "rt": [17426, 4, 2801, 228, 46], "actions": ["up", "up", "up", "right", "up"], "actionTimes": [24506, 25047, 28412, 29144, 29731], "queries": {"click": {"state": {"target": ["33", "27", "8"], "time": [9859, 13347, 16907]}, "edge": {"target": [], "time": []}}, "mouseover": {"state": {"target": ["23", "24", "25", "30", "33", "25", "26", "27", "8", "11"], "time": [7979, 8082, 8214, 8432, 9212, 11988, 12105, 12695, 15986, 19461]}, "edge": {"target": [], "time": []}}, "mouseout": {"state": {"target": ["0", "0", "0", "23", "24", "25", "30", "33", "25", "26", "27", "8"], "time": [736, 1008, 1910, 8035, 8136, 8379, 9077, 11935, 12037, 12153, 15832, 19029]}, "edge": {"target": [], "time": []}}}, "displayed_time": "30.29", "trialTime": 36203, "trial_type": "mouselab-mdp", "trial_index": 11, "time_elapsed": 536211, "internal_node_id": "0.0-4.0-1.0-2.0"}}, {"uniqueid": "w72368262:a15385361", "current_trial": 12, "dateTime": 1691142828017, "trialdata": {"revealed_states": [], "clicked_states": [], "num_clicks_accrued": [0, 0, 0, 0, 0, 0, 0, 0, 0, 0, 0, 0, 0], "stateRewards": ["", 1, -3, -2, 14, 49, -40, -39, 2, 26, -61, 73, 1, -4, -8, 12, 79, 29, -65, -13, 55, -26, 27, -1, 3, 3, 9, -17, -60, -18, -8, 35, -88, 69], "withholdReward": false, "trial_id": "mdp_trial_4", "block": "test", "trialIndex": 5, "score": 32, "costs": 0, "simulationMode": [null, null, null, null, null], "rewards": [-1, 3, 3, -8, 35], "path": ["0", "0", "23", "24", "25", "30", "31"], "rt": [5877, 862, 922, 122, 386], "actions": ["left", "left", "left", "down", "right"], "actionTimes": [57492, 58893, 60342, 60967, 61935], "queries": {"click": {"state": {"target": [], "time": []}, "edge": {"target": [], "time": []}}, "mouseover": {"state": {"target": ["31", "30", "25"], "time": [54158, 54273, 54856]}, "edge": {"target": [], "time": []}}, "mouseout": {"state": {"target": ["11", "0", "31", "30"], "time": [49371, 54089, 54210, 54337]}, "edge": {"target": [], "time": []}}}, "displayed_time": "66.23", "trialTime": 94802, "trial_type": "mouselab-mdp", "trial_index": 12, "time_elapsed": 632767, "internal_node_id": "0.0-4.0-1.0-3.0"}}, {"uniqueid": "w72368262:a15385361", "current_trial": 13, "dateTime": 1691142865002, "trialdata": {"revealed_states": [], "clicked_states": [], "num_clicks_accrued": [0, 0, 0, 0, 0, 0, 0, 0, 0, 0, 0, 0, 0], "stateRewards": ["", 1, 2, -3, -6, 50, -7, 7, -7, -80, 21, -1, 2, 2, 4, -1, 33, 84, 1, 14, -53, 81, 6, -2, -2, -3, -9, -87, -38, -59, -5, -74, -3, -71], "withholdReward": false, "trial_id": "mdp_trial_5", "block": "test", "trialIndex": 6, "score": -75, "costs": 0, "simulationMode": [null, null, null, null, null], "rewards": [-2, -2, -3, -9, -59], "path": ["0", "0", "23", "24", "25", "26", "29"], "rt": [4394, 614, 293, 1483, 340], "actions": ["left", "left", "left", "up", "left"], "actionTimes": [13348, 14543, 15375, 17398, 18317], "queries": {"click": {"state": {"target": [], "time": []}, "edge": {"target": [], "time": []}}, "mouseover": {"state": {"target": ["30", "33", "33"], "time": [10878, 11056, 12099]}, "edge": {"target": [], "time": []}}, "mouseout": {"state": {"target": ["25", "23", "0", "30", "33"], "time": [3359, 7122, 10677, 10929, 11274]}, "edge": {"target": [], "time": []}}}, "displayed_time": "23.66", "trialTime": 35207, "trial_type": "mouselab-mdp", "trial_index": 13, "time_elapsed": 669752, "internal_node_id": "0.0-4.0-1.0-4.0"}}, {"uniqueid": "w72368262:a15385361", "current_trial": 14, "dateTime": 1691142900546, "trialdata": {"revealed_states": [], "clicked_states": ["29"], "num_clicks_accrued": [0, 0, 0, 0, 0, 0, 0, 0, 0, 0, 0, 0, 0], "stateRewards": ["", -1, -3, -7, -4, -85, -70, 79, 8, 84, -66, 42, 2, -2, -3, -16, -54, -66, 68, -3, 21, -14, 7, -2, -1, -3, -8, 75, 80, 86, -7, -84, 73, -16], "withholdReward": false, "trial_id": "mdp_trial_6", "block": "test", "trialIndex": 7, "score": 69.85, "costs": -2.15, "simulationMode": [null, null, null, null, null], "rewards": [-2, -1, -3, -8, 86], "path": ["0", "0", "23", "24", "25", "26", "29"], "rt": [5719, 4, 90, 1277, 64], "actions": ["left", "left", "left", "up", "left"], "actionTimes": [10998, 11521, 12190, 14019, 14594], "queries": {"click": {"state": {"target": ["29"], "time": [7335]}, "edge": {"target": [], "time": []}}, "mouseover": {"state": {"target": ["23", "24", "25", "29", "33"], "time": [6173, 6264, 6340, 6806, 8329]}, "edge": {"target": [], "time": []}}, "mouseout": {"state": {"target": ["33", "23", "24", "25", "29"], "time": [2701, 6224, 6297, 6388, 8191]}, "edge": {"target": [], "time": []}}}, "displayed_time": "19.77", "trialTime": 33863, "trial_type": "mouselab-mdp", "trial_index": 14, "time_elapsed": 705296, "internal_node_id": "0.0-4.0-1.0-5.0"}}, {"uniqueid": "w72368262:a15385361", "current_trial": 15, "dateTime": 1691142945115, "trialdata": {"revealed_states": [], "clicked_states": [], "num_clicks_accrued": [0, 0, 0, 0, 0, 0, 0, 0, 0, 0, 0, 0, 0], "stateRewards": ["", -2, 2, 3, -7, -31, -33, 29, -8, -57, 50, -83, -1, -1, 5, 13, -23, -62, 25, 5, -66, -85, 14, 1, -2, -1, 16, 71, 33, -19, -14, 5, -43, 79], "withholdReward": false, "trial_id": "mdp_trial_7", "block": "test", "trialIndex": 8, "score": -62, "costs": 0, "simulationMode": [null, null, null, null, null], "rewards": [-2, 2, 3, -8, -57], "path": ["0", "0", "1", "2", "3", "8", "9"], "rt": [4356, 1382, 406, 346, 4], "actions": ["up", "up", "up", "left", "up"], "actionTimes": [12800, 14728, 15649, 16544, 17102], "queries": {"click": {"state": {"target": [], "time": []}, "edge": {"target": [], "time": []}}, "mouseover": {"state": {"target": ["10", "8", "11"], "time": [10808, 10899, 11158]}, "edge": {"target": [], "time": []}}, "mouseout": {"state": {"target": ["33", "0", "10", "8"], "time": [4214, 10701, 10861, 11032]}, "edge": {"target": [], "time": []}}}, "displayed_time": "23.02", "trialTime": 42683, "trial_type": "mouselab-mdp", "trial_index": 15, "time_elapsed": 749865, "internal_node_id": "0.0-4.0-1.0-6.0"}}, {"uniqueid": "w72368262:a15385361", "current_trial": 16, "dateTime": 1691143036498, "trialdata": {"revealed_states": [], "clicked_states": ["11", "9", "5", "29", "33", "32"], "num_clicks_accrued": [0, 0, 0, 0, 0, 0, 0, 0, 0, 0, 0, 0, 0], "stateRewards": ["", 1, 1, -5, 8, -6, 45, 16, -6, -7, -22, -38, -1, -4, 8, -11, -16, 21, -45, -15, -59, -32, 42, -1, 3, 6, 11, -7, 34, -27, -8, 85, 43, -9], "withholdReward": false, "trial_id": "mdp_trial_8", "block": "test", "trialIndex": 9, "score": 30.1, "costs": -12.9, "simulationMode": [null, null, null, null, null], "rewards": [-1, 3, 6, -8, 43], "path": ["0", "0", "23", "24", "25", "30", "32"], "rt": [26405, 15, 143, 299, 977], "actions": ["left", "left", "left", "down", "down"], "actionTimes": [32505, 33034, 33771, 34626, 36120], "queries": {"click": {"state": {"target": ["11", "9", "5", "29", "33", "32"], "time": [7439, 10926, 15204, 20459, 23881, 28045]}, "edge": {"target": [], "time": []}}, "mouseover": {"state": {"target": ["11", "8", "9", "5", "3", "29", "33", "32", "30", "31", "25", "30"], "time": [6957, 8201, 8455, 11763, 18707, 19788, 22557, 24668, 28647, 28809, 31652, 31971]}, "edge": {"target": [], "time": []}}, "mouseout": {"state": {"target": ["11", "0", "11", "8", "9", "5", "3", "29", "33", "32", "30", "31", "25", "30"], "time": [3176, 3851, 8152, 8332, 11545, 18008, 18759, 21502, 24414, 28182, 28730, 31256, 31846, 32056]}, "edge": {"target": [], "time": []}}}, "displayed_time": "36.64", "trialTime": 89514, "trial_type": "mouselab-mdp", "trial_index": 16, "time_elapsed": 841247, "internal_node_id": "0.0-4.0-1.0-7.0"}}, {"uniqueid": "w72368262:a15385361", "current_trial": 17, "dateTime": 1691143081603, "trialdata": {"revealed_states": [], "clicked_states": ["9", "11", "3"], "num_clicks_accrued": [0, 0, 0, 0, 0, 0, 0, 0, 0, 0, 0, 0, 0], "stateRewards": ["", -2, 2, -5, 1, 42, -63, -58, -6, 2, 16, 81, -2, 4, 7, -10, 33, 3, -33, -2, -52, -84, -27, 2, -3, -3, 15, -74, -14, -5, -5, -84, 79, -31], "withholdReward": false, "trial_id": "mdp_trial_9", "block": "test", "trialIndex": 10, "score": 64.75, "costs": -5.25, "simulationMode": [null, null, null, null, null], "rewards": [-2, 2, -5, -6, 81], "path": ["0", "0", "1", "2", "3", "8", "11"], "rt": [15523, 4, 442, 30, 497], "actions": ["up", "up", "up", "left", "left"], "actionTimes": [20137, 20694, 21712, 22295, 23343], "queries": {"click": {"state": {"target": ["9", "11", "3"], "time": [7424, 10925, 14288]}, "edge": {"target": [], "time": []}}, "mouseover": {"state": {"target": ["9", "11", "8", "3", "8", "8", "5"], "time": [6980, 8533, 11555, 11880, 15311, 16373, 17460]}, "edge": {"target": [], "time": []}}, "mouseout": {"state": {"target": ["0", "9", "11", "8", "3", "3", "8", "8", "3"], "time": [4696, 8082, 11515, 11607, 14413, 15148, 16110, 16927, 17093]}, "edge": {"target": [], "time": []}}}, "displayed_time": "23.87", "trialTime": 42859, "trial_type": "mouselab-mdp", "trial_index": 17, "time_elapsed": 886353, "internal_node_id": "0.0-4.0-1.0-8.0"}}, {"uniqueid": "w72368262:a15385361", "current_trial": 18, "dateTime": 1691143136241, "trialdata": {"revealed_states": [], "clicked_states": ["31"], "num_clicks_accrued": [0, 0, 0, 0, 0, 0, 0, 0, 0, 0, 0, 0, 0], "stateRewards": ["", 1, -2, -2, 10, -31, -77, 35, 9, -47, 8, 48, -2, 1, -4, -3, -26, -50, 43, -11, 76, -38, 17, 1, -1, 6, 10, 15, -9, 12, -8, 85, 11, -55], "withholdReward": false, "trial_id": "mdp_trial_10", "block": "test", "trialIndex": 11, "score": 80.85, "costs": -2.15, "simulationMode": [null, null, null, null, null], "rewards": [1, -1, 6, -8, 85], "path": ["0", "0", "23", "24", "25", "30", "31"], "rt": [5891, 763, 121, 115, 137], "actions": ["left", "left", "left", "down", "right"], "actionTimes": [13146, 14458, 15185, 15866, 16552], "queries": {"click": {"state": {"target": ["31"], "time": [9070]}, "edge": {"target": [], "time": []}}, "mouseover": {"state": {"target": ["30", "31", "32"], "time": [7397, 8511, 9661]}, "edge": {"target": [], "time": []}}, "mouseout": {"state": {"target": ["5", "27", "28", "30", "31"], "time": [3657, 4574, 4673, 7885, 9366]}, "edge": {"target": [], "time": []}}}, "displayed_time": "22.20", "trialTime": 52997, "trial_type": "mouselab-mdp", "trial_index": 18, "time_elapsed": 940991, "internal_node_id": "0.0-4.0-1.0-9.0"}}, {"uniqueid": "w72368262:a15385361", "current_trial": 19, "dateTime": 1691143171849, "trialdata": {"revealed_states": [], "clicked_states": ["21", "22", "20", "17", "16"], "num_clicks_accrued": [0, 0, 0, 0, 0, 0, 0, 0, 0, 0, 0, 0, 0], "stateRewards": ["", 2, 3, -3, 4, 72, -28, 34, -12, 57, -64, -15, 2, 1, -4, -15, 2, 49, 31, -1, -42, -58, 31, -2, 1, -2, -13, -75, -19, -22, -6, 61, 10, -56], "withholdReward": false, "trial_id": "mdp_trial_11", "block": "test", "trialIndex": 12, "score": 22.25, "costs": -10.75, "simulationMode": [null, null, null, null, null], "rewards": [2, 1, -4, -15, 49], "path": ["0", "0", "12", "13", "14", "15", "17"], "rt": [19222, 772, 177, 30, 51], "actions": ["right", "right", "right", "up", "right"], "actionTimes": [24724, 26028, 26736, 27324, 27950], "queries": {"click": {"state": {"target": ["21", "22", "20", "17", "16"], "time": [6776, 10239, 13877, 17369, 20847]}, "edge": {"target": [], "time": []}}, "mouseover": {"state": {"target": ["21", "22", "19", "20", "17", "16"], "time": [5788, 8091, 10739, 10845, 15458, 18681]}, "edge": {"target": [], "time": []}}, "mouseout": {"state": {"target": ["32", "23", "0", "21", "22", "19", "20", "17", "16"], "time": [2652, 3070, 5566, 8082, 10356, 10800, 14666, 18231, 22206]}, "edge": {"target": [], "time": []}}}, "displayed_time": "28.48", "trialTime": 33633, "trial_type": "mouselab-mdp", "trial_index": 19, "time_elapsed": 976599, "internal_node_id": "0.0-4.0-1.0-10.0"}}, {"uniqueid": "w72368262:a15385361", "current_trial": 20, "dateTime": 1691143201177, "trialdata": {"revealed_states": [], "clicked_states": [], "num_clicks_accrued": [0, 0, 0, 0, 0, 0, 0, 0, 0, 0, 0, 0, 0], "stateRewards": ["", -1, 3, -5, -2, -13, -9, -34, -7, -81, 32, 35, -2, -2, 1, -14, -32, 81, 7, 4, 82, 56, -8, -1, 3, -8, 6, -24, -24, -53, 2, 38, 61, 54], "withholdReward": false, "trial_id": "mdp_trial_12", "block": "test", "trialIndex": 13, "score": -7, "costs": 0, "simulationMode": [null, null, null, null, null], "rewards": [-2, -2, 1, 4, -8], "path": ["0", "0", "12", "13", "14", "19", "22"], "rt": [4168, 511, 1057, 111, 20], "actions": ["right", "right", "right", "down", "left"], "actionTimes": [14121, 15141, 16738, 17377, 17951], "queries": {"click": {"state": {"target": [], "time": []}, "edge": {"target": [], "time": []}}, "mouseover": {"state": {"target": ["21"], "time": [12806]}, "edge": {"target": [], "time": []}}, "mouseout": {"state": {"target": ["17", "15"], "time": [6789, 8370]}, "edge": {"target": [], "time": []}}}, "displayed_time": "24.85", "trialTime": 27581, "trial_type": "mouselab-mdp", "trial_index": 20, "time_elapsed": 1005927, "internal_node_id": "0.0-4.0-1.0-11.0"}}, {"uniqueid": "w72368262:a15385361", "current_trial": 21, "dateTime": 1691143310348, "trialdata": {"revealed_states": [], "clicked_states": ["22", "21", "20", "17", "18", "16", "6", "5"], "num_clicks_accrued": [0, 0, 0, 0, 0, 0, 0, 0, 0, 0, 0, 0, 0], "stateRewards": ["", -2, -3, 8, 14, -73, 73, 84, -12, -2, -50, -17, 2, 1, -2, -9, -44, -27, -33, 16, -63, -47, -66, -2, 1, 4, -5, -33, -11, 50, 9, 38, -79, 31], "withholdReward": false, "trial_id": "mdp_trial_13", "block": "test", "trialIndex": 14, "score": 72.8, "costs": -17.2, "simulationMode": [null, null, null, null, null], "rewards": [-2, -3, 8, 14, 73], "path": ["0", "0", "1", "2", "3", "4", "6"], "rt": [33724, 1005, 2720, 141, 119], "actions": ["up", "up", "up", "right", "right"], "actionTimes": [38915, 40460, 43710, 44367, 45026], "queries": {"click": {"state": {"target": ["22", "21", "20", "17", "18", "16", "6", "5"], "time": [6965, 10421, 15740, 19704, 24380, 28048, 31751, 35293]}, "edge": {"target": [], "time": []}}, "mouseover": {"state": {"target": ["22", "19", "21", "20", "17", "16", "18", "16", "6", "5"], "time": [6482, 7763, 7986, 11244, 15795, 20638, 24011, 25712, 28727, 32548]}, "edge": {"target": [], "time": []}}, "mouseout": {"state": {"target": ["21", "0", "22", "19", "21", "20", "17", "16", "18", "16", "6", "5"], "time": [2298, 2817, 7632, 7812, 10821, 15785, 20216, 23251, 25553, 28460, 32250, 36171]}, "edge": {"target": [], "time": []}}}, "displayed_time": "45.58", "trialTime": 107179, "trial_type": "mouselab-mdp", "trial_index": 21, "time_elapsed": 1115099, "internal_node_id": "0.0-4.0-1.0-12.0"}}, {"uniqueid": "w72368262:a15385361", "current_trial": 22, "dateTime": 1691143366771, "trialdata": {"revealed_states": [], "clicked_states": ["21", "22", "20", "17", "16"], "num_clicks_accrued": [0, 0, 0, 0, 0, 0, 0, 0, 0, 0, 0, 0, 0], "stateRewards": ["", -1, -4, -3, 1, -45, -67, -24, 14, 32, 22, 22, -1, 1, -5, -7, 72, 84, -79, -5, 19, -40, -2, -1, -2, 8, -3, 84, -25, -28, 11, 64, -66, 77], "withholdReward": false, "trial_id": "mdp_trial_14", "block": "test", "trialIndex": 15, "score": 61.25, "costs": -10.75, "simulationMode": [null, null, null, null, null, null], "rewards": [-1, 1, -5, -7, 84], "path": ["0", "0", "12", "13", "14", "15", "17"], "rt": [18732, 2157, 700, 142, 236, 176], "actions": ["right", "right", "right", "right", "up", "right"], "actionTimes": [22686, 24862, 26076, 26779, 27570, 28263], "queries": {"click": {"state": {"target": ["21", "22", "20", "17", "16"], "time": [5827, 9265, 13530, 17259, 21598]}, "edge": {"target": [], "time": []}}, "mouseover": {"state": {"target": ["21", "22", "19", "20", "17", "16"], "time": [5388, 6891, 9759, 9916, 14731, 18609]}, "edge": {"target": [], "time": []}}, "mouseout": {"state": {"target": ["1", "21", "22", "19", "20", "17"], "time": [33, 6560, 9738, 9822, 14092, 18154]}, "edge": {"target": [], "time": []}}}, "displayed_time": "28.79", "trialTime": 54305, "trial_type": "mouselab-mdp", "trial_index": 22, "time_elapsed": 1171520, "internal_node_id": "0.0-4.0-1.0-13.0"}}, {"uniqueid": "w72368262:a15385361", "current_trial": 23, "dateTime": 1691143433648, "trialdata": {"revealed_states": [], "clicked_states": ["21", "22", "5", "6", "9", "11"], "num_clicks_accrued": [0, 0, 0, 0, 0, 0, 0, 0, 0, 0, 0, 0, 0], "stateRewards": ["", 2, -4, 1, -12, -59, -53, -74, 16, -88, -66, 66, 1, -2, 8, -9, -14, 22, 25, -1, -39, 47, -14, -1, -1, -2, 1, -4, 52, -26, 15, -7, 46, 43], "withholdReward": false, "trial_id": "mdp_trial_15", "block": "test", "trialIndex": 16, "score": 68.1, "costs": -12.9, "simulationMode": [null, null, null, null, null], "rewards": [2, -4, 1, 16, 66], "path": ["0", "0", "1", "2", "3", "8", "11"], "rt": [26448, 444, 119, 525, 8], "actions": ["up", "up", "up", "left", "left"], "actionTimes": [30592, 31591, 32221, 33332, 33878], "queries": {"click": {"state": {"target": ["21", "22", "5", "6", "9", "11"], "time": [5230, 8867, 14131, 17658, 21192, 24944]}, "edge": {"target": [], "time": []}}, "mouseover": {"state": {"target": ["21", "22", "19", "20", "5", "6", "4", "3", "9", "11", "27", "29"], "time": [4176, 6297, 9490, 9695, 13629, 15802, 19015, 19195, 19870, 22540, 26209, 26475]}, "edge": {"target": [], "time": []}}, "mouseout": {"state": {"target": ["21", "22", "19", "20", "5", "6", "4", "3", "9", "11", "27"], "time": [6088, 9480, 9621, 12859, 15521, 18931, 19141, 19263, 21644, 26157, 26282]}, "edge": {"target": [], "time": []}}}, "displayed_time": "34.42", "trialTime": 64770, "trial_type": "mouselab-mdp", "trial_index": 23, "time_elapsed": 1238398, "internal_node_id": "0.0-4.0-1.0-14.0"}}, {"uniqueid": "w72368262:a15385361", "current_trial": 24, "dateTime": 1691143517464, "trialdata": {"revealed_states": [], "clicked_states": ["21"], "num_clicks_accrued": [0, 0, 0, 0, 0, 0, 0, 0, 0, 0, 0, 0, 0], "stateRewards": ["", -2, -3, 8, -4, -30, 31, 69, 9, 66, 87, 64, -2, 2, 8, 5, 47, 16, -39, -8, -54, 51, -19, 1, -2, -2, -11, -25, -26, 43, -9, 19, -84, 86], "withholdReward": false, "trial_id": "mdp_trial_16", "block": "test", "trialIndex": 17, "score": 48.85, "costs": -2.15, "simulationMode": [null, null, null, null, null], "rewards": [-2, 2, 8, -8, 51], "path": ["0", "0", "12", "13", "14", "19", "21"], "rt": [7556, 656, 226, 137, 76], "actions": ["right", "right", "right", "down", "down"], "actionTimes": [10701, 11903, 12661, 13300, 13913], "queries": {"click": {"state": {"target": ["21"], "time": [4833]}, "edge": {"target": [], "time": []}}, "mouseover": {"state": {"target": ["12", "22", "21", "22"], "time": [3952, 4029, 4440, 5948]}, "edge": {"target": [], "time": []}}, "mouseout": {"state": {"target": ["29", "23", "0", "12", "22", "21"], "time": [388, 740, 3943, 3984, 4067, 5748]}, "edge": {"target": [], "time": []}}}, "displayed_time": "17.71", "trialTime": 81718, "trial_type": "mouselab-mdp", "trial_index": 24, "time_elapsed": 1322214, "internal_node_id": "0.0-4.0-1.0-15.0"}}, {"uniqueid": "w72368262:a15385361", "current_trial": 25, "dateTime": 1691143607482, "trialdata": {"revealed_states": [], "clicked_states": ["9", "11", "17", "20", "33", "29", "6", "16", "18"], "num_clicks_accrued": [0, 0, 0, 0, 0, 0, 0, 0, 0, 0, 0, 0, 0], "stateRewards": ["", -2, -1, -3, -1, -78, -6, 2, -1, 22, -88, 32, 2, 2, -7, -8, -51, -17, 54, 2, -44, 54, 75, 2, -2, -8, -15, -29, 12, -67, 15, -1, -47, -47], "withholdReward": false, "trial_id": "mdp_trial_17", "block": "test", "trialIndex": 18, "score": 23.650000000000002, "costs": -19.349999999999998, "simulationMode": [null, null, null, null, null], "rewards": [2, 2, -7, -8, 54], "path": ["0", "0", "12", "13", "14", "15", "18"], "rt": [37818, 802, 353, 66, 7], "actions": ["right", "right", "right", "up", "left"], "actionTimes": [41343, 42653, 43539, 44132, 44752], "queries": {"click": {"state": {"target": ["9", "11", "17", "20", "33", "29", "6", "16", "18"], "time": [4880, 8590, 12564, 16818, 20374, 24611, 29012, 33325, 37318]}, "edge": {"target": [], "time": []}}, "mouseover": {"state": {"target": ["9", "11", "8", "3", "4", "16", "17", "20", "19", "22", "30", "33", "29", "26", "4", "6", "6", "16", "18", "13", "22"], "time": [4225, 5633, 9173, 9235, 9334, 10156, 10633, 16213, 18053, 18155, 18564, 19047, 24131, 25855, 26736, 27778, 28512, 30402, 34974, 40029, 40878]}, "edge": {"target": [], "time": []}}, "mouseout": {"state": {"target": ["22", "0", "9", "11", "8", "3", "4", "16", "17", "20", "19", "22", "30", "33", "29", "26", "4", "6", "6", "16", "18", "18", "13"], "time": [861, 3558, 5539, 9116, 9226, 9286, 9520, 10258, 15894, 17921, 18144, 18199, 18648, 23628, 25800, 26111, 27513, 28290, 30037, 34812, 37443, 39974, 40448]}, "edge": {"target": [], "time": []}}}, "displayed_time": "45.33", "trialTime": 87707, "trial_type": "mouselab-mdp", "trial_index": 25, "time_elapsed": 1412233, "internal_node_id": "0.0-4.0-1.0-16.0"}}, {"uniqueid": "w72368262:a15385361", "current_trial": 26, "dateTime": 1691143627701, "trialdata": {"revealed_states": [], "clicked_states": ["33", "32"], "num_clicks_accrued": [0, 0, 0, 0, 0, 0, 0, 0, 0, 0, 0, 0, 0], "stateRewards": ["", -2, 3, 3, -14, 62, 36, 49, 16, 11, 17, -84, 2, -1, 6, 2, -82, -73, 49, -6, -87, 48, 50, -1, -2, -1, -16, -11, 37, -44, 4, 55, 73, -10], "withholdReward": false, "trial_id": "mdp_trial_18", "block": "test", "trialIndex": 19, "score": 68.7, "costs": -4.3, "simulationMode": [null, null, null, null, null], "rewards": [-1, -2, -1, 4, 73], "path": ["0", "0", "23", "24", "25", "30", "32"], "rt": [9769, 759, 57, 153, 24], "actions": ["left", "left", "left", "down", "down"], "actionTimes": [12168, 13438, 14031, 14738, 15283], "queries": {"click": {"state": {"target": ["33", "32"], "time": [4109, 8200]}, "edge": {"target": [], "time": []}}, "mouseover": {"state": {"target": ["24", "30", "33", "32", "30", "27"], "time": [2670, 2857, 3494, 4964, 8999, 9991]}, "edge": {"target": [], "time": []}}, "mouseout": {"state": {"target": ["24", "30", "33", "32", "30"], "time": [2719, 3402, 4715, 8951, 9052]}, "edge": {"target": [], "time": []}}}, "displayed_time": "16.41", "trialTime": 17800, "trial_type": "mouselab-mdp", "trial_index": 26, "time_elapsed": 1432451, "internal_node_id": "0.0-4.0-1.0-17.0"}}, {"uniqueid": "w72368262:a15385361", "current_trial": 27, "dateTime": 1691143660162, "trialdata": {"revealed_states": [], "clicked_states": ["5"], "num_clicks_accrued": [0, 0, 0, 0, 0, 0, 0, 0, 0, 0, 0, 0, 0], "stateRewards": ["", -1, 3, 1, -7, 56, 76, 57, 3, 11, -9, 14, 1, -2, 2, 8, -77, -3, 79, -5, 88, 24, -66, -2, -1, 7, -7, -30, 14, -76, 11, -36, 28, -6], "withholdReward": false, "trial_id": "mdp_trial_19", "block": "test", "trialIndex": 20, "score": 49.85, "costs": -2.15, "simulationMode": [null, null, null, null, null], "rewards": [-1, 3, 1, -7, 56], "path": ["0", "0", "1", "2", "3", "4", "5"], "rt": [5596, 326, 6, 914, 28], "actions": ["up", "up", "up", "right", "up"], "actionTimes": [9608, 10458, 10970, 12464, 13069], "queries": {"click": {"state": {"target": ["5"], "time": [4913]}, "edge": {"target": [], "time": []}}, "mouseover": {"state": {"target": ["5", "3", "8", "11"], "time": [4042, 6535, 6665, 7111]}, "edge": {"target": [], "time": []}}, "mouseout": {"state": {"target": ["27", "28", "5", "3", "8"], "time": [1321, 1405, 6215, 6595, 6809]}, "edge": {"target": [], "time": []}}}, "displayed_time": "18.62", "trialTime": 30332, "trial_type": "mouselab-mdp", "trial_index": 27, "time_elapsed": 1464912, "internal_node_id": "0.0-4.0-1.0-18.0"}}, {"uniqueid": "w72368262:a15385361", "current_trial": 28, "dateTime": 1691143689907, "trialdata": {"revealed_states": [], "clicked_states": ["32", "33", "29"], "num_clicks_accrued": [0, 0, 0, 0, 0, 0, 0, 0, 0, 0, 0, 0, 0], "stateRewards": ["", 2, -3, -5, 5, 11, -9, -33, 6, 67, 6, -30, -1, -2, -6, 13, 55, 13, 72, -14, 75, 21, -66, -2, -4, 6, 15, -1, -35, 60, 2, 51, -73, 12], "withholdReward": false, "trial_id": "mdp_trial_20", "block": "test", "trialIndex": 21, "score": 68.55, "costs": -6.449999999999999, "simulationMode": [null, null, null, null, null], "rewards": [-2, -4, 6, 15, 60], "path": ["0", "0", "23", "24", "25", "26", "29"], "rt": [13298, 661, 157, 91, 761], "actions": ["left", "left", "left", "up", "left"], "actionTimes": [15791, 17005, 17699, 18310, 19600], "queries": {"click": {"state": {"target": ["32", "33", "29"], "time": [4013, 7568, 11930]}, "edge": {"target": [], "time": []}}, "mouseover": {"state": {"target": ["32", "33", "29", "29", "27", "11", "9"], "time": [3581, 4628, 8199, 8649, 13033, 13186, 13413]}, "edge": {"target": [], "time": []}}, "mouseout": {"state": {"target": ["0", "32", "33", "29", "29", "27", "11"], "time": [2525, 4578, 8051, 8338, 11948, 13086, 13244]}, "edge": {"target": [], "time": []}}}, "displayed_time": "20.12", "trialTime": 27334, "trial_type": "mouselab-mdp", "trial_index": 28, "time_elapsed": 1494657, "internal_node_id": "0.0-4.0-1.0-19.0"}}, {"uniqueid": "w72368262:a15385361", "current_trial": 29, "dateTime": 1691143731179, "trialdata": {"revealed_states": [], "clicked_states": ["32", "33", "17"], "num_clicks_accrued": [0, 0, 0, 0, 0, 0, 0, 0, 0, 0, 0, 0, 0], "stateRewards": ["", -2, -3, -7, 7, -54, -69, -4, -14, -77, 22, 40, -2, -1, 5, 6, -35, 50, -60, 10, -28, 75, 57, 1, -4, -2, 2, 68, 34, -18, 12, 3, -21, -43], "withholdReward": false, "trial_id": "mdp_trial_21", "block": "test", "trialIndex": 22, "score": 51.55, "costs": -6.449999999999999, "simulationMode": [null, null, null, null, null], "rewards": [-2, -1, 5, 6, 50], "path": ["0", "0", "12", "13", "14", "15", "17"], "rt": [13567, 841, 135, 81, 2176], "actions": ["right", "right", "right", "up", "right"], "actionTimes": [17380, 18749, 19404, 20018, 22793], "queries": {"click": {"state": {"target": ["32", "33", "17"], "time": [4887, 9748, 13221]}, "edge": {"target": [], "time": []}}, "mouseover": {"state": {"target": ["32", "33", "17", "20"], "time": [3887, 6085, 10650, 14056]}, "edge": {"target": [], "time": []}}, "mouseout": {"state": {"target": ["9", "10", "32", "33", "17"], "time": [1242, 1359, 5591, 9918, 13832]}, "edge": {"target": [], "time": []}}}, "displayed_time": "23.31", "trialTime": 39185, "trial_type": "mouselab-mdp", "trial_index": 29, "time_elapsed": 1535929, "internal_node_id": "0.0-4.0-1.0-20.0"}}, {"uniqueid": "w72368262:a15385361", "current_trial": 30, "dateTime": 1691143764225, "trialdata": {"revealed_states": [], "clicked_states": ["32", "33"], "num_clicks_accrued": [0, 0, 0, 0, 0, 0, 0, 0, 0, 0, 0, 0, 0], "stateRewards": ["", 2, 4, 4, -8, -36, -33, 38, 16, -51, 57, 57, 1, 3, 4, -6, 45, 68, 87, 1, 63, 24, -55, -2, 2, -6, -13, -63, -50, 8, 2, 80, 6, 60], "withholdReward": false, "trial_id": "mdp_trial_22", "block": "test", "trialIndex": 23, "score": 51.7, "costs": -4.3, "simulationMode": [null, null, null, null, null], "rewards": [-2, 2, -6, 2, 60], "path": ["0", "0", "23", "24", "25", "30", "33"], "rt": [8951, 25, 269, 846, 893], "actions": ["left", "left", "left", "down", "left"], "actionTimes": [18912, 19486, 20275, 21654, 23124], "queries": {"click": {"state": {"target": ["32", "33"], "time": [11422, 15167]}, "edge": {"target": [], "time": []}}, "mouseover": {"state": {"target": ["30", "32", "33", "25", "26", "27", "27"], "time": [9993, 10950, 12170, 15956, 16071, 16260, 16736]}, "edge": {"target": [], "time": []}}, "mouseout": {"state": {"target": ["20", "19", "22", "0", "30", "32", "33", "25", "26", "27"], "time": [7416, 7478, 7548, 7882, 10221, 11550, 15802, 16009, 16172, 16437]}, "edge": {"target": [], "time": []}}}, "displayed_time": "23.96", "trialTime": 30921, "trial_type": "mouselab-mdp", "trial_index": 30, "time_elapsed": 1568974, "internal_node_id": "0.0-4.0-1.0-21.0"}}, {"uniqueid": "w72368262:a15385361", "current_trial": 31, "dateTime": 1691143790736, "trialdata": {"revealed_states": [], "clicked_states": ["9"], "num_clicks_accrued": [0, 0, 0, 0, 0, 0, 0, 0, 0, 0, 0, 0, 0], "stateRewards": ["", 2, -4, -4, 13, -80, 62, 13, -11, 57, -13, -44, 1, 4, 3, -4, -29, -88, 15, 16, -58, 68, -45, -1, -3, -1, -9, -44, -86, -19, -7, -36, 59, 66], "withholdReward": false, "trial_id": "mdp_trial_23", "block": "test", "trialIndex": 24, "score": 37.85, "costs": -2.15, "simulationMode": [null, null, null, null, null], "rewards": [2, -4, -4, -11, 57], "path": ["0", "0", "1", "2", "3", "8", "9"], "rt": [6179, 35, 127, 46, 646], "actions": ["up", "up", "up", "left", "up"], "actionTimes": [9513, 10093, 10772, 11345, 12562], "queries": {"click": {"state": {"target": ["9"], "time": [5016]}, "edge": {"target": [], "time": []}}, "mouseover": {"state": {"target": ["9", "11"], "time": [4496, 6002]}, "edge": {"target": [], "time": []}}, "mouseout": {"state": {"target": ["27", "0", "9"], "time": [726, 4346, 5753]}, "edge": {"target": [], "time": []}}}, "displayed_time": "17.78", "trialTime": 24062, "trial_type": "mouselab-mdp", "trial_index": 31, "time_elapsed": 1595486, "internal_node_id": "0.0-4.0-1.0-22.0"}}, {"uniqueid": "w72368262:a15385361", "current_trial": 32, "dateTime": 1691143814974, "trialdata": {"revealed_states": [], "clicked_states": ["32", "33"], "num_clicks_accrued": [0, 0, 0, 0, 0, 0, 0, 0, 0, 0, 0, 0, 0], "stateRewards": ["", 2, -1, -3, 16, -3, -16, -62, -1, 13, -26, 43, -1, 4, 3, -9, -54, -37, -3, -12, -71, -68, -57, 1, -3, 2, -9, 2, -2, -9, -11, 84, -52, 55], "withholdReward": false, "trial_id": "mdp_trial_24", "block": "test", "trialIndex": 25, "score": 39.7, "costs": -4.3, "simulationMode": [null, null, null, null, null], "rewards": [1, -3, 2, -11, 55], "path": ["0", "0", "23", "24", "25", "30", "33"], "rt": [9685, 160, 247, 922, 157], "actions": ["left", "left", "left", "down", "left"], "actionTimes": [13124, 13821, 14571, 16051, 16716], "queries": {"click": {"state": {"target": ["32", "33"], "time": [4581, 8821]}, "edge": {"target": [], "time": []}}, "mouseover": {"state": {"target": ["32", "33", "30", "20"], "time": [4027, 6076, 9323, 9859]}, "edge": {"target": [], "time": []}}, "mouseout": {"state": {"target": ["0", "32", "33", "30"], "time": [1147, 5680, 9312, 9399]}, "edge": {"target": [], "time": []}}}, "displayed_time": "17.45", "trialTime": 21621, "trial_type": "mouselab-mdp", "trial_index": 32, "time_elapsed": 1619724, "internal_node_id": "0.0-4.0-1.0-23.0"}}, {"uniqueid": "w72368262:a15385361", "current_trial": 33, "dateTime": 1691143869478, "trialdata": {"revealed_states": [], "clicked_states": ["16"], "num_clicks_accrued": [0, 0, 0, 0, 0, 0, 0, 0, 0, 0, 0, 0, 0], "stateRewards": ["", 1, 1, 1, 15, -76, 52, -32, 14, -57, 37, 49, 1, -4, -3, 6, 83, -76, 25, 9, 36, -1, -17, -1, 4, 4, -2, -22, -21, 58, -15, -57, 49, -24], "withholdReward": false, "trial_id": "mdp_trial_25", "block": "test", "trialIndex": 26, "score": 80.85, "costs": -2.15, "simulationMode": [null, null, null, null, null], "rewards": [1, -4, -3, 6, 83], "path": ["0", "0", "12", "13", "14", "15", "16"], "rt": [4807, 162, 93, 69, 604], "actions": ["right", "right", "right", "up", "up"], "actionTimes": [7745, 8436, 9086, 9718, 10893], "queries": {"click": {"state": {"target": ["16"], "time": [4201]}, "edge": {"target": [], "time": []}}, "mouseover": {"state": {"target": ["18", "16", "17"], "time": [3433, 3651, 6138]}, "edge": {"target": [], "time": []}}, "mouseout": {"state": {"target": ["0", "18", "16", "17", "15"], "time": [1167, 3478, 5395, 51319, 51410]}, "edge": {"target": [], "time": []}}}, "displayed_time": "16.98", "trialTime": 52008, "trial_type": "mouselab-mdp", "trial_index": 33, "time_elapsed": 1674228, "internal_node_id": "0.0-4.0-1.0-24.0"}}, {"uniqueid": "w72368262:a15385361", "current_trial": 34, "dateTime": 1691143918548, "trialdata": {"revealed_states": [], "clicked_states": ["16", "9"], "num_clicks_accrued": [0, 0, 0, 0, 0, 0, 0, 0, 0, 0, 0, 0, 0], "stateRewards": ["", 1, -4, -6, -1, -21, 17, -72, 10, 77, 67, -46, -1, 4, -2, 14, -66, -49, -45, -15, -52, 23, -67, 2, -2, -2, 15, -3, 45, -64, 5, -44, 83, 61], "withholdReward": false, "trial_id": "mdp_trial_26", "block": "test", "trialIndex": 27, "score": 73.7, "costs": -4.3, "simulationMode": [null, null, null, null, null], "rewards": [1, -4, -6, 10, 77], "path": ["0", "0", "1", "2", "3", "8", "9"], "rt": [9481, 6, 413, 898, 610], "actions": ["up", "up", "up", "left", "up"], "actionTimes": [14471, 15041, 15988, 17396, 18570], "queries": {"click": {"state": {"target": ["16", "9"], "time": [6395, 9842]}, "edge": {"target": [], "time": []}}, "mouseover": {"state": {"target": ["16", "4", "9", "11", "29", "29"], "time": [5874, 7094, 7268, 10770, 11183, 11682]}, "edge": {"target": [], "time": []}}, "mouseout": {"state": {"target": ["0", "16", "4", "9", "11", "29"], "time": [5101, 6970, 7150, 10696, 10849, 11286]}, "edge": {"target": [], "time": []}}}, "displayed_time": "19.11", "trialTime": 46649, "trial_type": "mouselab-mdp", "trial_index": 34, "time_elapsed": 1723298, "internal_node_id": "0.0-4.0-1.0-25.0"}}, {"uniqueid": "w72368262:a15385361", "current_trial": 35, "dateTime": 1691143982717, "trialdata": {"revealed_states": [], "clicked_states": ["32", "33", "29"], "num_clicks_accrued": [0, 0, 0, 0, 0, 0, 0, 0, 0, 0, 0, 0, 0], "stateRewards": ["", -2, -3, 1, -7, 39, -67, 16, 5, -20, 73, 66, -1, 4, 5, -3, 23, -68, -87, -8, 3, -3, 17, 1, -4, -2, -13, -32, 34, 61, -5, -11, -18, 12], "withholdReward": false, "trial_id": "mdp_trial_27", "block": "test", "trialIndex": 28, "score": 36.55, "costs": -6.449999999999999, "simulationMode": [null, null, null, null, null], "rewards": [1, -4, -2, -13, 61], "path": ["0", "0", "23", "24", "25", "26", "29"], "rt": [13958, 173, 751, 48, 17], "actions": ["left", "left", "left", "up", "left"], "actionTimes": [26920, 27602, 28895, 29527, 30145], "queries": {"click": {"state": {"target": ["32", "33", "29"], "time": [14842, 18453, 22103]}, "edge": {"target": [], "time": []}}, "mouseover": {"state": {"target": ["23", "32", "33", "29", "29", "27"], "time": [13804, 14588, 15736, 19213, 19646, 26105]}, "edge": {"target": [], "time": []}}, "mouseout": {"state": {"target": ["29", "26", "28", "23", "32", "33", "29", "29", "27", "26"], "time": [9386, 9467, 9551, 13866, 14990, 19127, 19285, 25505, 61156, 61219]}, "edge": {"target": [], "time": []}}}, "displayed_time": "30.71", "trialTime": 62033, "trial_type": "mouselab-mdp", "trial_index": 35, "time_elapsed": 1787468, "internal_node_id": "0.0-4.0-1.0-26.0"}}, {"uniqueid": "w72368262:a15385361", "current_trial": 36, "dateTime": 1691144011010, "trialdata": {"revealed_states": [], "clicked_states": ["16"], "num_clicks_accrued": [0, 0, 0, 0, 0, 0, 0, 0, 0, 0, 0, 0, 0], "stateRewards": ["", 1, 2, -5, 14, 54, -14, -25, 16, -5, -87, 78, -1, 1, 3, -3, 52, 53, 53, -10, 73, -69, -48, 2, 3, 1, 8, -62, -7, 85, 7, 82, 52, -28], "withholdReward": false, "trial_id": "mdp_trial_28", "block": "test", "trialIndex": 29, "score": 49.85, "costs": -2.15, "simulationMode": [null, null, null, null, null], "rewards": [-1, 1, 3, -3, 52], "path": ["0", "0", "12", "13", "14", "15", "16"], "rt": [9099, 258, 233, 214, 581], "actions": ["right", "right", "right", "up", "up"], "actionTimes": [14879, 15751, 16505, 17332, 18504], "queries": {"click": {"state": {"target": ["16"], "time": [9403]}, "edge": {"target": [], "time": []}}, "mouseover": {"state": {"target": ["18", "16", "17"], "time": [8283, 9061, 10554]}, "edge": {"target": [], "time": []}}, "mouseout": {"state": {"target": ["31", "23", "1", "18", "16", "16"], "time": [2580, 2763, 3113, 8368, 9556, 10368]}, "edge": {"target": [], "time": []}}}, "displayed_time": "21.37", "trialTime": 25936, "trial_type": "mouselab-mdp", "trial_index": 36, "time_elapsed": 1815760, "internal_node_id": "0.0-4.0-1.0-27.0"}}, {"uniqueid": "w72368262:a15385361", "current_trial": 37, "dateTime": 1691144051300, "trialdata": {"revealed_states": [], "clicked_states": ["32"], "num_clicks_accrued": [0, 0, 0, 0, 0, 0, 0, 0, 0, 0, 0, 0, 0], "stateRewards": ["", 1, 1, -6, -2, 7, 77, 3, 16, -16, 66, 31, -1, 3, -8, -6, 33, -50, -48, 7, -60, -66, 36, 2, -3, 3, -7, -12, -61, -79, -4, 8, 74, -70], "withholdReward": false, "trial_id": "mdp_trial_29", "block": "test", "trialIndex": 30, "score": 69.85, "costs": -2.15, "simulationMode": [null, null, null, null, null], "rewards": [2, -3, 3, -4, 74], "path": ["0", "0", "23", "24", "25", "30", "32"], "rt": [6283, 793, 36, 249, 623], "actions": ["left", "left", "left", "down", "down"], "actionTimes": [10699, 12028, 12624, 13434, 14627], "queries": {"click": {"state": {"target": ["32"], "time": [6255]}, "edge": {"target": [], "time": []}}, "mouseover": {"state": {"target": ["0", "32", "33"], "time": [5072, 5655, 7440]}, "edge": {"target": [], "time": []}}, "mouseout": {"state": {"target": ["17", "13", "12", "0", "32"], "time": [1761, 1861, 1917, 5127, 7006]}, "edge": {"target": [], "time": []}}}, "displayed_time": "18.99", "trialTime": 37842, "trial_type": "mouselab-mdp", "trial_index": 37, "time_elapsed": 1856050, "internal_node_id": "0.0-4.0-1.0-28.0"}}, {"uniqueid": "w72368262:a15385361", "current_trial": 38, "dateTime": 1691144083544, "trialdata": {"revealed_states": [], "clicked_states": ["9"], "num_clicks_accrued": [0, 0, 0, 0, 0, 0, 0, 0, 0, 0, 0, 0, 0], "stateRewards": ["", 1, 1, -3, 2, 22, -25, -11, -5, 50, 49, 3, 1, -1, 8, 14, -85, -30, 57, -6, -39, -16, 59, -2, -1, 5, 5, 59, -16, 8, 4, 67, 56, -9], "withholdReward": false, "trial_id": "mdp_trial_30", "block": "test", "trialIndex": 31, "score": 41.85, "costs": -2.15, "simulationMode": [null, null, null, null, null], "rewards": [1, 1, -3, -5, 50], "path": ["0", "0", "1", "2", "3", "8", "9"], "rt": [5855, 1027, 126, 148, 12], "actions": ["up", "up", "up", "left", "up"], "actionTimes": [11466, 13007, 13653, 14364, 14941], "queries": {"click": {"state": {"target": ["9"], "time": [7566]}, "edge": {"target": [], "time": []}}, "mouseover": {"state": {"target": ["10", "8", "9", "11"], "time": [6472, 6578, 6987, 9971]}, "edge": {"target": [], "time": []}}, "mouseout": {"state": {"target": ["33", "24", "23", "0", "10", "8", "9"], "time": [1270, 1369, 1519, 6405, 6524, 6771, 9607]}, "edge": {"target": [], "time": []}}}, "displayed_time": "19.66", "trialTime": 29757, "trial_type": "mouselab-mdp", "trial_index": 38, "time_elapsed": 1888294, "internal_node_id": "0.0-4.0-1.0-29.0"}}, {"uniqueid": "w72368262:a15385361", "current_trial": 39, "dateTime": 1691144111115, "trialdata": {"revealed_states": [], "clicked_states": ["21"], "num_clicks_accrued": [0, 0, 0, 0, 0, 0, 0, 0, 0, 0, 0, 0, 0], "stateRewards": ["", 1, 2, 8, -2, 23, -69, -18, -16, 54, -21, 71, -1, -4, 7, 11, 43, -6, 88, 6, -55, 72, 43, 1, -3, -2, -1, 68, -31, -54, 4, -8, 25, -2], "withholdReward": false, "trial_id": "mdp_trial_31", "block": "test", "trialIndex": 32, "score": 77.85, "costs": -2.15, "simulationMode": [null, null, null, null, null], "rewards": [-1, -4, 7, 6, 72], "path": ["0", "0", "12", "13", "14", "19", "21"], "rt": [4984, 756, 353, 132, 102], "actions": ["right", "right", "right", "down", "down"], "actionTimes": [10443, 11820, 12728, 13406, 14071], "queries": {"click": {"state": {"target": ["21"], "time": [7005]}, "edge": {"target": [], "time": []}}, "mouseover": {"state": {"target": ["21", "21", "31", "30", "33"], "time": [5595, 6345, 8093, 8234, 8309]}, "edge": {"target": [], "time": []}}, "mouseout": {"state": {"target": ["11", "1", "21", "21", "31", "30"], "time": [1848, 2016, 5910, 7815, 8154, 8293]}, "edge": {"target": [], "time": []}}}, "displayed_time": "19.50", "trialTime": 25174, "trial_type": "mouselab-mdp", "trial_index": 39, "time_elapsed": 1915865, "internal_node_id": "0.0-4.0-1.0-30.0"}}, {"uniqueid": "w72368262:a15385361", "current_trial": 40, "dateTime": 1691144158364, "trialdata": {"revealed_states": [], "clicked_states": ["17", "5", "11", "29"], "num_clicks_accrued": [0, 0, 0, 0, 0, 0, 0, 0, 0, 0, 0, 0, 0], "stateRewards": ["", 1, 2, -3, 6, -88, 74, -45, 7, -46, 40, -77, 1, -4, 4, 3, 22, -25, -59, 8, -83, 19, -60, -1, -1, -1, -8, 26, -29, 64, -7, -88, -51, -55], "withholdReward": false, "trial_id": "mdp_trial_32", "block": "test", "trialIndex": 33, "score": 44.4, "costs": -8.6, "simulationMode": [null, null, null, null, null], "rewards": [-1, -1, -1, -8, 64], "path": ["0", "0", "23", "24", "25", "26", "29"], "rt": [19679, 33, 29, 79, 721], "actions": ["left", "left", "left", "up", "left"], "actionTimes": [24260, 24857, 25454, 26087, 27343], "queries": {"click": {"state": {"target": ["17", "5", "11", "29"], "time": [6431, 11249, 15632, 19350]}, "edge": {"target": [], "time": []}}, "mouseover": {"state": {"target": ["15", "17", "16", "4", "5", "9", "11", "27", "26", "29", "33"], "time": [5335, 5428, 10168, 10300, 10735, 12601, 13275, 16250, 16425, 16569, 20698]}, "edge": {"target": [], "time": []}}, "mouseout": {"state": {"target": ["33", "25", "24", "23", "15", "17", "16", "4", "5", "9", "11", "27", "26", "29"], "time": [1518, 1616, 1798, 2182, 5381, 10084, 10254, 10386, 12279, 13046, 16188, 16307, 16554, 20200]}, "edge": {"target": [], "time": []}}}, "displayed_time": "27.88", "trialTime": 44909, "trial_type": "mouselab-mdp", "trial_index": 40, "time_elapsed": 1963114, "internal_node_id": "0.0-4.0-1.0-31.0"}}, {"uniqueid": "w72368262:a15385361", "current_trial": 41, "dateTime": 1691144189103, "trialdata": {"revealed_states": [], "clicked_states": ["32", "33", "29", "27"], "num_clicks_accrued": [0, 0, 0, 0, 0, 0, 0, 0, 0, 0, 0, 0, 0], "stateRewards": ["", 1, 4, 5, -5, 58, -80, 75, 6, 25, -39, 46, 2, -2, 4, 2, 59, 31, -22, -12, -61, 15, 72, 1, -2, -7, 8, 77, 76, -23, -7, 71, -15, -3], "withholdReward": false, "trial_id": "mdp_trial_33", "block": "test", "trialIndex": 34, "score": 68.4, "costs": -8.6, "simulationMode": [null, null, null, null, null], "rewards": [1, -2, -7, 8, 77], "path": ["0", "0", "23", "24", "25", "26", "27"], "rt": [17652, 234, 225, 58, 393], "actions": ["left", "left", "left", "up", "up"], "actionTimes": [22558, 23319, 24073, 24658, 25573], "queries": {"click": {"state": {"target": ["32", "33", "29", "27"], "time": [6495, 10196, 14542, 18288]}, "edge": {"target": [], "time": []}}, "mouseover": {"state": {"target": ["0", "23", "24", "32", "33", "29", "27", "11", "9"], "time": [5228, 5324, 5403, 5845, 8673, 10954, 16471, 19088, 19438]}, "edge": {"target": [], "time": []}}, "mouseout": {"state": {"target": ["33", "23", "0", "0", "23", "24", "32", "33", "29", "27", "11"], "time": [2859, 2925, 3089, 5272, 5388, 5554, 6623, 10858, 16328, 19020, 19142]}, "edge": {"target": [], "time": []}}}, "displayed_time": "26.11", "trialTime": 28373, "trial_type": "mouselab-mdp", "trial_index": 41, "time_elapsed": 1993853, "internal_node_id": "0.0-4.0-1.0-32.0"}}, {"uniqueid": "w72368262:a15385361", "current_trial": 42, "dateTime": 1691144224375, "trialdata": {"revealed_states": [], "clicked_states": ["32", "31"], "num_clicks_accrued": [0, 0, 0, 0, 0, 0, 0, 0, 0, 0, 0, 0, 0], "stateRewards": ["", -1, -1, 7, -15, -43, -21, -84, -9, -45, -66, 2, 1, -2, 2, 8, -27, 44, -52, -5, -84, 11, 53, 1, 4, -4, 16, 83, -82, -15, -16, 68, -43, 81], "withholdReward": false, "trial_id": "mdp_trial_34", "block": "test", "trialIndex": 35, "score": 48.7, "costs": -4.3, "simulationMode": [null, null, null, null, null], "rewards": [1, 4, -4, -16, 68], "path": ["0", "0", "23", "24", "25", "30", "31"], "rt": [10268, 538, 105, 134, 172], "actions": ["left", "left", "left", "down", "right"], "actionTimes": [15784, 16852, 17481, 18194, 18987], "queries": {"click": {"state": {"target": ["32", "31"], "time": [7139, 11662]}, "edge": {"target": [], "time": []}}, "mouseover": {"state": {"target": ["32", "33", "31", "22", "22"], "time": [6502, 10874, 11109, 12313, 12848]}, "edge": {"target": [], "time": []}}, "mouseout": {"state": {"target": ["9", "8", "10", "32", "33", "31", "22"], "time": [2503, 2652, 2769, 10576, 11009, 12035, 12521]}, "edge": {"target": [], "time": []}}}, "displayed_time": "19.53", "trialTime": 32925, "trial_type": "mouselab-mdp", "trial_index": 42, "time_elapsed": 2029125, "internal_node_id": "0.0-4.0-1.0-33.0"}}, {"uniqueid": "w72368262:a15385361", "current_trial": 43, "dateTime": 1691144253580, "trialdata": {"revealed_states": [], "clicked_states": ["5"], "num_clicks_accrued": [0, 0, 0, 0, 0, 0, 0, 0, 0, 0, 0, 0, 0], "stateRewards": ["", 1, 3, 3, -10, 52, 68, 59, 12, 7, 49, 21, -2, -3, -4, -2, -2, 63, 63, -4, 44, 43, -76, -2, -3, -6, 13, 48, 36, 12, -5, -36, -33, -11], "withholdReward": false, "trial_id": "mdp_trial_35", "block": "test", "trialIndex": 36, "score": 46.85, "costs": -2.15, "simulationMode": [null, null, null, null, null], "rewards": [1, 3, 3, -10, 52], "path": ["0", "0", "1", "2", "3", "4", "5"], "rt": [6470, 531, 25, 76, 14], "actions": ["up", "up", "up", "right", "up"], "actionTimes": [10148, 13238, 13873, 14525, 15093], "queries": {"click": {"state": {"target": ["5"], "time": [6102]}, "edge": {"target": [], "time": []}}, "mouseover": {"state": {"target": ["1", "2", "3", "4", "5", "6"], "time": [4471, 4556, 4693, 4921, 5624, 7481]}, "edge": {"target": [], "time": []}}, "mouseout": {"state": {"target": ["22", "0", "1", "2", "3", "4", "5"], "time": [1474, 1671, 4511, 4641, 4780, 4960, 7184]}, "edge": {"target": [], "time": []}}}, "displayed_time": "17.83", "trialTime": 26965, "trial_type": "mouselab-mdp", "trial_index": 43, "time_elapsed": 2058330, "internal_node_id": "0.0-4.0-1.0-34.0"}}, {"uniqueid": "w72368262:a15385361", "current_trial": 44, "dateTime": 1691144283035, "trialdata": {"revealed_states": [], "clicked_states": ["32", "33", "29"], "num_clicks_accrued": [0, 0, 0, 0, 0, 0, 0, 0, 0, 0, 0, 0, 0], "stateRewards": ["", 1, 3, 1, -13, 52, -28, 67, -14, 3, 63, -70, -1, -4, 7, -11, -10, 47, -18, 6, 69, -9, -61, 2, 3, -6, 10, 63, -34, 40, -6, -79, -35, -32], "withholdReward": false, "trial_id": "mdp_trial_36", "block": "test", "trialIndex": 37, "score": 42.55, "costs": -6.449999999999999, "simulationMode": [null, null, null, null, null], "rewards": [2, 3, -6, 10, 40], "path": ["0", "0", "23", "24", "25", "26", "29"], "rt": [12651, 756, 1020, 83, 34], "actions": ["left", "left", "left", "up", "left"], "actionTimes": [15658, 16921, 18469, 19133, 19749], "queries": {"click": {"state": {"target": ["32", "33", "29"], "time": [4239, 7844, 11378]}, "edge": {"target": [], "time": []}}, "mouseover": {"state": {"target": ["32", "33", "29", "27", "16"], "time": [3075, 5369, 8767, 12002, 12744]}, "edge": {"target": [], "time": []}}, "mouseout": {"state": {"target": ["6", "32", "33", "29", "27"], "time": [70, 4971, 8602, 11946, 12080]}, "edge": {"target": [], "time": []}}}, "displayed_time": "20.29", "trialTime": 26638, "trial_type": "mouselab-mdp", "trial_index": 44, "time_elapsed": 2087785, "internal_node_id": "0.0-4.0-1.0-35.0"}}, {"uniqueid": "w72368262:a15385361", "current_trial": 45, "dateTime": 1691144317787, "trialdata": {"revealed_states": [], "clicked_states": ["32", "31", "33", "29"], "num_clicks_accrued": [0, 0, 0, 0, 0, 0, 0, 0, 0, 0, 0, 0, 0], "stateRewards": ["", -1, 3, 1, -11, -22, -36, 19, -5, -70, -52, 50, -2, -4, 4, -2, -41, -83, 29, -2, 22, 10, -6, -2, 3, -2, 14, 54, 44, 77, -9, -65, -37, -40], "withholdReward": false, "trial_id": "mdp_trial_37", "block": "test", "trialIndex": 38, "score": 81.4, "costs": -8.6, "simulationMode": [null, null, null, null, null], "rewards": [-2, 3, -2, 14, 77], "path": ["0", "0", "23", "24", "25", "26", "29"], "rt": [16820, 278, 48, 45, 622], "actions": ["left", "left", "left", "up", "left"], "actionTimes": [23045, 23854, 24428, 25030, 26194], "queries": {"click": {"state": {"target": ["32", "31", "33", "29"], "time": [7747, 11826, 15945, 19170]}, "edge": {"target": [], "time": []}}, "mouseover": {"state": {"target": ["23", "30", "32", "30", "31", "30", "33", "29", "27"], "time": [6801, 7010, 7183, 8413, 8824, 12660, 13139, 17187, 20168]}, "edge": {"target": [], "time": []}}, "mouseout": {"state": {"target": ["16", "18", "0", "23", "30", "32", "30", "31", "31", "30", "33", "29", "27", "28", "23"], "time": [2696, 2924, 6792, 6840, 7094, 8351, 8553, 12000, 12643, 12978, 16482, 19299, 27799, 27847, 28079]}, "edge": {"target": [], "time": []}}}, "displayed_time": "26.86", "trialTime": 32524, "trial_type": "mouselab-mdp", "trial_index": 45, "time_elapsed": 2122537, "internal_node_id": "0.0-4.0-1.0-36.0"}}, {"uniqueid": "w72368262:a15385361", "current_trial": 46, "dateTime": 1691144340543, "trialdata": {"revealed_states": [], "clicked_states": ["32"], "num_clicks_accrued": [0, 0, 0, 0, 0, 0, 0, 0, 0, 0, 0, 0, 0], "stateRewards": ["", 2, -1, 5, 6, 10, 86, 55, 10, -45, 63, -71, 1, -2, 5, -8, -50, -72, 36, 15, 61, 12, 33, -1, -4, 6, 5, 79, -56, -21, -16, -87, 60, -81], "withholdReward": false, "trial_id": "mdp_trial_38", "block": "test", "trialIndex": 39, "score": 42.85, "costs": -2.15, "simulationMode": [null, null, null, null, null], "rewards": [-1, -4, 6, -16, 60], "path": ["0", "0", "23", "24", "25", "30", "32"], "rt": [4922, 915, 154, 230, 52], "actions": ["left", "left", "left", "down", "down"], "actionTimes": [9342, 10811, 11498, 12286, 12894], "queries": {"click": {"state": {"target": ["32"], "time": [5695]}, "edge": {"target": [], "time": []}}, "mouseover": {"state": {"target": ["32", "33"], "time": [5121, 7147]}, "edge": {"target": [], "time": []}}, "mouseout": {"state": {"target": ["0", "32"], "time": [1321, 6783]}, "edge": {"target": [], "time": []}}}, "displayed_time": "19.09", "trialTime": 20191, "trial_type": "mouselab-mdp", "trial_index": 46, "time_elapsed": 2145294, "internal_node_id": "0.0-4.0-1.0-37.0"}}, {"uniqueid": "w72368262:a15385361", "current_trial": 47, "dateTime": 1691144383301, "trialdata": {"revealed_states": [], "clicked_states": ["21", "17", "6", "11", "29", "33"], "num_clicks_accrued": [0, 0, 0, 0, 0, 0, 0, 0, 0, 0, 0, 0, 0], "stateRewards": ["", 1, -1, 4, 5, -32, 18, 20, 6, -88, -74, 9, -2, 1, -2, -14, 34, -77, -38, -1, 80, -36, 73, 2, 3, -8, 10, -48, -73, -71, -11, -22, 20, 54], "withholdReward": false, "trial_id": "mdp_trial_39", "block": "test", "trialIndex": 40, "score": 27.1, "costs": -12.9, "simulationMode": [null, null, null, null, null], "rewards": [2, 3, -8, -11, 54], "path": ["0", "0", "23", "24", "25", "30", "33"], "rt": [24974, 313, 102, 12, 289], "actions": ["left", "left", "left", "down", "left"], "actionTimes": [32282, 33141, 33748, 34336, 35176], "queries": {"click": {"state": {"target": ["21", "17", "6", "11", "29", "33"], "time": [8688, 12212, 15995, 19848, 24081, 27644]}, "edge": {"target": [], "time": []}}, "mouseover": {"state": {"target": ["21", "19", "14", "15", "17", "6", "8", "11", "29", "33", "32"], "time": [8153, 9727, 9845, 10044, 11246, 13872, 16688, 17152, 21378, 25344, 28300]}, "edge": {"target": [], "time": []}}, "mouseout": {"state": {"target": ["33", "25", "13", "12", "0", "21", "19", "14", "15", "17", "6", "8", "11", "29", "29", "33"], "time": [3389, 3468, 4889, 5121, 7381, 9675, 9790, 9945, 11005, 12910, 16564, 16815, 20683, 24201, 25204, 28197]}, "edge": {"target": [], "time": []}}}, "displayed_time": "35.74", "trialTime": 40033, "trial_type": "mouselab-mdp", "trial_index": 47, "time_elapsed": 2188051, "internal_node_id": "0.0-4.0-1.0-38.0"}}, {"uniqueid": "w72368262:a15385361", "current_trial": 48, "dateTime": 1691144411063, "trialdata": {"revealed_states": [], "clicked_states": ["20"], "num_clicks_accrued": [0, 0, 0, 0, 0, 0, 0, 0, 0, 0, 0, 0, 0], "stateRewards": ["", 1, 1, -2, 7, -31, -6, 76, 1, -36, -16, -53, 2, 1, 7, 13, -47, -10, 47, -7, 72, 46, -56, -2, -2, -2, 11, -80, 44, 38, 16, 67, 85, -78], "withholdReward": false, "trial_id": "mdp_trial_40", "block": "test", "trialIndex": 41, "score": 72.85, "costs": -2.15, "simulationMode": [null, null, null, null, null], "rewards": [2, 1, 7, -7, 72], "path": ["0", "0", "12", "13", "14", "19", "20"], "rt": [5224, 11, 378, 798, 191], "actions": ["right", "right", "right", "down", "right"], "actionTimes": [9291, 9821, 10772, 12076, 12867], "queries": {"click": {"state": {"target": ["20"], "time": [5648]}, "edge": {"target": [], "time": []}}, "mouseover": {"state": {"target": ["20", "17"], "time": [5138, 7878]}, "edge": {"target": [], "time": []}}, "mouseout": {"state": {"target": ["32", "0", "20"], "time": [1372, 4182, 5775]}, "edge": {"target": [], "time": []}}}, "displayed_time": "18.73", "trialTime": 25347, "trial_type": "mouselab-mdp", "trial_index": 48, "time_elapsed": 2215813, "internal_node_id": "0.0-4.0-1.0-39.0"}}, {"uniqueid": "w72368262:a15385361", "current_trial": 49, "dateTime": 1691144444069, "trialdata": {"rt": 32991, "response": {"Q0": "$-88 to $88", "Q1": "$-32 to $32", "Q2": "$-32 to $32", "Q3": "The cost for clicking on nodes varied between nodes.", "Q4": "Very motivated"}, "question_order": [0, 1, 2, 3, 4], "trial_id": "final_quiz_control", "trial_type": "survey-multi-choice", "trial_index": 49, "time_elapsed": 2248819, "internal_node_id": "0.0-4.0-2.0"}}, {"uniqueid": "w72368262:a15385361", "current_trial": 50, "dateTime": 1691144552092, "trialdata": {"rt": 107666, "response": {"Q0": "try as many circles as possible and choose the biggest one", "Q1": "\nif you see a win go for it", "Q2": "higher pay outs are always shifting"}, "trial_id": "self_report_control", "trial_type": "survey-text", "trial_index": 50, "time_elapsed": 2356843, "internal_node_id": "0.0-4.0-3.0"}}, {"uniqueid": "w72368262:a15385361", "current_trial": 51, "dateTime": 1691144605379, "trialdata": {"rt": 53267, "response": {"Q0": "Strongly agree", "Q1": "Strongly disagree", "Q2": "Strongly agree", "Q3": "Strongly agree", "Q4": "Strongly disagree", "Q5": "Strongly agree", "Q6": "Strongly disagree"}, "question_order": [0, 1, 2, 3, 4, 5, 6], "trial_id": "self_report_2", "trial_type": "survey-multi-choice", "trial_index": 51, "time_elapsed": 2410130, "internal_node_id": "0.0-4.0-4.0"}}, {"uniqueid": "w72368262:a15385361", "current_trial": 52, "dateTime": 1691144638384, "trialdata": {"rt": 32944, "response": {"gender": "male", "age": "22", "colorblind": "2", "effort": "0"}, "trial_type": "survey-html-form", "trial_index": 52, "time_elapsed": 2443135, "internal_node_id": "0.0-4.0-5.0"}}, {"uniqueid": "w72368262:a15385361", "current_trial": 53, "dateTime": 1691144663075, "trialdata": {"rt": 24647, "response": {"Q0": "no", "Q1": "no", "Q2": "non"}, "trial_type": "survey-text", "trial_index": 53, "time_elapsed": 2467825, "internal_node_id": "0.0-4.0-6.0"}}, {"uniqueid": "w72368262:a15385361", "current_trial": 54, "dateTime": 1691144666953, "trialdata": {"rt": 3863, "stimulus": "Press 'Finish HIT' in order to reach the completion code. Once the data has been saved, you will receive the code either in this window or in the original browser window where you started the experiment.\n", "response": 0, "trial_type": "html-button-response", "trial_index": 54, "time_elapsed": 2471704, "internal_node_id": "0.0-5.0"}}, {"uniqueid": "w72368262:a15385361", "current_trial": 55, "dateTime": 1691144668036, "trialdata": {"success": true, "trial_type": "fullscreen", "trial_index": 55, "time_elapsed": 2472787, "internal_node_id": "0.0-6.0"}}], "questiondata": {"params": {"CODE": "C6DMOQA6", "MIN_TIME": 14, "inspectCost": 1, "startTime": "Fri Aug 04 2023 11:43:12 GMT+0200 (South Africa Standard Time)", "bonusRate": 0.002, "variance": "1_2_4_8_44", "branching": "31123"}, "final_score": 1656.6}, "eventdata": [{"eventtype": "initialized", "value": null, "timestamp": 1691142190691, "interval": 0}, {"eventtype": "window_resize", "value": [1024, 666], "timestamp": 1691142190691, "interval": 0}, {"eventtype": "window_resize", "value": [1024, 666], "timestamp": 1691142191457, "interval": 766}, {"eventtype": "window_resize", "value": [1366, 768], "timestamp": 1691142212872, "interval": 21415}], "useragent": "Mozilla/5.0 (Windows NT 10.0; Win64; x64) AppleWebKit/537.36 (KHTML, like Gecko) Chrome/115.0.0.0 Safari/537.36 Edg/115.0.1901.188", "mode": "live", "id": "w72368262:a15385361", "status": "user data saved", "Beginhit": "2023-08-04 09:43:05.119579", "Beginexp": "2023-08-04 09:43:32.073138", "Endhit": "2023-08-04 10:24:30.822146", "psiturkStatus": 3, "browser": "<redacted>", "platform": "windows", "language": "en-US"}