{"condition": 0, "counterbalance": 0, "assignmentId": "a51743722", "workerId": "w34626712", "hitId": "h68157884", "currenttrial": 55, "bonus": 0, "data": [{"uniqueid": "w34626712:a51743722", "current_trial": 0, "dateTime": 1693564916881, "trialdata": {"success": true, "trial_type": "fullscreen", "trial_index": 0, "time_elapsed": 10601, "internal_node_id": "0.0-0.0"}}, {"uniqueid": "w34626712:a51743722", "current_trial": 1, "dateTime": 1693564931461, "trialdata": {"view_history": [{"page_index": 0, "viewing_time": 14567}], "rt": 14567, "trial_id": "exp_instructions_control", "trial_type": "instructions", "trial_index": 1, "time_elapsed": 25182, "internal_node_id": "0.0-1.0"}}, {"uniqueid": "w34626712:a51743722", "current_trial": 2, "dateTime": 1693565267338, "trialdata": {"view_history": [{"page_index": 0, "viewing_time": 122545}, {"page_index": 1, "viewing_time": 141976}, {"page_index": 2, "viewing_time": 30780}, {"page_index": 3, "viewing_time": 40572}], "rt": 335874, "trial_id": "mouselab_instructions_1_control", "trial_type": "instructions", "trial_index": 2, "time_elapsed": 361059, "internal_node_id": "0.0-2.0-1.0"}}, {"uniqueid": "w34626712:a51743722", "current_trial": 3, "dateTime": 1693565305444, "trialdata": {"revealed_states": [], "clicked_states": ["28", "27", "25", "32"], "num_clicks_accrued": [0, 0, 0, 0, 0, 0, 0, 0, 0, 0, 0, 0, 0], "stateRewards": ["", -10, -10, -10, -10, 10, -10, 10, -10, 10, -10, -10, -10, 10, -10, -10, -10, 10, -10, 10, 10, 10, -10, 10, -10, 10, -10, 10, -10, 10, -10, -10, 10, -10], "withholdReward": false, "trial_id": "practice_1", "block": "test", "trialIndex": 0, "score": 11.5, "costs": -2, "simulationMode": [null, null, null, null, null], "rewards": [10, -10, 10, -10, 10], "path": ["0", "0", "23", "24", "25", "26", "27"], "rt": [18528, 1, 1592, 609, 1], "actions": ["left", "left", "left", "up", "up"], "actionTimes": [22716, 23215, 25319, 26452, 26962], "queries": {"click": {"state": {"target": ["28", "27", "25", "32"], "time": [9759, 12027, 13746, 17781]}, "edge": {"target": [], "time": []}}, "mouseover": {"state": {"target": ["0", "23", "24", "28", "24", "26", "29", "27", "25", "25", "24", "24", "23", "24", "30", "30", "32", "30", "25", "30", "30", "31", "20", "17", "15", "18", "1", "23", "31", "22", "29", "26"], "time": [4576, 8365, 8709, 9111, 10025, 10407, 11137, 11640, 12341, 12924, 14774, 15848, 16228, 16927, 17056, 17210, 17427, 18107, 18507, 18724, 18824, 18858, 18904, 19121, 19141, 19158, 19189, 19305, 19631, 19830, 20727, 20756]}, "edge": {"target": [], "time": []}}, "mouseout": {"state": {"target": ["12", "0", "0", "23", "24", "28", "24", "26", "29", "27", "28", "25", "25", "24", "25", "24", "23", "24", "30", "30", "32", "30", "25", "30", "30", "31", "20", "17", "15", "18", "1", "23", "31", "22", "29", "26", "13", "22"], "time": [3143, 3426, 8060, 8653, 8978, 9977, 10275, 10658, 11361, 12209, 12274, 12458, 14058, 15106, 15611, 15906, 16896, 17006, 17073, 17295, 17848, 18241, 18608, 18793, 18856, 18872, 18921, 19138, 19155, 19173, 19239, 19338, 19649, 19846, 20746, 20767, 33010, 33040]}, "edge": {"target": [], "time": []}}}, "displayed_time": "27.48", "trialTime": 36895, "trial_type": "mouselab-mdp", "trial_index": 3, "time_elapsed": 399164, "internal_node_id": "0.0-2.0-2.0-0.0"}}, {"uniqueid": "w34626712:a51743722", "current_trial": 4, "dateTime": 1693565355840, "trialdata": {"revealed_states": [], "clicked_states": ["16", "21", "14", "19", "22", "25", "29", "27"], "num_clicks_accrued": [0, 0, 0, 0, 0, 0, 0, 0, 0, 0, 0, 0, 0], "stateRewards": ["", 10, -10, -10, -10, 10, -10, -10, 10, -10, 10, 10, 10, 10, 10, 10, -10, -10, 10, -10, 10, 10, 10, -10, -10, 10, 10, 10, -10, 10, -10, 10, 10, -10], "withholdReward": false, "trial_id": "practice_2", "block": "test", "trialIndex": 1, "score": 9.5, "costs": -4, "simulationMode": [null, null, null, null, null], "rewards": [-10, -10, 10, 10, 10], "path": ["0", "0", "23", "24", "25", "26", "27"], "rt": [31717, 297, 6, 601, 349], "actions": ["left", "left", "left", "up", "up"], "actionTimes": [38170, 38985, 39510, 40638, 41505], "queries": {"click": {"state": {"target": ["16", "21", "14", "19", "22", "25", "29", "27"], "time": [10187, 12717, 14804, 16960, 24608, 31326, 34303, 35816]}, "edge": {"target": [], "time": []}}, "mouseover": {"state": {"target": ["13", "12", "13", "14", "15", "16", "15", "13", "22", "19", "21", "19", "14", "19", "13", "12", "13", "13", "12", "13", "20", "14", "13", "13", "19", "14", "19", "22", "19", "20", "20", "13", "23", "25", "24", "25", "24", "29", "29", "27", "26", "24", "23"], "time": [7170, 7552, 8717, 8765, 9704, 9850, 10552, 10736, 10771, 11002, 11986, 13184, 13684, 15534, 17569, 18623, 18937, 19804, 20172, 21916, 22154, 23101, 23134, 23455, 23534, 23822, 24017, 24234, 25101, 25317, 25754, 29237, 29319, 29666, 30070, 30937, 31601, 33388, 33573, 34684, 36234, 36618, 36833]}, "edge": {"target": [], "time": []}}, "mouseout": {"state": {"target": ["22", "12", "13", "12", "13", "14", "15", "16", "15", "13", "22", "19", "21", "19", "14", "19", "13", "12", "13", "13", "12", "13", "20", "14", "13", "13", "19", "14", "19", "22", "22", "19", "20", "20", "13", "23", "25", "24", "25", "24", "25", "29", "29", "27", "26", "24", "23"], "time": [4718, 4852, 7453, 8671, 8750, 9604, 9801, 10501, 10570, 10751, 10786, 11470, 12826, 13234, 15050, 17070, 17901, 18905, 19522, 19872, 21820, 21970, 23037, 23118, 23165, 23484, 23737, 23938, 24154, 24653, 24953, 25184, 25484, 26687, 29262, 29465, 29699, 30652, 31585, 32738, 33053, 33454, 34500, 36168, 36333, 36801, 37048]}, "edge": {"target": [], "time": []}}}, "displayed_time": "42.00", "trialTime": 50017, "trial_type": "mouselab-mdp", "trial_index": 4, "time_elapsed": 449559, "internal_node_id": "0.0-2.0-2.0-1.0"}}, {"uniqueid": "w34626712:a51743722", "current_trial": 5, "dateTime": 1693565404190, "trialdata": {"view_history": [{"page_index": 0, "viewing_time": 38260}, {"page_index": 1, "viewing_time": 10080}], "rt": 48341, "trial_id": "mouselab_instructions_2_control", "trial_type": "instructions", "trial_index": 5, "time_elapsed": 497911, "internal_node_id": "0.0-2.0-3.0"}}, {"uniqueid": "w34626712:a51743722", "current_trial": 6, "dateTime": 1693565439044, "trialdata": {"rt": 34793, "response": {"Q0": "The cost for clicking on nodes may vary between nodes.", "Q1": "The better I perform the higher my bonus will be.", "Q2": "No, the amount of cash at each node of the web may be different each time.", "Q3": "To get the highest total score.", "Q4": "Only before moving the spider.", "Q5": "3 seconds"}, "question_order": [0, 1, 2, 3, 4, 5], "correct": {"Q0": "The cost for clicking on nodes may vary between nodes.", "Q1": "The better I perform the higher my bonus will be.", "Q2": "No, the amount of cash at each node of the web may be different each time.", "Q3": "To get the highest total score.", "Q4": "Only before moving the spider.", "Q5": "3 seconds"}, "trial_id": "mouselab_quiz_control", "trial_type": "survey-multi-choice", "trial_index": 6, "time_elapsed": 532765, "internal_node_id": "0.0-2.0-4.0"}}, {"uniqueid": "w34626712:a51743722", "current_trial": 7, "dateTime": 1693565445739, "trialdata": {"rt": 6686, "response": {"Q0": "No"}, "question_order": [0], "trial_id": "repeat_check", "trial_type": "survey-multi-choice", "trial_index": 7, "time_elapsed": 539459, "internal_node_id": "0.0-4.0-0.0"}}, {"uniqueid": "w34626712:a51743722", "current_trial": 8, "dateTime": 1693565472313, "trialdata": {"rt": 26565, "stimulus": "\n<h1> Get ready to start the game! </h1>\n\nThank you for reading the instructions. Get ready start with the 40 rounds of this game.\n<br><br>\nIf you need to take a break, feel free to take one after the end of a round, before continuing to the next one.\n<br><br>\nRemember, the more money the spider gets, the bigger your bonus will be!\n<br><br>\n<div style='text-align: center;'>Press <code>space</code> to begin.</div>\n\n<br><br>\n(If, at any point, the <code>space</code> key does not take you to the next page, click once on the text and try again.)", "response": " ", "trial_id": "mdp_ready", "trial_type": "html-keyboard-response", "trial_index": 8, "time_elapsed": 566034, "internal_node_id": "0.0-6.0-0.0"}}, {"uniqueid": "w34626712:a51743722", "current_trial": 9, "dateTime": 1693565506178, "trialdata": {"revealed_states": [], "clicked_states": ["25", "27"], "num_clicks_accrued": [0, 0, 0, 0, 0, 0, 0, 0, 0, 0, 0, 0, 0], "stateRewards": ["", -2, 3, -1, 2, -72, 63, 20, -1, 62, -66, 39, -2, 3, -6, 14, 22, 47, 1, 8, -49, -1, -41, 2, 2, -6, -16, -64, -60, -34, 16, 54, 22, -7], "withholdReward": false, "trial_id": "mdp_trial_1", "block": "test", "trialIndex": 2, "score": 28.2, "costs": -2.8, "simulationMode": [null, null, null, null, null, null], "rewards": [-2, 3, -6, 14, 22], "path": ["0", "0", "12", "13", "14", "15", "16"], "rt": [4953, 2538, 469, 160, 620, 344], "actions": ["left", "right", "right", "right", "up", "up"], "actionTimes": [20458, 22999, 23976, 24650, 25778, 26638], "queries": {"click": {"state": {"target": ["25", "27"], "time": [17072, 20127]}, "edge": {"target": [], "time": []}}, "mouseover": {"state": {"target": ["25", "11", "27", "26", "29", "27", "28", "12", "13", "12", "0"], "time": [16725, 17271, 17888, 18603, 18940, 19541, 20909, 20988, 21959, 22209, 22475]}, "edge": {"target": [], "time": []}}, "mouseout": {"state": {"target": ["25", "11", "27", "26", "29", "27", "28", "12", "13", "12", "0"], "time": [17203, 17504, 18586, 18618, 19209, 20889, 20954, 21004, 21990, 22226, 22923]}, "edge": {"target": [], "time": []}}}, "displayed_time": "29.51", "trialTime": 33475, "trial_type": "mouselab-mdp", "trial_index": 9, "time_elapsed": 599898, "internal_node_id": "0.0-6.0-1.0-0.0"}}, {"uniqueid": "w34626712:a51743722", "current_trial": 10, "dateTime": 1693565538166, "trialdata": {"revealed_states": [], "clicked_states": ["3", "11"], "num_clicks_accrued": [0, 0, 0, 0, 0, 0, 0, 0, 0, 0, 0, 0, 0], "stateRewards": ["", -2, -2, -7, -13, -10, 49, -68, -1, 84, 70, 88, 1, 4, 4, 12, -57, 25, 30, 8, -1, -77, 57, 2, 3, 2, 3, -18, -80, 23, -15, -41, 70, 11], "withholdReward": false, "trial_id": "mdp_trial_2", "block": "test", "trialIndex": 3, "score": -10.8, "costs": -2.8, "simulationMode": [null, null, null, null, null, null], "rewards": [2, 3, 2, 3, -18], "path": ["0", "0", "23", "24", "25", "26", "27"], "rt": [7222, 1062, 374, 355, 762, 247], "actions": ["up", "left", "left", "left", "up", "up"], "actionTimes": [17055, 18123, 19005, 19869, 21143, 21912], "queries": {"click": {"state": {"target": ["3", "11"], "time": [11968, 15796]}, "edge": {"target": [], "time": []}}, "mouseover": {"state": {"target": ["1", "2", "2", "3", "8", "8", "11", "11", "10"], "time": [10599, 10778, 11081, 11415, 12295, 12544, 12728, 14633, 16361]}, "edge": {"target": [], "time": []}}, "mouseout": {"state": {"target": ["0", "1", "2", "2", "3", "8", "8", "11", "11", "10", "10", "3", "4", "5", "3"], "time": [896, 10645, 10915, 11214, 12181, 12329, 12680, 13694, 16262, 16379, 29165, 29193, 29211, 29422, 29576]}, "edge": {"target": [], "time": []}}}, "displayed_time": "23.84", "trialTime": 31586, "trial_type": "mouselab-mdp", "trial_index": 10, "time_elapsed": 631885, "internal_node_id": "0.0-6.0-1.0-1.0"}}, {"uniqueid": "w34626712:a51743722", "current_trial": 11, "dateTime": 1693565560017, "trialdata": {"revealed_states": [], "clicked_states": ["3", "11"], "num_clicks_accrued": [0, 0, 0, 0, 0, 0, 0, 0, 0, 0, 0, 0, 0], "stateRewards": ["", 1, 4, -8, -13, -13, -87, -77, -10, -44, 54, 42, 2, -3, -4, 12, -9, -80, 52, 9, 84, -2, -65, 1, -4, -5, -6, 8, 80, 32, 13, -59, -5, -13], "withholdReward": false, "trial_id": "mdp_trial_3", "block": "test", "trialIndex": 4, "score": 26.2, "costs": -2.8, "simulationMode": [null, null, null, null, null], "rewards": [1, 4, -8, -10, 42], "path": ["0", "0", "1", "2", "3", "8", "11"], "rt": [8088, 98, 40, 308, 90], "actions": ["up", "up", "up", "left", "left"], "actionTimes": [10378, 10987, 11544, 12348, 12945], "queries": {"click": {"state": {"target": ["3", "11"], "time": [3743, 6215]}, "edge": {"target": [], "time": []}}, "mouseover": {"state": {"target": ["1", "2", "3", "3", "8", "11", "8", "5", "4", "7", "2", "10"], "time": [2655, 2685, 2852, 3322, 4019, 5627, 6969, 7452, 7983, 8018, 8370, 8436]}, "edge": {"target": [], "time": []}}, "mouseout": {"state": {"target": ["8", "1", "2", "3", "3", "8", "11", "8", "3", "5", "4", "7", "2", "10"], "time": [769, 2673, 2767, 3107, 3936, 4553, 6886, 7086, 7136, 7886, 8016, 8050, 8403, 8676]}, "edge": {"target": [], "time": []}}}, "displayed_time": "16.29", "trialTime": 21412, "trial_type": "mouselab-mdp", "trial_index": 11, "time_elapsed": 653736, "internal_node_id": "0.0-6.0-1.0-2.0"}}, {"uniqueid": "w34626712:a51743722", "current_trial": 12, "dateTime": 1693565588690, "trialdata": {"revealed_states": [], "clicked_states": ["32", "31"], "num_clicks_accrued": [0, 0, 0, 0, 0, 0, 0, 0, 0, 0, 0, 0, 0], "stateRewards": ["", -2, 3, -1, -9, 44, 48, -37, -3, 71, -39, 87, -1, 3, -4, 4, -21, 59, -15, -8, -1, 28, -38, 2, 4, 4, 8, -85, -72, -63, 14, 58, 63, -46], "withholdReward": false, "trial_id": "mdp_trial_4", "block": "test", "trialIndex": 5, "score": 84.2, "costs": -2.8, "simulationMode": [null, null, null, null, null], "rewards": [2, 4, 4, 14, 63], "path": ["0", "0", "23", "24", "25", "30", "32"], "rt": [6495, 49, 598, 29, 209], "actions": ["left", "left", "left", "down", "down"], "actionTimes": [10120, 10697, 11803, 12355, 13065], "queries": {"click": {"state": {"target": ["32", "31"], "time": [5205, 7522]}, "edge": {"target": [], "time": []}}, "mouseover": {"state": {"target": ["0", "0", "31", "32", "30", "25", "25", "26", "26", "25", "30", "31"], "time": [4106, 4257, 4457, 4857, 5503, 5803, 5903, 6286, 6519, 6636, 6686, 6835]}, "edge": {"target": [], "time": []}}, "mouseout": {"state": {"target": ["1", "0", "0", "31", "32", "30", "25", "25", "26", "26", "25", "30", "31", "31"], "time": [1434, 4139, 4306, 4570, 5316, 5520, 5820, 6236, 6419, 6603, 6669, 6789, 7586, 8202]}, "edge": {"target": [], "time": []}}}, "displayed_time": "17.63", "trialTime": 28237, "trial_type": "mouselab-mdp", "trial_index": 12, "time_elapsed": 682410, "internal_node_id": "0.0-6.0-1.0-3.0"}}, {"uniqueid": "w34626712:a51743722", "current_trial": 13, "dateTime": 1693565615814, "trialdata": {"revealed_states": [], "clicked_states": [], "num_clicks_accrued": [0, 0, 0, 0, 0, 0, 0, 0, 0, 0, 0, 0, 0], "stateRewards": ["", -2, -3, 1, -14, 48, -49, 67, -1, -35, -48, 3, -2, 1, -4, -5, 86, -84, 39, 1, 48, 41, -42, -1, -4, 2, -7, 18, -86, 17, 7, -9, 57, -69], "withholdReward": false, "trial_id": "mdp_trial_5", "block": "test", "trialIndex": 6, "score": 76, "costs": 0, "simulationMode": [null, null, null, null, null], "rewards": [-2, 1, -4, -5, 86], "path": ["0", "0", "12", "13", "14", "15", "16"], "rt": [6675, 256, 1619, 305, 405], "actions": ["right", "right", "right", "up", "up"], "actionTimes": [9945, 10724, 12855, 13673, 14573], "queries": {"click": {"state": {"target": [], "time": []}, "edge": {"target": [], "time": []}}, "mouseover": {"state": {"target": ["14", "16", "15", "12"], "time": [6341, 6374, 8036, 9469]}, "edge": {"target": [], "time": []}}, "mouseout": {"state": {"target": ["24", "23", "0", "14", "16", "15"], "time": [751, 898, 6333, 6371, 7936, 8070]}, "edge": {"target": [], "time": []}}}, "displayed_time": "17.27", "trialTime": 26656, "trial_type": "mouselab-mdp", "trial_index": 13, "time_elapsed": 709534, "internal_node_id": "0.0-6.0-1.0-4.0"}}, {"uniqueid": "w34626712:a51743722", "current_trial": 14, "dateTime": 1693565639460, "trialdata": {"revealed_states": [], "clicked_states": ["3"], "num_clicks_accrued": [0, 0, 0, 0, 0, 0, 0, 0, 0, 0, 0, 0, 0], "stateRewards": ["", 2, -1, -3, 16, -3, -16, -62, -1, 13, -26, 43, -1, 4, 3, -9, -54, -37, -3, -12, -71, -68, -57, 1, -3, 2, -9, 2, -2, -9, -11, 84, -52, 55], "withholdReward": false, "trial_id": "mdp_trial_6", "block": "test", "trialIndex": 7, "score": -3.4000000000000004, "costs": -1.4, "simulationMode": [null, null, null, null, null], "rewards": [2, -1, -3, 16, -16], "path": ["0", "0", "1", "2", "3", "4", "6"], "rt": [6369, 296, 876, 436, 366], "actions": ["up", "up", "up", "right", "right"], "actionTimes": [8663, 9461, 10840, 11784, 12648], "queries": {"click": {"state": {"target": ["3"], "time": [4805]}, "edge": {"target": [], "time": []}}, "mouseover": {"state": {"target": ["1", "2", "3", "8", "11", "10"], "time": [3943, 4182, 4413, 5162, 5379, 6278]}, "edge": {"target": [], "time": []}}, "mouseout": {"state": {"target": ["12", "0", "0", "1", "2", "3", "8", "11", "10"], "time": [830, 929, 3764, 4132, 4332, 5012, 5261, 6229, 6328]}, "edge": {"target": [], "time": []}}}, "displayed_time": "16.30", "trialTime": 23180, "trial_type": "mouselab-mdp", "trial_index": 14, "time_elapsed": 733179, "internal_node_id": "0.0-6.0-1.0-5.0"}}, {"uniqueid": "w34626712:a51743722", "current_trial": 15, "dateTime": 1693565663323, "trialdata": {"revealed_states": [], "clicked_states": ["21", "20"], "num_clicks_accrued": [0, 0, 0, 0, 0, 0, 0, 0, 0, 0, 0, 0, 0], "stateRewards": ["", 2, -4, -4, 13, -80, 62, 13, -11, 57, -13, -44, 1, 4, 3, -4, -29, -88, 15, 16, -58, 68, -45, -1, -3, -1, -9, -44, -86, -19, -7, -36, 59, 66], "withholdReward": false, "trial_id": "mdp_trial_7", "block": "test", "trialIndex": 8, "score": 89.2, "costs": -2.8, "simulationMode": [null, null, null, null, null], "rewards": [1, 4, 3, 16, 68], "path": ["0", "0", "12", "13", "14", "19", "21"], "rt": [8335, 70, 93, 972, 2], "actions": ["right", "right", "right", "down", "down"], "actionTimes": [13875, 14465, 15053, 16533, 17029], "queries": {"click": {"state": {"target": ["21", "20"], "time": [7646, 9715]}, "edge": {"target": [], "time": []}}, "mouseover": {"state": {"target": ["13", "14", "21", "19", "14", "14", "20", "14", "19", "22", "12", "0", "12"], "time": [6660, 6694, 7139, 8440, 8494, 8808, 8941, 10208, 11228, 11625, 11758, 12664, 12825]}, "edge": {"target": [], "time": []}}, "mouseout": {"state": {"target": ["13", "14", "21", "19", "14", "14", "20", "14", "19", "22", "12", "0", "12"], "time": [6680, 6708, 8274, 8490, 8540, 8829, 9815, 10382, 11396, 11692, 11776, 12700, 12844]}, "edge": {"target": [], "time": []}}}, "displayed_time": "19.54", "trialTime": 23405, "trial_type": "mouselab-mdp", "trial_index": 15, "time_elapsed": 757043, "internal_node_id": "0.0-6.0-1.0-6.0"}}, {"uniqueid": "w34626712:a51743722", "current_trial": 16, "dateTime": 1693565687407, "trialdata": {"revealed_states": [], "clicked_states": ["27"], "num_clicks_accrued": [0, 0, 0, 0, 0, 0, 0, 0, 0, 0, 0, 0, 0], "stateRewards": ["", 1, 3, 1, -13, 52, -28, 67, -14, 3, 63, -70, -1, -4, 7, -11, -10, 47, -18, 6, 69, -9, -61, 2, 3, -6, 10, 63, -34, 40, -6, -79, -35, -32], "withholdReward": false, "trial_id": "mdp_trial_8", "block": "test", "trialIndex": 9, "score": 70.6, "costs": -1.4, "simulationMode": [null, null, null, null, null], "rewards": [2, 3, -6, 10, 63], "path": ["0", "0", "23", "24", "25", "26", "27"], "rt": [8703, 477, 727, 277, 704], "actions": ["left", "left", "left", "up", "up"], "actionTimes": [13362, 14361, 15618, 16395, 17620], "queries": {"click": {"state": {"target": ["27"], "time": [7454]}, "edge": {"target": [], "time": []}}, "mouseover": {"state": {"target": ["1", "10", "8", "28", "27", "28", "23"], "time": [5098, 5213, 5314, 5596, 6817, 7897, 12013]}, "edge": {"target": [], "time": []}}, "mouseout": {"state": {"target": ["0", "1", "10", "8", "28", "27", "27", "28", "23"], "time": [5010, 5131, 5231, 5434, 5682, 7553, 7663, 10136, 12313]}, "edge": {"target": [], "time": []}}}, "displayed_time": "18.66", "trialTime": 23496, "trial_type": "mouselab-mdp", "trial_index": 16, "time_elapsed": 781127, "internal_node_id": "0.0-6.0-1.0-7.0"}}, {"uniqueid": "w34626712:a51743722", "current_trial": 17, "dateTime": 1693565717036, "trialdata": {"revealed_states": [], "clicked_states": ["32", "33", "31"], "num_clicks_accrued": [0, 0, 0, 0, 0, 0, 0, 0, 0, 0, 0, 0, 0], "stateRewards": ["", 1, -2, -2, 10, -31, -77, 35, 9, -47, 8, 48, -2, 1, -4, -3, -26, -50, 43, -11, 76, -38, 17, 1, -1, 6, 10, 15, -9, 12, -8, 85, 11, -55], "withholdReward": false, "trial_id": "mdp_trial_9", "block": "test", "trialIndex": 10, "score": 78.8, "costs": -4.199999999999999, "simulationMode": [null, null, null, null, null], "rewards": [1, -1, 6, -8, 85], "path": ["0", "0", "23", "24", "25", "30", "31"], "rt": [12250, 140, 212, 376, 832], "actions": ["left", "left", "left", "down", "right"], "actionTimes": [19543, 20207, 20921, 21802, 23142], "queries": {"click": {"state": {"target": ["32", "33", "31"], "time": [8907, 11312, 13743]}, "edge": {"target": [], "time": []}}, "mouseover": {"state": {"target": ["23", "24", "31", "32", "33", "30", "31", "0", "0"], "time": [7894, 7926, 8073, 8489, 9907, 11774, 12525, 17042, 17206]}, "edge": {"target": [], "time": []}}, "mouseout": {"state": {"target": ["0", "23", "24", "31", "32", "33", "30", "31", "0"], "time": [534, 7920, 8040, 8090, 9574, 11724, 11908, 16660, 17073]}, "edge": {"target": [], "time": []}}}, "displayed_time": "23.64", "trialTime": 29151, "trial_type": "mouselab-mdp", "trial_index": 17, "time_elapsed": 810756, "internal_node_id": "0.0-6.0-1.0-8.0"}}, {"uniqueid": "w34626712:a51743722", "current_trial": 18, "dateTime": 1693565750462, "trialdata": {"revealed_states": [], "clicked_states": ["11", "6", "5", "9"], "num_clicks_accrued": [0, 0, 0, 0, 0, 0, 0, 0, 0, 0, 0, 0, 0], "stateRewards": ["", -2, 1, -3, -16, -39, -52, 30, -7, -41, -59, 11, 2, 1, 8, 2, -11, -26, -42, -13, 87, -59, -48, -1, -1, -1, 16, -79, 31, 50, -1, -84, 34, -82], "withholdReward": false, "trial_id": "mdp_trial_10", "block": "test", "trialIndex": 11, "score": -66.6, "costs": -5.6, "simulationMode": [null, null, null, null, null], "rewards": [2, 1, 8, -13, -59], "path": ["0", "0", "12", "13", "14", "19", "21"], "rt": [16171, 185, 59, 1132, 407], "actions": ["right", "right", "right", "down", "down"], "actionTimes": [21597, 22291, 22848, 24505, 25430], "queries": {"click": {"state": {"target": ["11", "6", "5", "9"], "time": [7749, 9801, 12965, 15006]}, "edge": {"target": [], "time": []}}, "mouseover": {"state": {"target": ["1", "8", "11", "8", "3", "4", "6", "6", "4", "5", "5", "9", "3", "1", "0", "12", "12"], "time": [6622, 6956, 7373, 7987, 8037, 8236, 8620, 9404, 12169, 12253, 12674, 13603, 15287, 15527, 16003, 18657, 18884]}, "edge": {"target": [], "time": []}}, "mouseout": {"state": {"target": ["0", "0", "1", "8", "11", "8", "3", "4", "6", "6", "4", "5", "5", "9", "3", "1", "0", "12", "12"], "time": [621, 4170, 6655, 7055, 7970, 8020, 8187, 8286, 8837, 10153, 12187, 12286, 13286, 15270, 15320, 15853, 16369, 18722, 19536]}, "edge": {"target": [], "time": []}}}, "displayed_time": "25.92", "trialTime": 32940, "trial_type": "mouselab-mdp", "trial_index": 18, "time_elapsed": 844182, "internal_node_id": "0.0-6.0-1.0-9.0"}}, {"uniqueid": "w34626712:a51743722", "current_trial": 19, "dateTime": 1693565772372, "trialdata": {"revealed_states": [], "clicked_states": ["27", "29"], "num_clicks_accrued": [0, 0, 0, 0, 0, 0, 0, 0, 0, 0, 0, 0, 0], "stateRewards": ["", 2, -3, -2, 14, -4, 85, 46, 15, -28, 41, 31, -1, -1, -1, 5, 62, 79, 57, 12, -73, -64, 86, -1, 1, -3, -5, 68, 11, -32, 8, -80, -21, -56], "withholdReward": false, "trial_id": "mdp_trial_11", "block": "test", "trialIndex": 12, "score": 57.2, "costs": -2.8, "simulationMode": [null, null, null, null, null], "rewards": [-1, 1, -3, -5, 68], "path": ["0", "0", "23", "24", "25", "26", "27"], "rt": [10421, 532, 12, 393, 911], "actions": ["left", "left", "left", "up", "up"], "actionTimes": [13404, 14456, 14984, 15896, 17317], "queries": {"click": {"state": {"target": ["27", "29"], "time": [4804, 6362]}, "edge": {"target": [], "time": []}}, "mouseover": {"state": {"target": ["28", "26", "27", "27", "26", "29", "26", "28", "28", "28"], "time": [3806, 3904, 4206, 4472, 5235, 5619, 6786, 6986, 10856, 11071]}, "edge": {"target": [], "time": []}}, "mouseout": {"state": {"target": ["28", "26", "27", "27", "26", "29", "26", "28", "28", "28"], "time": [3889, 3921, 4267, 5085, 5336, 6768, 6919, 8074, 10876, 12107]}, "edge": {"target": [], "time": []}}}, "displayed_time": "17.84", "trialTime": 21416, "trial_type": "mouselab-mdp", "trial_index": 19, "time_elapsed": 866091, "internal_node_id": "0.0-6.0-1.0-10.0"}}, {"uniqueid": "w34626712:a51743722", "current_trial": 20, "dateTime": 1693565809691, "trialdata": {"revealed_states": [], "clicked_states": ["9", "27", "32", "31", "33"], "num_clicks_accrued": [0, 0, 0, 0, 0, 0, 0, 0, 0, 0, 0, 0, 0], "stateRewards": ["", 2, -3, 5, -14, -63, -9, -24, -11, -54, -43, 68, 2, -2, -4, 7, -64, 30, 47, 12, -74, 11, 86, 1, -3, 3, 10, -71, -42, -52, -1, -29, -16, 69], "withholdReward": false, "trial_id": "mdp_trial_12", "block": "test", "trialIndex": 13, "score": 62, "costs": -7, "simulationMode": [null, null, null, null, null], "rewards": [1, -3, 3, -1, 69], "path": ["0", "0", "23", "24", "25", "30", "33"], "rt": [20312, 631, 222, 695, 595], "actions": ["left", "left", "left", "down", "left"], "actionTimes": [23501, 24632, 25372, 26578, 27695], "queries": {"click": {"state": {"target": ["9", "27", "32", "31", "33"], "time": [4638, 8921, 12666, 16226, 18293]}, "edge": {"target": [], "time": []}}, "mouseover": {"state": {"target": ["10", "9", "11", "10", "10", "10", "11", "28", "27", "28", "24", "31", "32", "30", "31", "31", "33", "32", "19", "21", "22", "12", "22", "0"], "time": [3835, 4201, 4830, 5364, 5514, 7650, 8083, 8417, 8565, 9396, 9596, 11530, 12414, 15634, 15750, 15967, 17113, 18597, 19769, 19994, 20648, 20680, 21400, 21700]}, "edge": {"target": [], "time": []}}, "mouseout": {"state": {"target": ["0", "10", "9", "11", "10", "10", "10", "11", "28", "27", "28", "24", "31", "32", "32", "30", "31", "31", "33", "33", "32", "19", "21", "22", "12", "22", "0", "23"], "time": [19, 3868, 4764, 5297, 5463, 6130, 7767, 8247, 8464, 9338, 9447, 11501, 11546, 12762, 13048, 15699, 15780, 16320, 18388, 18547, 19047, 19878, 20600, 20667, 20696, 21516, 22317, 34900]}, "edge": {"target": [], "time": []}}}, "displayed_time": "28.22", "trialTime": 36846, "trial_type": "mouselab-mdp", "trial_index": 20, "time_elapsed": 903410, "internal_node_id": "0.0-6.0-1.0-11.0"}}, {"uniqueid": "w34626712:a51743722", "current_trial": 21, "dateTime": 1693565845699, "trialdata": {"revealed_states": [], "clicked_states": ["17", "18", "16", "21", "22", "20"], "num_clicks_accrued": [0, 0, 0, 0, 0, 0, 0, 0, 0, 0, 0, 0, 0], "stateRewards": ["", 1, 2, -6, -13, -51, 22, -4, -12, -44, -12, 6, -2, -2, -2, -14, -46, -4, -77, -2, 36, -79, 41, 2, -4, 2, -6, -55, 59, 70, -5, 39, -19, 24], "withholdReward": false, "trial_id": "mdp_trial_13", "block": "test", "trialIndex": 14, "score": 24.6, "costs": -8.4, "simulationMode": [null, null, null, null, null], "rewards": [-2, -2, -2, -2, 41], "path": ["0", "0", "12", "13", "14", "19", "22"], "rt": [18814, 77, 42, 534, 700], "actions": ["right", "right", "right", "down", "left"], "actionTimes": [23286, 23858, 24422, 25465, 26665], "queries": {"click": {"state": {"target": ["17", "18", "16", "21", "22", "20"], "time": [6640, 9369, 11275, 13390, 15332, 17502]}, "edge": {"target": [], "time": []}}, "mouseover": {"state": {"target": ["13", "14", "20", "17", "16", "18", "15", "16", "15", "14", "19", "21", "22", "22", "19", "20", "19", "12", "0"], "time": [5392, 5428, 5527, 6047, 7062, 8914, 9709, 9910, 11594, 11661, 11760, 12111, 13660, 14077, 15560, 15876, 18560, 20813, 22077]}, "edge": {"target": [], "time": []}}, "mouseout": {"state": {"target": ["12", "0", "13", "14", "20", "17", "16", "18", "15", "16", "16", "15", "14", "19", "21", "22", "22", "19", "20", "19", "12", "0"], "time": [1213, 5349, 5410, 5510, 5543, 6812, 8077, 9660, 9727, 11345, 11577, 11628, 11711, 11919, 13510, 13677, 15544, 15577, 17566, 19784, 20848, 22094]}, "edge": {"target": [], "time": []}}}, "displayed_time": "27.16", "trialTime": 35484, "trial_type": "mouselab-mdp", "trial_index": 21, "time_elapsed": 939419, "internal_node_id": "0.0-6.0-1.0-12.0"}}, {"uniqueid": "w34626712:a51743722", "current_trial": 22, "dateTime": 1693565869352, "trialdata": {"revealed_states": [], "clicked_states": [], "num_clicks_accrued": [0, 0, 0, 0, 0, 0, 0, 0, 0, 0, 0, 0, 0], "stateRewards": ["", 1, 4, 7, -16, -84, -6, -46, -12, -7, -49, -26, -1, 2, -4, 2, 22, 37, -64, 1, 88, -13, -10, 1, -4, -2, 5, 2, -10, -34, 9, 66, 55, 38], "withholdReward": false, "trial_id": "mdp_trial_14", "block": "test", "trialIndex": 15, "score": -10, "costs": 0, "simulationMode": [null, null, null, null, null], "rewards": [1, -4, -2, 5, -10], "path": ["0", "0", "23", "24", "25", "26", "28"], "rt": [9370, 21, 248, 997, 862], "actions": ["left", "left", "left", "up", "right"], "actionTimes": [13570, 14101, 14860, 16378, 17759], "queries": {"click": {"state": {"target": [], "time": []}, "edge": {"target": [], "time": []}}, "mouseover": {"state": {"target": ["10", "8", "11", "28", "12", "14", "27", "33", "29", "11", "8", "8", "9", "7", "1", "23", "23"], "time": [4697, 4734, 4948, 5112, 5260, 5279, 5677, 6364, 6576, 6810, 6927, 7042, 7298, 8717, 9046, 9198, 10349]}, "edge": {"target": [], "time": []}}, "mouseout": {"state": {"target": ["22", "7", "2", "10", "23", "0", "12", "0", "10", "8", "11", "28", "12", "14", "27", "33", "29", "11", "8", "8", "9", "7", "1", "23", "23"], "time": [1296, 1629, 1647, 1664, 1810, 1946, 2179, 2546, 4720, 4866, 4998, 5195, 5277, 5294, 5695, 6492, 6593, 6842, 6993, 7093, 7900, 8795, 9063, 9648, 10367]}, "edge": {"target": [], "time": []}}}, "displayed_time": "18.26", "trialTime": 23103, "trial_type": "mouselab-mdp", "trial_index": 22, "time_elapsed": 963072, "internal_node_id": "0.0-6.0-1.0-13.0"}}, {"uniqueid": "w34626712:a51743722", "current_trial": 23, "dateTime": 1693565907602, "trialdata": {"revealed_states": [], "clicked_states": ["5", "9", "11", "6", "17", "16", "21", "22", "32"], "num_clicks_accrued": [0, 0, 0, 0, 0, 0, 0, 0, 0, 0, 0, 0, 0], "stateRewards": ["", -2, 2, 3, -7, -31, -33, 29, -8, -57, 50, -83, -1, -1, 5, 13, -23, -62, 25, 5, -66, -85, 14, 1, -2, -1, 16, 71, 33, -19, -14, 5, -43, 79], "withholdReward": false, "trial_id": "mdp_trial_15", "block": "test", "trialIndex": 16, "score": 9.399999999999999, "costs": -12.600000000000001, "simulationMode": [null, null, null, null, null], "rewards": [-1, -1, 5, 5, 14], "path": ["0", "0", "12", "13", "14", "19", "22"], "rt": [25334, 698, 1490, 632, 140], "actions": ["right", "right", "right", "down", "left"], "actionTimes": [27725, 28935, 30948, 32084, 32726], "queries": {"click": {"state": {"target": ["5", "9", "11", "6", "17", "16", "21", "22", "32"], "time": [4434, 6864, 8753, 11085, 13666, 15719, 18840, 21851, 23628]}, "edge": {"target": [], "time": []}}, "mouseover": {"state": {"target": ["7", "3", "5", "9", "8", "9", "8", "11", "2", "1", "2", "6", "18", "18", "15", "17", "16", "18", "12", "22", "21", "22", "0", "12", "13", "22", "31", "30", "32"], "time": [3500, 3534, 3987, 5051, 5916, 6537, 7117, 7417, 9351, 9668, 10000, 10450, 12433, 12649, 12932, 13374, 14017, 16134, 16483, 17921, 18136, 20050, 20237, 21003, 21066, 21503, 22184, 22279, 22330]}, "edge": {"target": [], "time": []}}, "mouseout": {"state": {"target": ["0", "7", "3", "5", "9", "8", "9", "8", "11", "11", "2", "1", "2", "6", "18", "18", "15", "17", "16", "18", "12", "22", "21", "22", "0", "12", "13", "22", "31", "30", "32"], "time": [1152, 3518, 3566, 4801, 5900, 5983, 7084, 7216, 8848, 9017, 9484, 9950, 10034, 11619, 12483, 12765, 13082, 13756, 16050, 16201, 17824, 17951, 19940, 20117, 20488, 21036, 21084, 22000, 22217, 22305, 24232]}, "edge": {"target": [], "time": []}}}, "displayed_time": "33.22", "trialTime": 37709, "trial_type": "mouselab-mdp", "trial_index": 23, "time_elapsed": 1001322, "internal_node_id": "0.0-6.0-1.0-14.0"}}, {"uniqueid": "w34626712:a51743722", "current_trial": 24, "dateTime": 1693565949499, "trialdata": {"revealed_states": [], "clicked_states": ["27"], "num_clicks_accrued": [0, 0, 0, 0, 0, 0, 0, 0, 0, 0, 0, 0, 0], "stateRewards": ["", 1, -1, 4, -2, -75, -75, 84, -9, -60, -79, 59, 2, -4, 8, 9, -17, -82, 80, 14, -4, 49, 49, -1, 3, 6, -11, -33, 34, 55, 9, -57, 5, 59], "withholdReward": false, "trial_id": "mdp_trial_16", "block": "test", "trialIndex": 17, "score": 74.6, "costs": -1.4, "simulationMode": [null, null, null, null, null], "rewards": [-1, 3, 6, 9, 59], "path": ["0", "0", "23", "24", "25", "30", "33"], "rt": [15331, 170, 1210, 491, 1225], "actions": ["left", "left", "left", "down", "left"], "actionTimes": [17043, 17723, 19446, 20461, 22226], "queries": {"click": {"state": {"target": ["27"], "time": [3496]}, "edge": {"target": [], "time": []}}, "mouseover": {"state": {"target": ["28", "29", "27", "29", "26", "28", "24", "24", "10", "1", "12", "0"], "time": [2453, 2699, 3121, 3834, 5837, 5984, 9766, 12752, 13220, 13783, 14370, 14565]}, "edge": {"target": [], "time": []}}, "mouseout": {"state": {"target": ["0", "28", "29", "27", "29", "26", "28", "24", "24", "10", "1", "12", "0", "0", "12", "13", "18", "0"], "time": [648, 2473, 2715, 3761, 5770, 5898, 9689, 10087, 12804, 13686, 14066, 14449, 15533, 23488, 23507, 25089, 25114, 27188]}, "edge": {"target": [], "time": []}}}, "displayed_time": "22.72", "trialTime": 41340, "trial_type": "mouselab-mdp", "trial_index": 24, "time_elapsed": 1043219, "internal_node_id": "0.0-6.0-1.0-15.0"}}, {"uniqueid": "w34626712:a51743722", "current_trial": 25, "dateTime": 1693565975706, "trialdata": {"revealed_states": [], "clicked_states": ["16", "17", "20", "18", "21"], "num_clicks_accrued": [0, 0, 0, 0, 0, 0, 0, 0, 0, 0, 0, 0, 0], "stateRewards": ["", -1, 2, -7, -12, -62, 12, -13, 5, 77, -71, 83, 1, -4, 7, 15, -42, -87, -4, 5, -25, 44, 88, -1, 4, -5, -8, 14, 51, 8, -5, 83, -24, -19], "withholdReward": false, "trial_id": "mdp_trial_17", "block": "test", "trialIndex": 18, "score": 46, "costs": -7, "simulationMode": [null, null, null, null, null], "rewards": [1, -4, 7, 5, 44], "path": ["0", "0", "12", "13", "14", "19", "21"], "rt": [16507, 442, 145, 601, 426], "actions": ["right", "right", "right", "down", "down"], "actionTimes": [18282, 19225, 19900, 21000, 21943], "queries": {"click": {"state": {"target": ["16", "17", "20", "18", "21"], "time": [3460, 5414, 7349, 11023, 13683]}, "edge": {"target": [], "time": []}}, "mouseover": {"state": {"target": ["12", "13", "15", "16", "17", "17", "20", "13", "18", "21", "22", "12", "0"], "time": [2632, 2685, 2782, 3133, 3913, 4397, 5812, 7713, 8045, 13249, 14196, 14580, 16967]}, "edge": {"target": [], "time": []}}, "mouseout": {"state": {"target": ["12", "13", "15", "16", "17", "17", "20", "13", "18", "21", "22", "12", "0"], "time": [2667, 2712, 2844, 3780, 3970, 5645, 7614, 7813, 11297, 14062, 14264, 16647, 17734]}, "edge": {"target": [], "time": []}}}, "displayed_time": "22.45", "trialTime": 25660, "trial_type": "mouselab-mdp", "trial_index": 25, "time_elapsed": 1069426, "internal_node_id": "0.0-6.0-1.0-16.0"}}, {"uniqueid": "w34626712:a51743722", "current_trial": 26, "dateTime": 1693565999987, "trialdata": {"revealed_states": [], "clicked_states": ["9", "11", "27"], "num_clicks_accrued": [0, 0, 0, 0, 0, 0, 0, 0, 0, 0, 0, 0, 0], "stateRewards": ["", -2, -3, -7, 7, -54, -69, -4, -14, -77, 22, 40, -2, -1, 5, 6, -35, 50, -60, 10, -28, 75, 57, 1, -4, -2, 2, 68, 34, -18, 12, 3, -21, -43], "withholdReward": false, "trial_id": "mdp_trial_18", "block": "test", "trialIndex": 19, "score": 60.8, "costs": -4.199999999999999, "simulationMode": [null, null, null, null, null], "rewards": [1, -4, -2, 2, 68], "path": ["0", "0", "23", "24", "25", "26", "27"], "rt": [11634, 144, 3, 551, 65], "actions": ["left", "left", "left", "up", "up"], "actionTimes": [14213, 14873, 15398, 16462, 17044], "queries": {"click": {"state": {"target": ["9", "11", "27"], "time": [4959, 6841, 9209]}, "edge": {"target": [], "time": []}}, "mouseover": {"state": {"target": ["9", "9", "9", "11", "28", "25", "25", "26", "27", "26", "25", "24", "31", "30", "32", "32", "31", "0"], "time": [3726, 3948, 4330, 5722, 7386, 7559, 7658, 7858, 8425, 9659, 9809, 10059, 10292, 10459, 10642, 11007, 12298, 12796]}, "edge": {"target": [], "time": []}}, "mouseout": {"state": {"target": ["0", "9", "9", "9", "11", "28", "25", "25", "26", "27", "26", "25", "24", "31", "30", "32", "32", "31"], "time": [2640, 3775, 4079, 5276, 7109, 7417, 7625, 7793, 8076, 9559, 9758, 9976, 10243, 10326, 10476, 10781, 11931, 12316]}, "edge": {"target": [], "time": []}}}, "displayed_time": "17.56", "trialTime": 23753, "trial_type": "mouselab-mdp", "trial_index": 26, "time_elapsed": 1093707, "internal_node_id": "0.0-6.0-1.0-17.0"}}, {"uniqueid": "w34626712:a51743722", "current_trial": 27, "dateTime": 1693566021705, "trialdata": {"revealed_states": [], "clicked_states": ["16", "5", "9"], "num_clicks_accrued": [0, 0, 0, 0, 0, 0, 0, 0, 0, 0, 0, 0, 0], "stateRewards": ["", 1, 2, -3, -5, 66, -50, -47, -5, 1, 28, -27, 1, 1, -1, -6, 37, -25, 56, 1, -82, -66, -40, -1, -4, -7, 15, -61, -23, 26, 10, 14, -56, 29], "withholdReward": false, "trial_id": "mdp_trial_19", "block": "test", "trialIndex": 20, "score": 56.8, "costs": -4.199999999999999, "simulationMode": [null, null, null, null, null], "rewards": [1, 2, -3, -5, 66], "path": ["0", "0", "1", "2", "3", "4", "5"], "rt": [10007, 595, 3, 437, 647], "actions": ["up", "up", "up", "right", "up"], "actionTimes": [14123, 15210, 15734, 16685, 17845], "queries": {"click": {"state": {"target": ["16", "5", "9"], "time": [6940, 8494, 10431]}, "edge": {"target": [], "time": []}}, "mouseover": {"state": {"target": ["15", "16", "16", "5", "9", "5", "9", "3", "2", "1", "1"], "time": [6200, 6358, 6661, 7465, 7785, 8167, 9278, 10895, 11228, 11466, 12165]}, "edge": {"target": [], "time": []}}, "mouseout": {"state": {"target": ["0", "15", "16", "16", "5", "9", "5", "9", "3", "2", "1", "1"], "time": [3382, 6332, 6443, 7197, 7596, 7879, 8930, 10814, 11162, 11328, 12026, 12244]}, "edge": {"target": [], "time": []}}}, "displayed_time": "19.13", "trialTime": 21040, "trial_type": "mouselab-mdp", "trial_index": 27, "time_elapsed": 1115425, "internal_node_id": "0.0-6.0-1.0-18.0"}}, {"uniqueid": "w34626712:a51743722", "current_trial": 28, "dateTime": 1693566045763, "trialdata": {"revealed_states": [], "clicked_states": ["27", "17"], "num_clicks_accrued": [0, 0, 0, 0, 0, 0, 0, 0, 0, 0, 0, 0, 0], "stateRewards": ["", -1, 3, -5, -2, -13, -9, -34, -7, -81, 32, 35, -2, -2, 1, -14, -32, 81, 7, 4, 82, 56, -8, -1, 3, -8, 6, -24, -24, -53, 2, 38, 61, 54], "withholdReward": false, "trial_id": "mdp_trial_20", "block": "test", "trialIndex": 21, "score": 61.2, "costs": -2.8, "simulationMode": [null, null, null, null, null], "rewards": [-2, -2, 1, -14, 81], "path": ["0", "0", "12", "13", "14", "15", "17"], "rt": [8571, 713, 270, 507, 649], "actions": ["right", "right", "right", "up", "right"], "actionTimes": [13487, 14692, 15466, 16485, 17645], "queries": {"click": {"state": {"target": ["27", "17"], "time": [6419, 8452]}, "edge": {"target": [], "time": []}}, "mouseover": {"state": {"target": ["27", "15", "17", "15", "17", "15", "16", "7", "1", "31", "32", "0", "12"], "time": [5659, 6909, 7059, 7394, 8025, 8892, 9042, 9176, 9443, 9876, 10008, 11858, 13466]}, "edge": {"target": [], "time": []}}, "mouseout": {"state": {"target": ["0", "0", "27", "15", "17", "15", "17", "15", "16", "7", "1", "31", "32", "0"], "time": [119, 5574, 6676, 7026, 7259, 8022, 8842, 8909, 9099, 9208, 9476, 9926, 11797, 11952]}, "edge": {"target": [], "time": []}}}, "displayed_time": "18.92", "trialTime": 23479, "trial_type": "mouselab-mdp", "trial_index": 28, "time_elapsed": 1139482, "internal_node_id": "0.0-6.0-1.0-19.0"}}, {"uniqueid": "w34626712:a51743722", "current_trial": 29, "dateTime": 1693566068802, "trialdata": {"revealed_states": [], "clicked_states": ["9", "6", "21"], "num_clicks_accrued": [0, 0, 0, 0, 0, 0, 0, 0, 0, 0, 0, 0, 0], "stateRewards": ["", 1, -1, 8, -3, 38, 85, -20, -4, 8, 23, 73, 2, -4, 6, -13, 44, 7, -28, -11, -77, 45, -69, 1, -1, -7, -11, 75, -51, -87, 7, 36, -53, -26], "withholdReward": false, "trial_id": "mdp_trial_21", "block": "test", "trialIndex": 22, "score": 85.8, "costs": -4.199999999999999, "simulationMode": [null, null, null, null, null], "rewards": [1, -1, 8, -3, 85], "path": ["0", "0", "1", "2", "3", "4", "6"], "rt": [10920, 376, 799, 429, 101], "actions": ["up", "up", "up", "right", "right"], "actionTimes": [15597, 16477, 17801, 18731, 19352], "queries": {"click": {"state": {"target": ["9", "6", "21"], "time": [6576, 8952, 11903]}, "edge": {"target": [], "time": []}}, "mouseover": {"state": {"target": ["1", "2", "3", "9", "2", "10", "6", "6", "15", "14", "19", "19", "21", "19", "14", "1", "1", "0"], "time": [5303, 5416, 5699, 6204, 6832, 6966, 8247, 8469, 9285, 9448, 9513, 9614, 10333, 12399, 12483, 13216, 13446, 13564]}, "edge": {"target": [], "time": []}}, "mouseout": {"state": {"target": ["12", "0", "0", "1", "2", "3", "9", "2", "10", "6", "6", "15", "14", "19", "19", "21", "19", "14", "1", "1", "0"], "time": [3217, 3349, 5202, 5369, 5466, 5950, 6782, 6884, 7900, 8280, 9159, 9305, 9507, 9554, 9898, 12024, 12448, 12634, 13332, 13496, 13742]}, "edge": {"target": [], "time": []}}}, "displayed_time": "19.85", "trialTime": 22475, "trial_type": "mouselab-mdp", "trial_index": 29, "time_elapsed": 1162522, "internal_node_id": "0.0-6.0-1.0-20.0"}}, {"uniqueid": "w34626712:a51743722", "current_trial": 30, "dateTime": 1693566089608, "trialdata": {"revealed_states": [], "clicked_states": ["27", "29", "33"], "num_clicks_accrued": [0, 0, 0, 0, 0, 0, 0, 0, 0, 0, 0, 0, 0], "stateRewards": ["", -1, -4, -1, -11, 43, 69, 39, 4, 17, -20, -82, -2, -1, 4, 8, -79, 24, -79, 11, 36, 64, 41, 2, 4, -1, 11, -79, -47, 75, -3, 63, -36, -19], "withholdReward": false, "trial_id": "mdp_trial_22", "block": "test", "trialIndex": 23, "score": 86.8, "costs": -4.199999999999999, "simulationMode": [null, null, null, null, null], "rewards": [2, 4, -1, 11, 75], "path": ["0", "0", "23", "24", "25", "26", "29"], "rt": [10279, 502, 255, 270, 209], "actions": ["left", "left", "left", "up", "left"], "actionTimes": [13190, 14192, 14961, 15726, 16449], "queries": {"click": {"state": {"target": ["27", "29", "33"], "time": [5440, 7459, 9814]}, "edge": {"target": [], "time": []}}, "mouseover": {"state": {"target": ["0", "27", "27", "27", "29", "29", "33", "30", "31", "23", "0"], "time": [3741, 4840, 4903, 5140, 5871, 6436, 7738, 11286, 11343, 11502, 11688]}, "edge": {"target": [], "time": []}}, "mouseout": {"state": {"target": ["0", "0", "27", "27", "27", "27", "29", "29", "33", "30", "31", "23", "0"], "time": [2359, 3768, 4866, 4925, 5528, 5703, 6057, 7637, 10070, 11319, 11353, 11619, 11856]}, "edge": {"target": [], "time": []}}}, "displayed_time": "16.96", "trialTime": 20283, "trial_type": "mouselab-mdp", "trial_index": 30, "time_elapsed": 1183328, "internal_node_id": "0.0-6.0-1.0-21.0"}}, {"uniqueid": "w34626712:a51743722", "current_trial": 31, "dateTime": 1693566120848, "trialdata": {"revealed_states": [], "clicked_states": ["6", "9", "21", "32", "33", "29"], "num_clicks_accrued": [0, 0, 0, 0, 0, 0, 0, 0, 0, 0, 0, 0, 0], "stateRewards": ["", -2, 1, 6, -2, -10, -78, -69, 14, -15, 7, -1, 1, -1, -2, 13, 77, 32, 87, 5, -74, 30, -26, 1, 3, 4, 12, 39, 54, -43, 2, 10, 23, 13], "withholdReward": false, "trial_id": "mdp_trial_23", "block": "test", "trialIndex": 24, "score": 24.6, "costs": -8.4, "simulationMode": [null, null, null, null, null], "rewards": [1, -1, -2, 5, 30], "path": ["0", "0", "12", "13", "14", "19", "21"], "rt": [20099, 267, 64, 364, 339], "actions": ["right", "right", "right", "down", "down"], "actionTimes": [24353, 25136, 25716, 26610, 27458], "queries": {"click": {"state": {"target": ["6", "9", "21", "32", "33", "29"], "time": [6501, 8393, 10997, 13569, 16965, 20393]}, "edge": {"target": [], "time": []}}, "mouseover": {"state": {"target": ["1", "8", "3", "4", "6", "1", "10", "8", "9", "2", "12", "22", "21", "33", "32", "32", "33", "30", "25", "26", "29", "26", "12", "0", "12"], "time": [4919, 5485, 5533, 5831, 5900, 6881, 7198, 7264, 7415, 8732, 8799, 9032, 10669, 11533, 11700, 12722, 16185, 19086, 19235, 19300, 19686, 20798, 22669, 23099, 23685]}, "edge": {"target": [], "time": []}}, "mouseout": {"state": {"target": ["0", "1", "8", "3", "4", "6", "1", "10", "8", "9", "2", "12", "22", "21", "33", "32", "32", "33", "30", "25", "26", "29", "26", "12", "0", "12", "12"], "time": [3766, 4945, 5509, 5748, 5883, 6686, 7065, 7242, 7365, 8632, 8750, 8833, 9268, 11133, 11566, 12199, 15854, 17046, 19110, 19282, 19367, 20699, 20815, 23052, 23286, 23818, 29466]}, "edge": {"target": [], "time": []}}}, "displayed_time": "27.98", "trialTime": 30686, "trial_type": "mouselab-mdp", "trial_index": 31, "time_elapsed": 1214568, "internal_node_id": "0.0-6.0-1.0-22.0"}}, {"uniqueid": "w34626712:a51743722", "current_trial": 32, "dateTime": 1693566155344, "trialdata": {"revealed_states": [], "clicked_states": ["17", "29", "27", "5", "9", "21", "20", "32", "33"], "num_clicks_accrued": [0, 0, 0, 0, 0, 0, 0, 0, 0, 0, 0, 0, 0], "stateRewards": ["", 2, 4, -3, 16, -58, 30, -35, 11, -60, 47, 27, -2, -1, -7, -16, 23, -70, 68, -10, -65, -43, -34, -2, 1, 7, 9, -63, 34, -31, -8, -12, -86, 59], "withholdReward": false, "trial_id": "mdp_trial_24", "block": "test", "trialIndex": 25, "score": 44.4, "costs": -12.600000000000001, "simulationMode": [null, null, null, null, null], "rewards": [-2, 1, 7, -8, 59], "path": ["0", "0", "23", "24", "25", "30", "33"], "rt": [24708, 245, 789, 709, 221], "actions": ["left", "left", "left", "down", "left"], "actionTimes": [27146, 27896, 29185, 30401, 31118], "queries": {"click": {"state": {"target": ["17", "29", "27", "5", "9", "21", "20", "32", "33"], "time": [3618, 5850, 8175, 10905, 13054, 15704, 17913, 20104, 22198]}, "edge": {"target": [], "time": []}}, "mouseover": {"state": {"target": ["18", "15", "17", "15", "18", "1", "10", "29", "27", "3", "5", "9", "2", "1", "22", "21", "20", "20", "19", "31", "32", "32", "33", "30", "31", "23", "23"], "time": [2919, 2959, 3313, 3860, 3907, 4010, 4328, 5093, 6793, 8428, 8727, 11343, 13410, 13493, 13877, 15214, 16160, 16443, 18145, 18237, 18743, 19410, 21625, 22427, 24042, 24510, 24741]}, "edge": {"target": [], "time": []}}, "mouseout": {"state": {"target": ["0", "0", "18", "15", "17", "15", "18", "1", "10", "29", "27", "3", "5", "9", "2", "1", "22", "21", "20", "20", "19", "31", "32", "32", "33", "30", "31", "23", "23"], "time": [1294, 2881, 2932, 3043, 3815, 3887, 3931, 4144, 4427, 6056, 8361, 8494, 11110, 13343, 13460, 13510, 13943, 16009, 16293, 18126, 18191, 18444, 19027, 20216, 22413, 22546, 24315, 24575, 25659]}, "edge": {"target": [], "time": []}}}, "displayed_time": "31.61", "trialTime": 33910, "trial_type": "mouselab-mdp", "trial_index": 32, "time_elapsed": 1249064, "internal_node_id": "0.0-6.0-1.0-23.0"}}, {"uniqueid": "w34626712:a51743722", "current_trial": 33, "dateTime": 1693566176068, "trialdata": {"revealed_states": [], "clicked_states": ["9", "10", "11"], "num_clicks_accrued": [0, 0, 0, 0, 0, 0, 0, 0, 0, 0, 0, 0, 0], "stateRewards": ["", -1, 3, -4, -14, 78, 67, 2, 13, -32, 28, 39, -2, 1, -4, -4, -4, -42, -86, 11, 64, -29, -32, -1, -4, 2, -7, 5, 68, -61, 2, -21, 85, 50], "withholdReward": false, "trial_id": "mdp_trial_25", "block": "test", "trialIndex": 26, "score": 45.8, "costs": -4.199999999999999, "simulationMode": [null, null, null, null, null], "rewards": [-1, 3, -4, 13, 39], "path": ["0", "0", "1", "2", "3", "8", "11"], "rt": [10177, 272, 12, 557, 9], "actions": ["up", "up", "up", "left", "left"], "actionTimes": [13328, 14107, 14630, 15725, 16244], "queries": {"click": {"state": {"target": ["9", "10", "11"], "time": [4705, 6748, 8702]}, "edge": {"target": [], "time": []}}, "mouseover": {"state": {"target": ["1", "2", "9", "9", "8", "10", "11", "8", "3", "0", "0"], "time": [3615, 3682, 4081, 4405, 4983, 5149, 7103, 10381, 10447, 11702, 12019]}, "edge": {"target": [], "time": []}}, "mouseout": {"state": {"target": ["0", "0", "1", "2", "9", "9", "8", "10", "11", "11", "8", "3", "0", "0"], "time": [849, 3559, 3664, 3713, 4132, 4933, 5052, 6882, 8790, 10353, 10414, 10480, 11725, 12286]}, "edge": {"target": [], "time": []}}}, "displayed_time": "17.15", "trialTime": 20189, "trial_type": "mouselab-mdp", "trial_index": 33, "time_elapsed": 1269787, "internal_node_id": "0.0-6.0-1.0-24.0"}}, {"uniqueid": "w34626712:a51743722", "current_trial": 34, "dateTime": 1693566194859, "trialdata": {"revealed_states": [], "clicked_states": ["32", "33", "27"], "num_clicks_accrued": [0, 0, 0, 0, 0, 0, 0, 0, 0, 0, 0, 0, 0], "stateRewards": ["", 2, -4, 7, 3, 23, -42, 4, 7, -81, -33, 7, -2, -4, 5, -1, 50, -57, -14, -13, -14, 44, 55, -2, -2, 5, -2, 33, 1, 57, -13, -7, 58, 87], "withholdReward": false, "trial_id": "mdp_trial_26", "block": "test", "trialIndex": 27, "score": 70.8, "costs": -4.199999999999999, "simulationMode": [null, null, null, null, null], "rewards": [-2, -2, 5, -13, 87], "path": ["0", "0", "23", "24", "25", "30", "33"], "rt": [9857, 114, 473, 798, 430], "actions": ["left", "left", "left", "down", "left"], "actionTimes": [11743, 12362, 13337, 14662, 15594], "queries": {"click": {"state": {"target": ["32", "33", "27"], "time": [4033, 6592, 8785]}, "edge": {"target": [], "time": []}}, "mouseover": {"state": {"target": ["23", "24", "31", "32", "33", "33", "25", "26", "27", "28", "24", "23"], "time": [3064, 3158, 3276, 3631, 4299, 4928, 7161, 7294, 7559, 9127, 9177, 9534]}, "edge": {"target": [], "time": []}}, "mouseout": {"state": {"target": ["0", "23", "24", "31", "32", "33", "33", "25", "26", "27", "28", "24", "23"], "time": [854, 3099, 3243, 3325, 4181, 4318, 7028, 7227, 7430, 9061, 9145, 9428, 9627]}, "edge": {"target": [], "time": []}}}, "displayed_time": "16.10", "trialTime": 18243, "trial_type": "mouselab-mdp", "trial_index": 34, "time_elapsed": 1288579, "internal_node_id": "0.0-6.0-1.0-25.0"}}, {"uniqueid": "w34626712:a51743722", "current_trial": 35, "dateTime": 1693566220244, "trialdata": {"revealed_states": [], "clicked_states": ["21", "16", "9", "27", "33", "29"], "num_clicks_accrued": [0, 0, 0, 0, 0, 0, 0, 0, 0, 0, 0, 0, 0], "stateRewards": ["", -1, 1, -2, 5, 73, 15, 61, 8, 7, 38, 76, 2, 2, -4, -6, -6, -26, 43, -5, -45, -85, -35, -2, 1, -4, 15, -10, 69, 72, -11, 84, -49, -38], "withholdReward": false, "trial_id": "mdp_trial_27", "block": "test", "trialIndex": 28, "score": 73.6, "costs": -8.4, "simulationMode": [null, null, null, null, null], "rewards": [-2, 1, -4, 15, 72], "path": ["0", "0", "23", "24", "25", "26", "29"], "rt": [17532, 333, 4, 236, 72], "actions": ["left", "left", "left", "up", "left"], "actionTimes": [18909, 19751, 20270, 21020, 21607], "queries": {"click": {"state": {"target": ["21", "16", "9", "27", "33", "29"], "time": [3619, 5542, 8397, 10393, 12898, 14821]}, "edge": {"target": [], "time": []}}, "mouseover": {"state": {"target": ["21", "19", "15", "16", "14", "2", "8", "9", "11", "27", "27", "26", "33", "29", "2", "6", "7", "1"], "time": [2719, 4181, 4448, 4664, 7486, 7538, 7835, 8147, 8731, 8947, 9364, 12285, 12612, 13515, 15065, 15380, 17315, 17364]}, "edge": {"target": [], "time": []}}, "mouseout": {"state": {"target": ["0", "21", "19", "15", "16", "14", "2", "8", "9", "11", "27", "27", "26", "33", "29", "2", "6", "7", "1"], "time": [946, 4098, 4215, 4598, 5830, 7513, 7580, 7867, 8621, 8749, 9081, 10748, 12347, 13131, 14987, 15115, 17285, 17346, 17396]}, "edge": {"target": [], "time": []}}}, "displayed_time": "22.12", "trialTime": 24848, "trial_type": "mouselab-mdp", "trial_index": 35, "time_elapsed": 1313963, "internal_node_id": "0.0-6.0-1.0-26.0"}}, {"uniqueid": "w34626712:a51743722", "current_trial": 36, "dateTime": 1693566238130, "trialdata": {"revealed_states": [], "clicked_states": ["17", "16"], "num_clicks_accrued": [0, 0, 0, 0, 0, 0, 0, 0, 0, 0, 0, 0, 0], "stateRewards": ["", -2, 4, -7, -3, -76, 39, -28, 10, 14, 12, 60, 2, -3, 6, -10, 88, -34, -41, -3, 72, -13, -56, 1, 3, 2, 8, -51, 23, -57, 1, 14, -46, -16], "withholdReward": false, "trial_id": "mdp_trial_28", "block": "test", "trialIndex": 29, "score": 80.2, "costs": -2.8, "simulationMode": [null, null, null, null, null], "rewards": [2, -3, 6, -10, 88], "path": ["0", "0", "12", "13", "14", "15", "16"], "rt": [7030, 380, 144, 613, 144], "actions": ["right", "right", "right", "up", "up"], "actionTimes": [8605, 9486, 10152, 11286, 11934], "queries": {"click": {"state": {"target": ["17", "16"], "time": [2892, 4785]}, "edge": {"target": [], "time": []}}, "mouseover": {"state": {"target": ["12", "13", "15", "17", "16", "6", "4", "5", "5", "4", "7", "12"], "time": [2041, 2069, 2268, 2518, 3120, 5054, 5091, 5354, 7076, 7188, 7220, 7425]}, "edge": {"target": [], "time": []}}, "mouseout": {"state": {"target": ["0", "12", "13", "15", "17", "16", "6", "4", "5", "5", "4", "7", "12", "0", "23", "31"], "time": [959, 2063, 2171, 2436, 2940, 4848, 5072, 5105, 5571, 7153, 7206, 7253, 7503, 15824, 16307, 16370]}, "edge": {"target": [], "time": []}}}, "displayed_time": "15.58", "trialTime": 17306, "trial_type": "mouselab-mdp", "trial_index": 36, "time_elapsed": 1331849, "internal_node_id": "0.0-6.0-1.0-27.0"}}, {"uniqueid": "w34626712:a51743722", "current_trial": 37, "dateTime": 1693566264083, "trialdata": {"revealed_states": [], "clicked_states": ["5", "6", "11", "27"], "num_clicks_accrued": [0, 0, 0, 0, 0, 0, 0, 0, 0, 0, 0, 0, 0], "stateRewards": ["", 2, 3, -6, -5, -3, 55, 40, 11, 61, 11, 51, 2, -4, -6, 9, -25, 29, -15, -6, 7, -77, -2, -2, -4, 1, 14, -43, -1, 56, -12, -54, 41, -74], "withholdReward": false, "trial_id": "mdp_trial_29", "block": "test", "trialIndex": 30, "score": 43.4, "costs": -5.6, "simulationMode": [null, null, null, null, null], "rewards": [2, 3, -6, -5, 55], "path": ["0", "0", "1", "2", "3", "4", "6"], "rt": [15526, 322, 3, 240, 824], "actions": ["up", "up", "up", "right", "right"], "actionTimes": [19532, 20374, 20888, 21667, 22993], "queries": {"click": {"state": {"target": ["5", "6", "11", "27"], "time": [5928, 7794, 10063, 12956]}, "edge": {"target": [], "time": []}}, "mouseover": {"state": {"target": ["12", "18", "5", "6", "4", "3", "11", "11", "26", "29", "27", "24", "31", "30", "30", "32", "31", "23", "1"], "time": [4902, 5020, 5452, 6235, 8082, 8103, 8123, 8415, 10449, 10631, 11264, 15486, 15564, 15631, 16118, 16547, 17998, 18048, 18402]}, "edge": {"target": [], "time": []}}, "mouseout": {"state": {"target": ["0", "12", "18", "5", "6", "6", "4", "3", "11", "11", "11", "26", "29", "27", "24", "31", "30", "30", "32", "31", "23", "1"], "time": [3467, 4934, 5055, 6165, 7909, 8065, 8100, 8119, 8139, 10141, 10349, 10507, 10965, 14926, 15523, 15598, 15664, 16468, 17980, 18030, 18080, 18433]}, "edge": {"target": [], "time": []}}}, "displayed_time": "23.51", "trialTime": 25404, "trial_type": "mouselab-mdp", "trial_index": 37, "time_elapsed": 1357803, "internal_node_id": "0.0-6.0-1.0-28.0"}}, {"uniqueid": "w34626712:a51743722", "current_trial": 38, "dateTime": 1693566289913, "trialdata": {"revealed_states": [], "clicked_states": ["21", "32", "29", "16", "7"], "num_clicks_accrued": [0, 0, 0, 0, 0, 0, 0, 0, 0, 0, 0, 0, 0], "stateRewards": ["", 2, -3, -8, 14, -7, -51, 73, 2, 36, 36, -43, -1, 3, -4, 1, 6, 87, -65, 15, 61, -42, -83, -1, 3, -2, -7, 30, -48, 35, 13, 26, 60, 78], "withholdReward": false, "trial_id": "mdp_trial_30", "block": "test", "trialIndex": 31, "score": 71, "costs": -7, "simulationMode": [null, null, null, null, null], "rewards": [2, -3, -8, 14, 73], "path": ["0", "0", "1", "2", "3", "4", "7"], "rt": [17630, 4, 18, 473, 398], "actions": ["up", "up", "up", "right", "down"], "actionTimes": [19696, 20195, 20735, 21714, 22606], "queries": {"click": {"state": {"target": ["21", "32", "29", "16", "7"], "time": [4882, 7006, 9339, 12700, 15166]}, "edge": {"target": [], "time": []}}, "mouseover": {"state": {"target": ["12", "19", "21", "31", "32", "33", "29", "29", "26", "15", "17", "16", "4", "7", "1"], "time": [3660, 3752, 4461, 5304, 5804, 7372, 7638, 8057, 11259, 11658, 11875, 12291, 13588, 14842, 17976]}, "edge": {"target": [], "time": []}}, "mouseout": {"state": {"target": ["0", "0", "12", "19", "21", "31", "32", "33", "29", "29", "26", "15", "17", "16", "4", "7", "1", "1"], "time": [192, 2674, 3680, 3903, 5120, 5338, 7272, 7404, 7835, 9446, 11321, 11682, 12008, 13471, 13771, 17574, 18491, 24651]}, "edge": {"target": [], "time": []}}}, "displayed_time": "23.11", "trialTime": 25289, "trial_type": "mouselab-mdp", "trial_index": 38, "time_elapsed": 1383632, "internal_node_id": "0.0-6.0-1.0-29.0"}}, {"uniqueid": "w34626712:a51743722", "current_trial": 39, "dateTime": 1693566310680, "trialdata": {"revealed_states": [], "clicked_states": ["9", "5", "21"], "num_clicks_accrued": [0, 0, 0, 0, 0, 0, 0, 0, 0, 0, 0, 0, 0], "stateRewards": ["", -2, -1, 3, -3, 71, -58, -21, 7, -10, -75, -37, 2, 4, -1, -12, -79, -29, -48, 3, -41, -10, -30, -1, -2, 1, -15, 13, 66, 22, -1, -42, -86, -55], "withholdReward": false, "trial_id": "mdp_trial_31", "block": "test", "trialIndex": 32, "score": 63.8, "costs": -4.199999999999999, "simulationMode": [null, null, null, null, null], "rewards": [-2, -1, 3, -3, 71], "path": ["0", "0", "1", "2", "3", "4", "5"], "rt": [9449, 164, 535, 632, 705], "actions": ["up", "up", "up", "right", "up"], "actionTimes": [13756, 14436, 15505, 16652, 17877], "queries": {"click": {"state": {"target": ["9", "5", "21"], "time": [6646, 8500, 10650]}, "edge": {"target": [], "time": []}}, "mouseover": {"state": {"target": ["1", "9", "5", "15", "21", "12"], "time": [5337, 5750, 7008, 8768, 9235, 11919]}, "edge": {"target": [], "time": []}}, "mouseout": {"state": {"target": ["1", "9", "5", "15", "21", "12", "0"], "time": [5358, 6885, 8724, 8786, 10751, 12305, 15984]}, "edge": {"target": [], "time": []}}}, "displayed_time": "18.39", "trialTime": 20136, "trial_type": "mouselab-mdp", "trial_index": 39, "time_elapsed": 1404399, "internal_node_id": "0.0-6.0-1.0-30.0"}}, {"uniqueid": "w34626712:a51743722", "current_trial": 40, "dateTime": 1693566330120, "trialdata": {"revealed_states": [], "clicked_states": ["27", "29", "17", "16"], "num_clicks_accrued": [0, 0, 0, 0, 0, 0, 0, 0, 0, 0, 0, 0, 0], "stateRewards": ["", -1, -3, 4, -10, -5, 79, -87, -2, 53, 29, -20, -2, -1, -5, 10, 27, 86, 46, -16, -29, 40, 3, 2, 4, -1, -6, 37, 79, -29, 7, 86, -62, 29], "withholdReward": false, "trial_id": "mdp_trial_32", "block": "test", "trialIndex": 33, "score": 82.4, "costs": -5.6, "simulationMode": [null, null, null, null, null], "rewards": [-2, -1, -5, 10, 86], "path": ["0", "0", "12", "13", "14", "15", "17"], "rt": [11688, 48, 37, 541, 607], "actions": ["right", "right", "right", "up", "right"], "actionTimes": [13152, 13724, 14276, 15374, 16499], "queries": {"click": {"state": {"target": ["27", "29", "17", "16"], "time": [3420, 5407, 8259, 10336]}, "edge": {"target": [], "time": []}}, "mouseover": {"state": {"target": ["28", "26", "29", "27", "26", "29", "28", "1", "17", "17", "16", "13", "12", "0"], "time": [2060, 2128, 2373, 2706, 3739, 3923, 5623, 5645, 5664, 6889, 8793, 11404, 11689, 11839]}, "edge": {"target": [], "time": []}}, "mouseout": {"state": {"target": ["28", "26", "29", "27", "26", "29", "28", "1", "17", "17", "16", "13", "12", "0", "0"], "time": [2110, 2190, 2438, 3672, 3758, 5606, 5642, 5660, 5687, 8540, 10856, 11639, 11722, 12125, 14826]}, "edge": {"target": [], "time": []}}}, "displayed_time": "17.01", "trialTime": 18880, "trial_type": "mouselab-mdp", "trial_index": 40, "time_elapsed": 1423839, "internal_node_id": "0.0-6.0-1.0-31.0"}}, {"uniqueid": "w34626712:a51743722", "current_trial": 41, "dateTime": 1693566358168, "trialdata": {"revealed_states": [], "clicked_states": ["21", "32", "9", "5", "29"], "num_clicks_accrued": [0, 0, 0, 0, 0, 0, 0, 0, 0, 0, 0, 0, 0], "stateRewards": ["", 2, -4, 1, -12, -59, -53, -74, 16, -88, -66, 66, 1, -2, 8, -9, -14, 22, 25, -1, -39, 47, -14, -1, -1, -2, 1, -4, 52, -26, 15, -7, 46, 43], "withholdReward": false, "trial_id": "mdp_trial_33", "block": "test", "trialIndex": 34, "score": 46, "costs": -7, "simulationMode": [null, null, null, null, null], "rewards": [1, -2, 8, -1, 47], "path": ["0", "0", "12", "13", "14", "19", "21"], "rt": [19967, 253, 120, 244, 612], "actions": ["right", "right", "right", "down", "down"], "actionTimes": [22198, 22975, 23609, 24374, 25485], "queries": {"click": {"state": {"target": ["21", "32", "9", "5", "29"], "time": [3725, 6008, 8263, 10556, 14702]}, "edge": {"target": [], "time": []}}, "mouseover": {"state": {"target": ["21", "26", "25", "30", "32", "32", "31", "10", "8", "9", "5", "26", "29", "26", "28", "23", "0", "1", "2", "7", "7", "1", "7", "6", "12"], "time": [3057, 4457, 4495, 4768, 4803, 4951, 6303, 6406, 6468, 6585, 9486, 13268, 13336, 16906, 16955, 17072, 17405, 17754, 17973, 18216, 18456, 18756, 19285, 19488, 20901]}, "edge": {"target": [], "time": []}}, "mouseout": {"state": {"target": ["0", "0", "21", "21", "26", "25", "30", "32", "32", "31", "10", "8", "9", "5", "26", "29", "26", "28", "23", "0", "1", "2", "7", "7", "1", "7", "6", "12", "0"], "time": [1120, 1587, 3852, 4003, 4490, 4522, 4786, 4835, 6239, 6336, 6436, 6552, 8736, 13207, 13286, 16756, 16933, 16972, 17104, 17519, 17869, 18189, 18242, 18560, 19239, 19352, 20640, 20918, 26923]}, "edge": {"target": [], "time": []}}}, "displayed_time": "26.01", "trialTime": 27492, "trial_type": "mouselab-mdp", "trial_index": 41, "time_elapsed": 1451888, "internal_node_id": "0.0-6.0-1.0-32.0"}}, {"uniqueid": "w34626712:a51743722", "current_trial": 42, "dateTime": 1693566383015, "trialdata": {"revealed_states": [], "clicked_states": ["28", "17", "6", "11", "21", "32"], "num_clicks_accrued": [0, 0, 0, 0, 0, 0, 0, 0, 0, 0, 0, 0, 0], "stateRewards": ["", -2, 2, 2, -6, 9, 37, 50, -13, -7, -18, -75, -2, -4, 4, 7, 23, -57, -66, -7, -81, -48, -76, 1, 1, -8, 1, 51, -2, 70, 14, 59, 71, -37], "withholdReward": false, "trial_id": "mdp_trial_34", "block": "test", "trialIndex": 35, "score": 70.6, "costs": -8.4, "simulationMode": [null, null, null, null, null], "rewards": [1, 1, -8, 14, 71], "path": ["0", "0", "23", "24", "25", "30", "32"], "rt": [17937, 275, 24, 369, 341], "actions": ["left", "left", "left", "down", "down"], "actionTimes": [19456, 20253, 20785, 21662, 22503], "queries": {"click": {"state": {"target": ["28", "17", "6", "11", "21", "32"], "time": [2925, 5253, 7179, 9203, 11821, 15374]}, "edge": {"target": [], "time": []}}, "mouseover": {"state": {"target": ["28", "26", "29", "25", "17", "6", "4", "6", "4", "3", "8", "11", "8", "3", "7", "18", "21", "23", "25", "33", "30", "32", "31", "23"], "time": [2625, 3325, 3707, 4208, 4912, 5532, 5590, 5875, 7344, 7363, 7382, 7428, 9591, 9626, 11112, 11164, 11479, 13962, 14003, 14088, 14395, 14757, 17789, 17890]}, "edge": {"target": [], "time": []}}, "mouseout": {"state": {"target": ["0", "28", "26", "29", "25", "17", "6", "4", "6", "4", "3", "8", "11", "8", "3", "7", "18", "21", "23", "25", "33", "30", "32", "31", "23"], "time": [838, 3291, 3524, 4041, 4258, 5390, 5561, 5715, 7340, 7359, 7377, 7397, 9558, 9608, 9658, 11141, 11180, 12007, 13986, 14024, 14107, 14529, 15492, 17839, 17908]}, "edge": {"target": [], "time": []}}}, "displayed_time": "23.03", "trialTime": 24296, "trial_type": "mouselab-mdp", "trial_index": 42, "time_elapsed": 1476735, "internal_node_id": "0.0-6.0-1.0-33.0"}}, {"uniqueid": "w34626712:a51743722", "current_trial": 43, "dateTime": 1693566405470, "trialdata": {"revealed_states": [], "clicked_states": [], "num_clicks_accrued": [0, 0, 0, 0, 0, 0, 0, 0, 0, 0, 0, 0, 0], "stateRewards": ["", 1, 4, 5, 8, -55, -11, 8, 16, -37, 77, -22, -2, 3, -8, -10, 45, 87, -67, 4, 17, -33, -22, -1, -3, 7, 6, -39, -85, 75, -1, 7, -48, 45], "withholdReward": false, "trial_id": "mdp_trial_35", "block": "test", "trialIndex": 36, "score": 14, "costs": 0, "simulationMode": [null, null, null, null, null], "rewards": [-2, 3, -8, 4, 17], "path": ["0", "0", "12", "13", "14", "19", "20"], "rt": [11716, 130, 77, 665, 763], "actions": ["right", "right", "right", "down", "right"], "actionTimes": [14139, 14774, 15370, 16561, 17839], "queries": {"click": {"state": {"target": [], "time": []}, "edge": {"target": [], "time": []}}, "mouseover": {"state": {"target": ["18", "15", "17", "3", "2", "1"], "time": [3328, 3384, 3744, 7424, 7479, 7558]}, "edge": {"target": [], "time": []}}, "mouseout": {"state": {"target": ["0", "18", "15", "17", "3", "2", "1"], "time": [2084, 3360, 3439, 5826, 7459, 7508, 12460]}, "edge": {"target": [], "time": []}}}, "displayed_time": "18.34", "trialTime": 21865, "trial_type": "mouselab-mdp", "trial_index": 43, "time_elapsed": 1499189, "internal_node_id": "0.0-6.0-1.0-34.0"}}, {"uniqueid": "w34626712:a51743722", "current_trial": 44, "dateTime": 1693566427265, "trialdata": {"revealed_states": [], "clicked_states": ["9", "5", "21", "29"], "num_clicks_accrued": [0, 0, 0, 0, 0, 0, 0, 0, 0, 0, 0, 0, 0], "stateRewards": ["", -1, -2, -8, 8, -27, -82, 19, -14, -62, 4, 1, -2, 2, 6, 10, 73, -51, -2, 2, 73, -48, 54, -1, 2, -4, 11, -25, 47, 86, 15, 33, 43, -42], "withholdReward": false, "trial_id": "mdp_trial_36", "block": "test", "trialIndex": 37, "score": 88.4, "costs": -5.6, "simulationMode": [null, null, null, null, null], "rewards": [-1, 2, -4, 11, 86], "path": ["0", "0", "23", "24", "25", "26", "29"], "rt": [12136, 364, 237, 272, 155], "actions": ["left", "left", "left", "up", "left"], "actionTimes": [15124, 15981, 16737, 17523, 18202], "queries": {"click": {"state": {"target": ["9", "5", "21", "29"], "time": [4920, 6792, 8903, 11114]}, "edge": {"target": [], "time": []}}, "mouseover": {"state": {"target": ["1", "2", "3", "9", "5", "5", "4", "21", "21", "30", "25", "29", "33", "24", "23", "0"], "time": [4050, 4094, 4122, 4528, 5149, 5963, 6967, 7047, 7764, 9316, 9464, 9796, 11831, 13447, 13579, 14002]}, "edge": {"target": [], "time": []}}, "mouseout": {"state": {"target": ["0", "1", "2", "3", "9", "5", "5", "4", "21", "21", "30", "25", "29", "33", "24", "23"], "time": [915, 4079, 4108, 4162, 5113, 5171, 6964, 6981, 7066, 8980, 9438, 9613, 11416, 13339, 13562, 13596]}, "edge": {"target": [], "time": []}}}, "displayed_time": "18.70", "trialTime": 21233, "trial_type": "mouselab-mdp", "trial_index": 44, "time_elapsed": 1520985, "internal_node_id": "0.0-6.0-1.0-35.0"}}, {"uniqueid": "w34626712:a51743722", "current_trial": 45, "dateTime": 1693566452671, "trialdata": {"revealed_states": [], "clicked_states": ["6", "21", "28", "11", "17"], "num_clicks_accrued": [0, 0, 0, 0, 0, 0, 0, 0, 0, 0, 0, 0, 0], "stateRewards": ["", -2, 4, -5, -12, 85, -24, -18, -15, -78, -22, 26, -1, -1, 2, 14, -45, 52, -23, 7, -33, 24, -6, -2, -4, 5, -7, -16, 36, -39, 5, 71, -87, -23], "withholdReward": false, "trial_id": "mdp_trial_37", "block": "test", "trialIndex": 38, "score": 59, "costs": -7, "simulationMode": [null, null, null, null, null], "rewards": [-1, -1, 2, 14, 52], "path": ["0", "0", "12", "13", "14", "15", "17"], "rt": [16697, 347, 192, 794, 626], "actions": ["right", "right", "right", "up", "right"], "actionTimes": [17979, 18850, 19557, 20892, 22026], "queries": {"click": {"state": {"target": ["6", "21", "28", "11", "17"], "time": [2823, 4997, 6993, 10245, 14254]}, "edge": {"target": [], "time": []}}, "mouseover": {"state": {"target": ["1", "2", "7", "6", "18", "19", "21", "25", "26", "28", "29", "27", "11", "2", "7", "16", "17", "14", "13", "12", "0"], "time": [2103, 2195, 2278, 2450, 3531, 3807, 4015, 5330, 5627, 5864, 8048, 9579, 9678, 12733, 12754, 12919, 13435, 16519, 16566, 16648, 17118]}, "edge": {"target": [], "time": []}}, "mouseout": {"state": {"target": ["0", "1", "2", "7", "6", "18", "19", "21", "25", "26", "28", "29", "27", "11", "2", "7", "16", "17", "14", "13", "12", "0"], "time": [647, 2161, 2228, 2363, 3398, 3581, 3947, 5130, 5549, 5731, 7314, 9530, 9629, 10597, 12750, 12773, 13183, 16416, 16546, 16630, 16864, 17317]}, "edge": {"target": [], "time": []}}}, "displayed_time": "22.54", "trialTime": 24789, "trial_type": "mouselab-mdp", "trial_index": 45, "time_elapsed": 1546391, "internal_node_id": "0.0-6.0-1.0-36.0"}}, {"uniqueid": "w34626712:a51743722", "current_trial": 46, "dateTime": 1693566487227, "trialdata": {"revealed_states": [], "clicked_states": ["11", "20", "33", "32", "28"], "num_clicks_accrued": [0, 0, 0, 0, 0, 0, 0, 0, 0, 0, 0, 0, 0], "stateRewards": ["", 2, -1, -2, -5, -47, -57, -33, -11, 31, -18, -72, -2, 1, -4, -8, -46, -53, -50, 15, -85, -9, 39, -2, -2, 1, 14, -1, -8, 53, -12, -41, -74, 62], "withholdReward": false, "trial_id": "mdp_trial_38", "block": "test", "trialIndex": 39, "score": -96, "costs": -7, "simulationMode": [null, null, null, null, null], "rewards": [-2, -2, 1, -12, -74], "path": ["0", "0", "23", "24", "25", "30", "32"], "rt": [15884, 400, 347, 368, 412], "actions": ["left", "left", "left", "down", "down"], "actionTimes": [17025, 17938, 18785, 19656, 20567], "queries": {"click": {"state": {"target": ["11", "20", "33", "32", "28"], "time": [3014, 5294, 7521, 9924, 12639]}, "edge": {"target": [], "time": []}}, "mouseover": {"state": {"target": ["1", "2", "3", "8", "11", "8", "4", "6", "14", "19", "20", "19", "12", "23", "25", "30", "33", "32", "32", "30", "25", "26", "28", "24", "30", "23", "0"], "time": [1973, 2050, 2275, 2384, 2567, 3370, 3588, 3820, 4036, 4204, 4722, 5536, 5571, 5604, 5786, 6221, 6287, 7989, 8520, 11969, 11993, 12273, 12327, 13053, 14972, 15119, 15456]}, "edge": {"target": [], "time": []}}, "mouseout": {"state": {"target": ["0", "1", "2", "3", "8", "11", "8", "4", "6", "14", "19", "20", "19", "12", "23", "25", "30", "33", "32", "32", "30", "25", "26", "28", "24", "30", "23", "0", "0", "12", "18", "13", "12", "24", "24"], "time": [787, 2018, 2119, 2318, 2521, 3353, 3385, 3736, 3903, 4153, 4553, 5453, 5555, 5588, 5622, 5820, 6240, 7729, 8088, 11920, 11989, 12018, 12304, 13003, 13071, 15002, 15241, 15482, 23855, 32505, 32688, 32821, 32953, 33368, 33451]}, "edge": {"target": [], "time": []}}}, "displayed_time": "21.07", "trialTime": 33967, "trial_type": "mouselab-mdp", "trial_index": 46, "time_elapsed": 1580947, "internal_node_id": "0.0-6.0-1.0-37.0"}}, {"uniqueid": "w34626712:a51743722", "current_trial": 47, "dateTime": 1693566513327, "trialdata": {"revealed_states": [], "clicked_states": [], "num_clicks_accrued": [0, 0, 0, 0, 0, 0, 0, 0, 0, 0, 0, 0, 0], "stateRewards": ["", 2, 4, 4, 9, -88, -10, 44, 16, -54, 64, 78, 1, 2, 5, 16, 80, 36, 7, -4, 9, -47, -70, -1, -3, 6, -16, 11, 80, 28, 8, -1, 34, -17], "withholdReward": false, "trial_id": "mdp_trial_39", "block": "test", "trialIndex": 40, "score": 13, "costs": 0, "simulationMode": [null, null, null, null, null], "rewards": [1, 2, 5, -4, 9], "path": ["0", "0", "12", "13", "14", "19", "20"], "rt": [12423, 792, 181, 182, 677], "actions": ["right", "right", "right", "down", "right"], "actionTimes": [17659, 18971, 19655, 20338, 21533], "queries": {"click": {"state": {"target": [], "time": []}, "edge": {"target": [], "time": []}}, "mouseover": {"state": {"target": ["1", "2", "3", "9", "5", "5", "15", "17", "13", "12", "0"], "time": [7489, 7905, 8155, 8553, 9406, 10039, 12686, 13156, 14689, 14742, 15091]}, "edge": {"target": [], "time": []}}, "mouseout": {"state": {"target": ["23", "1", "2", "3", "9", "5", "5", "15", "17", "13", "12", "0"], "time": [4286, 7640, 8022, 8268, 9257, 9590, 12588, 12704, 14556, 14715, 14773, 15154]}, "edge": {"target": [], "time": []}}}, "displayed_time": "22.04", "trialTime": 25483, "trial_type": "mouselab-mdp", "trial_index": 47, "time_elapsed": 1607047, "internal_node_id": "0.0-6.0-1.0-38.0"}}, {"uniqueid": "w34626712:a51743722", "current_trial": 48, "dateTime": 1693566537791, "trialdata": {"revealed_states": [], "clicked_states": ["9", "5", "29", "17"], "num_clicks_accrued": [0, 0, 0, 0, 0, 0, 0, 0, 0, 0, 0, 0, 0], "stateRewards": ["", 1, 2, -3, -6, 50, -7, 7, -7, -80, 21, -1, 2, 2, 4, -1, 33, 84, 1, 14, -53, 81, 6, -2, -2, -3, -9, -87, -38, -59, -5, -74, -3, -71], "withholdReward": false, "trial_id": "mdp_trial_40", "block": "test", "trialIndex": 41, "score": 85.4, "costs": -5.6, "simulationMode": [null, null, null, null, null], "rewards": [2, 2, 4, -1, 84], "path": ["0", "0", "12", "13", "14", "15", "17"], "rt": [13047, 5, 54, 501, 205], "actions": ["right", "right", "right", "up", "right"], "actionTimes": [15243, 15746, 16328, 17340, 18062], "queries": {"click": {"state": {"target": ["9", "5", "29", "17"], "time": [5096, 6992, 9126, 11497]}, "edge": {"target": [], "time": []}}, "mouseover": {"state": {"target": ["1", "8", "9", "9", "5", "4", "7", "2", "10", "27", "29", "26", "1", "18", "15", "17", "20", "20", "20", "14", "13", "12", "0", "12"], "time": [3492, 3552, 3573, 3991, 6187, 7350, 7604, 7820, 7873, 8123, 8388, 9455, 9504, 9540, 9562, 9771, 12172, 12339, 12522, 13803, 13886, 13970, 14275, 14870]}, "edge": {"target": [], "time": []}}, "mouseout": {"state": {"target": ["1", "0", "1", "8", "9", "9", "5", "4", "7", "2", "10", "27", "29", "26", "1", "18", "15", "17", "20", "20", "20", "14", "13", "12", "0", "12"], "time": [1091, 2210, 3504, 3570, 3587, 5557, 7324, 7412, 7805, 7855, 7922, 8188, 9261, 9471, 9520, 9556, 9659, 11739, 12240, 12358, 13725, 13836, 13937, 13989, 14503, 14887]}, "edge": {"target": [], "time": []}}}, "displayed_time": "18.59", "trialTime": 23867, "trial_type": "mouselab-mdp", "trial_index": 48, "time_elapsed": 1631511, "internal_node_id": "0.0-6.0-1.0-39.0"}}, {"uniqueid": "w34626712:a51743722", "current_trial": 49, "dateTime": 1693566608237, "trialdata": {"rt": 69866, "response": {"Q0": "$-2 to $2", "Q1": "$-16 to $16", "Q2": "$-88 to $88", "Q3": "The cost for clicking on nodes varied between nodes.", "Q4": "Slightly motivated"}, "question_order": [0, 1, 2, 3, 4], "trial_id": "final_quiz_control", "trial_type": "survey-multi-choice", "trial_index": 49, "time_elapsed": 1701957, "internal_node_id": "0.0-6.0-2.0"}}, {"uniqueid": "w34626712:a51743722", "current_trial": 50, "dateTime": 1693566736398, "trialdata": {"rt": 127454, "response": {"Q0": "I only only clicked on the nodes at the final step, which seemed helpful.", "Q1": "I believe I became quicker, not necessarily a strategy.", "Q2": "I made some incorrect moves and ended in the wrong block (unintended)."}, "trial_id": "self_report_control", "trial_type": "survey-text", "trial_index": 50, "time_elapsed": 1830119, "internal_node_id": "0.0-6.0-3.0"}}, {"uniqueid": "w34626712:a51743722", "current_trial": 51, "dateTime": 1693566761318, "trialdata": {"rt": 24817, "response": {"gender": "female", "age": "33", "colorblind": "0", "effort": "0"}, "trial_type": "survey-html-form", "trial_index": 51, "time_elapsed": 1855039, "internal_node_id": "0.0-6.0-4.0"}}, {"uniqueid": "w34626712:a51743722", "current_trial": 52, "dateTime": 1693566813558, "trialdata": {"rt": 52223, "response": {"Q0": "Initially, I was confused, but eventually, I got the hang of it and it went well.", "Q1": "No, I have never.", "Q2": "N/A"}, "trial_type": "survey-text", "trial_index": 52, "time_elapsed": 1907279, "internal_node_id": "0.0-6.0-5.0"}}, {"uniqueid": "w34626712:a51743722", "current_trial": 53, "dateTime": 1693566853114, "trialdata": {"rt": 39497, "stimulus": "<h1>Completion Code Instructions (1/2)</h1>\n<br><br><br><br>\nYou have reached the end of the experiment! The completion code consists of two parts: (1) a code with 2 characters (2) a code with 6 characters. On this page, you will receive the second part of the code. The first part of the completion code will be on the next page.\n<br><br>\nThe second part of your completion code is: <b>EWEK22</b>\n<br><br>\nPlease note this down. Then, press 'Finish HIT' in order to find the first part of your completion code. Once the data has been saved, you will receive this code either in this window or in the original browser window where you started the experiment.\n", "response": 0, "trial_type": "html-button-response", "trial_index": 53, "time_elapsed": 1946835, "internal_node_id": "0.0-6.0-6.0"}}, {"uniqueid": "w34626712:a51743722", "current_trial": 54, "dateTime": 1693566854274, "trialdata": {"success": true, "trial_type": "fullscreen", "trial_index": 54, "time_elapsed": 1947995, "internal_node_id": "0.0-7.0"}}], "questiondata": {"params": {"CODE": "C6DMOQA6", "MIN_TIME": 14, "inspectCost": 1, "startTime": "Fri Sep 01 2023 12:41:43 GMT+0200 (Eastern European Standard Time)", "bonusRate": 0.002, "variance": "1_2_4_8_44", "branching": "31123"}, "final_score": 1868}, "eventdata": [{"eventtype": "initialized", "value": null, "timestamp": 1693564902404, "interval": 0}, {"eventtype": "window_resize", "value": [1024, 654], "timestamp": 1693564902404, "interval": 0}, {"eventtype": "window_resize", "value": [1024, 654], "timestamp": 1693564903437, "interval": 1033}, {"eventtype": "window_resize", "value": [1366, 768], "timestamp": 1693564916270, "interval": 12833}], "useragent": "Mozilla/5.0 (Windows NT 10.0; Win64; x64) AppleWebKit/537.36 (KHTML, like Gecko) Chrome/116.0.0.0 Safari/537.36", "mode": "live", "id": "w34626712:a51743722", "status": "user data saved", "Beginhit": "2023-09-01 10:41:39.435822", "Beginexp": "2023-09-01 10:41:58.654168", "Endhit": "2023-09-01 11:14:17.596858", "psiturkStatus": 3, "browser": "<redacted>", "platform": "windows", "language": "en-US"}