{"condition": 0, "counterbalance": 0, "assignmentId": "a37137423", "workerId": "w43956765", "hitId": "h60983603", "currenttrial": 14, "bonus": 0, "data": [{"uniqueid": "w43956765:a37137423", "current_trial": 0, "dateTime": 1691071657549, "trialdata": {"success": true, "trial_type": "fullscreen", "trial_index": 0, "time_elapsed": 9549, "internal_node_id": "0.0-0.0"}}, {"uniqueid": "w43956765:a37137423", "current_trial": 1, "dateTime": 1691071701492, "trialdata": {"view_history": [{"page_index": 0, "viewing_time": 43915}], "rt": 43917, "trial_id": "exp_instructions_control", "trial_type": "instructions", "trial_index": 1, "time_elapsed": 53493, "internal_node_id": "0.0-1.0"}}, {"uniqueid": "w43956765:a37137423", "current_trial": 2, "dateTime": 1691071707848, "trialdata": {"success": true, "trial_type": "fullscreen", "trial_index": 2, "time_elapsed": 59849, "internal_node_id": "0.0-2.0-0.0"}}, {"uniqueid": "w43956765:a37137423", "current_trial": 3, "dateTime": 1691072131501, "trialdata": {"view_history": [{"page_index": 0, "viewing_time": 166144}, {"page_index": 1, "viewing_time": 139139}, {"page_index": 2, "viewing_time": 41343}, {"page_index": 3, "viewing_time": 77016}], "rt": 423642, "trial_id": "mouselab_instructions_1_control", "trial_type": "instructions", "trial_index": 3, "time_elapsed": 483502, "internal_node_id": "0.0-2.0-1.0"}}, {"uniqueid": "w43956765:a37137423", "current_trial": 4, "dateTime": 1691072187234, "trialdata": {"revealed_states": [], "clicked_states": ["23", "24", "25", "26", "27", "1", "2", "3", "4", "6", "12", "13", "14"], "num_clicks_accrued": [0, 0, 0, 0, 0, 0, 0, 0, 0, 0, 0, 0, 0], "stateRewards": ["", -10, 10, -10, -10, 10, 10, -10, -10, 10, 10, -10, -10, -10, 10, 10, 10, -10, 10, -10, 10, 10, -10, 10, 10, 10, 10, 10, 10, 10, 10, 10, -10, -10], "withholdReward": false, "trial_id": "practice_1", "block": "test", "trialIndex": 0, "score": 7, "costs": -6.5, "simulationMode": [null, null, null, null, null], "rewards": [-10, -10, 10, 10, 10], "path": ["0", "0", "12", "13", "14", "15", "16"], "rt": [35629, 200, 531, 714, 321], "actions": ["right", "right", "right", "up", "up"], "actionTimes": [38103, 38798, 39846, 41060, 41901], "queries": {"click": {"state": {"target": ["23", "24", "25", "26", "27", "1", "2", "3", "4", "6", "12", "13", "14"], "time": [4514, 7003, 9040, 10827, 12629, 21598, 22953, 24731, 26446, 27815, 31485, 32930, 34931]}, "edge": {"target": [], "time": []}}, "mouseover": {"state": {"target": ["23", "23", "24", "25", "26", "27", "26", "28", "13", "15", "7", "7", "1", "2", "3", "4", "6", "2", "1", "12", "13", "14"], "time": [3212, 3545, 6461, 7742, 10309, 12116, 15459, 17281, 17314, 20594, 20623, 20890, 20928, 22398, 24178, 26041, 27362, 30178, 30210, 30906, 32330, 33831]}, "edge": {"target": [], "time": []}}, "mouseout": {"state": {"target": ["0", "23", "23", "24", "25", "26", "27", "26", "28", "13", "15", "7", "7", "1", "2", "3", "4", "6", "2", "1", "12", "12", "13", "14", "14", "20"], "time": [3196, 3371, 4949, 7700, 9883, 11878, 14310, 17260, 17301, 17328, 20612, 20635, 20910, 22181, 24078, 25870, 27296, 30028, 30204, 30224, 31657, 32063, 33811, 35139, 45738, 45751]}, "edge": {"target": [], "time": []}}}, "displayed_time": "42.41", "trialTime": 53301, "trial_type": "mouselab-mdp", "trial_index": 4, "time_elapsed": 539233, "internal_node_id": "0.0-2.0-2.0-0.0"}}, {"uniqueid": "w43956765:a37137423", "current_trial": 5, "dateTime": 1691072211087, "trialdata": {"revealed_states": [], "clicked_states": [], "num_clicks_accrued": [0, 0, 0, 0, 0, 0, 0, 0, 0, 0, 0, 0, 0], "stateRewards": ["", 10, -10, -10, -10, -10, 10, 10, 10, 10, -10, 10, 10, 10, -10, -10, 10, -10, 10, -10, -10, 10, 10, -10, -10, -10, -10, -10, -10, -10, -10, -10, 10, -10], "withholdReward": false, "trial_id": "practice_2", "block": "test", "trialIndex": 1, "score": 13.5, "costs": 0, "simulationMode": [null, null, null, null, null], "rewards": [10, 10, -10, -10, 10], "path": ["0", "0", "12", "13", "14", "15", "16"], "rt": [4875, 442, 399, 1531, 351], "actions": ["right", "right", "right", "up", "up"], "actionTimes": [12469, 13443, 14343, 16375, 17228], "queries": {"click": {"state": {"target": [], "time": []}, "edge": {"target": [], "time": []}}, "mouseover": {"state": {"target": [], "time": []}, "edge": {"target": [], "time": []}}, "mouseout": {"state": {"target": ["0", "12"], "time": [19621, 19657]}, "edge": {"target": [], "time": []}}}, "displayed_time": "17.74", "trialTime": 23335, "trial_type": "mouselab-mdp", "trial_index": 5, "time_elapsed": 563086, "internal_node_id": "0.0-2.0-2.0-1.0"}}, {"uniqueid": "w43956765:a37137423", "current_trial": 6, "dateTime": 1691072377158, "trialdata": {"view_history": [{"page_index": 0, "viewing_time": 144033}, {"page_index": 1, "viewing_time": 22024}], "rt": 166058, "trial_id": "mouselab_instructions_2_control", "trial_type": "instructions", "trial_index": 6, "time_elapsed": 729159, "internal_node_id": "0.0-2.0-3.0"}}, {"uniqueid": "w43956765:a37137423", "current_trial": 7, "dateTime": 1691072442840, "trialdata": {"rt": 65661, "response": {"Q0": "The cost for clicking on nodes may vary between nodes.", "Q1": "The better I perform the higher my bonus will be.", "Q2": "No, the amount of cash at each node of the web may be different each time.", "Q3": "To click on the least number of nodes.", "Q4": "Only before moving the spider.", "Q5": "10 seconds"}, "question_order": [0, 1, 2, 3, 4, 5], "correct": {"Q0": "The cost for clicking on nodes may vary between nodes.", "Q1": "The better I perform the higher my bonus will be.", "Q2": "No, the amount of cash at each node of the web may be different each time.", "Q3": "To get the highest total score.", "Q4": "Only before moving the spider.", "Q5": "3 seconds"}, "trial_id": "mouselab_quiz_control", "trial_type": "survey-multi-choice", "trial_index": 7, "time_elapsed": 794841, "internal_node_id": "0.0-2.0-4.0"}}, {"uniqueid": "w43956765:a37137423", "current_trial": 8, "dateTime": 1691072464520, "trialdata": {"success": true, "trial_type": "fullscreen", "trial_index": 8, "time_elapsed": 816521, "internal_node_id": "0.0-2.1-0.1"}}, {"uniqueid": "w43956765:a37137423", "current_trial": 9, "dateTime": 1691072493002, "trialdata": {"view_history": [{"page_index": 0, "viewing_time": 7082}, {"page_index": 1, "viewing_time": 6993}, {"page_index": 2, "viewing_time": 2039}, {"page_index": 3, "viewing_time": 12355}], "rt": 28470, "trial_id": "mouselab_instructions_1_control", "trial_type": "instructions", "trial_index": 9, "time_elapsed": 845002, "internal_node_id": "0.0-2.1-1.1"}}, {"uniqueid": "w43956765:a37137423", "current_trial": 10, "dateTime": 1691072515995, "trialdata": {"revealed_states": [], "clicked_states": [], "num_clicks_accrued": [0, 0, 0, 0, 0, 0, 0, 0, 0, 0, 0, 0, 0], "stateRewards": ["", -10, 10, -10, -10, 10, 10, -10, -10, 10, 10, -10, -10, -10, 10, 10, 10, -10, 10, -10, 10, 10, -10, 10, 10, 10, 10, 10, 10, 10, 10, 10, -10, -10], "withholdReward": false, "trial_id": "practice_1", "block": "test", "trialIndex": 2, "score": -6.5, "costs": 0, "simulationMode": [null, null, null, null, null], "rewards": [-10, -10, 10, 10, -10], "path": ["0", "0", "12", "13", "14", "15", "17"], "rt": [3184, 371, 490, 1600, 238], "actions": ["right", "right", "right", "up", "right"], "actionTimes": [10013, 10902, 11917, 14041, 14796], "queries": {"click": {"state": {"target": [], "time": []}, "edge": {"target": [], "time": []}}, "mouseover": {"state": {"target": [], "time": []}, "edge": {"target": [], "time": []}}, "mouseout": {"state": {"target": ["14", "13", "0", "12", "13", "14"], "time": [5066, 5101, 17022, 17053, 17139, 17188]}, "edge": {"target": [], "time": []}}}, "displayed_time": "15.29", "trialTime": 22439, "trial_type": "mouselab-mdp", "trial_index": 10, "time_elapsed": 867994, "internal_node_id": "0.0-2.1-2.1-0.1"}}, {"uniqueid": "w43956765:a37137423", "current_trial": 11, "dateTime": 1691072534723, "trialdata": {"revealed_states": [], "clicked_states": [], "num_clicks_accrued": [0, 0, 0, 0, 0, 0, 0, 0, 0, 0, 0, 0, 0], "stateRewards": ["", 10, -10, -10, -10, -10, 10, 10, 10, 10, -10, 10, 10, 10, -10, -10, 10, -10, 10, -10, -10, 10, 10, -10, -10, -10, -10, -10, -10, -10, -10, -10, 10, -10], "withholdReward": false, "trial_id": "practice_2", "block": "test", "trialIndex": 3, "score": -6.5, "costs": 0, "simulationMode": [null, null, null, null, null], "rewards": [10, -10, -10, -10, 10], "path": ["0", "0", "1", "2", "3", "4", "6"], "rt": [2038, 1057, 484, 1784, 342], "actions": ["up", "up", "up", "right", "right"], "actionTimes": [7422, 9014, 10022, 12306, 13146], "queries": {"click": {"state": {"target": [], "time": []}, "edge": {"target": [], "time": []}}, "mouseover": {"state": {"target": [], "time": []}, "edge": {"target": [], "time": []}}, "mouseout": {"state": {"target": ["19", "12", "0"], "time": [4194, 4383, 15417]}, "edge": {"target": [], "time": []}}}, "displayed_time": "13.65", "trialTime": 18131, "trial_type": "mouselab-mdp", "trial_index": 11, "time_elapsed": 886722, "internal_node_id": "0.0-2.1-2.1-1.1"}}, {"uniqueid": "w43956765:a37137423", "current_trial": 12, "dateTime": 1691072573647, "trialdata": {"view_history": [{"page_index": 0, "viewing_time": 32672}, {"page_index": 1, "viewing_time": 6235}], "rt": 38909, "trial_id": "mouselab_instructions_2_control", "trial_type": "instructions", "trial_index": 12, "time_elapsed": 925648, "internal_node_id": "0.0-2.1-3.1"}}, {"uniqueid": "w43956765:a37137423", "current_trial": 13, "dateTime": 1691072678950, "trialdata": {"rt": 105289, "response": {"Q0": "The cost for clicking on nodes may vary between nodes.", "Q1": "The better I perform the higher my bonus will be.", "Q2": "No, the amount of cash at each node of the web may be different each time.", "Q3": "To click on the least number of nodes.", "Q4": "Only before moving the spider.", "Q5": "10 seconds"}, "question_order": [0, 1, 2, 3, 4, 5], "correct": {"Q0": "The cost for clicking on nodes may vary between nodes.", "Q1": "The better I perform the higher my bonus will be.", "Q2": "No, the amount of cash at each node of the web may be different each time.", "Q3": "To get the highest total score.", "Q4": "Only before moving the spider.", "Q5": "3 seconds"}, "trial_id": "mouselab_quiz_control", "trial_type": "survey-multi-choice", "trial_index": 13, "time_elapsed": 1030951, "internal_node_id": "0.0-2.1-4.1"}}], "questiondata": {"params": {"CODE": "C6DMOQA6", "MIN_TIME": 14, "inspectCost": 1, "startTime": "Thu Aug 03 2023 16:07:25 GMT+0200 (South Africa Standard Time)", "bonusRate": 0.002, "variance": "1_2_4_8_44", "branching": "31123"}}, "eventdata": [{"eventtype": "initialized", "value": null, "timestamp": 1691071644745, "interval": 0}, {"eventtype": "window_resize", "value": [1024, 658], "timestamp": 1691071644745, "interval": 0}, {"eventtype": "window_resize", "value": [1024, 658], "timestamp": 1691071645355, "interval": 610}, {"eventtype": "window_resize", "value": [1366, 768], "timestamp": 1691071657037, "interval": 11682}, {"eventtype": "focus", "value": "off", "timestamp": 1691072455770, "interval": 798733}, {"eventtype": "focus", "value": "on", "timestamp": 1691072455770, "interval": 0}, {"eventtype": "window_resize", "value": [1024, 658], "timestamp": 1691072456015, "interval": 245}, {"eventtype": "window_resize", "value": [1366, 768], "timestamp": 1691072463933, "interval": 7918}, {"eventtype": "focus", "value": "off", "timestamp": 1691072685232, "interval": 221299}, {"eventtype": "focus", "value": "on", "timestamp": 1691072685233, "interval": 1}, {"eventtype": "window_resize", "value": [1024, 658], "timestamp": 1691072685493, "interval": 260}], "useragent": "Mozilla/5.0 (Windows NT 10.0; Win64; x64) AppleWebKit/537.36 (KHTML, like Gecko) Chrome/115.0.0.0 Safari/537.36 Edg/115.0.1901.188", "mode": "live", "id": "w43956765:a37137423", "status": "user data saved", "Beginhit": "2023-08-03 14:07:20.804639", "Beginexp": "2023-08-03 14:07:38.568243", "Endhit": null, "psiturkStatus": 6, "browser": "<redacted>", "platform": "windows", "language": "en-GB", "excludeReason": "quizfail"}