{"condition": 0, "counterbalance": 0, "assignmentId": "a46417813", "workerId": "w11462312", "hitId": "h41903572", "currenttrial": 55, "bonus": 0, "data": [{"uniqueid": "w11462312:a46417813", "current_trial": 0, "dateTime": 1691160439322, "trialdata": {"success": true, "trial_type": "fullscreen", "trial_index": 0, "time_elapsed": 714638, "internal_node_id": "0.0-0.0"}}, {"uniqueid": "w11462312:a46417813", "current_trial": 1, "dateTime": 1691160454893, "trialdata": {"view_history": [{"page_index": 0, "viewing_time": 15567}], "rt": 15568, "trial_id": "exp_instructions_control", "trial_type": "instructions", "trial_index": 1, "time_elapsed": 730209, "internal_node_id": "0.0-1.0"}}, {"uniqueid": "w11462312:a46417813", "current_trial": 2, "dateTime": 1691160459035, "trialdata": {"success": true, "trial_type": "fullscreen", "trial_index": 2, "time_elapsed": 734351, "internal_node_id": "0.0-2.0-0.0"}}, {"uniqueid": "w11462312:a46417813", "current_trial": 3, "dateTime": 1691160631045, "trialdata": {"view_history": [{"page_index": 0, "viewing_time": 55294}, {"page_index": 1, "viewing_time": 59819}, {"page_index": 2, "viewing_time": 24034}, {"page_index": 3, "viewing_time": 32862}], "rt": 172009, "trial_id": "mouselab_instructions_1_control", "trial_type": "instructions", "trial_index": 3, "time_elapsed": 906361, "internal_node_id": "0.0-2.0-1.0"}}, {"uniqueid": "w11462312:a46417813", "current_trial": 4, "dateTime": 1691160658384, "trialdata": {"revealed_states": [], "clicked_states": ["14", "25"], "num_clicks_accrued": [0, 0, 0, 0, 0, 0, 0, 0, 0, 0, 0, 0, 0], "stateRewards": ["", 10, 10, -10, -10, -10, -10, 10, -10, 10, -10, -10, 10, 10, 10, -10, -10, -10, 10, -10, 10, -10, -10, 10, -10, 10, -10, 10, -10, -10, -10, -10, -10, 10], "withholdReward": false, "trial_id": "practice_1", "block": "test", "trialIndex": 0, "score": -7.5, "costs": -1, "simulationMode": [null, null, null, null, null], "rewards": [10, -10, 10, -10, -10], "path": ["0", "0", "23", "24", "25", "30", "32"], "rt": [11738, 171, 175, 230, 369], "actions": ["left", "left", "left", "down", "down"], "actionTimes": [16393, 17080, 17767, 18505, 19394], "queries": {"click": {"state": {"target": ["14", "25"], "time": [9073, 10533]}, "edge": {"target": [], "time": []}}, "mouseover": {"state": {"target": ["12", "13", "14", "13", "12", "0", "23", "24", "25", "26"], "time": [6648, 6666, 6714, 9613, 9631, 9647, 9664, 9696, 9962, 12144]}, "edge": {"target": [], "time": []}}, "mouseout": {"state": {"target": ["22", "19", "0", "23", "24", "25", "25", "24", "23", "0", "0", "12", "13", "14", "13", "12", "0", "23", "24", "25"], "time": [417, 452, 1667, 2850, 3083, 3332, 3899, 3932, 3949, 4116, 6615, 6664, 6698, 9596, 9629, 9646, 9663, 9679, 9896, 10647]}, "edge": {"target": [], "time": []}}}, "displayed_time": "19.91", "trialTime": 27076, "trial_type": "mouselab-mdp", "trial_index": 4, "time_elapsed": 933700, "internal_node_id": "0.0-2.0-2.0-0.0"}}, {"uniqueid": "w11462312:a46417813", "current_trial": 5, "dateTime": 1691160690468, "trialdata": {"revealed_states": [], "clicked_states": ["1", "14", "25", "3", "8", "4", "19", "30", "15", "26"], "num_clicks_accrued": [0, 0, 0, 0, 0, 0, 0, 0, 0, 0, 0, 0, 0], "stateRewards": ["", -10, -10, 10, 10, -10, -10, 10, -10, 10, 10, -10, 10, -10, -10, 10, 10, -10, 10, -10, 10, 10, 10, -10, 10, 10, -10, 10, -10, 10, -10, 10, 10, -10], "withholdReward": false, "trial_id": "practice_2", "block": "test", "trialIndex": 1, "score": 8.5, "costs": -5, "simulationMode": [null, null, null, null, null], "rewards": [10, -10, -10, 10, 10], "path": ["0", "0", "12", "13", "14", "15", "16"], "rt": [23898, 37, 91, 34, 358], "actions": ["right", "right", "right", "up", "up"], "actionTimes": [26258, 26799, 27402, 27945, 28835], "queries": {"click": {"state": {"target": ["1", "14", "25", "3", "8", "4", "19", "30", "15", "26"], "time": [4950, 7054, 8346, 9543, 10797, 12213, 16303, 17333, 20041, 21757]}, "edge": {"target": [], "time": []}}, "mouseover": {"state": {"target": ["0", "1", "23", "0", "12", "13", "14", "13", "24", "25", "2", "3", "8", "4", "18", "14", "19", "19", "22", "31", "30", "31", "13", "15", "18", "26", "28", "1", "6", "4", "6"], "time": [4408, 4790, 5340, 6156, 6289, 6622, 6939, 7339, 7505, 7655, 8821, 9138, 10636, 11453, 12635, 12785, 15634, 15750, 16600, 16716, 16917, 17882, 19448, 19832, 20348, 20747, 22080, 22146, 24646, 24778, 24979]}, "edge": {"target": [], "time": []}}, "mouseout": {"state": {"target": ["26", "10", "0", "0", "0", "1", "23", "0", "12", "13", "14", "13", "24", "25", "2", "3", "8", "4", "18", "14", "19", "19", "22", "31", "30", "31", "13", "15", "18", "26", "28", "1", "6", "4", "6"], "time": [1125, 1692, 1792, 2692, 4457, 5207, 6139, 6206, 6589, 6672, 7305, 7355, 7522, 8705, 8955, 10420, 11070, 12536, 12652, 15584, 15667, 16583, 16616, 16866, 17849, 17916, 19531, 20331, 20364, 22063, 22097, 22163, 24662, 24945, 25030]}, "edge": {"target": [], "time": []}}}, "displayed_time": "29.34", "trialTime": 31968, "trial_type": "mouselab-mdp", "trial_index": 5, "time_elapsed": 965784, "internal_node_id": "0.0-2.0-2.0-1.0"}}, {"uniqueid": "w11462312:a46417813", "current_trial": 6, "dateTime": 1691160730955, "trialdata": {"view_history": [{"page_index": 0, "viewing_time": 31550}, {"page_index": 1, "viewing_time": 8935}], "rt": 40486, "trial_id": "mouselab_instructions_2_control", "trial_type": "instructions", "trial_index": 6, "time_elapsed": 1006271, "internal_node_id": "0.0-2.0-3.0"}}, {"uniqueid": "w11462312:a46417813", "current_trial": 7, "dateTime": 1691160771913, "trialdata": {"rt": 40955, "response": {"Q0": "The cost for clicking on nodes may vary between nodes.", "Q1": "The better I perform the higher my bonus will be.", "Q2": "No, the amount of cash at each node of the web may be different each time.", "Q3": "To get the highest total score.", "Q4": "Only before moving the spider.", "Q5": "3 seconds"}, "question_order": [0, 1, 2, 3, 4, 5], "correct": {"Q0": "The cost for clicking on nodes may vary between nodes.", "Q1": "The better I perform the higher my bonus will be.", "Q2": "No, the amount of cash at each node of the web may be different each time.", "Q3": "To get the highest total score.", "Q4": "Only before moving the spider.", "Q5": "3 seconds"}, "trial_id": "mouselab_quiz_control", "trial_type": "survey-multi-choice", "trial_index": 7, "time_elapsed": 1047229, "internal_node_id": "0.0-2.0-4.0"}}, {"uniqueid": "w11462312:a46417813", "current_trial": 8, "dateTime": 1691160790091, "trialdata": {"rt": 18174, "stimulus": "\n<h1> Get ready to start the game! </h1>\n\nThank you for reading the instructions. Get ready start with the 40 rounds of this game.\n<br><br>\nIf you need to take a break, feel free to take one after the end of a round, before continuing to the next one.\n<br><br>\nRemember, the more money the spider gets, the bigger your bonus will be!\n<br><br>\n<div style='text-align: center;'>Press <code>space</code> to begin.</div>\n\n<br><br>\n(If, at any point, the <code>space</code> key does not take you to the next page, click once on the text and try again.)", "response": " ", "trial_id": "mdp_ready", "trial_type": "html-keyboard-response", "trial_index": 8, "time_elapsed": 1065407, "internal_node_id": "0.0-4.0-0.0"}}, {"uniqueid": "w11462312:a46417813", "current_trial": 9, "dateTime": 1691160824117, "trialdata": {"revealed_states": [], "clicked_states": ["14", "25", "3"], "num_clicks_accrued": [0, 0, 0, 0, 0, 0, 0, 0, 0, 0, 0, 0, 0], "stateRewards": ["", -2, 3, -5, -7, 66, 43, -60, -4, -70, -75, 4, -1, 2, 2, -13, 54, 11, -40, -1, 77, 32, 15, -2, 3, -8, -9, -35, 83, -27, 6, -74, -34, 44], "withholdReward": false, "trial_id": "mdp_trial_1", "block": "test", "trialIndex": 2, "score": 39.8, "costs": -4.199999999999999, "simulationMode": [null, null, null, null, null], "rewards": [-1, 2, 2, -13, 54], "path": ["0", "0", "12", "13", "14", "15", "16"], "rt": [14663, 193, 184, 4197, 38], "actions": ["right", "right", "right", "up", "up"], "actionTimes": [19184, 19887, 20579, 25291, 25829], "queries": {"click": {"state": {"target": ["14", "25", "3"], "time": [6211, 8759, 12246]}, "edge": {"target": [], "time": []}}, "mouseover": {"state": {"target": ["0", "12", "13", "14", "25", "24", "1", "7", "2", "3", "7", "18", "14"], "time": [4869, 4919, 5052, 5302, 7117, 9949, 10749, 11798, 11915, 12064, 12648, 12764, 14730]}, "edge": {"target": [], "time": []}}, "mouseout": {"state": {"target": ["0", "0", "12", "13", "14", "25", "24", "1", "7", "2", "3", "7", "18"], "time": [4237, 4886, 4987, 5220, 6551, 9932, 9966, 10782, 11866, 11982, 12598, 12681, 12797]}, "edge": {"target": [], "time": []}}}, "displayed_time": "26.36", "trialTime": 33908, "trial_type": "mouselab-mdp", "trial_index": 9, "time_elapsed": 1099433, "internal_node_id": "0.0-4.0-1.0-0.0"}}, {"uniqueid": "w11462312:a46417813", "current_trial": 10, "dateTime": 1691160848528, "trialdata": {"revealed_states": [], "clicked_states": ["25", "14", "3", "6", "11"], "num_clicks_accrued": [0, 0, 0, 0, 0, 0, 0, 0, 0, 0, 0, 0, 0], "stateRewards": ["", 2, -1, -1, -9, -81, -30, 55, -6, 78, 25, 62, 2, 4, -1, 9, -85, 1, -19, 1, -60, 12, -34, 1, 4, -1, -13, -24, -16, -83, -8, 16, 43, 9], "withholdReward": false, "trial_id": "mdp_trial_2", "block": "test", "trialIndex": 3, "score": 49, "costs": -7, "simulationMode": [null, null, null, null, null], "rewards": [2, -1, -1, -6, 62], "path": ["0", "0", "1", "2", "3", "8", "11"], "rt": [13055, 51, 32, 1054, 194], "actions": ["up", "up", "up", "left", "left"], "actionTimes": [17174, 17731, 18294, 19883, 20589], "queries": {"click": {"state": {"target": ["25", "14", "3", "6", "11"], "time": [4894, 6872, 8664, 11721, 13797]}, "edge": {"target": [], "time": []}}, "mouseover": {"state": {"target": ["23", "25", "24", "23", "14", "13", "18", "7", "4", "3", "4", "6", "8", "11", "8"], "time": [4270, 4486, 5169, 5187, 5602, 7301, 7368, 7518, 7635, 7684, 9717, 10766, 12315, 12798, 15780]}, "edge": {"target": [], "time": []}}, "mouseout": {"state": {"target": ["14", "19", "22", "0", "23", "25", "24", "23", "14", "13", "18", "7", "4", "3", "3", "4", "6", "8", "11", "8", "9", "8"], "time": [1838, 1904, 2154, 4254, 4286, 5153, 5186, 5203, 7201, 7335, 7402, 7551, 7651, 8748, 9617, 10651, 12132, 12432, 14164, 22576, 22593, 23242]}, "edge": {"target": [], "time": []}}}, "displayed_time": "21.09", "trialTime": 24290, "trial_type": "mouselab-mdp", "trial_index": 10, "time_elapsed": 1123844, "internal_node_id": "0.0-4.0-1.0-1.0"}}, {"uniqueid": "w11462312:a46417813", "current_trial": 11, "dateTime": 1691160877161, "trialdata": {"revealed_states": [], "clicked_states": [], "num_clicks_accrued": [0, 0, 0, 0, 0, 0, 0, 0, 0, 0, 0, 0, 0], "stateRewards": ["", 2, 3, 3, 10, 19, -21, 6, 9, 54, 68, 16, 2, 2, -6, -8, 40, -2, -75, -2, -42, 55, 59, -1, 2, 4, -14, 11, -34, -30, -6, 61, -53, 13], "withholdReward": false, "trial_id": "mdp_trial_3", "block": "test", "trialIndex": 4, "score": 2, "costs": 0, "simulationMode": [null, null, null, null, null], "rewards": [-1, 2, 4, -14, 11], "path": ["0", "0", "23", "24", "25", "26", "27"], "rt": [21229, 102, 88, 85, 68], "actions": ["left", "left", "left", "up", "up"], "actionTimes": [23629, 24232, 24833, 25430, 26012], "queries": {"click": {"state": {"target": [], "time": []}, "edge": {"target": [], "time": []}}, "mouseover": {"state": {"target": ["31", "25", "24", "0", "14"], "time": [2658, 2841, 10105, 10121, 10153]}, "edge": {"target": [], "time": []}}, "mouseout": {"state": {"target": ["4", "13", "0", "31", "25", "24", "0", "14"], "time": [976, 1608, 2591, 2708, 10104, 10120, 10136, 10170]}, "edge": {"target": [], "time": []}}}, "displayed_time": "26.53", "trialTime": 28508, "trial_type": "mouselab-mdp", "trial_index": 11, "time_elapsed": 1152477, "internal_node_id": "0.0-4.0-1.0-2.0"}}, {"uniqueid": "w11462312:a46417813", "current_trial": 12, "dateTime": 1691160895878, "trialdata": {"revealed_states": [], "clicked_states": ["25", "14", "3", "6", "16"], "num_clicks_accrued": [0, 0, 0, 0, 0, 0, 0, 0, 0, 0, 0, 0, 0], "stateRewards": ["", 2, 3, -3, 12, -43, 81, -82, -15, 58, -7, -75, -1, -1, 3, -5, 50, -25, -8, 4, 66, 65, -66, 2, -4, 2, -1, -10, 10, 37, 11, 88, -37, 8], "withholdReward": false, "trial_id": "mdp_trial_4", "block": "test", "trialIndex": 5, "score": 88, "costs": -7, "simulationMode": [null, null, null, null, null], "rewards": [2, 3, -3, 12, 81], "path": ["0", "0", "1", "2", "3", "4", "6"], "rt": [10332, 399, 43, 357, 115], "actions": ["up", "up", "up", "right", "right"], "actionTimes": [12063, 12981, 13540, 14420, 15045], "queries": {"click": {"state": {"target": ["25", "14", "3", "6", "16"], "time": [2271, 4027, 5738, 7641, 9237]}, "edge": {"target": [], "time": []}}, "mouseover": {"state": {"target": ["23", "25", "24", "23", "0", "13", "14", "14", "13", "2", "3", "4", "6", "15", "16"], "time": [1819, 2086, 2503, 2520, 2537, 2586, 2604, 2969, 4402, 4551, 4701, 6733, 6967, 8266, 8516]}, "edge": {"target": [], "time": []}}, "mouseout": {"state": {"target": ["17", "15", "13", "12", "0", "23", "25", "24", "23", "0", "13", "14", "14", "13", "2", "3", "4", "6", "15", "16"], "time": [1053, 1070, 1137, 1186, 1803, 1836, 2470, 2519, 2536, 2553, 2603, 2636, 4351, 4451, 4601, 6633, 6900, 7916, 8299, 9648]}, "edge": {"target": [], "time": []}}}, "displayed_time": "15.73", "trialTime": 18587, "trial_type": "mouselab-mdp", "trial_index": 12, "time_elapsed": 1171193, "internal_node_id": "0.0-4.0-1.0-3.0"}}, {"uniqueid": "w11462312:a46417813", "current_trial": 13, "dateTime": 1691160923345, "trialdata": {"revealed_states": [], "clicked_states": ["14", "25", "3", "21", "16", "17", "20", "18", "22"], "num_clicks_accrued": [0, 0, 0, 0, 0, 0, 0, 0, 0, 0, 0, 0, 0], "stateRewards": ["", -2, -1, -6, -14, -55, 78, -13, 11, 14, -71, 59, 2, 2, 6, -6, 9, 38, 14, 7, 85, 11, 68, 1, -4, -1, -3, -63, -85, 9, -2, 63, -86, -10], "withholdReward": false, "trial_id": "mdp_trial_5", "block": "test", "trialIndex": 6, "score": 89.4, "costs": -12.600000000000001, "simulationMode": [null, null, null, null, null], "rewards": [2, 2, 6, 7, 85], "path": ["0", "0", "12", "13", "14", "19", "20"], "rt": [18395, 404, 172, 136, 161], "actions": ["right", "right", "right", "down", "right"], "actionTimes": [21254, 22164, 22848, 23495, 24169], "queries": {"click": {"state": {"target": ["14", "25", "3", "21", "16", "17", "20", "18", "22"], "time": [3815, 5753, 7506, 9377, 11311, 13124, 15253, 17305, 19183]}, "edge": {"target": [], "time": []}}, "mouseover": {"state": {"target": ["12", "14", "25", "24", "3", "2", "13", "15", "16", "15", "14", "19", "21", "20", "15", "16", "17", "20", "19", "22", "13", "18", "13", "22"], "time": [3053, 3319, 4502, 6068, 6451, 7934, 8150, 8300, 8583, 8750, 8800, 8833, 8916, 9883, 10266, 10483, 12232, 13647, 15629, 15762, 16046, 16312, 17645, 17761]}, "edge": {"target": [], "time": []}}, "mouseout": {"state": {"target": ["2", "9", "0", "12", "14", "25", "24", "3", "2", "13", "15", "16", "15", "14", "19", "21", "20", "15", "16", "17", "20", "19", "22", "13", "18", "13", "22"], "time": [821, 954, 3037, 3087, 4086, 6052, 6085, 7901, 7967, 8217, 8417, 8733, 8783, 8816, 8883, 9733, 10033, 10316, 11632, 13380, 15596, 15679, 15912, 16196, 17611, 17711, 19256]}, "edge": {"target": [], "time": []}}}, "displayed_time": "24.68", "trialTime": 27333, "trial_type": "mouselab-mdp", "trial_index": 13, "time_elapsed": 1198660, "internal_node_id": "0.0-4.0-1.0-4.0"}}, {"uniqueid": "w11462312:a46417813", "current_trial": 14, "dateTime": 1691160962909, "trialdata": {"revealed_states": [], "clicked_states": ["25", "14", "3", "27", "32", "33", "28", "29", "31", "17", "18"], "num_clicks_accrued": [0, 0, 0, 0, 0, 0, 0, 0, 0, 0, 0, 0, 0], "stateRewards": ["", 2, -3, 5, -14, -63, -9, -24, -11, -54, -43, 68, 2, -2, -4, 7, -64, 30, 47, 12, -74, 11, 86, 1, -3, 3, 10, -71, -42, -52, -1, -29, -16, 69], "withholdReward": false, "trial_id": "mdp_trial_6", "block": "test", "trialIndex": 7, "score": -46.400000000000006, "costs": -15.400000000000002, "simulationMode": [null, null, null, null, null], "rewards": [1, -3, 3, 10, -42], "path": ["0", "0", "23", "24", "25", "26", "28"], "rt": [27904, 181, 121, 70, 2998], "actions": ["left", "left", "left", "up", "right"], "actionTimes": [29728, 30411, 31050, 31632, 35143], "queries": {"click": {"state": {"target": ["25", "14", "3", "27", "32", "33", "28", "29", "31", "17", "18"], "time": [2769, 4602, 6350, 8150, 10115, 11985, 13880, 15831, 17668, 20270, 22479]}, "edge": {"target": [], "time": []}}, "mouseover": {"state": {"target": ["23", "24", "25", "24", "23", "0", "12", "13", "14", "18", "4", "3", "10", "26", "26", "27", "26", "25", "30", "32", "33", "25", "28", "26", "29", "25", "31", "14", "17", "15", "18"], "time": [2145, 2196, 2279, 3163, 3180, 3196, 3213, 3245, 3263, 5011, 5212, 5360, 6844, 6959, 7293, 7376, 8609, 8775, 8842, 8975, 10474, 12573, 13073, 14288, 14505, 16404, 16655, 20018, 20169, 21234, 21535]}, "edge": {"target": [], "time": []}}, "mouseout": {"state": {"target": ["22", "12", "0", "23", "24", "25", "24", "23", "0", "12", "13", "14", "18", "4", "3", "10", "26", "26", "27", "26", "25", "30", "32", "33", "25", "28", "26", "29", "25", "31", "14", "17", "17", "15", "18"], "time": [946, 1181, 1946, 2180, 2246, 3162, 3179, 3195, 3212, 3228, 3262, 4927, 5044, 5327, 6794, 6894, 6993, 7326, 8575, 8692, 8808, 8908, 10374, 12456, 12658, 14255, 14322, 16321, 16471, 19136, 20052, 20379, 20651, 21251, 22883]}, "edge": {"target": [], "time": []}}}, "displayed_time": "35.64", "trialTime": 39439, "trial_type": "mouselab-mdp", "trial_index": 14, "time_elapsed": 1238225, "internal_node_id": "0.0-4.0-1.0-5.0"}}, {"uniqueid": "w11462312:a46417813", "current_trial": 15, "dateTime": 1691160997744, "trialdata": {"revealed_states": [], "clicked_states": ["25", "3", "14", "16", "21", "17", "18", "20", "22", "29", "33", "31"], "num_clicks_accrued": [0, 0, 0, 0, 0, 0, 0, 0, 0, 0, 0, 0, 0], "stateRewards": ["", 2, -1, 1, 10, -52, 86, -22, -2, -14, -63, 38, 1, 3, 7, -8, 11, -32, -27, 9, -71, 40, -87, -2, -1, 5, -7, 12, 31, -57, 13, 86, -58, 29], "withholdReward": false, "trial_id": "mdp_trial_7", "block": "test", "trialIndex": 8, "score": 84.2, "costs": -16.8, "simulationMode": [null, null, null, null, null], "rewards": [-2, -1, 5, 13, 86], "path": ["0", "0", "23", "24", "25", "30", "31"], "rt": [27326, 3, 78, 459, 75], "actions": ["left", "left", "left", "down", "right"], "actionTimes": [28907, 29414, 30021, 30986, 31567], "queries": {"click": {"state": {"target": ["25", "3", "14", "16", "21", "17", "18", "20", "22", "29", "33", "31"], "time": [2668, 4611, 6449, 9007, 10934, 13164, 15188, 17166, 19140, 21554, 23716, 25844]}, "edge": {"target": [], "time": []}}, "mouseover": {"state": {"target": ["23", "24", "25", "2", "4", "3", "2", "7", "18", "15", "14", "14", "13", "12", "18", "15", "16", "15", "19", "21", "20", "17", "18", "19", "21", "20", "19", "22", "25", "29", "33", "30", "31", "24", "28", "28"], "time": [1892, 2158, 2392, 3058, 3108, 3325, 5257, 5324, 5423, 5473, 5557, 5740, 8289, 8306, 8638, 8656, 8955, 9354, 9521, 9771, 11370, 13086, 13769, 15584, 15700, 15917, 17483, 17716, 21347, 21480, 23480, 24162, 24445, 26278, 26361, 26594]}, "edge": {"target": [], "time": []}}, "mouseout": {"state": {"target": ["20", "0", "0", "23", "24", "25", "2", "4", "3", "2", "7", "18", "15", "14", "14", "13", "12", "18", "15", "16", "15", "19", "21", "20", "17", "18", "19", "21", "20", "19", "22", "25", "29", "33", "30", "31", "24", "28", "28"], "time": [459, 975, 1826, 2125, 2275, 2992, 3075, 3275, 5224, 5274, 5357, 5440, 5507, 5607, 7039, 8305, 8322, 8655, 8688, 9305, 9404, 9688, 11220, 12853, 13502, 15467, 15617, 15834, 17433, 17566, 20897, 21398, 22696, 24145, 24262, 26244, 26311, 26378, 33590]}, "edge": {"target": [], "time": []}}}, "displayed_time": "32.08", "trialTime": 34694, "trial_type": "mouselab-mdp", "trial_index": 15, "time_elapsed": 1273060, "internal_node_id": "0.0-4.0-1.0-6.0"}}, {"uniqueid": "w11462312:a46417813", "current_trial": 16, "dateTime": 1691161020293, "trialdata": {"revealed_states": [], "clicked_states": ["9", "5", "17", "20", "29", "33"], "num_clicks_accrued": [0, 0, 0, 0, 0, 0, 0, 0, 0, 0, 0, 0, 0], "stateRewards": ["", -1, -2, -8, 8, -27, -82, 19, -14, -62, 4, 1, -2, 2, 6, 10, 73, -51, -2, 2, 73, -48, 54, -1, 2, -4, 11, -25, 47, 86, 15, 33, 43, -42], "withholdReward": false, "trial_id": "mdp_trial_8", "block": "test", "trialIndex": 9, "score": 85.6, "costs": -8.4, "simulationMode": [null, null, null, null, null], "rewards": [-1, 2, -4, 11, 86], "path": ["0", "0", "23", "24", "25", "26", "29"], "rt": [14887, 110, 104, 76, 70], "actions": ["left", "left", "left", "up", "left"], "actionTimes": [17449, 18076, 18686, 19273, 19850], "queries": {"click": {"state": {"target": ["9", "5", "17", "20", "29", "33"], "time": [3985, 6140, 7984, 9945, 11820, 14204]}, "edge": {"target": [], "time": []}}, "mouseover": {"state": {"target": ["1", "2", "3", "9", "5", "16", "15", "17", "17", "20", "31", "25", "26", "29", "33"], "time": [2923, 2956, 3039, 3322, 4805, 6904, 6937, 6971, 7254, 8736, 10635, 10718, 10818, 11051, 12634]}, "edge": {"target": [], "time": []}}, "mouseout": {"state": {"target": ["28", "23", "23", "1", "12", "0", "1", "2", "3", "9", "5", "16", "15", "17", "17", "20", "31", "25", "26", "29", "33"], "time": [857, 990, 1157, 1257, 1340, 2873, 2939, 2990, 3056, 4472, 6787, 6921, 6954, 7070, 8287, 10485, 10668, 10768, 10851, 12334, 14882]}, "edge": {"target": [], "time": []}}}, "displayed_time": "20.36", "trialTime": 22412, "trial_type": "mouselab-mdp", "trial_index": 16, "time_elapsed": 1295609, "internal_node_id": "0.0-4.0-1.0-7.0"}}, {"uniqueid": "w11462312:a46417813", "current_trial": 17, "dateTime": 1691161052646, "trialdata": {"revealed_states": [], "clicked_states": ["9", "29", "20", "16"], "num_clicks_accrued": [0, 0, 0, 0, 0, 0, 0, 0, 0, 0, 0, 0, 0], "stateRewards": ["", 2, 4, 7, 7, -79, -2, -21, -5, -53, 47, -21, 1, -3, -1, 7, 83, 7, 84, -7, 80, -37, 69, 2, -4, 5, 2, 4, -20, -30, 7, 71, 44, -81], "withholdReward": false, "trial_id": "mdp_trial_9", "block": "test", "trialIndex": 10, "score": 81.4, "costs": -5.6, "simulationMode": [null, null, null, null, null], "rewards": [1, -3, -1, 7, 83], "path": ["0", "0", "12", "13", "14", "15", "16"], "rt": [11784, 40, 64, 7, 23], "actions": ["right", "right", "right", "up", "up"], "actionTimes": [25972, 26521, 27112, 27637, 28186], "queries": {"click": {"state": {"target": ["9", "29", "20", "16"], "time": [15115, 16964, 18895, 20714]}, "edge": {"target": [], "time": []}}, "mouseover": {"state": {"target": ["2", "3", "9", "11", "27", "29", "33", "30", "22", "19", "20", "17", "16", "6", "5", "18", "15"], "time": [14504, 14571, 14803, 15403, 15453, 15719, 17668, 17969, 18068, 18118, 18368, 19750, 20367, 21616, 21767, 24380, 24497]}, "edge": {"target": [], "time": []}}, "mouseout": {"state": {"target": ["29", "24", "23", "1", "0", "2", "3", "9", "11", "27", "29", "33", "30", "22", "19", "20", "17", "16", "6", "5", "18", "15", "16", "16", "16", "15", "13", "12", "0"], "time": [894, 13370, 13387, 13720, 14304, 14537, 14671, 15386, 15436, 15470, 17318, 17968, 17984, 18085, 18301, 19584, 20250, 21566, 21633, 24247, 24414, 24530, 24815, 29625, 29978, 30011, 30094, 30127, 30211]}, "edge": {"target": [], "time": []}}}, "displayed_time": "28.70", "trialTime": 32216, "trial_type": "mouselab-mdp", "trial_index": 17, "time_elapsed": 1327961, "internal_node_id": "0.0-4.0-1.0-8.0"}}, {"uniqueid": "w11462312:a46417813", "current_trial": 18, "dateTime": 1691161077813, "trialdata": {"revealed_states": [], "clicked_states": ["29", "17", "21", "5", "9", "32", "33"], "num_clicks_accrued": [0, 0, 0, 0, 0, 0, 0, 0, 0, 0, 0, 0, 0], "stateRewards": ["", -1, 1, -6, -1, 80, 23, 2, -11, 73, -81, 59, 1, 3, 5, -1, -26, 28, -3, 16, -59, -13, -50, -2, -2, 2, 15, -50, 86, 17, -4, 37, 35, 44], "withholdReward": false, "trial_id": "mdp_trial_10", "block": "test", "trialIndex": 11, "score": 63.2, "costs": -9.8, "simulationMode": [null, null, null, null, null], "rewards": [-1, 1, -6, -1, 80], "path": ["0", "0", "1", "2", "3", "4", "5"], "rt": [16950, 378, 86, 55, 17], "actions": ["up", "up", "up", "right", "up"], "actionTimes": [18680, 19571, 20161, 20730, 21275], "queries": {"click": {"state": {"target": ["29", "17", "21", "5", "9", "32", "33"], "time": [2691, 4587, 6462, 8365, 10292, 12946, 15228]}, "edge": {"target": [], "time": []}}, "mouseover": {"state": {"target": ["23", "26", "29", "25", "22", "17", "20", "21", "22", "5", "9", "8", "28", "31", "32", "32", "33", "30", "23", "18", "6", "5", "5"], "time": [1902, 2051, 2268, 3051, 3151, 3384, 5116, 5782, 7399, 7748, 9114, 11080, 11163, 11396, 11546, 12379, 13994, 15811, 15843, 15876, 16027, 16210, 16427]}, "edge": {"target": [], "time": []}}, "mouseout": {"state": {"target": ["0", "23", "26", "29", "25", "22", "17", "20", "21", "22", "5", "9", "8", "28", "31", "32", "32", "33", "30", "23", "18", "6", "5", "5", "24", "31"], "time": [1418, 1934, 2152, 2985, 3067, 3217, 4916, 5682, 7332, 7415, 8798, 11063, 11096, 11179, 11462, 11746, 13661, 15810, 15827, 15860, 15893, 16110, 16259, 23172, 23255, 23272]}, "edge": {"target": [], "time": []}}}, "displayed_time": "21.79", "trialTime": 25026, "trial_type": "mouselab-mdp", "trial_index": 18, "time_elapsed": 1353128, "internal_node_id": "0.0-4.0-1.0-9.0"}}, {"uniqueid": "w11462312:a46417813", "current_trial": 19, "dateTime": 1691161123804, "trialdata": {"revealed_states": [], "clicked_states": ["29", "5", "11", "20", "17", "16", "21", "22", "18", "9", "6", "7", "33", "32", "27", "31", "28", "10"], "num_clicks_accrued": [0, 0, 0, 0, 0, 0, 0, 0, 0, 0, 0, 0, 0], "stateRewards": ["", 2, -4, 4, 9, 69, 9, -75, 12, -86, 66, 25, -1, 3, 2, -13, -88, -3, 1, 4, -69, 49, -84, 2, -1, 4, 2, -18, -81, -52, -15, -69, -54, 25], "withholdReward": false, "trial_id": "mdp_trial_11", "block": "test", "trialIndex": 12, "score": 54.80000000000001, "costs": -25.199999999999992, "simulationMode": [null, null, null, null, null], "rewards": [2, -4, 4, 12, 66], "path": ["0", "0", "1", "2", "3", "8", "10"], "rt": [38791, 33, 35, 407, 69], "actions": ["up", "up", "up", "left", "down"], "actionTimes": [40107, 40649, 41217, 42155, 42733], "queries": {"click": {"state": {"target": ["29", "5", "11", "20", "17", "16", "21", "22", "18", "9", "6", "7", "33", "32", "27", "31", "28", "10"], "time": [2002, 3898, 5877, 7972, 9852, 11718, 13594, 15654, 17565, 19449, 21290, 23165, 24925, 26708, 28514, 30397, 32677, 34634]}, "edge": {"target": [], "time": []}}, "mouseover": {"state": {"target": ["26", "29", "28", "1", "6", "4", "5", "6", "11", "10", "1", "13", "14", "20", "17", "16", "18", "13", "19", "21", "22", "13", "18", "1", "10", "8", "9", "6", "7", "7", "24", "30", "33", "32", "30", "27", "26", "31", "23", "2", "24", "28", "2", "10", "2", "3"], "time": [1655, 1838, 2288, 2338, 2572, 2639, 3054, 4420, 5303, 6319, 6969, 7118, 7684, 7817, 8567, 10433, 12249, 12515, 12598, 12798, 15463, 16063, 16263, 17978, 18028, 18345, 18561, 20743, 21910, 22159, 23625, 23791, 24275, 25524, 26956, 27373, 28855, 29554, 31054, 31653, 32370, 32586, 33020, 33335, 36818, 37050]}, "edge": {"target": [], "time": []}}, "mouseout": {"state": {"target": ["0", "26", "29", "28", "1", "6", "4", "5", "6", "11", "10", "1", "13", "14", "20", "17", "16", "18", "13", "19", "21", "22", "13", "18", "1", "10", "8", "9", "6", "7", "7", "24", "30", "33", "32", "30", "27", "26", "31", "23", "2", "24", "28", "2", "10", "2", "3", "11", "28", "24"], "time": [1371, 1671, 2255, 2305, 2355, 2621, 2688, 4371, 4486, 6269, 6918, 7019, 7668, 7718, 8368, 10250, 12132, 12482, 12548, 12648, 15280, 16013, 16113, 17928, 17995, 18045, 18395, 20427, 21826, 21976, 23458, 23675, 23858, 25341, 26923, 26989, 28821, 28905, 30479, 31070, 31686, 32552, 32746, 33235, 36151, 37000, 44478, 44662, 44712, 44778]}, "edge": {"target": [], "time": []}}}, "displayed_time": "43.25", "trialTime": 45852, "trial_type": "mouselab-mdp", "trial_index": 19, "time_elapsed": 1399119, "internal_node_id": "0.0-4.0-1.0-10.0"}}, {"uniqueid": "w11462312:a46417813", "current_trial": 20, "dateTime": 1691161145048, "trialdata": {"revealed_states": [], "clicked_states": ["33", "16", "9", "21", "32", "6"], "num_clicks_accrued": [0, 0, 0, 0, 0, 0, 0, 0, 0, 0, 0, 0, 0], "stateRewards": ["", 2, 3, 6, -5, -74, -53, 17, -12, 46, 44, 18, -2, 4, 1, -8, 22, -23, -49, 9, -45, 55, 81, 1, -1, -7, -16, -83, -71, -45, 2, 51, 82, 61], "withholdReward": false, "trial_id": "mdp_trial_12", "block": "test", "trialIndex": 13, "score": 68.6, "costs": -8.4, "simulationMode": [null, null, null, null, null], "rewards": [1, -1, -7, 2, 82], "path": ["0", "0", "23", "24", "25", "30", "32"], "rt": [14237, 476, 190, 304, 124], "actions": ["left", "left", "left", "down", "down"], "actionTimes": [15716, 16708, 17404, 18219, 18855], "queries": {"click": {"state": {"target": ["33", "16", "9", "21", "32", "6"], "time": [2176, 4028, 6168, 8177, 10602, 12825]}, "edge": {"target": [], "time": []}}, "mouseover": {"state": {"target": ["31", "30", "33", "30", "20", "17", "16", "4", "5", "5", "9", "3", "13", "19", "21", "21", "32", "31", "23", "1", "7", "5", "6", "4", "2", "24", "31"], "time": [1673, 1823, 1890, 2356, 2639, 2756, 2940, 4555, 4738, 5138, 5954, 6471, 6554, 6572, 6820, 7170, 10485, 10917, 10951, 10969, 11001, 11400, 11634, 13399, 13499, 13566, 13599]}, "edge": {"target": [], "time": []}}, "mouseout": {"state": {"target": ["31", "30", "33", "30", "20", "17", "16", "4", "5", "5", "9", "3", "13", "19", "21", "21", "32", "31", "23", "1", "7", "5", "6", "4", "2", "24", "31", "32", "30"], "time": [1806, 1857, 2340, 2373, 2656, 2772, 4421, 4621, 4821, 5504, 6437, 6487, 6570, 6587, 6987, 8736, 10884, 10935, 10967, 10986, 11017, 11534, 13249, 13466, 13516, 13583, 13633, 20132, 20411]}, "edge": {"target": [], "time": []}}}, "displayed_time": "19.36", "trialTime": 21110, "trial_type": "mouselab-mdp", "trial_index": 20, "time_elapsed": 1420364, "internal_node_id": "0.0-4.0-1.0-11.0"}}, {"uniqueid": "w11462312:a46417813", "current_trial": 21, "dateTime": 1691161190726, "trialdata": {"revealed_states": [], "clicked_states": ["5", "29", "31", "27", "16", "20", "21", "17", "18", "22", "9", "11", "33", "32", "7", "28", "10", "6"], "num_clicks_accrued": [0, 0, 0, 0, 0, 0, 0, 0, 0, 0, 0, 0, 0], "stateRewards": ["", -1, 4, -5, 9, 29, -75, -42, -16, 24, -28, -41, 2, -3, 1, 10, 60, 47, 55, -1, -53, 22, -40, 2, -3, -6, 4, -26, 44, 54, 15, -76, 42, 14], "withholdReward": false, "trial_id": "mdp_trial_13", "block": "test", "trialIndex": 14, "score": 39.80000000000001, "costs": -25.199999999999992, "simulationMode": [null, null, null, null, null], "rewards": [2, -3, 1, 10, 55], "path": ["0", "0", "12", "13", "14", "15", "18"], "rt": [39111, 117, 99, 359, 58], "actions": ["right", "right", "right", "up", "left"], "actionTimes": [40881, 41505, 42119, 42995, 43560], "queries": {"click": {"state": {"target": ["5", "29", "31", "27", "16", "20", "21", "17", "18", "22", "9", "11", "33", "32", "7", "28", "10", "6"], "time": [3501, 5317, 7031, 9022, 10881, 12656, 14495, 16348, 18470, 20479, 23323, 25538, 27919, 29847, 31663, 33480, 35297, 37736]}, "edge": {"target": [], "time": []}}, "mouseover": {"state": {"target": ["7", "4", "5", "4", "5", "4", "1", "0", "23", "28", "26", "29", "33", "32", "31", "30", "26", "27", "26", "25", "30", "32", "19", "17", "16", "15", "14", "20", "20", "21", "19", "17", "14", "18", "13", "22", "15", "16", "10", "11", "9", "10", "11", "1", "18", "30", "33", "32", "0", "7", "2", "28", "1", "2", "10", "18", "6", "18"], "time": [1994, 2061, 2276, 2660, 3360, 3876, 3976, 4026, 4159, 4209, 4758, 5158, 5724, 5791, 6341, 8689, 8907, 8990, 9439, 9489, 9572, 9772, 10155, 10338, 10571, 11255, 11338, 11471, 12071, 14019, 14703, 14852, 16668, 17634, 18883, 19366, 20882, 21731, 22431, 22830, 23231, 24263, 25346, 25912, 25978, 27561, 27778, 28777, 30392, 30609, 32058, 32425, 33807, 34040, 34340, 35873, 37638, 38305]}, "edge": {"target": [], "time": []}}, "mouseout": {"state": {"target": ["31", "23", "0", "7", "4", "5", "4", "5", "4", "1", "0", "23", "28", "26", "29", "33", "32", "31", "30", "26", "27", "26", "25", "30", "32", "19", "17", "16", "15", "14", "20", "20", "21", "19", "17", "14", "18", "13", "22", "15", "16", "10", "11", "9", "10", "11", "1", "18", "30", "33", "32", "0", "7", "2", "28", "1", "2", "10", "10", "18", "6"], "time": [744, 1060, 1576, 2026, 2176, 2626, 3294, 3859, 3909, 3992, 4059, 4176, 4225, 4958, 5641, 5742, 5858, 7423, 8740, 8922, 9406, 9472, 9539, 9622, 9989, 10188, 10438, 11204, 11305, 11354, 11504, 13020, 14669, 14719, 16635, 16701, 18816, 19100, 20782, 21565, 22211, 22464, 22880, 23914, 25246, 25812, 25928, 26378, 27594, 28177, 29907, 30409, 32025, 32075, 33757, 33824, 34091, 35373, 35556, 37522, 37988]}, "edge": {"target": [], "time": []}}}, "displayed_time": "44.09", "trialTime": 45537, "trial_type": "mouselab-mdp", "trial_index": 21, "time_elapsed": 1466041, "internal_node_id": "0.0-4.0-1.0-12.0"}}, {"uniqueid": "w11462312:a46417813", "current_trial": 22, "dateTime": 1691161208726, "trialdata": {"revealed_states": [], "clicked_states": ["9", "21"], "num_clicks_accrued": [0, 0, 0, 0, 0, 0, 0, 0, 0, 0, 0, 0, 0], "stateRewards": ["", -2, 3, 8, -9, 59, 41, -50, -1, 82, 66, 33, 2, -2, 7, 8, 1, -38, 12, -16, 24, -37, 67, 1, 4, -2, 5, 35, -83, 28, 8, -27, 69, -64], "withholdReward": false, "trial_id": "mdp_trial_14", "block": "test", "trialIndex": 15, "score": 87.2, "costs": -2.8, "simulationMode": [null, null, null, null, null], "rewards": [-2, 3, 8, -1, 82], "path": ["0", "0", "1", "2", "3", "8", "9"], "rt": [5720, 1, 75, 436, 82], "actions": ["up", "up", "up", "left", "up"], "actionTimes": [8364, 8873, 9479, 10423, 11018], "queries": {"click": {"state": {"target": ["9", "21"], "time": [3647, 5459]}, "edge": {"target": [], "time": []}}, "mouseover": {"state": {"target": ["1", "2", "8", "9", "8", "10", "1", "13", "19", "21", "10", "8"], "time": [2973, 3040, 3123, 3323, 3973, 4039, 4106, 4256, 4406, 4572, 6288, 6371]}, "edge": {"target": [], "time": []}}, "mouseout": {"state": {"target": ["18", "7", "12", "12", "0", "1", "2", "8", "9", "9", "8", "10", "1", "13", "19", "21", "10", "8", "9", "9", "3", "16"], "time": [841, 908, 1009, 2240, 2907, 3007, 3073, 3189, 3701, 3939, 4006, 4056, 4123, 4306, 4522, 5955, 6338, 6405, 6571, 14616, 14633, 15033]}, "edge": {"target": [], "time": []}}}, "displayed_time": "16.65", "trialTime": 17862, "trial_type": "mouselab-mdp", "trial_index": 22, "time_elapsed": 1484042, "internal_node_id": "0.0-4.0-1.0-13.0"}}, {"uniqueid": "w11462312:a46417813", "current_trial": 23, "dateTime": 1691161253738, "trialdata": {"revealed_states": [], "clicked_states": ["16", "33", "27", "5", "21", "9", "32", "28", "17", "18", "29", "31", "6", "11", "22", "20", "7", "10"], "num_clicks_accrued": [0, 0, 0, 0, 0, 0, 0, 0, 0, 0, 0, 0, 0], "stateRewards": ["", -1, 1, 8, -3, -24, 11, -65, -6, -77, 48, 44, -2, 1, -2, -7, -55, -35, 33, 8, -28, 19, -53, -1, -1, -5, -5, -70, 10, 44, 8, -58, -70, 51], "withholdReward": false, "trial_id": "mdp_trial_15", "block": "test", "trialIndex": 16, "score": 26.80000000000001, "costs": -25.199999999999992, "simulationMode": [null, null, null, null, null], "rewards": [-1, -1, -5, 8, 51], "path": ["0", "0", "23", "24", "25", "30", "33"], "rt": [38623, 52, 80, 109, 22], "actions": ["left", "left", "left", "down", "left"], "actionTimes": [40333, 40899, 41509, 42122, 42651], "queries": {"click": {"state": {"target": ["16", "33", "27", "5", "21", "9", "32", "28", "17", "18", "29", "31", "6", "11", "22", "20", "7", "10"], "time": [3367, 5136, 7064, 9120, 10942, 12705, 15256, 17145, 19095, 21019, 22772, 24832, 26921, 28795, 30847, 32769, 34602, 36408]}, "edge": {"target": [], "time": []}}, "mouseover": {"state": {"target": ["12", "7", "16", "17", "16", "18", "12", "31", "33", "29", "27", "26", "25", "30", "32", "30", "24", "10", "8", "5", "3", "2", "1", "0", "21", "23", "2", "3", "9", "8", "28", "24", "33", "25", "28", "25", "30", "32", "32", "31", "24", "28", "24", "31", "14", "17", "14", "13", "31", "30", "30", "31", "12", "18", "14", "19", "22", "30", "29", "30", "30", "33", "33", "30", "31", "19", "20", "13", "7", "4", "6", "16", "15", "20", "22", "12", "1", "10", "11", "23", "22", "19", "20", "19", "12", "7", "2", "10", "28", "24", "25", "30", "23"], "time": [2019, 2285, 2568, 2819, 3151, 3701, 3751, 3918, 4217, 5850, 6549, 7466, 7499, 7565, 7849, 8482, 8515, 8582, 8631, 9048, 9448, 9466, 9514, 9581, 9964, 11747, 11863, 11996, 12180, 13162, 13278, 13345, 13645, 13861, 13911, 14595, 14628, 14778, 15195, 15694, 15727, 15944, 17526, 17810, 18009, 18226, 19592, 19642, 19975, 20027, 20375, 20409, 20508, 20674, 21307, 21524, 21557, 21690, 22123, 23173, 23340, 23540, 24006, 24056, 24273, 25322, 25422, 26105, 26271, 26505, 26571, 27221, 27254, 27337, 27671, 27770, 27804, 27854, 28020, 29303, 29669, 31318, 31385, 33084, 33167, 33550, 34949, 35216, 36948, 36981, 37031, 37081, 38031]}, "edge": {"target": [], "time": []}}, "mouseout": {"state": {"target": ["6", "18", "13", "12", "0", "12", "7", "16", "17", "16", "18", "12", "31", "33", "33", "29", "27", "26", "25", "30", "32", "30", "24", "10", "8", "5", "3", "2", "1", "0", "21", "23", "2", "3", "9", "8", "28", "24", "33", "25", "28", "25", "30", "32", "32", "31", "24", "28", "24", "31", "14", "17", "14", "13", "31", "30", "30", "31", "12", "18", "14", "19", "22", "30", "29", "30", "30", "33", "33", "30", "31", "19", "20", "13", "7", "4", "6", "16", "15", "20", "22", "12", "1", "10", "11", "23", "22", "19", "20", "19", "12", "7", "2", "10", "28", "24", "25", "30", "23"], "time": [969, 1003, 1086, 1337, 1568, 2035, 2468, 2768, 2918, 3668, 3718, 3768, 3967, 5519, 5766, 5900, 7433, 7482, 7532, 7599, 8465, 8498, 8532, 8615, 8648, 9414, 9464, 9497, 9547, 9598, 11463, 11763, 11929, 12063, 13129, 13179, 13312, 13395, 13812, 13878, 14294, 14611, 14678, 14878, 15627, 15710, 15777, 17476, 17626, 17926, 18026, 19542, 19625, 19658, 19991, 20091, 20408, 20425, 20541, 21241, 21324, 21541, 21574, 21707, 23091, 23190, 23357, 23573, 24023, 24239, 25055, 25389, 26055, 26121, 26338, 26521, 27187, 27238, 27271, 27404, 27721, 27787, 27821, 27887, 29136, 29353, 31301, 31352, 33067, 33100, 33184, 34899, 35083, 36898, 36965, 36998, 37048, 37098, 38047]}, "edge": {"target": [], "time": []}}}, "displayed_time": "43.16", "trialTime": 44863, "trial_type": "mouselab-mdp", "trial_index": 23, "time_elapsed": 1529054, "internal_node_id": "0.0-4.0-1.0-14.0"}}, {"uniqueid": "w11462312:a46417813", "current_trial": 24, "dateTime": 1691161275335, "trialdata": {"revealed_states": [], "clicked_states": ["21", "9", "32", "29", "17"], "num_clicks_accrued": [0, 0, 0, 0, 0, 0, 0, 0, 0, 0, 0, 0, 0], "stateRewards": ["", -1, 1, -2, 5, 73, 15, 61, 8, 7, 38, 76, 2, 2, -4, -6, -6, -26, 43, -5, -45, -85, -35, -2, 1, -4, 15, -10, 69, 72, -11, 84, -49, -38], "withholdReward": false, "trial_id": "mdp_trial_16", "block": "test", "trialIndex": 17, "score": 75, "costs": -7, "simulationMode": [null, null, null, null, null], "rewards": [-2, 1, -4, 15, 72], "path": ["0", "0", "23", "24", "25", "26", "29"], "rt": [12267, 73, 22, 442, 44], "actions": ["left", "left", "left", "up", "left"], "actionTimes": [16144, 16731, 17262, 18215, 18766], "queries": {"click": {"state": {"target": ["21", "9", "32", "29", "17"], "time": [4807, 6601, 8410, 10768, 12655]}, "edge": {"target": [], "time": []}}, "mouseover": {"state": {"target": ["21", "20", "21", "19", "14", "15", "16", "7", "3", "9", "11", "27", "29", "33", "32", "31", "7", "7", "2", "28", "29", "27", "29", "26", "15", "17", "18", "28", "26", "1", "28", "26"], "time": [4180, 4430, 4597, 5247, 5297, 5380, 5547, 5696, 5746, 6096, 7095, 7145, 7195, 7429, 7562, 8911, 9128, 9378, 9411, 9461, 9711, 10144, 10543, 11093, 11260, 11610, 13325, 13392, 13410, 14608, 14641, 14674]}, "edge": {"target": [], "time": []}}, "mouseout": {"state": {"target": ["0", "12", "13", "14", "13", "12", "0", "21", "20", "21", "19", "14", "15", "16", "7", "3", "9", "11", "27", "29", "33", "32", "31", "7", "7", "2", "28", "29", "27", "29", "26", "15", "17", "18", "28", "26", "29", "1", "28", "26", "29", "23", "0", "22"], "time": [749, 1449, 1516, 3249, 3347, 3415, 4047, 4247, 4530, 4887, 5280, 5330, 5463, 5647, 5713, 5780, 7046, 7112, 7162, 7245, 7479, 8878, 8928, 9279, 9394, 9428, 9495, 10027, 10260, 11077, 11110, 11326, 12829, 13342, 13409, 13425, 14008, 14624, 14657, 14807, 20304, 20404, 20421, 20470]}, "edge": {"target": [], "time": []}}}, "displayed_time": "19.29", "trialTime": 21451, "trial_type": "mouselab-mdp", "trial_index": 24, "time_elapsed": 1550651, "internal_node_id": "0.0-4.0-1.0-15.0"}}, {"uniqueid": "w11462312:a46417813", "current_trial": 25, "dateTime": 1691161300903, "trialdata": {"revealed_states": [], "clicked_states": ["5", "21", "32", "27", "9", "17", "33", "16", "18"], "num_clicks_accrued": [0, 0, 0, 0, 0, 0, 0, 0, 0, 0, 0, 0, 0], "stateRewards": ["", -2, -1, -1, 5, -54, -87, 35, 2, -8, 20, -22, 1, 3, 6, 13, -75, -32, -55, -3, 56, 62, -22, -1, -4, -1, -7, -51, 84, 70, 7, -15, 5, 55], "withholdReward": false, "trial_id": "mdp_trial_17", "block": "test", "trialIndex": 18, "score": 56.4, "costs": -12.600000000000001, "simulationMode": [null, null, null, null, null], "rewards": [1, 3, 6, -3, 62], "path": ["0", "0", "12", "13", "14", "19", "21"], "rt": [19278, 470, 164, 47, 154], "actions": ["right", "right", "right", "down", "down"], "actionTimes": [20617, 21603, 22279, 22829, 23518], "queries": {"click": {"state": {"target": ["5", "21", "32", "27", "9", "17", "33", "16", "18"], "time": [2142, 3681, 5445, 7223, 9073, 10956, 12842, 15021, 18068]}, "edge": {"target": [], "time": []}}, "mouseover": {"state": {"target": ["7", "5", "6", "15", "20", "21", "32", "30", "33", "32", "29", "27", "11", "9", "3", "16", "17", "17", "17", "21", "33", "30", "14", "16", "15", "20", "21", "19", "19", "18", "13", "21"], "time": [1760, 2010, 2543, 2627, 2727, 3077, 4525, 4592, 4759, 4958, 6424, 6644, 7557, 7807, 9423, 9522, 9572, 9955, 10389, 11804, 12287, 13169, 13286, 13602, 15318, 15468, 15585, 16950, 17766, 17934, 18366, 18633]}, "edge": {"target": [], "time": []}}, "mouseout": {"state": {"target": ["0", "7", "5", "5", "6", "15", "20", "21", "32", "30", "33", "32", "29", "27", "11", "9", "3", "16", "17", "17", "17", "21", "33", "30", "14", "17", "16", "15", "20", "21", "19", "19", "18", "13"], "time": [1543, 1777, 2216, 2510, 2577, 2643, 2877, 4109, 4559, 4609, 4775, 6058, 6574, 7490, 7624, 9406, 9456, 9539, 9755, 10254, 11454, 11820, 12914, 13186, 13303, 13502, 15302, 15355, 15535, 15735, 16967, 17817, 18350, 18400]}, "edge": {"target": [], "time": []}}}, "displayed_time": "24.03", "trialTime": 25426, "trial_type": "mouselab-mdp", "trial_index": 25, "time_elapsed": 1576219, "internal_node_id": "0.0-4.0-1.0-16.0"}}, {"uniqueid": "w11462312:a46417813", "current_trial": 26, "dateTime": 1691161329203, "trialdata": {"revealed_states": [], "clicked_states": ["23", "1", "12", "3", "25", "27", "11", "6", "29"], "num_clicks_accrued": [0, 0, 0, 0, 0, 0, 0, 0, 0, 0, 0, 0, 0], "stateRewards": ["", 1, -2, -3, 14, -42, -87, -37, -11, -50, 33, -44, -2, 4, -7, 13, 48, -75, -66, 12, 23, -2, 82, 1, -4, 3, 12, 51, -15, -26, -11, -52, -29, 82], "withholdReward": false, "trial_id": "mdp_trial_18", "block": "test", "trialIndex": 19, "score": 50.4, "costs": -12.600000000000001, "simulationMode": [null, null, null, null, null], "rewards": [1, -4, 3, 12, 51], "path": ["0", "0", "23", "24", "25", "26", "27"], "rt": [21859, 114, 91, 66, 70], "actions": ["left", "left", "left", "up", "up"], "actionTimes": [23464, 24081, 24689, 25264, 25852], "queries": {"click": {"state": {"target": ["23", "1", "12", "3", "25", "27", "11", "6", "29"], "time": [2980, 4771, 6624, 9583, 11485, 13525, 15549, 17945, 20063]}, "edge": {"target": [], "time": []}}, "mouseover": {"state": {"target": ["0", "22", "19", "14", "13", "23", "1", "12", "19", "20", "19", "2", "3", "10", "24", "24", "25", "26", "27", "11", "9", "8", "11", "4", "6", "7", "1", "23", "31", "32", "30", "29", "24", "23", "0", "28", "27"], "time": [1796, 1861, 2097, 2328, 2363, 2777, 3411, 5226, 7458, 7775, 9058, 9241, 9458, 10023, 10157, 10473, 10573, 13055, 13206, 13921, 14237, 14737, 14870, 17553, 17670, 18186, 18218, 18252, 18285, 18352, 18751, 19900, 20550, 20600, 20700, 22032, 22266]}, "edge": {"target": [], "time": []}}, "mouseout": {"state": {"target": ["21", "0", "0", "22", "19", "14", "13", "23", "1", "12", "19", "20", "19", "2", "3", "10", "24", "24", "25", "26", "27", "11", "9", "8", "11", "4", "6", "7", "1", "23", "31", "32", "30", "29", "24", "23", "0", "28", "27"], "time": [862, 1378, 1829, 2096, 2111, 2362, 2378, 3177, 5060, 6909, 7742, 7792, 9090, 9291, 9973, 10057, 10206, 10540, 12991, 13122, 13854, 14004, 14721, 14754, 16803, 17602, 18168, 18202, 18235, 18268, 18302, 18652, 19586, 20450, 20583, 20667, 20750, 22100, 27097]}, "edge": {"target": [], "time": []}}}, "displayed_time": "26.36", "trialTime": 28160, "trial_type": "mouselab-mdp", "trial_index": 26, "time_elapsed": 1604518, "internal_node_id": "0.0-4.0-1.0-17.0"}}, {"uniqueid": "w11462312:a46417813", "current_trial": 27, "dateTime": 1691161350600, "trialdata": {"revealed_states": [], "clicked_states": ["25", "14", "3", "9", "6", "5"], "num_clicks_accrued": [0, 0, 0, 0, 0, 0, 0, 0, 0, 0, 0, 0, 0], "stateRewards": ["", -1, 1, 8, -8, -49, 62, -78, 16, 28, -81, 78, -2, -3, -1, -4, 67, 49, -2, -13, -16, -39, 83, 1, -4, 4, -5, -20, 7, 84, 7, -32, -59, 19], "withholdReward": false, "trial_id": "mdp_trial_19", "block": "test", "trialIndex": 20, "score": 53.6, "costs": -8.4, "simulationMode": [null, null, null, null, null], "rewards": [-1, 1, 8, -8, 62], "path": ["0", "0", "1", "2", "3", "4", "6"], "rt": [15239, 280, 72, 101, 52], "actions": ["up", "up", "up", "right", "right"], "actionTimes": [16627, 17417, 17992, 18603, 19171], "queries": {"click": {"state": {"target": ["25", "14", "3", "9", "6", "5"], "time": [2509, 4314, 6241, 8681, 10720, 13819]}, "edge": {"target": [], "time": []}}, "mouseover": {"state": {"target": ["0", "25", "24", "22", "19", "14", "13", "2", "3", "2", "24", "30", "30", "25", "28", "10", "8", "9", "8", "2", "7", "6", "7", "2", "10", "3", "5", "5", "5"], "time": [1611, 2361, 2760, 2860, 2893, 3243, 4642, 4858, 5191, 6774, 6857, 6891, 6990, 8191, 8240, 8290, 8357, 8507, 9006, 9123, 9222, 10005, 11122, 11321, 11438, 11889, 12071, 12355, 13719]}, "edge": {"target": [], "time": []}}, "mouseout": {"state": {"target": ["31", "23", "0", "25", "24", "22", "19", "14", "13", "2", "3", "2", "24", "30", "30", "25", "28", "10", "8", "9", "8", "2", "7", "6", "7", "2", "10", "3", "5", "5", "5", "6", "5", "3", "2", "1", "1"], "time": [477, 877, 1644, 2743, 2778, 2877, 3010, 4608, 4659, 4958, 6741, 6791, 6874, 6924, 7007, 8206, 8273, 8323, 8439, 8956, 9039, 9139, 9755, 11055, 11272, 11405, 11621, 11904, 12137, 13320, 14570, 20336, 20351, 20517, 20533, 20617, 20783]}, "edge": {"target": [], "time": []}}}, "displayed_time": "19.68", "trialTime": 21257, "trial_type": "mouselab-mdp", "trial_index": 27, "time_elapsed": 1625916, "internal_node_id": "0.0-4.0-1.0-18.0"}}, {"uniqueid": "w11462312:a46417813", "current_trial": 28, "dateTime": 1691161373207, "trialdata": {"revealed_states": [], "clicked_states": ["25", "3", "14", "16", "5", "29"], "num_clicks_accrued": [0, 0, 0, 0, 0, 0, 0, 0, 0, 0, 0, 0, 0], "stateRewards": ["", 1, 2, -5, 14, 54, -14, -25, 16, -5, -87, 78, -1, 1, 3, -3, 52, 53, 53, -10, 73, -69, -48, 2, 3, 1, 8, -62, -7, 85, 7, 82, 52, -28], "withholdReward": false, "trial_id": "mdp_trial_20", "block": "test", "trialIndex": 21, "score": 90.6, "costs": -8.4, "simulationMode": [null, null, null, null, null], "rewards": [2, 3, 1, 8, 85], "path": ["0", "0", "23", "24", "25", "26", "29"], "rt": [15811, 40, 97, 54, 59], "actions": ["left", "left", "left", "up", "left"], "actionTimes": [17261, 17814, 18436, 18993, 19581], "queries": {"click": {"state": {"target": ["25", "3", "14", "16", "5", "29"], "time": [2071, 3925, 5737, 8402, 10986, 13374]}, "edge": {"target": [], "time": []}}, "mouseover": {"state": {"target": ["23", "24", "25", "28", "10", "8", "3", "7", "18", "14", "15", "16", "15", "21", "0", "1", "2", "3", "9", "5", "4", "7", "26", "29", "33"], "time": [1532, 1565, 1599, 2315, 2365, 2481, 2665, 4264, 4330, 4514, 7912, 8112, 8861, 9510, 9827, 9927, 10278, 10360, 10611, 10859, 11393, 11576, 13009, 13158, 14474]}, "edge": {"target": [], "time": []}}, "mouseout": {"state": {"target": ["1", "0", "23", "24", "25", "28", "10", "8", "3", "7", "18", "14", "15", "16", "15", "14", "21", "0", "1", "2", "3", "9", "5", "4", "7", "26", "29", "33", "29", "29", "26"], "time": [900, 1516, 1548, 1582, 2281, 2348, 2415, 2515, 4214, 4281, 4397, 6595, 7995, 8811, 8927, 9111, 9560, 9844, 10246, 10327, 10410, 10776, 11343, 11492, 11659, 13092, 13775, 15524, 15874, 20987, 21087]}, "edge": {"target": [], "time": []}}}, "displayed_time": "20.09", "trialTime": 22463, "trial_type": "mouselab-mdp", "trial_index": 28, "time_elapsed": 1648523, "internal_node_id": "0.0-4.0-1.0-19.0"}}, {"uniqueid": "w11462312:a46417813", "current_trial": 29, "dateTime": 1691161411876, "trialdata": {"revealed_states": [], "clicked_states": ["25", "3", "14", "21", "16", "17", "18", "20", "22", "9", "33", "6", "5", "29"], "num_clicks_accrued": [0, 0, 0, 0, 0, 0, 0, 0, 0, 0, 0, 0, 0], "stateRewards": ["", 2, 3, -1, 6, 44, -4, -59, -14, -3, 64, 16, 1, -3, 3, 6, 3, 49, 19, 3, -49, -14, -86, 1, 2, -3, -8, -33, 14, 32, -13, -77, -47, -67], "withholdReward": false, "trial_id": "mdp_trial_21", "block": "test", "trialIndex": 22, "score": 36.400000000000006, "costs": -19.599999999999998, "simulationMode": [null, null, null, null, null], "rewards": [1, -3, 3, 6, 49], "path": ["0", "0", "12", "13", "14", "15", "17"], "rt": [31837, 466, 125, 88, 85], "actions": ["right", "right", "right", "up", "right"], "actionTimes": [33521, 34504, 35145, 35741, 36337], "queries": {"click": {"state": {"target": ["25", "3", "14", "21", "16", "17", "18", "20", "22", "9", "33", "6", "5", "29"], "time": [2443, 4855, 6823, 8934, 10948, 12911, 14920, 16928, 18853, 21831, 24617, 26893, 29002, 31288]}, "edge": {"target": [], "time": []}}, "mouseover": {"state": {"target": ["23", "24", "25", "10", "27", "3", "3", "7", "18", "14", "20", "21", "16", "17", "20", "14", "18", "13", "22", "22", "19", "20", "21", "22", "18", "7", "4", "9", "23", "4", "5", "10", "25", "33", "30", "12", "6", "5", "4", "7", "32", "30", "25", "26", "27", "29", "26", "15"], "time": [2055, 2122, 2255, 3138, 3771, 4454, 4786, 5186, 5270, 5453, 8468, 8768, 9800, 11733, 13498, 13998, 14231, 15314, 15397, 15714, 16346, 16613, 17346, 17812, 21344, 21460, 21545, 21711, 23159, 23726, 23825, 24008, 24058, 24475, 24958, 25158, 26657, 28765, 29355, 29405, 29872, 30072, 30122, 30155, 30255, 31138, 31587, 31654]}, "edge": {"target": [], "time": []}}, "mouseout": {"state": {"target": ["0", "23", "24", "25", "10", "27", "3", "3", "7", "18", "14", "20", "21", "16", "17", "20", "14", "18", "13", "22", "22", "19", "20", "21", "22", "18", "7", "4", "9", "9", "23", "4", "5", "10", "25", "33", "33", "30", "12", "6", "5", "4", "7", "32", "30", "25", "26", "27", "29", "26", "15", "4"], "time": [2005, 2089, 2171, 2524, 3171, 4371, 4470, 5136, 5203, 5303, 8185, 8685, 9217, 11583, 13232, 13948, 14014, 15264, 15364, 15480, 16296, 16497, 17229, 17413, 19228, 21361, 21510, 21560, 21926, 22892, 23642, 23758, 23959, 24025, 24075, 24683, 24941, 24975, 25191, 28473, 29322, 29389, 29422, 30038, 30088, 30139, 30205, 30372, 31294, 31604, 31670, 37533]}, "edge": {"target": [], "time": []}}}, "displayed_time": "36.85", "trialTime": 38520, "trial_type": "mouselab-mdp", "trial_index": 29, "time_elapsed": 1687192, "internal_node_id": "0.0-4.0-1.0-20.0"}}, {"uniqueid": "w11462312:a46417813", "current_trial": 30, "dateTime": 1691161447526, "trialdata": {"revealed_states": [], "clicked_states": ["14", "16", "21", "17", "18", "20", "22", "25", "3", "33", "32", "31"], "num_clicks_accrued": [0, 0, 0, 0, 0, 0, 0, 0, 0, 0, 0, 0, 0], "stateRewards": ["", 1, 1, -5, 8, -6, 45, 16, -6, -7, -22, -38, -1, -4, 8, -11, -16, 21, -45, -15, -59, -32, 42, -1, 3, 6, 11, -7, 34, -27, -8, 85, 43, -9], "withholdReward": false, "trial_id": "mdp_trial_22", "block": "test", "trialIndex": 23, "score": 68.2, "costs": -16.8, "simulationMode": [null, null, null, null, null], "rewards": [-1, 3, 6, -8, 85], "path": ["0", "0", "23", "24", "25", "30", "31"], "rt": [28591, 66, 102, 389, 138], "actions": ["left", "left", "left", "down", "right"], "actionTimes": [30540, 31113, 31732, 32635, 33283], "queries": {"click": {"state": {"target": ["14", "16", "21", "17", "18", "20", "22", "25", "3", "33", "32", "31"], "time": [2553, 5268, 7759, 9986, 11952, 14005, 16054, 18027, 20232, 22533, 24417, 26471]}, "edge": {"target": [], "time": []}}, "mouseover": {"state": {"target": ["12", "13", "14", "2", "3", "4", "16", "15", "17", "21", "21", "17", "20", "19", "13", "18", "13", "19", "20", "22", "14", "15", "13", "24", "25", "24", "19", "0", "23", "3", "2", "31", "33", "32", "31", "24", "26", "27", "26", "25", "30"], "time": [2063, 2148, 2398, 3013, 3146, 4829, 4945, 5663, 7294, 7526, 7693, 9859, 10508, 10775, 11025, 11124, 12390, 13657, 13757, 15289, 16505, 16588, 16788, 16922, 17171, 18454, 18555, 19702, 19736, 20086, 20702, 21185, 22301, 24017, 25083, 26799, 26882, 26998, 29014, 29064, 29113]}, "edge": {"target": [], "time": []}}, "mouseout": {"state": {"target": ["22", "19", "14", "13", "12", "0", "12", "13", "14", "2", "3", "4", "16", "15", "17", "21", "21", "17", "17", "20", "19", "13", "18", "13", "19", "20", "22", "14", "15", "13", "24", "25", "25", "24", "19", "22", "22", "0", "23", "3", "2", "31", "25", "33", "32", "31", "24", "26", "27", "26", "25", "30", "31", "24", "24"], "time": [1181, 1280, 1480, 1530, 1680, 1763, 2097, 2314, 2830, 3079, 4796, 4862, 5645, 5694, 7394, 7577, 8026, 10062, 10308, 10691, 10859, 11058, 12324, 12640, 13723, 14474, 16455, 16538, 16772, 16805, 17104, 18127, 18453, 18470, 18787, 18853, 19620, 19719, 19753, 20653, 20752, 21202, 21552, 22901, 24949, 26748, 26815, 26932, 28681, 29030, 29097, 29147, 34328, 34362, 34444]}, "edge": {"target": [], "time": []}}}, "displayed_time": "33.80", "trialTime": 35484, "trial_type": "mouselab-mdp", "trial_index": 30, "time_elapsed": 1722842, "internal_node_id": "0.0-4.0-1.0-21.0"}}, {"uniqueid": "w11462312:a46417813", "current_trial": 31, "dateTime": 1691161468811, "trialdata": {"revealed_states": [], "clicked_states": ["33", "17", "11", "6", "21", "16"], "num_clicks_accrued": [0, 0, 0, 0, 0, 0, 0, 0, 0, 0, 0, 0, 0], "stateRewards": ["", -1, 3, -4, -14, 78, 67, 2, 13, -32, 28, 39, -2, 1, -4, -4, -4, -42, -86, 11, 64, -29, -32, -1, -4, 2, -7, 5, 68, -61, 2, -21, 85, 50], "withholdReward": false, "trial_id": "mdp_trial_23", "block": "test", "trialIndex": 24, "score": 42.6, "costs": -8.4, "simulationMode": [null, null, null, null, null], "rewards": [-1, 3, -4, -14, 67], "path": ["0", "0", "1", "2", "3", "4", "6"], "rt": [14613, 38, 131, 15, 49], "actions": ["up", "up", "up", "right", "right"], "actionTimes": [16567, 17108, 17749, 18284, 18850], "queries": {"click": {"state": {"target": ["33", "17", "11", "6", "21", "16"], "time": [2939, 5089, 7033, 8974, 11491, 13651]}, "edge": {"target": [], "time": []}}, "mouseover": {"state": {"target": ["0", "31", "30", "33", "30", "19", "15", "17", "14", "13", "12", "1", "11", "1", "12", "13", "16", "6", "18", "13", "19", "21", "19", "14", "15", "16", "4", "6"], "time": [2178, 2311, 2394, 2711, 3195, 3294, 3427, 3743, 5409, 5442, 5559, 5659, 5842, 7391, 7441, 7474, 7740, 8041, 9373, 9426, 9523, 9790, 11821, 11871, 11955, 12704, 14353, 15973]}, "edge": {"target": [], "time": []}}, "mouseout": {"state": {"target": ["0", "0", "31", "30", "33", "30", "19", "15", "17", "17", "14", "13", "12", "1", "11", "11", "1", "12", "13", "16", "6", "18", "13", "19", "21", "19", "14", "15", "6", "16", "4", "6", "6", "0"], "time": [1760, 2211, 2344, 2527, 3194, 3210, 3310, 3510, 5135, 5342, 5425, 5509, 5592, 5675, 7085, 7307, 7407, 7457, 7557, 7807, 9290, 9406, 9456, 9556, 11788, 11855, 11905, 12005, 12521, 13971, 14487, 20003, 20032, 20082]}, "edge": {"target": [], "time": []}}}, "displayed_time": "19.37", "trialTime": 21121, "trial_type": "mouselab-mdp", "trial_index": 31, "time_elapsed": 1744127, "internal_node_id": "0.0-4.0-1.0-22.0"}}, {"uniqueid": "w11462312:a46417813", "current_trial": 32, "dateTime": 1691161496978, "trialdata": {"revealed_states": [], "clicked_states": ["25", "3", "14", "6", "11", "10", "5", "7", "9"], "num_clicks_accrued": [0, 0, 0, 0, 0, 0, 0, 0, 0, 0, 0, 0, 0], "stateRewards": ["", 1, 1, 6, -14, -40, 37, 16, -13, 33, -68, 49, 2, 4, 3, 6, 55, 27, 32, 10, -65, 20, -87, 2, 1, -6, -5, -42, 12, 29, -8, 16, 76, -33], "withholdReward": false, "trial_id": "mdp_trial_24", "block": "test", "trialIndex": 25, "score": 31.4, "costs": -12.600000000000001, "simulationMode": [null, null, null, null, null], "rewards": [1, 1, 6, -13, 49], "path": ["0", "0", "1", "2", "3", "8", "11"], "rt": [21429, 420, 114, 31, 75], "actions": ["up", "up", "up", "left", "left"], "actionTimes": [23770, 24708, 25334, 25884, 26494], "queries": {"click": {"state": {"target": ["25", "3", "14", "6", "11", "10", "5", "7", "9"], "time": [3639, 6089, 8081, 11049, 13048, 15112, 17020, 18926, 20848]}, "edge": {"target": [], "time": []}}, "mouseover": {"state": {"target": ["31", "30", "25", "25", "28", "8", "2", "3", "2", "13", "14", "13", "18", "7", "4", "5", "6", "1", "28", "11", "10", "2", "4", "5", "4", "7", "8", "9", "11", "11", "11"], "time": [2632, 2750, 2866, 3115, 3915, 4248, 5632, 5964, 6397, 6513, 6713, 10211, 10244, 10328, 10444, 10561, 10844, 11527, 11610, 11860, 13692, 15441, 15625, 15825, 17557, 17741, 19289, 19555, 21454, 21787, 22287]}, "edge": {"target": [], "time": []}}, "mouseout": {"state": {"target": ["32", "31", "0", "0", "31", "30", "25", "25", "28", "8", "2", "3", "2", "13", "14", "14", "13", "18", "7", "4", "5", "6", "1", "28", "11", "10", "2", "4", "5", "5", "4", "7", "8", "9", "11", "11"], "time": [600, 683, 983, 2549, 2666, 2832, 2949, 3865, 3965, 4648, 5664, 6363, 6414, 6580, 8462, 10194, 10228, 10261, 10394, 10511, 10794, 11444, 11544, 11627, 13426, 15425, 15475, 15725, 17106, 17490, 17657, 19189, 19322, 21321, 21488, 21854]}, "edge": {"target": [], "time": []}}}, "displayed_time": "27.00", "trialTime": 28007, "trial_type": "mouselab-mdp", "trial_index": 32, "time_elapsed": 1772293, "internal_node_id": "0.0-4.0-1.0-23.0"}}, {"uniqueid": "w11462312:a46417813", "current_trial": 33, "dateTime": 1691161517665, "trialdata": {"revealed_states": [], "clicked_states": ["33", "17", "11", "6", "21", "16"], "num_clicks_accrued": [0, 0, 0, 0, 0, 0, 0, 0, 0, 0, 0, 0, 0], "stateRewards": ["", 2, 3, 8, 11, 25, -80, 6, -4, -56, 84, -23, -2, -4, -3, 4, -51, -9, -61, -15, -64, 67, -35, 1, -1, -7, -6, 83, 59, -15, 12, -79, 56, 41], "withholdReward": false, "trial_id": "mdp_trial_25", "block": "test", "trialIndex": 26, "score": 34.6, "costs": -8.4, "simulationMode": [null, null, null, null, null], "rewards": [-2, -4, -3, -15, 67], "path": ["0", "0", "12", "13", "14", "19", "21"], "rt": [14142, 9, 546, 79, 102], "actions": ["right", "right", "right", "down", "down"], "actionTimes": [15872, 16389, 17459, 18040, 18647], "queries": {"click": {"state": {"target": ["33", "17", "11", "6", "21", "16"], "time": [2571, 4522, 6392, 8263, 10132, 12158]}, "edge": {"target": [], "time": []}}, "mouseover": {"state": {"target": ["23", "31", "30", "33", "30", "31", "18", "16", "17", "15", "4", "3", "11", "8", "4", "6", "18", "19", "21", "21", "19", "14", "15", "16", "15", "14", "19", "21"], "time": [2037, 2087, 2136, 2303, 2836, 2854, 2953, 3236, 3569, 4918, 5085, 5185, 5551, 6767, 6818, 7417, 8683, 8800, 8933, 9150, 10798, 11264, 11348, 11482, 12464, 12486, 12530, 14946]}, "edge": {"target": [], "time": []}}, "mouseout": {"state": {"target": ["11", "1", "0", "23", "31", "30", "33", "30", "31", "18", "16", "17", "15", "4", "3", "11", "8", "4", "6", "18", "19", "21", "21", "19", "14", "15", "16", "16", "15", "14", "19", "21", "21"], "time": [971, 1203, 1554, 2053, 2120, 2170, 2820, 2853, 2870, 2969, 3353, 4885, 4951, 5151, 5285, 6750, 6784, 6834, 8600, 8716, 8883, 8950, 10731, 11231, 11298, 11431, 12242, 12447, 12485, 12514, 12564, 14299, 19690]}, "edge": {"target": [], "time": []}}}, "displayed_time": "19.16", "trialTime": 20516, "trial_type": "mouselab-mdp", "trial_index": 33, "time_elapsed": 1792981, "internal_node_id": "0.0-4.0-1.0-24.0"}}, {"uniqueid": "w11462312:a46417813", "current_trial": 34, "dateTime": 1691161562471, "trialdata": {"revealed_states": [], "clicked_states": ["11", "6", "33", "31", "22", "20", "16", "5", "7", "9", "10", "18", "17", "21", "29", "27", "32", "28"], "num_clicks_accrued": [0, 0, 0, 0, 0, 0, 0, 0, 0, 0, 0, 0, 0], "stateRewards": ["", 2, -4, -4, 13, -80, 62, 13, -11, 57, -13, -44, 1, 4, 3, -4, -29, -88, 15, 16, -58, 68, -45, -1, -3, -1, -9, -44, -86, -19, -7, -36, 59, 66], "withholdReward": false, "trial_id": "mdp_trial_26", "block": "test", "trialIndex": 27, "score": 66.80000000000001, "costs": -25.199999999999992, "simulationMode": [null, null, null, null, null], "rewards": [1, 4, 3, 16, 68], "path": ["0", "0", "12", "13", "14", "19", "21"], "rt": [38823, 33, 19, 297, 129], "actions": ["right", "right", "right", "down", "down"], "actionTimes": [40400, 40944, 41496, 42307, 42939], "queries": {"click": {"state": {"target": ["11", "6", "33", "31", "22", "20", "16", "5", "7", "9", "10", "18", "17", "21", "29", "27", "32", "28"], "time": [2657, 4545, 6569, 8349, 10163, 12166, 14059, 15915, 17770, 19726, 21566, 23570, 25541, 27518, 30594, 32462, 34262, 36109]}, "edge": {"target": [], "time": []}}, "mouseover": {"state": {"target": ["1", "2", "8", "9", "11", "8", "3", "6", "7", "1", "24", "30", "33", "33", "32", "31", "20", "19", "22", "20", "21", "19", "14", "15", "16", "15", "14", "18", "4", "5", "4", "7", "2", "8", "9", "8", "10", "28", "25", "33", "25", "10", "10", "22", "19", "14", "15", "18", "15", "17", "21", "31", "30", "29", "27", "30", "32", "30", "28", "12", "13", "19", "21"], "time": [1733, 1849, 1999, 2216, 2482, 2899, 2949, 3265, 5053, 5114, 5164, 5364, 5531, 5914, 7129, 7829, 9378, 9512, 9662, 11027, 12976, 13193, 13243, 13343, 13509, 14425, 14775, 15125, 15225, 15408, 16258, 16441, 18240, 18440, 18673, 20072, 20205, 20255, 20306, 20805, 20938, 21022, 21304, 21988, 22371, 22421, 22520, 22754, 23886, 23937, 26635, 28184, 28234, 28617, 31216, 33065, 33547, 34630, 35180, 37012, 37046, 37196, 37478]}, "edge": {"target": [], "time": []}}, "mouseout": {"state": {"target": ["1", "0", "1", "2", "8", "9", "11", "8", "3", "6", "7", "1", "24", "30", "33", "33", "32", "31", "20", "19", "22", "20", "21", "19", "14", "15", "16", "15", "14", "18", "4", "5", "4", "7", "2", "8", "9", "8", "10", "28", "25", "33", "25", "10", "10", "10", "22", "19", "14", "15", "18", "15", "17", "21", "31", "30", "29", "27", "27", "30", "32", "30", "28", "12", "13", "19"], "time": [1049, 1683, 1749, 1899, 2083, 2332, 2882, 2933, 2965, 4982, 5081, 5131, 5181, 5414, 5581, 7046, 7146, 8895, 9479, 9595, 10445, 12493, 13160, 13226, 13276, 13393, 14375, 14609, 14909, 15142, 15275, 16224, 16324, 18123, 18323, 18524, 20039, 20139, 20239, 20289, 20322, 20921, 20955, 21188, 21664, 21854, 22021, 22388, 22454, 22554, 23870, 23920, 25952, 27834, 28217, 28251, 31016, 32542, 32782, 33164, 34464, 34647, 36696, 37029, 37079, 37312]}, "edge": {"target": [], "time": []}}}, "displayed_time": "43.44", "trialTime": 44646, "trial_type": "mouselab-mdp", "trial_index": 34, "time_elapsed": 1837786, "internal_node_id": "0.0-4.0-1.0-25.0"}}, {"uniqueid": "w11462312:a46417813", "current_trial": 35, "dateTime": 1691161588127, "trialdata": {"revealed_states": [], "clicked_states": ["14", "3", "25", "32", "27", "33", "29", "28", "31"], "num_clicks_accrued": [0, 0, 0, 0, 0, 0, 0, 0, 0, 0, 0, 0, 0], "stateRewards": ["", 1, -1, 1, -14, -10, 67, -28, -11, 72, 40, -65, -1, 1, 1, -2, 8, -55, 34, -10, 61, 33, -15, 2, -4, 7, 4, -75, 63, -21, -16, 61, 19, 21], "withholdReward": false, "trial_id": "mdp_trial_27", "block": "test", "trialIndex": 28, "score": 59.4, "costs": -12.600000000000001, "simulationMode": [null, null, null, null, null], "rewards": [2, -4, 7, 4, 63], "path": ["0", "0", "23", "24", "25", "26", "28"], "rt": [19985, 368, 106, 86, 83], "actions": ["left", "left", "left", "up", "right"], "actionTimes": [21263, 22137, 22758, 23353, 23950], "queries": {"click": {"state": {"target": ["14", "3", "25", "32", "27", "33", "29", "28", "31"], "time": [2001, 4095, 5986, 8401, 10281, 12123, 13910, 15728, 17630]}, "edge": {"target": [], "time": []}}, "mouseover": {"state": {"target": ["12", "13", "14", "14", "19", "18", "7", "4", "3", "10", "28", "25", "32", "30", "27", "26", "25", "33", "25", "28", "26", "29", "25", "28", "24", "31"], "time": [1530, 1563, 1596, 1879, 2296, 2579, 2662, 2796, 2912, 4411, 4461, 4878, 8175, 8725, 9458, 10658, 10724, 11107, 12607, 12806, 13273, 13439, 14355, 14522, 16054, 16237]}, "edge": {"target": [], "time": []}}, "mouseout": {"state": {"target": ["21", "22", "0", "12", "13", "14", "14", "19", "14", "18", "7", "4", "3", "10", "28", "25", "32", "30", "25", "27", "26", "25", "33", "25", "28", "26", "29", "25", "28", "24", "31"], "time": [746, 813, 1287, 1546, 1579, 1679, 2280, 2313, 2496, 2613, 2679, 2812, 4378, 4428, 4495, 6343, 8675, 8742, 8792, 10624, 10691, 10757, 12490, 12657, 13256, 13356, 14172, 14405, 16021, 16121, 17903]}, "edge": {"target": [], "time": []}}}, "displayed_time": "24.47", "trialTime": 25492, "trial_type": "mouselab-mdp", "trial_index": 35, "time_elapsed": 1863442, "internal_node_id": "0.0-4.0-1.0-26.0"}}, {"uniqueid": "w11462312:a46417813", "current_trial": 36, "dateTime": 1691161611196, "trialdata": {"revealed_states": [], "clicked_states": ["5", "7", "29", "28", "33", "31", "32", "27"], "num_clicks_accrued": [0, 0, 0, 0, 0, 0, 0, 0, 0, 0, 0, 0, 0], "stateRewards": ["", -1, 2, -6, 6, -82, -19, -39, -16, -83, 11, -33, -2, -2, 4, -6, -82, -1, -19, -6, -10, -67, -41, -2, 1, -7, 16, -23, -78, -52, 14, 31, -71, 74], "withholdReward": false, "trial_id": "mdp_trial_28", "block": "test", "trialIndex": 29, "score": 68.8, "costs": -11.200000000000001, "simulationMode": [null, null, null, null, null], "rewards": [-2, 1, -7, 14, 74], "path": ["0", "0", "23", "24", "25", "30", "33"], "rt": [17046, 80, 51, 77, 73], "actions": ["left", "left", "left", "down", "left"], "actionTimes": [18642, 19230, 19800, 20394, 20972], "queries": {"click": {"state": {"target": ["5", "7", "29", "28", "33", "31", "32", "27"], "time": [2275, 4283, 6183, 8038, 9891, 11709, 14393, 16245]}, "edge": {"target": [], "time": []}}, "mouseover": {"state": {"target": ["7", "4", "5", "4", "7", "1", "33", "29", "28", "30", "33", "30", "31", "30", "32", "30", "25", "26", "27", "26", "25", "33"], "time": [1942, 2009, 2143, 2759, 2859, 4574, 4957, 5340, 7422, 8455, 8805, 10204, 10469, 12219, 13285, 14685, 14768, 14885, 15068, 16617, 16650, 16767]}, "edge": {"target": [], "time": []}}, "mouseout": {"state": {"target": ["0", "0", "7", "4", "5", "4", "7", "1", "33", "29", "28", "30", "33", "30", "31", "30", "32", "30", "25", "26", "27", "26", "25", "33"], "time": [1076, 1844, 1992, 2075, 2692, 2825, 4558, 4591, 5007, 6456, 8305, 8656, 10188, 10237, 12203, 12253, 14651, 14734, 14818, 14968, 16600, 16634, 16667, 22215]}, "edge": {"target": [], "time": []}}}, "displayed_time": "21.48", "trialTime": 22906, "trial_type": "mouselab-mdp", "trial_index": 36, "time_elapsed": 1886512, "internal_node_id": "0.0-4.0-1.0-27.0"}}, {"uniqueid": "w11462312:a46417813", "current_trial": 37, "dateTime": 1691161651498, "trialdata": {"revealed_states": [], "clicked_states": ["5", "21", "33", "27", "31", "29", "16", "17", "18", "22", "20", "11", "9", "10", "6"], "num_clicks_accrued": [0, 0, 0, 0, 0, 0, 0, 0, 0, 0, 0, 0, 0], "stateRewards": ["", 1, 2, -3, 6, -88, 74, -45, 7, -46, 40, -77, 1, -4, 4, 3, 22, -25, -59, 8, -83, 19, -60, -1, -1, -1, -8, 26, -29, 64, -7, -88, -51, -55], "withholdReward": false, "trial_id": "mdp_trial_29", "block": "test", "trialIndex": 30, "score": 59, "costs": -20.999999999999996, "simulationMode": [null, null, null, null, null], "rewards": [1, 2, -3, 6, 74], "path": ["0", "0", "1", "2", "3", "4", "6"], "rt": [32592, 428, 129, 70, 76], "actions": ["up", "up", "up", "right", "right"], "actionTimes": [35869, 36812, 37446, 38020, 38609], "queries": {"click": {"state": {"target": ["5", "21", "33", "27", "31", "29", "16", "17", "18", "22", "20", "11", "9", "10", "6"], "time": [4701, 6571, 8383, 10276, 12284, 14394, 16389, 18568, 20432, 22304, 24081, 26070, 27918, 29754, 31816]}, "edge": {"target": [], "time": []}}, "mouseover": {"state": {"target": ["7", "4", "5", "16", "15", "14", "19", "21", "32", "33", "27", "28", "24", "31", "32", "29", "25", "19", "14", "16", "17", "18", "13", "22", "20", "31", "10", "8", "11", "9", "8", "10", "2", "7", "6", "7"], "time": [3719, 3769, 3952, 5452, 5502, 5585, 5719, 5801, 7550, 7800, 9149, 10886, 11048, 11231, 13013, 14213, 14713, 14946, 15046, 15446, 17112, 19576, 21375, 21558, 22908, 24723, 25173, 25340, 25489, 27205, 28288, 28887, 30037, 30103, 30836, 32919]}, "edge": {"target": [], "time": []}}, "mouseout": {"state": {"target": ["33", "30", "31", "0", "7", "4", "5", "16", "15", "14", "19", "21", "32", "33", "27", "28", "24", "31", "32", "29", "25", "31", "19", "14", "16", "17", "18", "13", "22", "20", "31", "10", "8", "11", "9", "8", "10", "2", "7", "6", "7", "6"], "time": [1121, 1187, 1304, 3603, 3752, 3853, 5085, 5485, 5551, 5635, 5768, 7317, 7633, 8750, 10798, 10965, 11131, 12734, 14096, 14663, 14729, 14780, 14996, 15230, 16846, 19376, 21313, 21475, 22608, 24457, 24740, 25206, 25389, 27055, 28222, 28555, 30020, 30087, 30236, 32136, 33951, 34250]}, "edge": {"target": [], "time": []}}}, "displayed_time": "39.12", "trialTime": 40133, "trial_type": "mouselab-mdp", "trial_index": 37, "time_elapsed": 1926813, "internal_node_id": "0.0-4.0-1.0-28.0"}}, {"uniqueid": "w11462312:a46417813", "current_trial": 38, "dateTime": 1691161668723, "trialdata": {"revealed_states": [], "clicked_states": ["32", "27"], "num_clicks_accrued": [0, 0, 0, 0, 0, 0, 0, 0, 0, 0, 0, 0, 0], "stateRewards": ["", -1, -3, 1, 13, -64, -29, 12, -4, -33, 50, 56, 2, -3, 4, 11, -64, -58, -55, 12, 47, 38, -25, -2, 2, 5, -15, 85, 7, 84, 10, 8, 57, 26], "withholdReward": false, "trial_id": "mdp_trial_30", "block": "test", "trialIndex": 31, "score": 72.2, "costs": -2.8, "simulationMode": [null, null, null, null, null], "rewards": [-2, 2, 5, -15, 85], "path": ["0", "0", "23", "24", "25", "26", "27"], "rt": [7167, 395, 156, 73, 100], "actions": ["left", "left", "left", "up", "up"], "actionTimes": [9539, 10451, 11112, 11695, 12305], "queries": {"click": {"state": {"target": ["32", "27"], "time": [4029, 5859]}, "edge": {"target": [], "time": []}}, "mouseover": {"state": {"target": ["0", "32", "30", "25", "26", "27", "28", "15", "16", "1", "28", "26"], "time": [2742, 2875, 4358, 4408, 4491, 4658, 6290, 6523, 6640, 8090, 8122, 8156]}, "edge": {"target": [], "time": []}}, "mouseout": {"state": {"target": ["6", "4", "4", "7", "0", "0", "0", "32", "30", "25", "26", "27", "28", "15", "16", "1", "28", "26", "27"], "time": [1126, 1160, 1259, 1360, 1759, 2109, 2759, 4308, 4391, 4442, 4591, 6241, 6307, 6540, 7973, 8106, 8139, 8241, 8457]}, "edge": {"target": [], "time": []}}}, "displayed_time": "16.37", "trialTime": 17055, "trial_type": "mouselab-mdp", "trial_index": 38, "time_elapsed": 1944038, "internal_node_id": "0.0-4.0-1.0-29.0"}}, {"uniqueid": "w11462312:a46417813", "current_trial": 39, "dateTime": 1691161711820, "trialdata": {"revealed_states": [], "clicked_states": ["5", "7", "27", "32", "16", "21", "9", "10", "11", "6", "33", "31", "29", "20", "28", "22", "18", "17"], "num_clicks_accrued": [0, 0, 0, 0, 0, 0, 0, 0, 0, 0, 0, 0, 0], "stateRewards": ["", 2, -3, 5, 11, -79, 54, 11, -9, -78, 33, 22, -2, -1, 2, 14, 43, 34, 1, 10, 49, -65, 39, -1, 1, -1, 3, -16, -2, 11, 2, 12, 48, -65], "withholdReward": false, "trial_id": "mdp_trial_31", "block": "test", "trialIndex": 32, "score": 43.80000000000001, "costs": -25.199999999999992, "simulationMode": [null, null, null, null, null], "rewards": [2, -3, 5, 11, 54], "path": ["0", "0", "1", "2", "3", "4", "6"], "rt": [36669, 393, 91, 438, 93], "actions": ["up", "up", "up", "right", "right"], "actionTimes": [38311, 39215, 39812, 40758, 41362], "queries": {"click": {"state": {"target": ["5", "7", "27", "32", "16", "21", "9", "10", "11", "6", "33", "31", "29", "20", "28", "22", "18", "17"], "time": [2567, 4492, 6277, 8038, 9850, 11671, 14105, 15951, 17893, 19634, 21591, 23453, 25319, 27115, 28909, 30783, 32605, 34457]}, "edge": {"target": [], "time": []}}, "mouseover": {"state": {"target": ["6", "5", "4", "18", "19", "21", "22", "12", "1", "2", "7", "0", "33", "29", "27", "26", "25", "30", "32", "19", "14", "15", "16", "15", "14", "19", "21", "20", "15", "7", "2", "3", "9", "10", "11", "2", "6", "0", "31", "30", "33", "30", "31", "25", "29", "24", "23", "22", "19", "20", "13", "12", "1", "28", "23", "0", "22", "13", "18", "15", "17", "15", "6"], "time": [2092, 2358, 3008, 3158, 3324, 3441, 3991, 4024, 4057, 4107, 4257, 4890, 5223, 5490, 6007, 6706, 6756, 6822, 6906, 8605, 8671, 8805, 8971, 10237, 10337, 10437, 10687, 12319, 13436, 13486, 13518, 13652, 14019, 14817, 16938, 18182, 18599, 20114, 20314, 20431, 20514, 22030, 22380, 23746, 23845, 25628, 25646, 25716, 25828, 25994, 27760, 27810, 27910, 28093, 29975, 30025, 30258, 31141, 31408, 32990, 33273, 35438, 36638]}, "edge": {"target": [], "time": []}}, "mouseout": {"state": {"target": ["12", "0", "6", "5", "4", "18", "19", "21", "22", "12", "1", "2", "7", "0", "33", "29", "27", "26", "25", "30", "32", "19", "14", "15", "16", "15", "14", "19", "21", "20", "15", "7", "2", "3", "9", "10", "10", "11", "2", "6", "0", "31", "30", "33", "30", "31", "25", "29", "24", "23", "22", "19", "20", "13", "12", "1", "28", "23", "0", "22", "13", "18", "15", "17", "15", "18", "6"], "time": [959, 1709, 2108, 2975, 3025, 3208, 3391, 3974, 4007, 4041, 4074, 4224, 4824, 4907, 5240, 5707, 6673, 6739, 6789, 6856, 8288, 8638, 8755, 8888, 10204, 10287, 10387, 10520, 12153, 12336, 13451, 13501, 13535, 13718, 14551, 16031, 16766, 18132, 18199, 19964, 20131, 20364, 20481, 21987, 22080, 23696, 23762, 25578, 25644, 25661, 25761, 25944, 27660, 27793, 27843, 27926, 29909, 29992, 30075, 31074, 31259, 32940, 33107, 35422, 35455, 35522, 36738]}, "edge": {"target": [], "time": []}}}, "displayed_time": "41.87", "trialTime": 42928, "trial_type": "mouselab-mdp", "trial_index": 39, "time_elapsed": 1987136, "internal_node_id": "0.0-4.0-1.0-30.0"}}, {"uniqueid": "w11462312:a46417813", "current_trial": 40, "dateTime": 1691161728891, "trialdata": {"revealed_states": [], "clicked_states": ["33", "29", "11", "6"], "num_clicks_accrued": [0, 0, 0, 0, 0, 0, 0, 0, 0, 0, 0, 0, 0], "stateRewards": ["", 1, 1, -5, 10, -31, 73, 14, -8, -23, 63, -70, -1, 2, 8, 7, 25, -59, 27, -10, -40, -71, -15, -2, 3, -8, -5, -19, 77, -34, 7, 67, 63, 19], "withholdReward": false, "trial_id": "mdp_trial_32", "block": "test", "trialIndex": 33, "score": 74.4, "costs": -5.6, "simulationMode": [null, null, null, null, null], "rewards": [1, 1, -5, 10, 73], "path": ["0", "0", "1", "2", "3", "4", "6"], "rt": [10591, 45, 138, 126, 190], "actions": ["up", "up", "up", "right", "right"], "actionTimes": [12245, 12806, 13480, 14119, 14815], "queries": {"click": {"state": {"target": ["33", "29", "11", "6"], "time": [2804, 4608, 6393, 8366]}, "edge": {"target": [], "time": []}}, "mouseover": {"state": {"target": ["31", "32", "33", "25", "28", "29", "27", "11", "8", "3", "4", "6", "16", "19", "21", "19", "14"], "time": [1998, 2298, 2599, 3164, 3264, 3731, 4947, 5380, 6729, 6812, 6995, 7245, 8877, 9527, 9693, 10693, 10742]}, "edge": {"target": [], "time": []}}, "mouseout": {"state": {"target": ["6", "0", "31", "32", "33", "25", "28", "29", "27", "11", "8", "3", "4", "6", "16", "19", "21", "19", "14"], "time": [965, 1948, 2047, 2448, 3131, 3214, 3348, 4896, 5013, 6695, 6779, 6895, 7146, 8794, 9094, 9594, 10676, 10726, 10759]}, "edge": {"target": [], "time": []}}}, "displayed_time": "15.66", "trialTime": 16898, "trial_type": "mouselab-mdp", "trial_index": 40, "time_elapsed": 2004207, "internal_node_id": "0.0-4.0-1.0-31.0"}}, {"uniqueid": "w11462312:a46417813", "current_trial": 41, "dateTime": 1691161755015, "trialdata": {"revealed_states": [], "clicked_states": ["3", "25", "14", "5", "9", "7", "10", "11", "6"], "num_clicks_accrued": [0, 0, 0, 0, 0, 0, 0, 0, 0, 0, 0, 0, 0], "stateRewards": ["", 1, -1, 8, 4, 76, -33, -17, -3, -1, -54, -74, -2, 2, -5, 13, -51, 63, 83, 1, 84, 29, -36, 2, -1, 7, -12, -10, -44, -43, -14, 8, -69, 19], "withholdReward": false, "trial_id": "mdp_trial_33", "block": "test", "trialIndex": 34, "score": 75.4, "costs": -12.600000000000001, "simulationMode": [null, null, null, null, null], "rewards": [1, -1, 8, 4, 76], "path": ["0", "0", "1", "2", "3", "4", "5"], "rt": [19574, 409, 197, 112, 258], "actions": ["up", "up", "up", "right", "up"], "actionTimes": [21256, 22174, 22879, 23494, 24256], "queries": {"click": {"state": {"target": ["3", "25", "14", "5", "9", "7", "10", "11", "6"], "time": [3010, 4822, 6696, 9140, 11043, 13016, 14859, 16648, 18472]}, "edge": {"target": [], "time": []}}, "mouseover": {"state": {"target": ["1", "2", "1", "3", "24", "25", "31", "22", "14", "12", "7", "4", "5", "4", "1", "28", "10", "8", "9", "3", "7", "1", "10", "11", "2", "6", "5"], "time": [1910, 2210, 2259, 2876, 3442, 3925, 5142, 5325, 5441, 8573, 8673, 8772, 9005, 9388, 9489, 9822, 9972, 10055, 10188, 11688, 12154, 13404, 13670, 15385, 16984, 17284, 18983]}, "edge": {"target": [], "time": []}}, "mouseout": {"state": {"target": ["6", "5", "0", "0", "1", "2", "1", "3", "24", "25", "25", "31", "22", "14", "12", "7", "4", "5", "4", "1", "28", "10", "8", "9", "3", "7", "1", "10", "11", "10", "2", "6"], "time": [660, 927, 1027, 1829, 1943, 2226, 2309, 3310, 3692, 4886, 5125, 5158, 5375, 7042, 8589, 8722, 8839, 9372, 9422, 9505, 9872, 10021, 10138, 11604, 11721, 13336, 13587, 15185, 16918, 16968, 17001, 18849]}, "edge": {"target": [], "time": []}}}, "displayed_time": "24.76", "trialTime": 25944, "trial_type": "mouselab-mdp", "trial_index": 41, "time_elapsed": 2030331, "internal_node_id": "0.0-4.0-1.0-32.0"}}, {"uniqueid": "w11462312:a46417813", "current_trial": 42, "dateTime": 1691161779843, "trialdata": {"revealed_states": [], "clicked_states": ["25", "3", "14", "33", "32", "31", "27", "29", "28"], "num_clicks_accrued": [0, 0, 0, 0, 0, 0, 0, 0, 0, 0, 0, 0, 0], "stateRewards": ["", 2, -1, 5, 6, 10, 86, 55, 10, -45, 63, -71, 1, -2, 5, -8, -50, -72, 36, 15, 61, 12, 33, -1, -4, 6, 5, 79, -56, -21, -16, -87, 60, -81], "withholdReward": false, "trial_id": "mdp_trial_34", "block": "test", "trialIndex": 35, "score": 72.4, "costs": -12.600000000000001, "simulationMode": [null, null, null, null, null], "rewards": [-1, -4, 6, 5, 79], "path": ["0", "0", "23", "24", "25", "26", "27"], "rt": [19019, 10, 27, 31, 29], "actions": ["left", "left", "left", "up", "up"], "actionTimes": [20880, 21407, 21956, 22494, 23060], "queries": {"click": {"state": {"target": ["25", "3", "14", "33", "32", "31", "27", "29", "28"], "time": [2852, 4690, 6922, 9524, 11453, 13363, 15248, 17036, 18838]}, "edge": {"target": [], "time": []}}, "mouseover": {"state": {"target": ["12", "24", "25", "25", "24", "10", "3", "2", "13", "14", "22", "31", "30", "33", "32", "32", "31", "26", "27", "26", "29", "26", "28"], "time": [2040, 2307, 2340, 2625, 3173, 3356, 3873, 5088, 5655, 6071, 7670, 8903, 9103, 9386, 9852, 10985, 12001, 13967, 14150, 15599, 16032, 17415, 17664]}, "edge": {"target": [], "time": []}}, "mouseout": {"state": {"target": ["5", "2", "1", "0", "0", "12", "24", "25", "25", "24", "10", "3", "2", "13", "14", "22", "31", "30", "33", "32", "32", "31", "26", "27", "26", "29", "26", "28"], "time": [973, 1057, 1090, 1323, 2007, 2240, 2323, 2391, 3140, 3189, 3478, 5055, 5122, 5721, 7637, 7837, 8919, 9169, 9819, 9885, 11751, 13817, 14017, 15549, 15799, 17365, 17531, 19147]}, "edge": {"target": [], "time": []}}}, "displayed_time": "23.59", "trialTime": 24635, "trial_type": "mouselab-mdp", "trial_index": 42, "time_elapsed": 2055158, "internal_node_id": "0.0-4.0-1.0-33.0"}}, {"uniqueid": "w11462312:a46417813", "current_trial": 43, "dateTime": 1691161849897, "trialdata": {"revealed_states": [], "clicked_states": ["25", "3", "14", "21", "16", "20", "17", "18", "22", "6"], "num_clicks_accrued": [0, 0, 0, 0, 0, 0, 0, 0, 0, 0, 0, 0, 0], "stateRewards": ["", 1, -1, 8, -3, 38, 85, -20, -4, 8, 23, 73, 2, -4, 6, -13, 44, 7, -28, -11, -77, 45, -69, 1, -1, -7, -11, 75, -51, -87, 7, 36, -53, -26], "withholdReward": false, "trial_id": "mdp_trial_35", "block": "test", "trialIndex": 36, "score": 76, "costs": -14.000000000000002, "simulationMode": [null, null, null, null, null], "rewards": [1, -1, 8, -3, 85], "path": ["0", "0", "1", "2", "3", "4", "6"], "rt": [24180, 119, 64, 44, 57], "actions": ["up", "up", "up", "right", "right"], "actionTimes": [25655, 26288, 26865, 27428, 28007], "queries": {"click": {"state": {"target": ["25", "3", "14", "21", "16", "20", "17", "18", "22", "6"], "time": [2029, 3841, 6697, 10518, 12373, 14177, 15996, 17926, 19729, 21810]}, "edge": {"target": [], "time": []}}, "mouseover": {"state": {"target": ["23", "24", "25", "28", "10", "8", "3", "7", "18", "14", "14", "21", "17", "16", "17", "20", "17", "15", "18", "13", "22", "12", "7", "6", "4", "11", "8"], "time": [1614, 1714, 1864, 2248, 2315, 2448, 2681, 6095, 6178, 6262, 6646, 10426, 10892, 11099, 13275, 13474, 14757, 16406, 16639, 18371, 18471, 20370, 20820, 21586, 22069, 22419, 23885]}, "edge": {"target": [], "time": []}}, "mouseout": {"state": {"target": ["27", "23", "0", "23", "24", "25", "28", "10", "8", "3", "7", "18", "14", "14", "14", "14", "21", "17", "16", "17", "20", "17", "15", "18", "13", "22", "12", "7", "6", "4", "11", "8"], "time": [449, 899, 1299, 1681, 1765, 2215, 2281, 2348, 2465, 6046, 6145, 6195, 6345, 6945, 6995, 9910, 10743, 10943, 12858, 13308, 14407, 16356, 16439, 18338, 18438, 20204, 20420, 20853, 22052, 22088, 23869, 23901]}, "edge": {"target": [], "time": []}}}, "displayed_time": "28.53", "trialTime": 69877, "trial_type": "mouselab-mdp", "trial_index": 43, "time_elapsed": 2125213, "internal_node_id": "0.0-4.0-1.0-34.0"}}, {"uniqueid": "w11462312:a46417813", "current_trial": 44, "dateTime": 1691161887060, "trialdata": {"revealed_states": [], "clicked_states": ["14", "25", "21", "16", "17", "20", "18", "22"], "num_clicks_accrued": [0, 0, 0, 0, 0, 0, 0, 0, 0, 0, 0, 0, 0], "stateRewards": ["", -1, -4, 8, 8, -68, 47, 24, -7, -61, 49, -69, -1, -1, 8, -7, 42, 1, -45, -11, 10, -63, -6, 1, 4, 6, -16, 79, -37, -58, -12, 81, 18, -53], "withholdReward": false, "trial_id": "mdp_trial_36", "block": "test", "trialIndex": 37, "score": 29.799999999999997, "costs": -11.200000000000001, "simulationMode": [null, null, null, null, null], "rewards": [-1, -1, 8, -7, 42], "path": ["0", "0", "12", "13", "14", "15", "16"], "rt": [18244, 343, 105, 49, 62], "actions": ["right", "right", "right", "up", "up"], "actionTimes": [32356, 33207, 33837, 34412, 35007], "queries": {"click": {"state": {"target": ["14", "25", "21", "16", "17", "20", "18", "22"], "time": [15451, 16994, 20135, 22409, 24236, 26790, 28662, 30410]}, "edge": {"target": [], "time": []}}, "mouseover": {"state": {"target": ["0", "12", "13", "14", "15", "7", "3", "8", "26", "25", "25", "28", "10", "10", "2", "7", "16", "17", "20", "21", "20", "17", "16", "17", "20", "14", "18", "18", "13", "14", "14", "19", "22", "14", "15", "16"], "time": [15004, 15056, 15090, 15124, 15723, 16073, 16206, 16323, 16573, 16656, 16889, 17555, 17672, 19222, 19421, 19504, 19620, 19654, 19754, 20087, 20520, 20853, 22304, 22802, 24601, 27283, 27433, 27683, 28982, 29199, 29315, 29398, 29532, 30681, 30747, 30931]}, "edge": {"target": [], "time": []}}, "mouseout": {"state": {"target": ["6", "22", "0", "0", "12", "13", "14", "15", "7", "3", "8", "26", "25", "25", "28", "10", "10", "2", "7", "16", "17", "20", "21", "20", "17", "16", "17", "20", "14", "18", "18", "13", "14", "14", "19", "22", "14", "15"], "time": [10726, 10793, 11661, 15040, 15073, 15107, 15673, 15823, 16106, 16273, 16439, 16606, 16773, 17439, 17622, 17972, 19404, 19487, 19538, 19637, 19687, 19804, 20420, 20587, 21869, 22752, 24518, 26797, 27333, 27500, 28949, 28999, 29232, 29349, 29498, 30598, 30698, 30864]}, "edge": {"target": [], "time": []}}}, "displayed_time": "35.51", "trialTime": 36950, "trial_type": "mouselab-mdp", "trial_index": 44, "time_elapsed": 2162376, "internal_node_id": "0.0-4.0-1.0-35.0"}}, {"uniqueid": "w11462312:a46417813", "current_trial": 45, "dateTime": 1691161932859, "trialdata": {"revealed_states": [], "clicked_states": ["14", "25", "3", "32", "27", "33", "28", "31", "29"], "num_clicks_accrued": [0, 0, 0, 0, 0, 0, 0, 0, 0, 0, 0, 0, 0], "stateRewards": ["", 2, -3, -5, 5, 11, -9, -33, 6, 67, 6, -30, -1, -2, -6, 13, 55, 13, 72, -14, 75, 21, -66, -2, -4, 6, 15, -1, -35, 60, 2, 51, -73, 12], "withholdReward": false, "trial_id": "mdp_trial_37", "block": "test", "trialIndex": 38, "score": 62.4, "costs": -12.600000000000001, "simulationMode": [null, null, null, null, null], "rewards": [-2, -4, 6, 15, 60], "path": ["0", "0", "23", "24", "25", "26", "29"], "rt": [20175, 83, 69, 79, 97], "actions": ["left", "left", "left", "up", "left"], "actionTimes": [41563, 42153, 42738, 43330, 43932], "queries": {"click": {"state": {"target": ["14", "25", "3", "32", "27", "33", "28", "31", "29"], "time": [22281, 24139, 26209, 28549, 30559, 32378, 34163, 35954, 37815]}, "edge": {"target": [], "time": []}}, "mouseover": {"state": {"target": ["0", "12", "13", "14", "13", "25", "24", "1", "2", "3", "10", "28", "24", "30", "32", "30", "25", "27", "33", "25", "24", "28", "24", "31", "30", "25", "29", "25", "25"], "time": [21416, 21497, 21547, 21581, 22746, 23229, 25378, 25545, 25694, 25928, 27077, 27227, 27394, 28226, 28409, 28826, 28859, 29192, 31491, 33207, 33390, 33623, 34623, 34739, 36288, 36339, 36621, 38387, 40052]}, "edge": {"target": [], "time": []}}, "mouseout": {"state": {"target": ["16", "16", "8", "2", "1", "0", "12", "13", "14", "13", "25", "24", "1", "2", "3", "3", "10", "28", "24", "30", "32", "30", "25", "27", "33", "25", "24", "28", "24", "31", "30", "25", "29", "25", "31", "25", "29", "29"], "time": [20198, 20464, 20780, 20814, 20847, 21480, 21530, 21563, 22730, 22763, 25362, 25395, 25595, 25827, 26283, 27028, 27111, 27277, 28109, 28310, 28809, 28843, 28876, 30991, 32438, 33257, 33407, 34589, 34689, 36255, 36305, 36355, 38304, 38454, 40020, 40069, 40152, 45248]}, "edge": {"target": [], "time": []}}}, "displayed_time": "44.45", "trialTime": 45499, "trial_type": "mouselab-mdp", "trial_index": 45, "time_elapsed": 2208174, "internal_node_id": "0.0-4.0-1.0-36.0"}}, {"uniqueid": "w11462312:a46417813", "current_trial": 46, "dateTime": 1691162033804, "trialdata": {"revealed_states": [], "clicked_states": ["25", "14", "3", "11", "6", "33", "31", "29", "28", "32", "27", "9", "5", "16", "17", "20", "21", "18", "22"], "num_clicks_accrued": [0, 0, 0, 0, 0, 0, 0, 0, 0, 0, 0, 0, 0], "stateRewards": ["", -1, 2, 5, -6, 13, -64, -47, 8, -79, -80, -33, 1, 2, -2, -16, 56, -71, -10, 3, 29, 44, 85, -1, 4, 5, 4, -36, -56, 19, 8, 52, -13, -2], "withholdReward": false, "trial_id": "mdp_trial_38", "block": "test", "trialIndex": 39, "score": 62.400000000000006, "costs": -26.59999999999999, "simulationMode": [null, null, null, null, null], "rewards": [1, 2, -2, 3, 85], "path": ["0", "0", "12", "13", "14", "19", "22"], "rt": [43605, 18, 72, 50, 26], "actions": ["right", "right", "right", "down", "left"], "actionTimes": [96307, 96838, 97423, 97984, 98543], "queries": {"click": {"state": {"target": ["25", "14", "3", "11", "6", "33", "31", "29", "28", "32", "27", "9", "5", "16", "17", "20", "21", "18", "22"], "time": [53911, 55931, 57755, 60516, 62431, 65393, 67226, 68988, 70833, 73123, 75143, 77749, 79543, 81551, 83523, 85374, 87379, 89569, 91915]}, "edge": {"target": [], "time": []}}, "mouseover": {"state": {"target": ["0", "12", "13", "23", "24", "25", "28", "10", "8", "3", "2", "13", "14", "13", "7", "3", "5", "9", "11", "8", "10", "24", "25", "28", "10", "2", "4", "6", "4", "3", "28", "25", "33", "30", "31", "31", "30", "29", "25", "24", "28", "30", "32", "30", "26", "27", "11", "8", "9", "5", "4", "15", "16", "17", "20", "21", "22", "13", "18", "13", "22", "22", "7", "13"], "time": [52860, 52893, 53176, 53443, 53493, 53759, 54209, 54259, 54292, 54976, 55025, 55225, 55425, 56258, 56341, 56508, 58490, 59973, 60372, 60822, 60955, 61039, 61139, 61605, 61671, 61705, 61755, 61855, 64370, 64388, 64436, 64537, 65169, 65786, 65869, 66269, 67734, 68167, 69683, 70134, 70300, 72748, 72814, 73315, 73381, 73481, 75546, 75630, 75763, 78511, 80211, 80327, 80693, 81926, 84175, 85790, 87972, 88256, 88439, 91570, 91620, 91804, 93353, 94052]}, "edge": {"target": [], "time": []}}, "mouseout": {"state": {"target": ["29", "24", "23", "12", "0", "0", "12", "13", "23", "24", "25", "28", "10", "8", "3", "2", "13", "14", "13", "7", "3", "5", "9", "11", "8", "10", "24", "25", "28", "10", "2", "4", "6", "4", "3", "28", "25", "33", "30", "31", "31", "30", "29", "25", "31", "24", "28", "28", "30", "32", "30", "26", "27", "11", "8", "9", "5", "4", "15", "16", "17", "20", "20", "21", "22", "13", "18", "13", "22", "22", "7", "13", "22", "22", "22"], "time": [51810, 51860, 51877, 51910, 52510, 52877, 52910, 53193, 53476, 53593, 54192, 54242, 54276, 54492, 55009, 55042, 55375, 56241, 56275, 56375, 58357, 58823, 60224, 60805, 60855, 60972, 61105, 61188, 61638, 61688, 61738, 61789, 63237, 64386, 64403, 64453, 64553, 65752, 65836, 65886, 67684, 67751, 69583, 69700, 70084, 70184, 71949, 72698, 72781, 73281, 73331, 73431, 75197, 75564, 75680, 78428, 80144, 80244, 80510, 81859, 83825, 85446, 85691, 87789, 88205, 88389, 91537, 91587, 91637, 92921, 93570, 94085, 94351, 94785, 99699]}, "edge": {"target": [], "time": []}}}, "displayed_time": "99.05", "trialTime": 100737, "trial_type": "mouselab-mdp", "trial_index": 46, "time_elapsed": 2309120, "internal_node_id": "0.0-4.0-1.0-37.0"}}, {"uniqueid": "w11462312:a46417813", "current_trial": 47, "dateTime": 1691162064016, "trialdata": {"revealed_states": [], "clicked_states": ["21", "9"], "num_clicks_accrued": [0, 0, 0, 0, 0, 0, 0, 0, 0, 0, 0, 0, 0], "stateRewards": ["", 2, 1, -3, 7, 46, 11, -36, 16, 71, 5, 1, 2, -2, -8, -3, -4, 6, 55, 7, 68, -54, 2, 1, 1, 6, -6, 42, -4, -84, -11, -65, 63, 25], "withholdReward": false, "trial_id": "mdp_trial_39", "block": "test", "trialIndex": 40, "score": 84.2, "costs": -2.8, "simulationMode": [null, null, null, null, null], "rewards": [2, 1, -3, 16, 71], "path": ["0", "0", "1", "2", "3", "8", "9"], "rt": [7233, 38, 284, 173, 275], "actions": ["up", "up", "up", "left", "up"], "actionTimes": [10382, 10931, 11743, 12432, 13217], "queries": {"click": {"state": {"target": ["21", "9"], "time": [3905, 6510]}, "edge": {"target": [], "time": []}}, "mouseover": {"state": {"target": ["21", "23", "10", "8", "9", "9", "5", "5", "3"], "time": [3763, 5828, 5928, 5978, 6044, 6411, 6894, 8310, 8693]}, "edge": {"target": [], "time": []}}, "mouseout": {"state": {"target": ["22", "12", "0", "21", "23", "10", "8", "9", "9", "5", "5", "3", "9"], "time": [898, 1797, 3363, 4262, 5844, 5961, 6029, 6128, 6777, 6928, 8642, 8726, 9326]}, "edge": {"target": [], "time": []}}}, "displayed_time": "17.15", "trialTime": 30016, "trial_type": "mouselab-mdp", "trial_index": 47, "time_elapsed": 2339332, "internal_node_id": "0.0-4.0-1.0-38.0"}}, {"uniqueid": "w11462312:a46417813", "current_trial": 48, "dateTime": 1691162148822, "trialdata": {"revealed_states": [], "clicked_states": ["29", "6", "33", "31", "32", "27", "9", "11", "10"], "num_clicks_accrued": [0, 0, 0, 0, 0, 0, 0, 0, 0, 0, 0, 0, 0], "stateRewards": ["", -2, 1, -7, -8, -37, -76, -87, 11, 30, -63, 80, -1, 4, 2, -1, 42, 17, 52, -3, -75, -80, -68, 2, -3, -5, -15, -48, 82, 24, -7, 5, -22, -71], "withholdReward": false, "trial_id": "mdp_trial_40", "block": "test", "trialIndex": 41, "score": 70.4, "costs": -12.600000000000001, "simulationMode": [null, null, null, null, null], "rewards": [-2, 1, -7, 11, 80], "path": ["0", "0", "1", "2", "3", "8", "11"], "rt": [19237, 34, 48, 299, 58], "actions": ["up", "up", "up", "left", "left"], "actionTimes": [80086, 80629, 81207, 82025, 82601], "queries": {"click": {"state": {"target": ["29", "6", "33", "31", "32", "27", "9", "11", "10"], "time": [62451, 64402, 66210, 68023, 69866, 71690, 73449, 75223, 77079]}, "edge": {"target": [], "time": []}}, "mouseover": {"state": {"target": ["12", "12", "30", "25", "26", "29", "10", "4", "6", "11", "28", "25", "33", "33", "30", "31", "32", "32", "30", "25", "27", "11", "9", "11", "10"], "time": [61021, 61270, 61621, 61870, 62205, 62321, 62770, 63053, 63153, 65235, 65535, 65602, 65735, 65951, 66534, 66601, 68600, 68910, 70165, 70199, 70798, 72031, 72298, 74031, 75596]}, "edge": {"target": [], "time": []}}, "mouseout": {"state": {"target": ["9", "8", "10", "0", "12", "12", "30", "25", "26", "29", "10", "4", "6", "11", "28", "25", "33", "33", "30", "31", "32", "32", "30", "25", "27", "11", "9", "9", "11", "10", "11", "11"], "time": [59954, 60038, 60305, 60972, 61255, 61287, 61637, 62004, 62237, 62528, 62787, 63120, 64729, 65286, 65551, 65652, 65768, 66518, 66568, 68233, 68633, 70132, 70182, 70215, 71981, 72098, 73530, 73846, 75513, 78127, 78560, 79025]}, "edge": {"target": [], "time": []}}}, "displayed_time": "83.11", "trialTime": 84583, "trial_type": "mouselab-mdp", "trial_index": 48, "time_elapsed": 2424138, "internal_node_id": "0.0-4.0-1.0-39.0"}}, {"uniqueid": "w11462312:a46417813", "current_trial": 49, "dateTime": 1691162297875, "trialdata": {"rt": 149050, "response": {"Q0": "$-2 to $2", "Q1": "$-16 to $16", "Q2": "$-88 to $88", "Q3": "The cost was always $1.4.", "Q4": "Very motivated"}, "question_order": [0, 1, 2, 3, 4], "trial_id": "final_quiz_control", "trial_type": "survey-multi-choice", "trial_index": 49, "time_elapsed": 2573191, "internal_node_id": "0.0-4.0-2.0"}}, {"uniqueid": "w11462312:a46417813", "current_trial": 50, "dateTime": 1691162477950, "trialdata": {"rt": 180071, "response": {"Q0": "First inspect the 3rd node and then the ones around the better payed node.", "Q1": "Yes, started to only search the 5th step nodes to find the highest value", "Q2": "Since the final nodes had different final values per level it was hard to know when to use each strategy, although I believe that with more attention I could find the logic of each level"}, "trial_id": "self_report_control", "trial_type": "survey-text", "trial_index": 50, "time_elapsed": 2753266, "internal_node_id": "0.0-4.0-3.0"}}, {"uniqueid": "w11462312:a46417813", "current_trial": 51, "dateTime": 1691162548819, "trialdata": {"rt": 70865, "response": {"gender": "male", "age": "31", "colorblind": "0", "effort": "0"}, "trial_type": "survey-html-form", "trial_index": 51, "time_elapsed": 2824135, "internal_node_id": "0.0-4.0-4.0"}}, {"uniqueid": "w11462312:a46417813", "current_trial": 52, "dateTime": 1691162626413, "trialdata": {"rt": 77590, "response": {"Q0": "Not at all, good explanation, makes people focus a lot on the final goal and not on the level it self", "Q1": "No", "Q2": ""}, "trial_type": "survey-text", "trial_index": 52, "time_elapsed": 2901728, "internal_node_id": "0.0-4.0-5.0"}}, {"uniqueid": "w11462312:a46417813", "current_trial": 53, "dateTime": 1691162631489, "trialdata": {"rt": 5074, "stimulus": "Press 'Finish HIT' in order to reach the completion code. Once the data has been saved, you will receive the code either in this window or in the original browser window where you started the experiment.\n", "response": 0, "trial_type": "html-button-response", "trial_index": 53, "time_elapsed": 2906805, "internal_node_id": "0.0-5.0"}}, {"uniqueid": "w11462312:a46417813", "current_trial": 54, "dateTime": 1691162632491, "trialdata": {"success": true, "trial_type": "fullscreen", "trial_index": 54, "time_elapsed": 2907807, "internal_node_id": "0.0-6.0"}}], "questiondata": {"params": {"CODE": "C6DMOQA6", "MIN_TIME": 14, "inspectCost": 1, "startTime": "Fri Aug 04 2023 16:35:21 GMT+0200 (Hora de ver\u00e3o da Europa Central)", "bonusRate": 0.002, "variance": "1_2_4_8_44", "branching": "31123"}, "final_score": 2330}, "eventdata": [{"eventtype": "initialized", "value": null, "timestamp": 1691159721301, "interval": 0}, {"eventtype": "window_resize", "value": [1028, 744], "timestamp": 1691159721301, "interval": 0}, {"eventtype": "window_resize", "value": [1028, 744], "timestamp": 1691159721626, "interval": 325}, {"eventtype": "focus", "value": "off", "timestamp": 1691159728335, "interval": 6709}, {"eventtype": "focus", "value": "on", "timestamp": 1691160436734, "interval": 708399}, {"eventtype": "window_resize", "value": [1536, 864], "timestamp": 1691160438540, "interval": 1806}, {"eventtype": "window_resize", "value": [1028, 744], "timestamp": 1691162631714, "interval": 2193174}], "useragent": "Mozilla/5.0 (Windows NT 10.0; Win64; x64) AppleWebKit/537.36 (KHTML, like Gecko) Chrome/115.0.0.0 Safari/537.36", "mode": "live", "id": "w11462312:a46417813", "status": "user data saved", "Beginhit": "2023-08-04 14:35:20.528841", "Beginexp": "2023-08-04 14:47:21.475093", "Endhit": "2023-08-04 15:23:54.935145", "psiturkStatus": 3, "browser": "<redacted>", "platform": "windows", "language": "pt-PT"}