{"condition": 0, "counterbalance": 0, "assignmentId": "a21170697", "workerId": "w19528032", "hitId": "h26587163", "currenttrial": 61, "bonus": 0, "data": [{"uniqueid": "w19528032:a21170697", "current_trial": 0, "dateTime": 1693660600418, "trialdata": {"success": true, "trial_type": "fullscreen", "trial_index": 0, "time_elapsed": 10369, "internal_node_id": "0.0-0.0"}}, {"uniqueid": "w19528032:a21170697", "current_trial": 1, "dateTime": 1693660608229, "trialdata": {"view_history": [{"page_index": 0, "viewing_time": 7798}], "rt": 7799, "trial_id": "exp_instructions_control", "trial_type": "instructions", "trial_index": 1, "time_elapsed": 18181, "internal_node_id": "0.0-1.0"}}, {"uniqueid": "w19528032:a21170697", "current_trial": 2, "dateTime": 1693660769236, "trialdata": {"view_history": [{"page_index": 0, "viewing_time": 41845}, {"page_index": 1, "viewing_time": 47911}, {"page_index": 2, "viewing_time": 14392}, {"page_index": 3, "viewing_time": 56856}], "rt": 161005, "trial_id": "mouselab_instructions_1_control", "trial_type": "instructions", "trial_index": 2, "time_elapsed": 179188, "internal_node_id": "0.0-2.0-1.0"}}, {"uniqueid": "w19528032:a21170697", "current_trial": 3, "dateTime": 1693660787294, "trialdata": {"revealed_states": [], "clicked_states": [], "num_clicks_accrued": [0, 0, 0, 0, 0, 0, 0, 0, 0, 0, 0, 0, 0], "stateRewards": ["", 10, -10, 10, 10, 10, -10, -10, -10, 10, 10, -10, -10, -10, 10, 10, -10, -10, -10, 10, 10, -10, -10, -10, 10, 10, 10, 10, -10, -10, 10, -10, -10, 10], "withholdReward": false, "trial_id": "practice_1", "block": "test", "trialIndex": 0, "score": 13.5, "costs": 0, "simulationMode": [null, null, null, null, null], "rewards": [-10, 10, 10, 10, -10], "path": ["0", "0", "23", "24", "25", "26", "28"], "rt": [3707, 1867, 1006, 2580, 893], "actions": ["left", "left", "left", "up", "right"], "actionTimes": [6193, 8570, 10094, 13194, 14597], "queries": {"click": {"state": {"target": [], "time": []}, "edge": {"target": [], "time": []}}, "mouseover": {"state": {"target": ["23", "24", "12", "13", "12"], "time": [4148, 4347, 4913, 5099, 5315]}, "edge": {"target": [], "time": []}}, "mouseout": {"state": {"target": ["0", "23", "24", "12", "13", "12"], "time": [4131, 4262, 4548, 4997, 5264, 5331]}, "edge": {"target": [], "time": []}}}, "displayed_time": "15.11", "trialTime": 17215, "trial_type": "mouselab-mdp", "trial_index": 3, "time_elapsed": 197244, "internal_node_id": "0.0-2.0-2.0-0.0"}}, {"uniqueid": "w19528032:a21170697", "current_trial": 4, "dateTime": 1693660803971, "trialdata": {"revealed_states": [], "clicked_states": ["1", "12", "14"], "num_clicks_accrued": [0, 0, 0, 0, 0, 0, 0, 0, 0, 0, 0, 0, 0], "stateRewards": ["", 10, 10, 10, 10, -10, -10, -10, -10, 10, -10, 10, -10, 10, -10, 10, -10, -10, -10, -10, 10, 10, 10, -10, -10, -10, 10, 10, -10, 10, -10, 10, 10, 10], "withholdReward": false, "trial_id": "practice_2", "block": "test", "trialIndex": 1, "score": -28, "costs": -1.5, "simulationMode": [null, null, null, null, null], "rewards": [-10, -10, -10, -10, 10], "path": ["0", "0", "23", "24", "25", "30", "33"], "rt": [10096, 2, 125, 55, 91], "actions": ["left", "left", "left", "down", "left"], "actionTimes": [11449, 11971, 12632, 13217, 13843], "queries": {"click": {"state": {"target": ["1", "12", "14"], "time": [2247, 8455, 9640]}, "edge": {"target": [], "time": []}}, "mouseover": {"state": {"target": ["1", "1", "2", "7", "16", "15", "18", "12", "13", "14", "13", "13"], "time": [1707, 2041, 2593, 2829, 3507, 3608, 6408, 7425, 8949, 9309, 10135, 10342]}, "edge": {"target": [], "time": []}}, "mouseout": {"state": {"target": ["0", "1", "1", "2", "7", "16", "15", "18", "12", "12", "13", "14", "13", "12", "13"], "time": [955, 1824, 2268, 2726, 3341, 3525, 6357, 6590, 8480, 8889, 9255, 10042, 10167, 10244, 10808]}, "edge": {"target": [], "time": []}}}, "displayed_time": "14.37", "trialTime": 15870, "trial_type": "mouselab-mdp", "trial_index": 4, "time_elapsed": 213922, "internal_node_id": "0.0-2.0-2.0-1.0"}}, {"uniqueid": "w19528032:a21170697", "current_trial": 5, "dateTime": 1693660824412, "trialdata": {"view_history": [{"page_index": 0, "viewing_time": 17434}, {"page_index": 1, "viewing_time": 3000}], "rt": 20434, "trial_id": "mouselab_instructions_2_control", "trial_type": "instructions", "trial_index": 5, "time_elapsed": 234364, "internal_node_id": "0.0-2.0-3.0"}}, {"uniqueid": "w19528032:a21170697", "current_trial": 6, "dateTime": 1693660860054, "trialdata": {"rt": 35636, "response": {"Q0": "The cost for clicking on nodes may vary between nodes.", "Q1": "The better I perform the higher my bonus will be.", "Q2": "No, the amount of cash at each node of the web may be different each time.", "Q3": "To get the highest total score.", "Q4": "Any time during the round.", "Q5": "3 seconds"}, "question_order": [0, 1, 2, 3, 4, 5], "correct": {"Q0": "The cost for clicking on nodes may vary between nodes.", "Q1": "The better I perform the higher my bonus will be.", "Q2": "No, the amount of cash at each node of the web may be different each time.", "Q3": "To get the highest total score.", "Q4": "Only before moving the spider.", "Q5": "3 seconds"}, "trial_id": "mouselab_quiz_control", "trial_type": "survey-multi-choice", "trial_index": 6, "time_elapsed": 270006, "internal_node_id": "0.0-2.0-4.0"}}, {"uniqueid": "w19528032:a21170697", "current_trial": 7, "dateTime": 1693660865255, "trialdata": {"success": true, "trial_type": "fullscreen", "trial_index": 7, "time_elapsed": 275207, "internal_node_id": "0.0-2.1-0.1-0.1"}}, {"uniqueid": "w19528032:a21170697", "current_trial": 8, "dateTime": 1693660873476, "trialdata": {"view_history": [{"page_index": 0, "viewing_time": 2200}, {"page_index": 1, "viewing_time": 4272}, {"page_index": 2, "viewing_time": 768}, {"page_index": 3, "viewing_time": 977}], "rt": 8217, "trial_id": "mouselab_instructions_1_control", "trial_type": "instructions", "trial_index": 8, "time_elapsed": 283428, "internal_node_id": "0.0-2.1-1.1"}}, {"uniqueid": "w19528032:a21170697", "current_trial": 9, "dateTime": 1693660887475, "trialdata": {"revealed_states": [], "clicked_states": ["1", "10", "4", "2"], "num_clicks_accrued": [0, 0, 0, 0, 0, 0, 0, 0, 0, 0, 0, 0, 0], "stateRewards": ["", 10, -10, 10, 10, 10, -10, -10, -10, 10, 10, -10, -10, -10, 10, 10, -10, -10, -10, 10, 10, -10, -10, -10, 10, 10, 10, 10, -10, -10, 10, -10, -10, 10], "withholdReward": false, "trial_id": "practice_1", "block": "test", "trialIndex": 2, "score": 31.5, "costs": -2, "simulationMode": [null, null, null, null, null], "rewards": [10, -10, 10, 10, 10], "path": ["0", "0", "1", "2", "3", "4", "5"], "rt": [6135, 452, 857, 133, 177], "actions": ["up", "up", "up", "right", "up"], "actionTimes": [7250, 8230, 9641, 10276, 10970], "queries": {"click": {"state": {"target": ["1", "10", "4", "2"], "time": [2083, 3168, 4425, 5594]}, "edge": {"target": [], "time": []}}, "mouseover": {"state": {"target": ["1", "2", "10", "8", "3", "3", "4", "7", "2", "0"], "time": [1651, 2522, 2971, 3301, 3600, 4056, 4297, 4902, 5442, 6167]}, "edge": {"target": [], "time": []}}, "mouseout": {"state": {"target": ["0", "1", "2", "10", "8", "3", "3", "4", "7", "2", "1", "0", "22"], "time": [581, 2450, 2968, 3266, 3583, 3657, 4198, 4819, 5401, 5721, 6052, 6284, 12286]}, "edge": {"target": [], "time": []}}}, "displayed_time": "11.49", "trialTime": 13402, "trial_type": "mouselab-mdp", "trial_index": 9, "time_elapsed": 297425, "internal_node_id": "0.0-2.1-2.1-0.1"}}, {"uniqueid": "w19528032:a21170697", "current_trial": 10, "dateTime": 1693660904262, "trialdata": {"revealed_states": [], "clicked_states": ["12", "13", "23", "24"], "num_clicks_accrued": [0, 0, 0, 0, 0, 0, 0, 0, 0, 0, 0, 0, 0], "stateRewards": ["", 10, 10, 10, 10, -10, -10, -10, -10, 10, -10, 10, -10, 10, -10, 10, -10, -10, -10, -10, 10, 10, 10, -10, -10, -10, 10, 10, -10, 10, -10, 10, 10, 10], "withholdReward": false, "trial_id": "practice_2", "block": "test", "trialIndex": 3, "score": -8.5, "costs": -2, "simulationMode": [null, null, null, null, null], "rewards": [-10, 10, -10, -10, 10], "path": ["0", "0", "12", "13", "14", "19", "22"], "rt": [8553, 579, 71, 837, 115], "actions": ["right", "right", "right", "down", "left"], "actionTimes": [10563, 11657, 12246, 13617, 14241], "queries": {"click": {"state": {"target": ["12", "13", "23", "24"], "time": [2778, 5786, 7595, 8737]}, "edge": {"target": [], "time": []}}, "mouseover": {"state": {"target": ["12", "13", "13", "14", "12", "0", "23", "24"], "time": [2536, 3084, 5602, 6324, 6987, 7020, 7336, 8095]}, "edge": {"target": [], "time": []}}, "mouseout": {"state": {"target": ["0", "12", "13", "12", "12", "12", "13", "14", "13", "12", "0", "23", "24", "24", "24", "31", "32"], "time": [2436, 3035, 4370, 4452, 5003, 5569, 6219, 6903, 6970, 7004, 7054, 8071, 9654, 9837, 15320, 15370, 15486]}, "edge": {"target": [], "time": []}}}, "displayed_time": "14.76", "trialTime": 15939, "trial_type": "mouselab-mdp", "trial_index": 10, "time_elapsed": 314213, "internal_node_id": "0.0-2.1-2.1-1.1"}}, {"uniqueid": "w19528032:a21170697", "current_trial": 11, "dateTime": 1693660911171, "trialdata": {"view_history": [{"page_index": 0, "viewing_time": 5790}, {"page_index": 1, "viewing_time": 1112}], "rt": 6902, "trial_id": "mouselab_instructions_2_control", "trial_type": "instructions", "trial_index": 11, "time_elapsed": 321123, "internal_node_id": "0.0-2.1-3.1"}}, {"uniqueid": "w19528032:a21170697", "current_trial": 12, "dateTime": 1693660927341, "trialdata": {"rt": 16166, "response": {"Q0": "The cost for clicking on nodes may vary between nodes.", "Q1": "The better I perform the higher my bonus will be.", "Q2": "No, the amount of cash at each node of the web may be different each time.", "Q3": "To get the highest total score.", "Q4": "Only before moving the spider.", "Q5": "3 seconds"}, "question_order": [0, 1, 2, 3, 4, 5], "correct": {"Q0": "The cost for clicking on nodes may vary between nodes.", "Q1": "The better I perform the higher my bonus will be.", "Q2": "No, the amount of cash at each node of the web may be different each time.", "Q3": "To get the highest total score.", "Q4": "Only before moving the spider.", "Q5": "3 seconds"}, "trial_id": "mouselab_quiz_control", "trial_type": "survey-multi-choice", "trial_index": 12, "time_elapsed": 337293, "internal_node_id": "0.0-2.1-4.1"}}, {"uniqueid": "w19528032:a21170697", "current_trial": 13, "dateTime": 1693660935340, "trialdata": {"rt": 7987, "response": {"Q0": "No"}, "question_order": [0], "trial_id": "repeat_check", "trial_type": "survey-multi-choice", "trial_index": 13, "time_elapsed": 345292, "internal_node_id": "0.0-4.0-0.0"}}, {"uniqueid": "w19528032:a21170697", "current_trial": 14, "dateTime": 1693660947077, "trialdata": {"rt": 11725, "stimulus": "\n<h1> Get ready to start the game! </h1>\n\nThank you for reading the instructions. Get ready start with the 40 rounds of this game.\n<br><br>\nIf you need to take a break, feel free to take one after the end of a round, before continuing to the next one.\n<br><br>\nRemember, the more money the spider gets, the bigger your bonus will be!\n<br><br>\n<div style='text-align: center;'>Press <code>space</code> to begin.</div>\n\n<br><br>\n(If, at any point, the <code>space</code> key does not take you to the next page, click once on the text and try again.)", "response": " ", "trial_id": "mdp_ready", "trial_type": "html-keyboard-response", "trial_index": 14, "time_elapsed": 357029, "internal_node_id": "0.0-6.0-0.0"}}, {"uniqueid": "w19528032:a21170697", "current_trial": 15, "dateTime": 1693660965158, "trialdata": {"revealed_states": [], "clicked_states": [], "num_clicks_accrued": [0, 0, 0, 0, 0, 0, 0, 0, 0, 0, 0, 0, 0], "stateRewards": ["", 1, 2, 2, -15, -84, 28, -26, 13, 31, 86, 30, -2, 1, -1, -8, 66, -40, -1, -10, -32, 57, -17, 1, 2, -2, 9, -23, 77, 85, 12, -32, -62, -35], "withholdReward": false, "trial_id": "mdp_trial_1", "block": "test", "trialIndex": 4, "score": -36, "costs": 0, "simulationMode": [null, null, null, null, null], "rewards": [1, 2, 2, -15, -26], "path": ["0", "0", "1", "2", "3", "4", "7"], "rt": [1433, 192, 185, 10, 46], "actions": ["up", "up", "up", "right", "down"], "actionTimes": [3774, 4484, 5192, 5702, 6297], "queries": {"click": {"state": {"target": [], "time": []}, "edge": {"target": [], "time": []}}, "mouseover": {"state": {"target": [], "time": []}, "edge": {"target": [], "time": []}}, "mouseout": {"state": {"target": ["12", "0", "0"], "time": [666, 733, 8003]}, "edge": {"target": [], "time": []}}}, "displayed_time": "16.35", "trialTime": 17550, "trial_type": "mouselab-mdp", "trial_index": 15, "time_elapsed": 375109, "internal_node_id": "0.0-6.0-1.0-0.0"}}, {"uniqueid": "w19528032:a21170697", "current_trial": 16, "dateTime": 1693660984230, "trialdata": {"revealed_states": [], "clicked_states": ["25", "26"], "num_clicks_accrued": [0, 0, 0, 0, 0, 0, 0, 0, 0, 0, 0, 0, 0], "stateRewards": ["", 1, 1, -3, 7, 49, 78, 26, -5, 26, 48, -43, -1, -3, 2, -5, 4, -1, -60, 10, -35, 51, 81, -2, 1, -7, -5, -39, -86, -54, 4, -3, 74, 77], "withholdReward": false, "trial_id": "mdp_trial_2", "block": "test", "trialIndex": 5, "score": -29.8, "costs": -2.8, "simulationMode": [null, null, null, null, null], "rewards": [-1, -3, 2, 10, -35], "path": ["0", "0", "12", "13", "14", "19", "20"], "rt": [4403, 455, 147, 119, 61], "actions": ["right", "right", "right", "down", "right"], "actionTimes": [7813, 8806, 9477, 10115, 10715], "queries": {"click": {"state": {"target": ["25", "26"], "time": [4265, 6076]}, "edge": {"target": [], "time": []}}, "mouseover": {"state": {"target": ["23", "24", "25", "26"], "time": [3762, 3796, 3872, 4806]}, "edge": {"target": [], "time": []}}, "mouseout": {"state": {"target": ["0", "23", "24", "25", "26"], "time": [3755, 3789, 3810, 4713, 6972]}, "edge": {"target": [], "time": []}}}, "displayed_time": "17.43", "trialTime": 18375, "trial_type": "mouselab-mdp", "trial_index": 16, "time_elapsed": 394181, "internal_node_id": "0.0-6.0-1.0-1.0"}}, {"uniqueid": "w19528032:a21170697", "current_trial": 17, "dateTime": 1693661014798, "trialdata": {"revealed_states": [], "clicked_states": [], "num_clicks_accrued": [0, 0, 0, 0, 0, 0, 0, 0, 0, 0, 0, 0, 0], "stateRewards": ["", -2, 2, -1, -6, 22, 6, 6, -5, 70, -42, 65, 1, 3, 5, -6, -67, -9, 3, 14, 7, -62, -13, -2, 4, 1, 16, 42, -21, -52, -8, 32, 53, 81], "withholdReward": false, "trial_id": "mdp_trial_3", "block": "test", "trialIndex": 6, "score": 48, "costs": 0, "simulationMode": [null, null, null, null, null], "rewards": [-2, 4, 1, -8, 53], "path": ["0", "0", "23", "24", "25", "30", "32"], "rt": [1846, 473, 327, 246, 236], "actions": ["left", "left", "left", "down", "down"], "actionTimes": [14910, 15905, 16751, 17511, 18270], "queries": {"click": {"state": {"target": [], "time": []}, "edge": {"target": [], "time": []}}, "mouseover": {"state": {"target": [], "time": []}, "edge": {"target": [], "time": []}}, "mouseout": {"state": {"target": ["0"], "time": [20377]}, "edge": {"target": [], "time": []}}}, "displayed_time": "27.07", "trialTime": 29697, "trial_type": "mouselab-mdp", "trial_index": 17, "time_elapsed": 424749, "internal_node_id": "0.0-6.0-1.0-2.0"}}, {"uniqueid": "w19528032:a21170697", "current_trial": 18, "dateTime": 1693661034554, "trialdata": {"revealed_states": [], "clicked_states": [], "num_clicks_accrued": [0, 0, 0, 0, 0, 0, 0, 0, 0, 0, 0, 0, 0], "stateRewards": ["", 2, -3, -4, -1, 25, -16, 16, 10, -71, -20, -55, 1, 3, -4, -9, 1, 32, 11, -6, 32, -50, -41, -1, 4, 4, -8, 7, -81, 70, 2, -52, 45, -10], "withholdReward": false, "trial_id": "mdp_trial_4", "block": "test", "trialIndex": 7, "score": 19, "costs": 0, "simulationMode": [null, null, null, null, null], "rewards": [2, -3, -4, -1, 25], "path": ["0", "0", "1", "2", "3", "4", "5"], "rt": [1236, 120, 867, 607, 1469], "actions": ["up", "up", "up", "right", "up"], "actionTimes": [5398, 6056, 7440, 8580, 10578], "queries": {"click": {"state": {"target": [], "time": []}, "edge": {"target": [], "time": []}}, "mouseover": {"state": {"target": [], "time": []}, "edge": {"target": [], "time": []}}, "mouseout": {"state": {"target": ["0"], "time": [4181]}, "edge": {"target": [], "time": []}}}, "displayed_time": "18.17", "trialTime": 19175, "trial_type": "mouselab-mdp", "trial_index": 18, "time_elapsed": 444504, "internal_node_id": "0.0-6.0-1.0-3.0"}}, {"uniqueid": "w19528032:a21170697", "current_trial": 19, "dateTime": 1693661053053, "trialdata": {"revealed_states": [], "clicked_states": [], "num_clicks_accrued": [0, 0, 0, 0, 0, 0, 0, 0, 0, 0, 0, 0, 0], "stateRewards": ["", -2, -2, -7, -13, -10, 49, -68, -1, 84, 70, 88, 1, 4, 4, 12, -57, 25, 30, 8, -1, -77, 57, 2, 3, 2, 3, -18, -80, 23, -15, -41, 70, 11], "withholdReward": false, "trial_id": "mdp_trial_5", "block": "test", "trialIndex": 8, "score": 33, "costs": 0, "simulationMode": [null, null, null, null, null], "rewards": [2, 3, 2, 3, 23], "path": ["0", "0", "23", "24", "25", "26", "29"], "rt": [3217, 489, 534, 432, 4910], "actions": ["left", "left", "left", "up", "left"], "actionTimes": [5967, 6986, 8029, 8980, 14412], "queries": {"click": {"state": {"target": [], "time": []}, "edge": {"target": [], "time": []}}, "mouseover": {"state": {"target": [], "time": []}, "edge": {"target": [], "time": []}}, "mouseout": {"state": {"target": ["14", "12", "0"], "time": [1988, 2171, 2772]}, "edge": {"target": [], "time": []}}}, "displayed_time": "16.76", "trialTime": 17865, "trial_type": "mouselab-mdp", "trial_index": 19, "time_elapsed": 463004, "internal_node_id": "0.0-6.0-1.0-4.0"}}, {"uniqueid": "w19528032:a21170697", "current_trial": 20, "dateTime": 1693661095648, "trialdata": {"revealed_states": [], "clicked_states": [], "num_clicks_accrued": [0, 0, 0, 0, 0, 0, 0, 0, 0, 0, 0, 0, 0], "stateRewards": ["", 2, 4, -6, -13, -75, -81, 30, 7, 5, 59, -65, -1, -1, 7, 14, -38, 36, -41, 1, -54, -5, 64, 2, -1, 5, 6, -19, 79, 11, 16, -33, -50, 58], "withholdReward": false, "trial_id": "mdp_trial_6", "block": "test", "trialIndex": 9, "score": -94, "costs": 0, "simulationMode": [null, null, null, null, null], "rewards": [2, 4, -6, -13, -81], "path": ["0", "0", "1", "2", "3", "4", "6"], "rt": [4339, 112, 79, 515, 33], "actions": ["up", "up", "up", "right", "right"], "actionTimes": [7070, 7707, 8291, 9326, 9880], "queries": {"click": {"state": {"target": [], "time": []}, "edge": {"target": [], "time": []}}, "mouseover": {"state": {"target": [], "time": []}, "edge": {"target": [], "time": []}}, "mouseout": {"state": {"target": ["1", "0"], "time": [1537, 2749]}, "edge": {"target": [], "time": []}}}, "displayed_time": "16.74", "trialTime": 41909, "trial_type": "mouselab-mdp", "trial_index": 20, "time_elapsed": 505599, "internal_node_id": "0.0-6.0-1.0-5.0"}}, {"uniqueid": "w19528032:a21170697", "current_trial": 21, "dateTime": 1693661122796, "trialdata": {"revealed_states": [], "clicked_states": [], "num_clicks_accrued": [0, 0, 0, 0, 0, 0, 0, 0, 0, 0, 0, 0, 0], "stateRewards": ["", -1, -4, -3, 1, -45, -67, -24, 14, 32, 22, 22, -1, 1, -5, -7, 72, 84, -79, -5, 19, -40, -2, -1, -2, 8, -3, 84, -25, -28, 11, 64, -66, 77], "withholdReward": false, "trial_id": "mdp_trial_7", "block": "test", "trialIndex": 10, "score": 28, "costs": 0, "simulationMode": [null, null, null, null, null], "rewards": [-1, -4, -3, 14, 22], "path": ["0", "0", "1", "2", "3", "8", "10"], "rt": [2291, 56, 157, 80, 463], "actions": ["up", "up", "up", "left", "down"], "actionTimes": [4903, 5470, 6139, 6748, 7711], "queries": {"click": {"state": {"target": [], "time": []}, "edge": {"target": [], "time": []}}, "mouseover": {"state": {"target": ["12", "13", "19"], "time": [2665, 2691, 2754]}, "edge": {"target": [], "time": []}}, "mouseout": {"state": {"target": ["22", "19", "22", "0", "12", "13"], "time": [472, 623, 672, 2656, 2673, 2721]}, "edge": {"target": [], "time": []}}}, "displayed_time": "16.62", "trialTime": 26176, "trial_type": "mouselab-mdp", "trial_index": 21, "time_elapsed": 532747, "internal_node_id": "0.0-6.0-1.0-6.0"}}, {"uniqueid": "w19528032:a21170697", "current_trial": 22, "dateTime": 1693661142089, "trialdata": {"revealed_states": [], "clicked_states": [], "num_clicks_accrued": [0, 0, 0, 0, 0, 0, 0, 0, 0, 0, 0, 0, 0], "stateRewards": ["", -1, -3, -6, 14, 41, 18, 63, -14, 80, 21, 17, -2, -4, -2, -5, 13, 70, 8, -4, -64, -10, -20, 2, -1, 4, -1, -17, -55, 42, -7, 47, 54, 15], "withholdReward": false, "trial_id": "mdp_trial_8", "block": "test", "trialIndex": 11, "score": 57, "costs": 0, "simulationMode": [null, null, null, null, null], "rewards": [-2, -4, -2, -5, 70], "path": ["0", "0", "12", "13", "14", "15", "17"], "rt": [1104, 462, 111, 69, 41], "actions": ["right", "right", "right", "up", "right"], "actionTimes": [3748, 4742, 5380, 5967, 6521], "queries": {"click": {"state": {"target": [], "time": []}, "edge": {"target": [], "time": []}}, "mouseover": {"state": {"target": [], "time": []}, "edge": {"target": [], "time": []}}, "mouseout": {"state": {"target": ["19", "22", "12", "0"], "time": [1853, 1904, 2003, 2676]}, "edge": {"target": [], "time": []}}}, "displayed_time": "16.65", "trialTime": 18549, "trial_type": "mouselab-mdp", "trial_index": 22, "time_elapsed": 552040, "internal_node_id": "0.0-6.0-1.0-7.0"}}, {"uniqueid": "w19528032:a21170697", "current_trial": 23, "dateTime": 1693661161642, "trialdata": {"revealed_states": [], "clicked_states": ["6", "4"], "num_clicks_accrued": [0, 0, 0, 0, 0, 0, 0, 0, 0, 0, 0, 0, 0], "stateRewards": ["", -2, 4, -7, -3, -76, 39, -28, 10, 14, 12, 60, 2, -3, 6, -10, 88, -34, -41, -3, 72, -13, -56, 1, 3, 2, 8, -51, 23, -57, 1, 14, -46, -16], "withholdReward": false, "trial_id": "mdp_trial_9", "block": "test", "trialIndex": 12, "score": 28.2, "costs": -2.8, "simulationMode": [null, null, null, null, null], "rewards": [-2, 4, -7, -3, 39], "path": ["0", "0", "1", "2", "3", "4", "6"], "rt": [6968, 53, 112, 171, 5], "actions": ["up", "up", "up", "right", "right"], "actionTimes": [8369, 8953, 9574, 10267, 10802], "queries": {"click": {"state": {"target": ["6", "4"], "time": [2488, 5568]}, "edge": {"target": [], "time": []}}, "mouseover": {"state": {"target": ["6", "4"], "time": [2256, 3368]}, "edge": {"target": [], "time": []}}, "mouseout": {"state": {"target": ["19", "22", "0", "6", "4"], "time": [388, 571, 1858, 3287, 6173]}, "edge": {"target": [], "time": []}}}, "displayed_time": "15.41", "trialTime": 18669, "trial_type": "mouselab-mdp", "trial_index": 23, "time_elapsed": 571592, "internal_node_id": "0.0-6.0-1.0-8.0"}}, {"uniqueid": "w19528032:a21170697", "current_trial": 24, "dateTime": 1693661178935, "trialdata": {"revealed_states": [], "clicked_states": ["27", "17"], "num_clicks_accrued": [0, 0, 0, 0, 0, 0, 0, 0, 0, 0, 0, 0, 0], "stateRewards": ["", -1, -2, -1, -10, -57, 73, -72, -16, 75, -14, -46, -2, -3, -7, -1, -61, -60, 76, -4, 50, 4, 14, 2, 2, -7, 12, -65, -32, 15, -8, -76, -25, -61], "withholdReward": false, "trial_id": "mdp_trial_10", "block": "test", "trialIndex": 13, "score": 52.2, "costs": -2.8, "simulationMode": [null, null, null, null, null], "rewards": [-1, -2, -1, -16, 75], "path": ["0", "0", "1", "2", "3", "8", "9"], "rt": [7617, 500, 181, 132, 95], "actions": ["up", "up", "up", "left", "up"], "actionTimes": [8926, 9949, 10647, 11296, 11911], "queries": {"click": {"state": {"target": ["27", "17"], "time": [3169, 5641]}, "edge": {"target": [], "time": []}}, "mouseover": {"state": {"target": ["28", "27", "26", "27", "28", "23", "12", "17", "20", "14", "13"], "time": [2276, 2642, 2759, 2992, 3322, 5109, 5176, 5476, 7842, 7893, 7959]}, "edge": {"target": [], "time": []}}, "mouseout": {"state": {"target": ["13", "22", "0", "28", "27", "26", "27", "28", "23", "12", "17", "20", "14"], "time": [40, 140, 1992, 2342, 2675, 2946, 3289, 3339, 5143, 5193, 5757, 7860, 7910]}, "edge": {"target": [], "time": []}}}, "displayed_time": "15.31", "trialTime": 16314, "trial_type": "mouselab-mdp", "trial_index": 24, "time_elapsed": 588886, "internal_node_id": "0.0-6.0-1.0-9.0"}}, {"uniqueid": "w19528032:a21170697", "current_trial": 25, "dateTime": 1693661196854, "trialdata": {"revealed_states": [], "clicked_states": ["6", "11"], "num_clicks_accrued": [0, 0, 0, 0, 0, 0, 0, 0, 0, 0, 0, 0, 0], "stateRewards": ["", 1, 1, 6, -14, -40, 37, 16, -13, 33, -68, 49, 2, 4, 3, 6, 55, 27, 32, 10, -65, 20, -87, 2, 1, -6, -5, -42, 12, 29, -8, 16, 76, -33], "withholdReward": false, "trial_id": "mdp_trial_11", "block": "test", "trialIndex": 14, "score": 41.2, "costs": -2.8, "simulationMode": [null, null, null, null, null], "rewards": [1, 1, 6, -13, 49], "path": ["0", "0", "1", "2", "3", "8", "11"], "rt": [6233, 85, 13, 5, 5], "actions": ["up", "up", "up", "left", "left"], "actionTimes": [8497, 9091, 9654, 10177, 10709], "queries": {"click": {"state": {"target": ["6", "11"], "time": [3189, 5821]}, "edge": {"target": [], "time": []}}, "mouseover": {"state": {"target": ["7", "6", "4", "3", "8", "11", "11", "10", "1", "12"], "time": [2732, 2998, 3933, 4017, 4099, 5233, 5515, 6014, 6210, 6284]}, "edge": {"target": [], "time": []}}, "mouseout": {"state": {"target": ["0", "7", "6", "4", "3", "8", "11", "11", "11", "10", "1", "12"], "time": [2568, 2815, 3799, 3988, 4043, 5216, 5266, 5861, 5966, 6098, 6240, 7866]}, "edge": {"target": [], "time": []}}}, "displayed_time": "16.28", "trialTime": 17006, "trial_type": "mouselab-mdp", "trial_index": 25, "time_elapsed": 606805, "internal_node_id": "0.0-6.0-1.0-10.0"}}, {"uniqueid": "w19528032:a21170697", "current_trial": 26, "dateTime": 1693661214285, "trialdata": {"revealed_states": [], "clicked_states": ["20", "32"], "num_clicks_accrued": [0, 0, 0, 0, 0, 0, 0, 0, 0, 0, 0, 0, 0], "stateRewards": ["", -1, 3, -4, -14, 78, 67, 2, 13, -32, 28, 39, -2, 1, -4, -4, -4, -42, -86, 11, 64, -29, -32, -1, -4, 2, -7, 5, 68, -61, 2, -21, 85, 50], "withholdReward": false, "trial_id": "mdp_trial_12", "block": "test", "trialIndex": 15, "score": 81.2, "costs": -2.8, "simulationMode": [null, null, null, null, null], "rewards": [-1, -4, 2, 2, 85], "path": ["0", "0", "23", "24", "25", "30", "32"], "rt": [5747, 524, 123, 18, 50], "actions": ["left", "left", "left", "down", "down"], "actionTimes": [7365, 8414, 9062, 9607, 10172], "queries": {"click": {"state": {"target": ["20", "32"], "time": [2277, 4807]}, "edge": {"target": [], "time": []}}, "mouseover": {"state": {"target": ["22", "19", "20", "21", "30", "32"], "time": [1644, 1764, 2047, 2816, 4366, 4548]}, "edge": {"target": [], "time": []}}, "mouseout": {"state": {"target": ["0", "22", "19", "20", "21", "30", "32"], "time": [1637, 1661, 1965, 2512, 2842, 4482, 4928]}, "edge": {"target": [], "time": []}}}, "displayed_time": "15.63", "trialTime": 16853, "trial_type": "mouselab-mdp", "trial_index": 26, "time_elapsed": 624235, "internal_node_id": "0.0-6.0-1.0-11.0"}}, {"uniqueid": "w19528032:a21170697", "current_trial": 27, "dateTime": 1693661231782, "trialdata": {"revealed_states": [], "clicked_states": ["16", "27"], "num_clicks_accrued": [0, 0, 0, 0, 0, 0, 0, 0, 0, 0, 0, 0, 0], "stateRewards": ["", 1, -1, 1, 13, 31, -56, 72, 2, 41, 5, 63, -2, -3, -2, 3, -71, -26, 52, 13, -31, 24, -67, 2, -2, 5, 4, 66, 43, 72, 9, 86, -26, 44], "withholdReward": false, "trial_id": "mdp_trial_13", "block": "test", "trialIndex": 16, "score": 72.2, "costs": -2.8, "simulationMode": [null, null, null, null, null], "rewards": [2, -2, 5, 4, 66], "path": ["0", "0", "23", "24", "25", "26", "27"], "rt": [5537, 231, 162, 79, 90], "actions": ["left", "left", "left", "up", "up"], "actionTimes": [7811, 8549, 9215, 9798, 10410], "queries": {"click": {"state": {"target": ["16", "27"], "time": [3460, 5425]}, "edge": {"target": [], "time": []}}, "mouseover": {"state": {"target": ["16", "15", "14", "28", "27", "10", "2", "1", "0"], "time": [3298, 3626, 3646, 4297, 4529, 5710, 5745, 6001, 6045]}, "edge": {"target": [], "time": []}}, "mouseout": {"state": {"target": ["0", "0", "16", "15", "14", "28", "27", "10", "2", "1", "0"], "time": [1577, 2664, 3610, 3642, 3676, 4326, 5537, 5727, 5759, 6036, 6076]}, "edge": {"target": [], "time": []}}}, "displayed_time": "16.28", "trialTime": 16981, "trial_type": "mouselab-mdp", "trial_index": 27, "time_elapsed": 641733, "internal_node_id": "0.0-6.0-1.0-12.0"}}, {"uniqueid": "w19528032:a21170697", "current_trial": 28, "dateTime": 1693661249041, "trialdata": {"revealed_states": [], "clicked_states": ["4", "25", "27"], "num_clicks_accrued": [0, 0, 0, 0, 0, 0, 0, 0, 0, 0, 0, 0, 0], "stateRewards": ["", -1, -2, 4, 9, 10, -75, 39, 16, -43, 88, -19, -1, 1, 2, 4, -31, 10, 73, 12, 41, -64, -81, -2, 2, -6, 1, -81, -1, -26, 3, -59, -3, -20], "withholdReward": false, "trial_id": "mdp_trial_14", "block": "test", "trialIndex": 17, "score": -54.2, "costs": -4.199999999999999, "simulationMode": [null, null, null, null, null], "rewards": [-1, 1, 2, 12, -64], "path": ["0", "0", "12", "13", "14", "19", "21"], "rt": [8329, 5, 15, 5, 15], "actions": ["right", "right", "right", "down", "down"], "actionTimes": [9731, 10261, 10821, 11344, 11887], "queries": {"click": {"state": {"target": ["4", "25", "27"], "time": [2325, 4292, 7229]}, "edge": {"target": [], "time": []}}, "mouseover": {"state": {"target": ["7", "4", "18", "19", "25", "0", "27", "28", "23"], "time": [1865, 1932, 2479, 2546, 3538, 6731, 7081, 7413, 7446]}, "edge": {"target": [], "time": []}}, "mouseout": {"state": {"target": ["0", "7", "4", "18", "19", "25", "0", "27", "28", "23"], "time": [1417, 1899, 2389, 2496, 3255, 4369, 6748, 7396, 7429, 7546]}, "edge": {"target": [], "time": []}}}, "displayed_time": "15.41", "trialTime": 16643, "trial_type": "mouselab-mdp", "trial_index": 28, "time_elapsed": 658992, "internal_node_id": "0.0-6.0-1.0-13.0"}}, {"uniqueid": "w19528032:a21170697", "current_trial": 29, "dateTime": 1693661268431, "trialdata": {"revealed_states": [], "clicked_states": ["29", "16"], "num_clicks_accrued": [0, 0, 0, 0, 0, 0, 0, 0, 0, 0, 0, 0, 0], "stateRewards": ["", -2, -1, 3, -3, 71, -58, -21, 7, -10, -75, -37, 2, 4, -1, -12, -79, -29, -48, 3, -41, -10, -30, -1, -2, 1, -15, 13, 66, 22, -1, -42, -86, -55], "withholdReward": false, "trial_id": "mdp_trial_15", "block": "test", "trialIndex": 18, "score": -63.8, "costs": -2.8, "simulationMode": [null, null, null, null, null], "rewards": [-2, -1, 3, -3, -58], "path": ["0", "0", "1", "2", "3", "4", "6"], "rt": [5462, 556, 346, 1061, 349], "actions": ["up", "up", "up", "right", "right"], "actionTimes": [8696, 9776, 10642, 12216, 13071], "queries": {"click": {"state": {"target": ["29", "16"], "time": [3722, 5719]}, "edge": {"target": [], "time": []}}, "mouseover": {"state": {"target": ["29", "26", "16", "16", "17", "16"], "time": [3447, 3826, 3877, 4144, 4397, 4613]}, "edge": {"target": [], "time": []}}, "mouseout": {"state": {"target": ["23", "28", "22", "12", "29", "26", "16", "16", "17", "16"], "time": [1662, 2462, 2628, 2711, 3809, 3843, 3894, 4347, 4579, 5861]}, "edge": {"target": [], "time": []}}}, "displayed_time": "17.24", "trialTime": 18780, "trial_type": "mouselab-mdp", "trial_index": 29, "time_elapsed": 678382, "internal_node_id": "0.0-6.0-1.0-14.0"}}, {"uniqueid": "w19528032:a21170697", "current_trial": 30, "dateTime": 1693661285572, "trialdata": {"revealed_states": [], "clicked_states": ["32", "5"], "num_clicks_accrued": [0, 0, 0, 0, 0, 0, 0, 0, 0, 0, 0, 0, 0], "stateRewards": ["", -1, 1, 6, -6, 70, 66, 67, -16, -75, -35, 37, -1, 4, 4, -6, 47, -9, 63, 15, 21, -63, 13, 1, 3, -6, 10, 79, -29, 18, -15, 9, -67, -19], "withholdReward": false, "trial_id": "mdp_trial_16", "block": "test", "trialIndex": 19, "score": 67.2, "costs": -2.8, "simulationMode": [null, null, null, null, null], "rewards": [-1, 1, 6, -6, 70], "path": ["0", "0", "1", "2", "3", "4", "5"], "rt": [5492, 346, 56, 69, 482], "actions": ["up", "up", "up", "right", "up"], "actionTimes": [7349, 8207, 8782, 9380, 10393], "queries": {"click": {"state": {"target": ["32", "5"], "time": [2476, 4874]}, "edge": {"target": [], "time": []}}, "mouseover": {"state": {"target": ["23", "31", "30", "32", "28", "10", "8", "5", "5", "6", "16", "17"], "time": [1916, 1983, 2058, 2287, 2634, 2667, 2692, 2969, 4711, 5145, 5200, 5335]}, "edge": {"target": [], "time": []}}, "mouseout": {"state": {"target": ["20", "21", "0", "23", "31", "30", "32", "28", "10", "8", "5", "5", "6", "16", "17", "14", "22"], "time": [586, 669, 1899, 1933, 2039, 2074, 2567, 2651, 2687, 2705, 3220, 5122, 5172, 5256, 5394, 16072, 16138]}, "edge": {"target": [], "time": []}}}, "displayed_time": "15.87", "trialTime": 16578, "trial_type": "mouselab-mdp", "trial_index": 30, "time_elapsed": 695523, "internal_node_id": "0.0-6.0-1.0-15.0"}}, {"uniqueid": "w19528032:a21170697", "current_trial": 31, "dateTime": 1693661304268, "trialdata": {"revealed_states": [], "clicked_states": ["17", "11", "9"], "num_clicks_accrued": [0, 0, 0, 0, 0, 0, 0, 0, 0, 0, 0, 0, 0], "stateRewards": ["", 1, -1, -7, -7, -22, 15, -13, 13, 26, -32, 38, -1, 1, -7, -4, 16, -62, 86, 12, -54, 56, 64, -2, -1, 6, 14, -57, 37, 62, -6, -25, 50, -70], "withholdReward": false, "trial_id": "mdp_trial_17", "block": "test", "trialIndex": 20, "score": 39.8, "costs": -4.199999999999999, "simulationMode": [null, null, null, null, null], "rewards": [1, -1, -7, 13, 38], "path": ["0", "0", "1", "2", "3", "8", "11"], "rt": [8394, 67, 148, 33, 37], "actions": ["up", "up", "up", "left", "left"], "actionTimes": [10807, 11380, 12057, 12592, 13146], "queries": {"click": {"state": {"target": ["17", "11", "9"], "time": [3669, 5682, 8202]}, "edge": {"target": [], "time": []}}, "mouseover": {"state": {"target": ["12", "13", "14", "20", "17", "2", "8", "11", "10", "8", "9", "18", "14"], "time": [2770, 2809, 2870, 3170, 3458, 4122, 4157, 4384, 5850, 7803, 7870, 8351, 8384]}, "edge": {"target": [], "time": []}}, "mouseout": {"state": {"target": ["0", "12", "13", "14", "20", "17", "2", "8", "11", "10", "8", "9", "9", "18", "14"], "time": [2754, 2792, 2826, 3020, 3387, 3801, 4150, 4174, 5834, 5868, 7837, 8253, 8300, 8367, 16920]}, "edge": {"target": [], "time": []}}}, "displayed_time": "16.42", "trialTime": 18140, "trial_type": "mouselab-mdp", "trial_index": 31, "time_elapsed": 714219, "internal_node_id": "0.0-6.0-1.0-16.0"}}, {"uniqueid": "w19528032:a21170697", "current_trial": 32, "dateTime": 1693661320971, "trialdata": {"revealed_states": [], "clicked_states": ["32", "5", "10"], "num_clicks_accrued": [0, 0, 0, 0, 0, 0, 0, 0, 0, 0, 0, 0, 0], "stateRewards": ["", 1, 4, -8, -5, -15, -7, 21, 13, -30, 40, -65, 1, 1, 5, -14, 35, 27, -38, -11, 36, -58, -47, -2, 4, -3, 13, -16, -49, 22, 15, -56, -44, -10], "withholdReward": false, "trial_id": "mdp_trial_18", "block": "test", "trialIndex": 21, "score": 45.8, "costs": -4.199999999999999, "simulationMode": [null, null, null, null, null], "rewards": [1, 4, -8, 13, 40], "path": ["0", "0", "1", "2", "3", "8", "10"], "rt": [7602, 296, 102, 50, 18], "actions": ["up", "up", "up", "left", "down"], "actionTimes": [9051, 9864, 10470, 11053, 11614], "queries": {"click": {"state": {"target": ["32", "5", "10"], "time": [2115, 4067, 6956]}, "edge": {"target": [], "time": []}}, "mouseover": {"state": {"target": ["31", "32", "31", "23", "2", "5", "4", "9", "8", "10", "2", "18", "15", "14", "19", "21"], "time": [1512, 1895, 2275, 2309, 2374, 2759, 4592, 6128, 6495, 6813, 7076, 7126, 7160, 7518, 7589, 7626]}, "edge": {"target": [], "time": []}}, "mouseout": {"state": {"target": ["0", "31", "32", "31", "23", "2", "5", "4", "9", "8", "10", "2", "18", "15", "14", "19", "21", "21"], "time": [960, 1779, 2191, 2291, 2324, 2408, 4433, 5912, 6328, 6713, 7059, 7092, 7145, 7414, 7561, 7618, 7788, 15862]}, "edge": {"target": [], "time": []}}}, "displayed_time": "15.46", "trialTime": 16152, "trial_type": "mouselab-mdp", "trial_index": 32, "time_elapsed": 730922, "internal_node_id": "0.0-6.0-1.0-17.0"}}, {"uniqueid": "w19528032:a21170697", "current_trial": 33, "dateTime": 1693661337556, "trialdata": {"revealed_states": [], "clicked_states": ["16", "29"], "num_clicks_accrued": [0, 0, 0, 0, 0, 0, 0, 0, 0, 0, 0, 0, 0], "stateRewards": ["", 1, 3, 1, -13, 52, -28, 67, -14, 3, 63, -70, -1, -4, 7, -11, -10, 47, -18, 6, 69, -9, -61, 2, 3, -6, 10, 63, -34, 40, -6, -79, -35, -32], "withholdReward": false, "trial_id": "mdp_trial_19", "block": "test", "trialIndex": 22, "score": 46.2, "costs": -2.8, "simulationMode": [null, null, null, null, null], "rewards": [2, 3, -6, 10, 40], "path": ["0", "0", "23", "24", "25", "26", "29"], "rt": [4963, 29, 125, 543, 37], "actions": ["left", "left", "left", "up", "left"], "actionTimes": [6347, 6898, 7526, 8594, 9138], "queries": {"click": {"state": {"target": ["16", "29"], "time": [1940, 3950]}, "edge": {"target": [], "time": []}}, "mouseover": {"state": {"target": ["16", "7", "2", "27", "29", "25"], "time": [1444, 2092, 2114, 2177, 2645, 4205]}, "edge": {"target": [], "time": []}}, "mouseout": {"state": {"target": ["0", "16", "7", "2", "27", "29", "25", "24", "4", "16", "18", "12"], "time": [1405, 2001, 2109, 2131, 2195, 4161, 4272, 9930, 10013, 15162, 15195, 15313]}, "edge": {"target": [], "time": []}}}, "displayed_time": "15.39", "trialTime": 15920, "trial_type": "mouselab-mdp", "trial_index": 33, "time_elapsed": 747507, "internal_node_id": "0.0-6.0-1.0-18.0"}}, {"uniqueid": "w19528032:a21170697", "current_trial": 34, "dateTime": 1693661354436, "trialdata": {"revealed_states": [], "clicked_states": ["32", "9"], "num_clicks_accrued": [0, 0, 0, 0, 0, 0, 0, 0, 0, 0, 0, 0, 0], "stateRewards": ["", 2, -1, 4, -9, -43, 7, 54, -13, 38, -40, -83, -1, 2, -8, -10, 34, -33, 11, -14, -79, 65, 26, 1, 2, 4, 10, 21, 1, 86, 4, -53, 28, -29], "withholdReward": false, "trial_id": "mdp_trial_20", "block": "test", "trialIndex": 23, "score": 27.2, "costs": -2.8, "simulationMode": [null, null, null, null, null], "rewards": [2, -1, 4, -13, 38], "path": ["0", "0", "1", "2", "3", "8", "9"], "rt": [5671, 4, 45, 764, 58], "actions": ["up", "up", "up", "left", "up"], "actionTimes": [7186, 7686, 8242, 9550, 10109], "queries": {"click": {"state": {"target": ["32", "9"], "time": [2382, 5073]}, "edge": {"target": [], "time": []}}, "mouseover": {"state": {"target": ["32", "32", "30", "28", "8", "9", "5", "9", "4"], "time": [1913, 2230, 2577, 2627, 2760, 2843, 3077, 4897, 5247]}, "edge": {"target": [], "time": []}}, "mouseout": {"state": {"target": ["0", "32", "32", "30", "28", "8", "9", "5", "9", "4", "15", "13"], "time": [1680, 2080, 2544, 2594, 2644, 2794, 2977, 4768, 5195, 5329, 15598, 15647]}, "edge": {"target": [], "time": []}}}, "displayed_time": "15.52", "trialTime": 16268, "trial_type": "mouselab-mdp", "trial_index": 34, "time_elapsed": 764387, "internal_node_id": "0.0-6.0-1.0-19.0"}}, {"uniqueid": "w19528032:a21170697", "current_trial": 35, "dateTime": 1693661371538, "trialdata": {"revealed_states": [], "clicked_states": ["16", "6", "11"], "num_clicks_accrued": [0, 0, 0, 0, 0, 0, 0, 0, 0, 0, 0, 0, 0], "stateRewards": ["", 1, 1, 5, 6, -29, -7, 3, -16, 9, -46, 65, -1, 4, -1, -16, -63, -77, -87, 8, 80, -50, 43, -1, -1, -5, 5, -38, -71, -62, 9, 81, -50, -52], "withholdReward": false, "trial_id": "mdp_trial_21", "block": "test", "trialIndex": 24, "score": 51.8, "costs": -4.199999999999999, "simulationMode": [null, null, null, null, null], "rewards": [1, 1, 5, -16, 65], "path": ["0", "0", "1", "2", "3", "8", "11"], "rt": [7692, 374, 30, 432, 37], "actions": ["up", "up", "up", "left", "left"], "actionTimes": [9467, 10369, 10911, 11860, 12416], "queries": {"click": {"state": {"target": ["16", "6", "11"], "time": [2730, 4687, 7377]}, "edge": {"target": [], "time": []}}, "mouseover": {"state": {"target": ["12", "18", "16", "6", "11", "10", "13"], "time": [1975, 2042, 2142, 3058, 7228, 7546, 7612]}, "edge": {"target": [], "time": []}}, "mouseout": {"state": {"target": ["0", "12", "18", "16", "6", "11", "10", "13"], "time": [1942, 1992, 2063, 2822, 4874, 7523, 7582, 7636]}, "edge": {"target": [], "time": []}}}, "displayed_time": "15.78", "trialTime": 16433, "trial_type": "mouselab-mdp", "trial_index": 35, "time_elapsed": 781489, "internal_node_id": "0.0-6.0-1.0-20.0"}}, {"uniqueid": "w19528032:a21170697", "current_trial": 36, "dateTime": 1693661388955, "trialdata": {"revealed_states": [], "clicked_states": ["33"], "num_clicks_accrued": [0, 0, 0, 0, 0, 0, 0, 0, 0, 0, 0, 0, 0], "stateRewards": ["", 1, 2, 3, 16, 63, -25, 16, -4, -14, 82, -66, -1, -3, -3, -11, -14, 19, 46, 3, -34, -82, 66, -2, -3, 4, -5, -63, 77, -37, -1, -45, -41, 84], "withholdReward": false, "trial_id": "mdp_trial_22", "block": "test", "trialIndex": 25, "score": 80.6, "costs": -1.4, "simulationMode": [null, null, null, null, null], "rewards": [-2, -3, 4, -1, 84], "path": ["0", "0", "23", "24", "25", "30", "33"], "rt": [4132, 42, 84, 22, 115], "actions": ["left", "left", "left", "down", "left"], "actionTimes": [6157, 6728, 7353, 7908, 8533], "queries": {"click": {"state": {"target": ["33"], "time": [3682]}, "edge": {"target": [], "time": []}}, "mouseover": {"state": {"target": ["33", "33", "25", "28", "10", "2", "3", "5", "5"], "time": [2696, 3190, 3860, 3908, 3957, 3995, 4041, 4258, 4859]}, "edge": {"target": [], "time": []}}, "mouseout": {"state": {"target": ["19", "22", "0", "33", "33", "25", "28", "10", "2", "3", "5", "5", "16"], "time": [488, 556, 1641, 2794, 3841, 3891, 3924, 3991, 4009, 4057, 4676, 9676, 9763]}, "edge": {"target": [], "time": []}}}, "displayed_time": "16.03", "trialTime": 16821, "trial_type": "mouselab-mdp", "trial_index": 36, "time_elapsed": 798906, "internal_node_id": "0.0-6.0-1.0-21.0"}}, {"uniqueid": "w19528032:a21170697", "current_trial": 37, "dateTime": 1693661406208, "trialdata": {"revealed_states": [], "clicked_states": ["20"], "num_clicks_accrued": [0, 0, 0, 0, 0, 0, 0, 0, 0, 0, 0, 0, 0], "stateRewards": ["", -2, -3, -6, -7, 9, 16, 65, 5, -41, 20, -25, -1, -4, 1, -11, -49, -4, 71, 1, 39, -62, 52, -2, -3, 7, -9, -28, -70, 84, 8, 24, -58, 82], "withholdReward": false, "trial_id": "mdp_trial_23", "block": "test", "trialIndex": 26, "score": 34.6, "costs": -1.4, "simulationMode": [null, null, null, null, null], "rewards": [-1, -4, 1, 1, 39], "path": ["0", "0", "12", "13", "14", "19", "20"], "rt": [3818, 23, 168, 17, 60], "actions": ["right", "right", "right", "down", "right"], "actionTimes": [5191, 5736, 6449, 6997, 7574], "queries": {"click": {"state": {"target": ["20"], "time": [2123]}, "edge": {"target": [], "time": []}}, "mouseover": {"state": {"target": ["12", "13", "20", "19", "23", "26", "29", "29", "27"], "time": [1670, 1710, 1857, 2274, 2320, 2341, 2608, 2699, 2907]}, "edge": {"target": [], "time": []}}, "mouseout": {"state": {"target": ["18", "12", "0", "12", "13", "20", "19", "23", "26", "29", "29", "27", "3", "15", "13"], "time": [455, 571, 1636, 1690, 1740, 2270, 2289, 2336, 2355, 2635, 2824, 8322, 8340, 15923, 15974]}, "edge": {"target": [], "time": []}}}, "displayed_time": "15.38", "trialTime": 16552, "trial_type": "mouselab-mdp", "trial_index": 37, "time_elapsed": 816158, "internal_node_id": "0.0-6.0-1.0-22.0"}}, {"uniqueid": "w19528032:a21170697", "current_trial": 38, "dateTime": 1693661423412, "trialdata": {"revealed_states": [], "clicked_states": ["9", "5"], "num_clicks_accrued": [0, 0, 0, 0, 0, 0, 0, 0, 0, 0, 0, 0, 0], "stateRewards": ["", -1, 3, 8, 9, -53, 20, -84, 2, -28, -62, -31, -1, -2, -7, 2, 51, 58, 45, -4, -17, -41, 36, 2, -2, -7, -15, 29, -54, -37, -16, -43, 65, -17], "withholdReward": false, "trial_id": "mdp_trial_24", "block": "test", "trialIndex": 27, "score": -78.8, "costs": -2.8, "simulationMode": [null, null, null, null, null], "rewards": [2, -2, -7, -15, -54], "path": ["0", "0", "23", "24", "25", "26", "28"], "rt": [7259, 71, 161, 7, 446], "actions": ["left", "left", "left", "up", "right"], "actionTimes": [8728, 9299, 9956, 10474, 11460], "queries": {"click": {"state": {"target": ["9", "5"], "time": [2924, 6792]}, "edge": {"target": [], "time": []}}, "mouseover": {"state": {"target": ["2", "3", "3", "9", "5", "4", "7", "18", "4", "5", "6", "5", "5"], "time": [1493, 1617, 2078, 2411, 3317, 5542, 5576, 5625, 5774, 5977, 6177, 6477, 6677]}, "edge": {"target": [], "time": []}}, "mouseout": {"state": {"target": ["0", "2", "3", "3", "9", "5", "4", "7", "18", "4", "5", "6", "5", "5"], "time": [959, 1555, 1741, 2311, 2962, 5526, 5559, 5592, 5707, 5807, 6028, 6394, 6510, 6941]}, "edge": {"target": [], "time": []}}}, "displayed_time": "15.47", "trialTime": 16462, "trial_type": "mouselab-mdp", "trial_index": 38, "time_elapsed": 833363, "internal_node_id": "0.0-6.0-1.0-23.0"}}, {"uniqueid": "w19528032:a21170697", "current_trial": 39, "dateTime": 1693661440360, "trialdata": {"revealed_states": [], "clicked_states": ["29", "16"], "num_clicks_accrued": [0, 0, 0, 0, 0, 0, 0, 0, 0, 0, 0, 0, 0], "stateRewards": ["", 1, 2, 8, -2, 23, -69, -18, -16, 54, -21, 71, -1, -4, 7, 11, 43, -6, 88, 6, -55, 72, 43, 1, -3, -2, -1, 68, -31, -54, 4, -8, 25, -2], "withholdReward": false, "trial_id": "mdp_trial_25", "block": "test", "trialIndex": 28, "score": 53.2, "costs": -2.8, "simulationMode": [null, null, null, null, null], "rewards": [-1, -4, 7, 11, 43], "path": ["0", "0", "12", "13", "14", "15", "16"], "rt": [5495, 22, 943, 34, 13], "actions": ["right", "right", "right", "up", "up"], "actionTimes": [7146, 7663, 9116, 9658, 10204], "queries": {"click": {"state": {"target": ["29", "16"], "time": [2474, 4489]}, "edge": {"target": [], "time": []}}, "mouseover": {"state": {"target": ["23", "24", "25", "29", "26", "7", "16", "17", "17"], "time": [1820, 1904, 1954, 2303, 2620, 2670, 2754, 4771, 6320]}, "edge": {"target": [], "time": []}}, "mouseout": {"state": {"target": ["14", "13", "23", "0", "23", "24", "25", "29", "26", "7", "16", "17", "17", "16", "6", "12"], "time": [853, 886, 1185, 1755, 1886, 1936, 2036, 2604, 2639, 2688, 4722, 4804, 6387, 6554, 15654, 15921]}, "edge": {"target": [], "time": []}}}, "displayed_time": "15.67", "trialTime": 16368, "trial_type": "mouselab-mdp", "trial_index": 39, "time_elapsed": 850311, "internal_node_id": "0.0-6.0-1.0-24.0"}}, {"uniqueid": "w19528032:a21170697", "current_trial": 40, "dateTime": 1693661457676, "trialdata": {"revealed_states": [], "clicked_states": ["9", "21"], "num_clicks_accrued": [0, 0, 0, 0, 0, 0, 0, 0, 0, 0, 0, 0, 0], "stateRewards": ["", -2, -1, -3, -1, -78, -6, 2, -1, 22, -88, 32, 2, 2, -7, -8, -51, -17, 54, 2, -44, 54, 75, 2, -2, -8, -15, -29, 12, -67, 15, -1, -47, -47], "withholdReward": false, "trial_id": "mdp_trial_26", "block": "test", "trialIndex": 29, "score": 50.2, "costs": -2.8, "simulationMode": [null, null, null, null, null], "rewards": [2, 2, -7, 2, 54], "path": ["0", "0", "12", "13", "14", "19", "21"], "rt": [5114, 5, 5, 14, 38], "actions": ["right", "right", "right", "down", "down"], "actionTimes": [6338, 6843, 7376, 7901, 8459], "queries": {"click": {"state": {"target": ["9", "21"], "time": [1971, 4032]}, "edge": {"target": [], "time": []}}, "mouseover": {"state": {"target": ["1", "10", "8", "9", "18", "14", "19", "21"], "time": [1383, 1500, 1582, 1732, 2200, 2266, 2351, 2584]}, "edge": {"target": [], "time": []}}, "mouseout": {"state": {"target": ["0", "0", "1", "10", "8", "9", "18", "14", "19", "21"], "time": [765, 865, 1416, 1548, 1665, 2116, 2216, 2317, 2400, 4334]}, "edge": {"target": [], "time": []}}}, "displayed_time": "15.23", "trialTime": 16698, "trial_type": "mouselab-mdp", "trial_index": 40, "time_elapsed": 867628, "internal_node_id": "0.0-6.0-1.0-25.0"}}, {"uniqueid": "w19528032:a21170697", "current_trial": 41, "dateTime": 1693661474569, "trialdata": {"revealed_states": [], "clicked_states": ["17", "29"], "num_clicks_accrued": [0, 0, 0, 0, 0, 0, 0, 0, 0, 0, 0, 0, 0], "stateRewards": ["", 2, -4, 7, 3, 23, -42, 4, 7, -81, -33, 7, -2, -4, 5, -1, 50, -57, -14, -13, -14, 44, 55, -2, -2, 5, -2, 33, 1, 57, -13, -7, 58, 87], "withholdReward": false, "trial_id": "mdp_trial_27", "block": "test", "trialIndex": 30, "score": 53.2, "costs": -2.8, "simulationMode": [null, null, null, null, null], "rewards": [-2, -2, 5, -2, 57], "path": ["0", "0", "23", "24", "25", "26", "29"], "rt": [5696, 71, 54, 5, 14], "actions": ["left", "left", "left", "up", "left"], "actionTimes": [7059, 7637, 8202, 8742, 9264], "queries": {"click": {"state": {"target": ["17", "29"], "time": [1882, 4197]}, "edge": {"target": [], "time": []}}, "mouseover": {"state": {"target": ["15", "17", "15", "24", "29"], "time": [1380, 1713, 2030, 2113, 4029]}, "edge": {"target": [], "time": []}}, "mouseout": {"state": {"target": ["20", "12", "0", "15", "17", "15", "24", "29"], "time": [294, 695, 1377, 1428, 2012, 2046, 2130, 4363]}, "edge": {"target": [], "time": []}}}, "displayed_time": "15.37", "trialTime": 16435, "trial_type": "mouselab-mdp", "trial_index": 41, "time_elapsed": 884520, "internal_node_id": "0.0-6.0-1.0-26.0"}}, {"uniqueid": "w19528032:a21170697", "current_trial": 42, "dateTime": 1693661491880, "trialdata": {"revealed_states": [], "clicked_states": ["33", "20"], "num_clicks_accrued": [0, 0, 0, 0, 0, 0, 0, 0, 0, 0, 0, 0, 0], "stateRewards": ["", 1, 2, 7, 13, 88, -71, 27, 3, 60, 5, -53, -2, 2, -6, -1, -30, 79, 47, -4, -14, 46, 68, 1, 1, 8, 10, -14, 86, 48, -11, -67, -44, 5], "withholdReward": false, "trial_id": "mdp_trial_28", "block": "test", "trialIndex": 31, "score": -50.8, "costs": -2.8, "simulationMode": [null, null, null, null, null], "rewards": [1, 2, 7, 13, -71], "path": ["0", "0", "1", "2", "3", "4", "6"], "rt": [5793, 8, 49, 429, 90], "actions": ["up", "up", "up", "right", "right"], "actionTimes": [8031, 8557, 9149, 10096, 10690], "queries": {"click": {"state": {"target": ["33", "20"], "time": [3049, 5085]}, "edge": {"target": [], "time": []}}, "mouseover": {"state": {"target": ["23", "25", "33", "30", "31", "22", "19", "20"], "time": [2579, 2625, 2842, 3154, 3197, 3343, 3511, 3710]}, "edge": {"target": [], "time": []}}, "mouseout": {"state": {"target": ["0", "23", "25", "33", "30", "31", "22", "19", "20"], "time": [2558, 2592, 2643, 3140, 3192, 3213, 3393, 3661, 5191]}, "edge": {"target": [], "time": []}}}, "displayed_time": "16.24", "trialTime": 16742, "trial_type": "mouselab-mdp", "trial_index": 42, "time_elapsed": 901831, "internal_node_id": "0.0-6.0-1.0-27.0"}}, {"uniqueid": "w19528032:a21170697", "current_trial": 43, "dateTime": 1693661508556, "trialdata": {"revealed_states": [], "clicked_states": ["9", "27"], "num_clicks_accrued": [0, 0, 0, 0, 0, 0, 0, 0, 0, 0, 0, 0, 0], "stateRewards": ["", 1, 1, 4, 11, 83, -66, 18, -16, -23, 5, 25, 1, -3, 1, -12, 18, 24, -86, -11, -64, 36, 40, 2, 1, -6, 13, 55, 29, 72, -2, 81, -72, -41], "withholdReward": false, "trial_id": "mdp_trial_29", "block": "test", "trialIndex": 32, "score": 62.2, "costs": -2.8, "simulationMode": [null, null, null, null, null], "rewards": [2, 1, -6, 13, 55], "path": ["0", "0", "23", "24", "25", "26", "27"], "rt": [5391, 26, 8, 452, 8], "actions": ["left", "left", "left", "up", "up"], "actionTimes": [6699, 7236, 7768, 8762, 9302], "queries": {"click": {"state": {"target": ["9", "27"], "time": [2136, 4315]}, "edge": {"target": [], "time": []}}, "mouseover": {"state": {"target": ["11", "9", "19", "21", "23", "28", "27", "21", "21"], "time": [1621, 1821, 2655, 2786, 3702, 3853, 4053, 4953, 5186]}, "edge": {"target": [], "time": []}}, "mouseout": {"state": {"target": ["19", "22", "0", "11", "9", "19", "21", "23", "28", "27", "21"], "time": [519, 537, 1350, 1642, 2335, 2721, 3576, 3719, 3953, 4601, 5005]}, "edge": {"target": [], "time": []}}}, "displayed_time": "15.32", "trialTime": 15945, "trial_type": "mouselab-mdp", "trial_index": 43, "time_elapsed": 918507, "internal_node_id": "0.0-6.0-1.0-28.0"}}, {"uniqueid": "w19528032:a21170697", "current_trial": 44, "dateTime": 1693661525512, "trialdata": {"revealed_states": [], "clicked_states": ["20"], "num_clicks_accrued": [0, 0, 0, 0, 0, 0, 0, 0, 0, 0, 0, 0, 0], "stateRewards": ["", 1, -4, 6, -3, 40, 76, -51, 5, -24, -63, 44, -2, -2, 8, 1, 76, -85, -58, 10, 59, 20, 11, -2, 3, -3, 3, -82, -10, 54, -7, -57, -6, -32], "withholdReward": false, "trial_id": "mdp_trial_30", "block": "test", "trialIndex": 33, "score": 71.6, "costs": -1.4, "simulationMode": [null, null, null, null, null], "rewards": [-2, -2, 8, 10, 59], "path": ["0", "0", "12", "13", "14", "19", "20"], "rt": [3214, 72, 42, 69, 62], "actions": ["right", "right", "right", "down", "right"], "actionTimes": [4537, 5119, 5688, 6282, 6881], "queries": {"click": {"state": {"target": ["20"], "time": [2038]}, "edge": {"target": [], "time": []}}, "mouseover": {"state": {"target": ["12", "19", "20", "19", "12", "28", "27", "29"], "time": [1491, 1641, 1874, 2170, 2221, 2270, 2387, 2721]}, "edge": {"target": [], "time": []}}, "mouseout": {"state": {"target": ["21", "0", "12", "19", "20", "19", "12", "28", "27", "29", "27"], "time": [588, 1373, 1574, 1724, 2128, 2187, 2238, 2305, 2488, 3255, 15776]}, "edge": {"target": [], "time": []}}}, "displayed_time": "15.33", "trialTime": 16154, "trial_type": "mouselab-mdp", "trial_index": 44, "time_elapsed": 935462, "internal_node_id": "0.0-6.0-1.0-29.0"}}, {"uniqueid": "w19528032:a21170697", "current_trial": 45, "dateTime": 1693661542475, "trialdata": {"revealed_states": [], "clicked_states": ["16"], "num_clicks_accrued": [0, 0, 0, 0, 0, 0, 0, 0, 0, 0, 0, 0, 0], "stateRewards": ["", -1, 2, 5, -6, 13, -64, -47, 8, -79, -80, -33, 1, 2, -2, -16, 56, -71, -10, 3, 29, 44, 85, -1, 4, 5, 4, -36, -56, 19, 8, 52, -13, -2], "withholdReward": false, "trial_id": "mdp_trial_31", "block": "test", "trialIndex": 34, "score": 39.6, "costs": -1.4, "simulationMode": [null, null, null, null, null], "rewards": [1, 2, -2, -16, 56], "path": ["0", "0", "12", "13", "14", "15", "16"], "rt": [3418, 204, 161, 97, 168], "actions": ["right", "right", "right", "up", "up"], "actionTimes": [4802, 5508, 6210, 6844, 7537], "queries": {"click": {"state": {"target": ["16"], "time": [2417]}, "edge": {"target": [], "time": []}}, "mouseover": {"state": {"target": ["16", "8", "11", "11"], "time": [2098, 2645, 2762, 2962]}, "edge": {"target": [], "time": []}}, "mouseout": {"state": {"target": ["0", "0", "16", "8", "11"], "time": [614, 1695, 2562, 2711, 2795]}, "edge": {"target": [], "time": []}}}, "displayed_time": "15.39", "trialTime": 16241, "trial_type": "mouselab-mdp", "trial_index": 45, "time_elapsed": 952425, "internal_node_id": "0.0-6.0-1.0-30.0"}}, {"uniqueid": "w19528032:a21170697", "current_trial": 46, "dateTime": 1693661559845, "trialdata": {"revealed_states": [], "clicked_states": ["9", "17", "29"], "num_clicks_accrued": [0, 0, 0, 0, 0, 0, 0, 0, 0, 0, 0, 0, 0], "stateRewards": ["", -1, -3, -6, -2, -7, 80, -45, -3, -38, -72, 76, 2, 1, 7, 4, -62, 14, -74, 14, -87, -21, -88, -2, 1, -7, -10, 66, 56, -76, 10, -29, -72, -70], "withholdReward": false, "trial_id": "mdp_trial_32", "block": "test", "trialIndex": 35, "score": -67.2, "costs": -4.199999999999999, "simulationMode": [null, null, null, null, null], "rewards": [2, 1, 7, 14, -87], "path": ["0", "0", "12", "13", "14", "19", "20"], "rt": [9340, 64, 157, 76, 134], "actions": ["right", "right", "right", "down", "right"], "actionTimes": [10726, 11311, 11981, 12591, 13256], "queries": {"click": {"state": {"target": ["9", "17", "29"], "time": [2273, 5182, 8384]}, "edge": {"target": [], "time": []}}, "mouseover": {"state": {"target": ["8", "9", "6", "15", "15", "17", "1", "24", "25", "29", "26"], "time": [1771, 1972, 2835, 4488, 4771, 4974, 7772, 7941, 8021, 8238, 8535]}, "edge": {"target": [], "time": []}}, "mouseout": {"state": {"target": ["11", "0", "8", "9", "6", "15", "15", "17", "1", "24", "25", "29", "26"], "time": [619, 1419, 1872, 2462, 4388, 4671, 4955, 5352, 7805, 7972, 8055, 8490, 8553]}, "edge": {"target": [], "time": []}}}, "displayed_time": "15.40", "trialTime": 16651, "trial_type": "mouselab-mdp", "trial_index": 46, "time_elapsed": 969796, "internal_node_id": "0.0-6.0-1.0-31.0"}}, {"uniqueid": "w19528032:a21170697", "current_trial": 47, "dateTime": 1693661576706, "trialdata": {"revealed_states": [], "clicked_states": ["27", "20", "33"], "num_clicks_accrued": [0, 0, 0, 0, 0, 0, 0, 0, 0, 0, 0, 0, 0], "stateRewards": ["", 1, -4, -6, -1, -21, 17, -72, 10, 77, 67, -46, -1, 4, -2, 14, -66, -49, -45, -15, -52, 23, -67, 2, -2, -2, 15, -3, 45, -64, 5, -44, 83, 61], "withholdReward": false, "trial_id": "mdp_trial_33", "block": "test", "trialIndex": 36, "score": 59.8, "costs": -4.199999999999999, "simulationMode": [null, null, null, null, null], "rewards": [2, -2, -2, 5, 61], "path": ["0", "0", "23", "24", "25", "30", "33"], "rt": [7911, 63, 66, 42, 49], "actions": ["left", "left", "left", "down", "left"], "actionTimes": [9385, 9971, 10556, 11121, 11707], "queries": {"click": {"state": {"target": ["27", "20", "33"], "time": [2356, 4403, 6874]}, "edge": {"target": [], "time": []}}, "mouseover": {"state": {"target": ["23", "26", "27", "20", "21", "31", "30", "33", "24", "6", "5", "5"], "time": [1650, 1884, 2051, 3149, 6284, 6484, 6522, 6735, 7032, 7082, 7351, 7648]}, "edge": {"target": [], "time": []}}, "mouseout": {"state": {"target": ["0", "23", "26", "27", "27", "20", "21", "31", "30", "33", "24", "6", "5", "5", "4"], "time": [632, 1769, 1951, 2411, 2482, 4565, 6303, 6503, 6634, 6998, 7048, 7098, 7583, 15384, 15501]}, "edge": {"target": [], "time": []}}}, "displayed_time": "15.47", "trialTime": 16140, "trial_type": "mouselab-mdp", "trial_index": 47, "time_elapsed": 986657, "internal_node_id": "0.0-6.0-1.0-32.0"}}, {"uniqueid": "w19528032:a21170697", "current_trial": 48, "dateTime": 1693661593494, "trialdata": {"revealed_states": [], "clicked_states": ["16", "25", "9"], "num_clicks_accrued": [0, 0, 0, 0, 0, 0, 0, 0, 0, 0, 0, 0, 0], "stateRewards": ["", -2, 4, -3, -13, 63, -36, 62, 11, 78, 34, -51, 2, -2, 8, -6, -40, -18, 31, 9, 64, 39, 79, 1, 4, -4, 15, -12, 76, 73, -10, -77, 86, -4], "withholdReward": false, "trial_id": "mdp_trial_34", "block": "test", "trialIndex": 37, "score": 83.8, "costs": -4.199999999999999, "simulationMode": [null, null, null, null, null], "rewards": [-2, 4, -3, 11, 78], "path": ["0", "0", "1", "2", "3", "8", "9"], "rt": [6759, 53, 51, 9, 39], "actions": ["up", "up", "up", "left", "up"], "actionTimes": [8164, 8732, 9327, 9871, 10448], "queries": {"click": {"state": {"target": ["16", "25", "9"], "time": [1882, 3871, 5814]}, "edge": {"target": [], "time": []}}, "mouseover": {"state": {"target": ["16", "24", "25", "25", "31", "23", "10", "8", "9", "3"], "time": [1430, 2220, 2252, 2553, 4103, 4762, 4860, 4970, 5040, 6071]}, "edge": {"target": [], "time": []}}, "mouseout": {"state": {"target": ["0", "16", "24", "25", "25", "31", "23", "10", "8", "9", "9", "3", "6"], "time": [1427, 2071, 2237, 2287, 4086, 4122, 4791, 4937, 5020, 5912, 6020, 6138, 12856]}, "edge": {"target": [], "time": []}}}, "displayed_time": "15.42", "trialTime": 16133, "trial_type": "mouselab-mdp", "trial_index": 48, "time_elapsed": 1003445, "internal_node_id": "0.0-6.0-1.0-33.0"}}, {"uniqueid": "w19528032:a21170697", "current_trial": 49, "dateTime": 1693661611020, "trialdata": {"revealed_states": [], "clicked_states": ["6", "33", "17"], "num_clicks_accrued": [0, 0, 0, 0, 0, 0, 0, 0, 0, 0, 0, 0, 0], "stateRewards": ["", -2, 2, 8, -6, -25, 3, 87, 2, -62, -2, 74, -2, -1, 2, -1, 79, 49, -37, -14, 5, 67, -9, -1, 2, -2, 5, 15, 38, 32, -14, -38, -38, 30], "withholdReward": false, "trial_id": "mdp_trial_35", "block": "test", "trialIndex": 38, "score": 42.8, "costs": -4.199999999999999, "simulationMode": [null, null, null, null, null], "rewards": [-2, -1, 2, -1, 49], "path": ["0", "0", "12", "13", "14", "15", "17"], "rt": [8326, 492, 103, 89, 21], "actions": ["right", "right", "right", "up", "right"], "actionTimes": [9760, 10762, 11398, 12002, 12564], "queries": {"click": {"state": {"target": ["6", "33", "17"], "time": [2252, 4196, 7547]}, "edge": {"target": [], "time": []}}, "mouseover": {"state": {"target": ["7", "6", "6", "2", "28", "25", "33", "20", "17"], "time": [1792, 1859, 2076, 2442, 2484, 2528, 2715, 5043, 5572]}, "edge": {"target": [], "time": []}}, "mouseout": {"state": {"target": ["16", "0", "7", "6", "6", "2", "28", "25", "33", "20", "17"], "time": [390, 1718, 1811, 1909, 2390, 2463, 2506, 2549, 4464, 5296, 8492]}, "edge": {"target": [], "time": []}}}, "displayed_time": "15.44", "trialTime": 16813, "trial_type": "mouselab-mdp", "trial_index": 49, "time_elapsed": 1020971, "internal_node_id": "0.0-6.0-1.0-34.0"}}, {"uniqueid": "w19528032:a21170697", "current_trial": 50, "dateTime": 1693661628419, "trialdata": {"revealed_states": [], "clicked_states": ["17", "27", "21", "33"], "num_clicks_accrued": [0, 0, 0, 0, 0, 0, 0, 0, 0, 0, 0, 0, 0], "stateRewards": ["", 1, -1, 4, 5, -32, 18, 20, 6, -88, -74, 9, -2, 1, -2, -14, 34, -77, -38, -1, 80, -36, 73, 2, 3, -8, 10, -48, -73, -71, -11, -22, 20, 54], "withholdReward": false, "trial_id": "mdp_trial_36", "block": "test", "trialIndex": 39, "score": 34.4, "costs": -5.6, "simulationMode": [null, null, null, null, null], "rewards": [2, 3, -8, -11, 54], "path": ["0", "0", "23", "24", "25", "30", "33"], "rt": [9059, 54, 87, 37, 96], "actions": ["left", "left", "left", "down", "left"], "actionTimes": [10686, 11279, 11877, 12427, 13018], "queries": {"click": {"state": {"target": ["17", "27", "21", "33"], "time": [2371, 4376, 6304, 8257]}, "edge": {"target": [], "time": []}}, "mouseover": {"state": {"target": ["12", "18", "15", "17", "15", "26", "27", "10", "1", "13", "21", "32", "33", "30", "2", "4", "5"], "time": [1644, 1721, 1837, 2120, 2518, 2701, 2953, 4720, 4748, 4775, 5173, 6876, 7169, 8591, 8695, 8741, 8839]}, "edge": {"target": [], "time": []}}, "mouseout": {"state": {"target": ["17", "15", "18", "12", "12", "18", "15", "17", "15", "26", "27", "10", "1", "13", "21", "32", "33", "30", "2", "4", "5", "4", "7", "12"], "time": [707, 801, 885, 1035, 1651, 1754, 2022, 2444, 2534, 2851, 4465, 4743, 4769, 4797, 6591, 6973, 8570, 8660, 8722, 8761, 14822, 15389, 15439, 16155]}, "edge": {"target": [], "time": []}}}, "displayed_time": "15.63", "trialTime": 16756, "trial_type": "mouselab-mdp", "trial_index": 50, "time_elapsed": 1038370, "internal_node_id": "0.0-6.0-1.0-35.0"}}, {"uniqueid": "w19528032:a21170697", "current_trial": 51, "dateTime": 1693661647923, "trialdata": {"revealed_states": [], "clicked_states": ["6", "29", "20", "32"], "num_clicks_accrued": [0, 0, 0, 0, 0, 0, 0, 0, 0, 0, 0, 0, 0], "stateRewards": ["", -2, 1, -7, -8, -37, -76, -87, 11, 30, -63, 80, -1, 4, 2, -1, 42, 17, 52, -3, -75, -80, -68, 2, -3, -5, -15, -48, 82, 24, -7, 5, -22, -71], "withholdReward": false, "trial_id": "mdp_trial_37", "block": "test", "trialIndex": 40, "score": -2.6000000000000014, "costs": -5.6, "simulationMode": [null, null, null, null, null], "rewards": [2, -3, -5, -15, 24], "path": ["0", "0", "23", "24", "25", "26", "29"], "rt": [9243, 130, 101, 24, 10], "actions": ["left", "left", "left", "up", "left"], "actionTimes": [10439, 11103, 11753, 12301, 12828], "queries": {"click": {"state": {"target": ["6", "29", "20", "32"], "time": [1711, 3949, 5933, 8807]}, "edge": {"target": [], "time": []}}, "mouseover": {"state": {"target": ["6", "4", "3", "29", "33", "29", "26", "12", "20", "32"], "time": [1479, 1845, 1863, 1942, 2192, 3761, 4108, 4142, 4478, 8412]}, "edge": {"target": [], "time": []}}, "mouseout": {"state": {"target": ["0", "6", "4", "3", "29", "33", "29", "26", "12", "20", "32"], "time": [710, 1841, 1860, 1879, 1977, 3661, 4020, 4125, 4160, 7749, 8976]}, "edge": {"target": [], "time": []}}}, "displayed_time": "15.20", "trialTime": 18817, "trial_type": "mouselab-mdp", "trial_index": 51, "time_elapsed": 1057874, "internal_node_id": "0.0-6.0-1.0-36.0"}}, {"uniqueid": "w19528032:a21170697", "current_trial": 52, "dateTime": 1693661664759, "trialdata": {"revealed_states": [], "clicked_states": ["6"], "num_clicks_accrued": [0, 0, 0, 0, 0, 0, 0, 0, 0, 0, 0, 0, 0], "stateRewards": ["", 2, -1, -4, -13, 74, 77, 3, 2, -43, -2, -11, 2, 3, 7, 11, -26, -29, -33, -3, -3, -13, -3, 1, 3, -7, 14, -59, 33, 9, -5, 34, 79, 68], "withholdReward": false, "trial_id": "mdp_trial_38", "block": "test", "trialIndex": 41, "score": 59.6, "costs": -1.4, "simulationMode": [null, null, null, null, null], "rewards": [2, -1, -4, -13, 77], "path": ["0", "0", "1", "2", "3", "4", "6"], "rt": [2976, 513, 89, 106, 42], "actions": ["up", "up", "up", "right", "right"], "actionTimes": [4177, 5228, 5877, 6508, 7082], "queries": {"click": {"state": {"target": ["6"], "time": [1767]}, "edge": {"target": [], "time": []}}, "mouseover": {"state": {"target": ["6", "25", "33"], "time": [1396, 2045, 2427]}, "edge": {"target": [], "time": []}}, "mouseout": {"state": {"target": ["0", "6", "25"], "time": [827, 1910, 2077]}, "edge": {"target": [], "time": []}}}, "displayed_time": "15.21", "trialTime": 15970, "trial_type": "mouselab-mdp", "trial_index": 52, "time_elapsed": 1074710, "internal_node_id": "0.0-6.0-1.0-37.0"}}, {"uniqueid": "w19528032:a21170697", "current_trial": 53, "dateTime": 1693661681349, "trialdata": {"revealed_states": [], "clicked_states": ["11", "20", "33"], "num_clicks_accrued": [0, 0, 0, 0, 0, 0, 0, 0, 0, 0, 0, 0, 0], "stateRewards": ["", 2, -4, 4, 9, 69, 9, -75, 12, -86, 66, 25, -1, 3, 2, -13, -88, -3, 1, 4, -69, 49, -84, 2, -1, 4, 2, -18, -81, -52, -15, -69, -54, 25], "withholdReward": false, "trial_id": "mdp_trial_39", "block": "test", "trialIndex": 42, "score": 10.8, "costs": -4.199999999999999, "simulationMode": [null, null, null, null, null], "rewards": [2, -1, 4, -15, 25], "path": ["0", "0", "23", "24", "25", "30", "33"], "rt": [7820, 30, 71, 63, 93], "actions": ["left", "left", "left", "down", "left"], "actionTimes": [8979, 9556, 10130, 10709, 11318], "queries": {"click": {"state": {"target": ["11", "20", "33"], "time": [2082, 4071, 6033]}, "edge": {"target": [], "time": []}}, "mouseover": {"state": {"target": ["10", "8", "9", "11", "20", "31", "30", "33", "29", "27"], "time": [1214, 1265, 1535, 1884, 2586, 4669, 4766, 4899, 6668, 7164]}, "edge": {"target": [], "time": []}}, "mouseout": {"state": {"target": ["31", "23", "0", "10", "8", "9", "11", "11", "20", "31", "30", "33", "29", "27"], "time": [399, 649, 1179, 1248, 1282, 1752, 2150, 2198, 4352, 4709, 4808, 6553, 7041, 12119]}, "edge": {"target": [], "time": []}}}, "displayed_time": "15.16", "trialTime": 15933, "trial_type": "mouselab-mdp", "trial_index": 53, "time_elapsed": 1091300, "internal_node_id": "0.0-6.0-1.0-38.0"}}, {"uniqueid": "w19528032:a21170697", "current_trial": 54, "dateTime": 1693661698854, "trialdata": {"revealed_states": [], "clicked_states": ["16", "25", "6", "11"], "num_clicks_accrued": [0, 0, 0, 0, 0, 0, 0, 0, 0, 0, 0, 0, 0], "stateRewards": ["", 2, -1, -3, 16, -3, -16, -62, -1, 13, -26, 43, -1, 4, 3, -9, -54, -37, -3, -12, -71, -68, -57, 1, -3, 2, -9, 2, -2, -9, -11, 84, -52, 55], "withholdReward": false, "trial_id": "mdp_trial_40", "block": "test", "trialIndex": 43, "score": 34.4, "costs": -5.6, "simulationMode": [null, null, null, null, null], "rewards": [2, -1, -3, -1, 43], "path": ["0", "0", "1", "2", "3", "8", "11"], "rt": [9838, 11, 11, 10, 12], "actions": ["up", "up", "up", "left", "left"], "actionTimes": [11183, 11724, 12269, 12809, 13358], "queries": {"click": {"state": {"target": ["16", "25", "6", "11"], "time": [2276, 4219, 7019, 9331]}, "edge": {"target": [], "time": []}}, "mouseover": {"state": {"target": ["16", "28", "25", "26", "10", "2", "4", "6", "12", "11"], "time": [2076, 2576, 2757, 6409, 6476, 6549, 6644, 6877, 7424, 9194]}, "edge": {"target": [], "time": []}}, "mouseout": {"state": {"target": ["16", "28", "25", "26", "10", "2", "4", "6", "12", "11"], "time": [2407, 2624, 4743, 6432, 6526, 6573, 6668, 7207, 7456, 9493]}, "edge": {"target": [], "time": []}}}, "displayed_time": "15.36", "trialTime": 16911, "trial_type": "mouselab-mdp", "trial_index": 54, "time_elapsed": 1108804, "internal_node_id": "0.0-6.0-1.0-39.0"}}, {"uniqueid": "w19528032:a21170697", "current_trial": 55, "dateTime": 1693661742650, "trialdata": {"rt": 43787, "response": {"Q0": "$-16 to 16", "Q1": "$-4 to $4", "Q2": "$-88 to $88", "Q3": "The cost was always $1.4.", "Q4": "Very motivated"}, "question_order": [0, 1, 2, 3, 4], "trial_id": "final_quiz_control", "trial_type": "survey-multi-choice", "trial_index": 55, "time_elapsed": 1152602, "internal_node_id": "0.0-6.0-2.0"}}, {"uniqueid": "w19528032:a21170697", "current_trial": 56, "dateTime": 1693661835531, "trialdata": {"rt": 92864, "response": {"Q0": "At first, I was going for luck but once I got -$94 I changed tactics. I clicked two or three last nodes and if it was high and green - go!", "Q1": "As mentioned before, I tried to click the last node and go for the highest, if not rely on my gut which didn't always work.", "Q2": "Very difficult as it was random, and one point I thought the map was mirrored - if one side had -54 the other side would be 54 but that wasn't the case!"}, "trial_id": "self_report_control", "trial_type": "survey-text", "trial_index": 56, "time_elapsed": 1245483, "internal_node_id": "0.0-6.0-3.0"}}, {"uniqueid": "w19528032:a21170697", "current_trial": 57, "dateTime": 1693661848546, "trialdata": {"rt": 13007, "response": {"gender": "female", "age": "26", "colorblind": "0", "effort": "0"}, "trial_type": "survey-html-form", "trial_index": 57, "time_elapsed": 1258497, "internal_node_id": "0.0-6.0-4.0"}}, {"uniqueid": "w19528032:a21170697", "current_trial": 58, "dateTime": 1693661898089, "trialdata": {"rt": 49536, "response": {"Q0": "The mechanism of the node searching, I thought I could click once and have three seconds to search - like a sweep but after a few attempts (and money spent) I got it", "Q1": "No!", "Q2": "That spider is adorable"}, "trial_type": "survey-text", "trial_index": 58, "time_elapsed": 1308041, "internal_node_id": "0.0-6.0-5.0"}}, {"uniqueid": "w19528032:a21170697", "current_trial": 59, "dateTime": 1693661923180, "trialdata": {"rt": 25081, "stimulus": "<h1>Completion Code Instructions (1/2)</h1>\n<br><br><br><br>\nYou have reached the end of the experiment! The completion code consists of two parts: (1) a code with 2 characters (2) a code with 6 characters. On this page, you will receive the second part of the code. The first part of the completion code will be on the next page.\n<br><br>\nThe second part of your completion code is: <b>EWEK22</b>\n<br><br>\nPlease note this down. Then, press 'Next' in order to find the first part of your completion code. Once the data has been saved, you will receive this code either in this window or in the original browser window where you started the experiment.\n <br><br>\n<h2 style='color: red;'>Note: this is <strong>NOT</strong> the full completion code. Copy this down and click 'Next' to get the full completion code on the next page.</h2>", "response": 0, "trial_type": "html-button-response", "trial_index": 59, "time_elapsed": 1333132, "internal_node_id": "0.0-6.0-6.0"}}, {"uniqueid": "w19528032:a21170697", "current_trial": 60, "dateTime": 1693661924194, "trialdata": {"success": true, "trial_type": "fullscreen", "trial_index": 60, "time_elapsed": 1334145, "internal_node_id": "0.0-7.0"}}], "questiondata": {"params": {"CODE": "C6DMOQA6", "MIN_TIME": 14, "inspectCost": 1, "startTime": "Sat Sep 02 2023 14:16:29 GMT+0100 (British Summer Time)", "bonusRate": 0.002, "variance": "1_2_4_8_44", "branching": "31123"}, "final_score": 1031.6}, "eventdata": [{"eventtype": "initialized", "value": null, "timestamp": 1693660588246, "interval": 0}, {"eventtype": "window_resize", "value": [1028, 752], "timestamp": 1693660588246, "interval": 0}, {"eventtype": "window_resize", "value": [1028, 752], "timestamp": 1693660588795, "interval": 549}, {"eventtype": "window_resize", "value": [1536, 766], "timestamp": 1693660598046, "interval": 9251}, {"eventtype": "window_resize", "value": [1536, 864], "timestamp": 1693660599626, "interval": 1580}, {"eventtype": "focus", "value": "off", "timestamp": 1693660862282, "interval": 262656}, {"eventtype": "focus", "value": "on", "timestamp": 1693660862282, "interval": 0}, {"eventtype": "window_resize", "value": [1536, 766], "timestamp": 1693660862494, "interval": 212}, {"eventtype": "window_resize", "value": [1536, 864], "timestamp": 1693660864485, "interval": 1991}, {"eventtype": "window_resize", "value": [1536, 766], "timestamp": 1693661923423, "interval": 1058938}], "useragent": "Mozilla/5.0 (Windows NT 10.0; Win64; x64) AppleWebKit/537.36 (KHTML, like Gecko) Chrome/116.0.0.0 Safari/537.36", "mode": "live", "id": "w19528032:a21170697", "status": "user data saved", "Beginhit": "2023-09-02 13:16:27.606045", "Beginexp": "2023-09-02 13:16:41.150619", "Endhit": "2023-09-02 13:38:45.541795", "psiturkStatus": 3, "browser": "<redacted>", "platform": "windows", "language": "en-US"}