{"condition": 1, "counterbalance": 0, "assignmentId": "a21439250", "workerId": "w62896769", "hitId": "h44816070", "currenttrial": 56, "bonus": 0, "data": [{"uniqueid": "w62896769:a21439250", "current_trial": 0, "dateTime": 1691142050835, "trialdata": {"success": true, "trial_type": "fullscreen", "trial_index": 0, "time_elapsed": 52553, "internal_node_id": "0.0-0.0"}}, {"uniqueid": "w62896769:a21439250", "current_trial": 1, "dateTime": 1691142131350, "trialdata": {"view_history": [{"page_index": 0, "viewing_time": 80509}], "rt": 80511, "trial_id": "exp_instructions_misaligned", "trial_type": "instructions", "trial_index": 1, "time_elapsed": 133068, "internal_node_id": "0.0-1.0"}}, {"uniqueid": "w62896769:a21439250", "current_trial": 2, "dateTime": 1691142171813, "trialdata": {"success": true, "trial_type": "fullscreen", "trial_index": 2, "time_elapsed": 173531, "internal_node_id": "0.0-2.0-0.0"}}, {"uniqueid": "w62896769:a21439250", "current_trial": 3, "dateTime": 1691142569610, "trialdata": {"view_history": [{"page_index": 0, "viewing_time": 130321}, {"page_index": 1, "viewing_time": 180600}, {"page_index": 2, "viewing_time": 29154}, {"page_index": 3, "viewing_time": 57720}], "rt": 397796, "trial_id": "mouselab_instructions_1_misaligned", "trial_type": "instructions", "trial_index": 3, "time_elapsed": 571327, "internal_node_id": "0.0-2.0-1.0"}}, {"uniqueid": "w62896769:a21439250", "current_trial": 4, "dateTime": 1691142684130, "trialdata": {"revealed_states": [], "clicked_states": ["23", "24", "25", "26", "28", "29", "30", "32", "31", "33", "27", "12", "14", "13", "19", "21", "20", "22", "15", "17", "18", "16", "1", "2", "3", "8", "11", "10", "9", "7", "4", "5", "6"], "num_clicks_accrued": [0, 0, 0, 0, 0, 0, 0, 0, 0, 0, 0, 0, 0], "stateRewards": ["", -10, 10, 10, -10, -10, 10, -10, -10, -10, 10, 10, -10, -10, -10, -10, -10, -10, -10, 10, 10, 10, -10, -10, 10, -10, -10, -10, 10, -10, 10, 10, 10, 10], "withholdReward": false, "trial_id": "practice_1", "block": "test", "trialIndex": 0, "score": -43, "costs": -16.5, "simulationMode": [null, null, null, null, null], "rewards": [-10, 10, -10, -10, -10], "path": ["0", "0", "23", "24", "25", "26", "27"], "rt": [102756, 283, 418, 70, 102], "actions": ["left", "left", "left", "up", "up"], "actionTimes": [103502, 104276, 105195, 105763, 106362], "queries": {"click": {"state": {"target": ["23", "24", "25", "26", "28", "29", "30", "32", "31", "33", "27", "12", "14", "13", "19", "21", "20", "22", "15", "17", "18", "16", "1", "2", "3", "8", "11", "10", "9", "7", "4", "5", "6"], "time": [2317, 6344, 11030, 12928, 17421, 22509, 25933, 29498, 31961, 33280, 34381, 39261, 41097, 42127, 43419, 49428, 52661, 59785, 64012, 66459, 69256, 71424, 73759, 75858, 77190, 78360, 79671, 80931, 82231, 83784, 85490, 87460, 88785]}, "edge": {"target": [], "time": []}}, "mouseover": {"state": {"target": ["23", "24", "23", "24", "25", "24", "25", "26", "28", "28", "0", "24", "27", "29", "23", "24", "25", "30", "32", "32", "31", "30", "33", "26", "27", "26", "24", "23", "0", "12", "13", "14", "13", "19", "21", "20", "13", "12", "12", "13", "14", "19", "19", "13", "12", "13", "14", "19", "20", "19", "22", "19", "15", "17", "17", "15", "18", "16", "1", "2", "3", "8", "11", "10", "9", "3", "7", "4", "5", "6", "7", "0", "24", "23", "24", "25", "26", "29", "26", "23", "19", "21"], "time": [1122, 1272, 2056, 2557, 3958, 5392, 7210, 11515, 13433, 14717, 17636, 20955, 21493, 22256, 22707, 24525, 24975, 25593, 26443, 27461, 31081, 32549, 32899, 33966, 34251, 35001, 35184, 35234, 35334, 38953, 39704, 40821, 41958, 42807, 43825, 52114, 54683, 54750, 55052, 55117, 55517, 56005, 56918, 57068, 57318, 57853, 57919, 58286, 58486, 59370, 59554, 60238, 63691, 64208, 66060, 68245, 68770, 70280, 73398, 74033, 76752, 78103, 79420, 80388, 81839, 82940, 83273, 84308, 86126, 88128, 90563, 91697, 94066, 94333, 95202, 95617, 96118, 96819, 96852, 96885, 96935, 99320]}, "edge": {"target": [], "time": []}}, "mouseout": {"state": {"target": ["0", "23", "24", "23", "24", "25", "24", "25", "26", "28", "28", "0", "24", "28", "27", "29", "23", "24", "25", "30", "30", "32", "32", "31", "30", "33", "26", "27", "26", "24", "23", "0", "12", "13", "14", "13", "19", "19", "21", "20", "13", "12", "12", "13", "14", "19", "19", "13", "12", "13", "14", "19", "20", "19", "22", "19", "15", "17", "17", "15", "18", "16", "16", "1", "2", "3", "8", "11", "10", "8", "9", "3", "7", "4", "5", "6", "7", "0", "24", "23", "24", "25", "26", "29", "26", "23", "19", "21"], "time": [1105, 1222, 1906, 2507, 3174, 5260, 7011, 11297, 13316, 13999, 17586, 19554, 21022, 21205, 21906, 22623, 24389, 24575, 25542, 25997, 26276, 26843, 29729, 32499, 32615, 33766, 34034, 34883, 35067, 35217, 35284, 38836, 39571, 40371, 41840, 42691, 43512, 43708, 50096, 54583, 54716, 54800, 55083, 55400, 55767, 56084, 56968, 57152, 57352, 57886, 58186, 58453, 59137, 59404, 60205, 60272, 64191, 64258, 68211, 68294, 69513, 71517, 72898, 73761, 76384, 78037, 79221, 80288, 81455, 81689, 82823, 82990, 84208, 85992, 88061, 90279, 90663, 93097, 94282, 95100, 95600, 96067, 96234, 96835, 96868, 96901, 96968, 99554]}, "edge": {"target": [], "time": []}}}, "displayed_time": "106.86", "trialTime": 113357, "trial_type": "mouselab-mdp", "trial_index": 4, "time_elapsed": 685848, "internal_node_id": "0.0-2.0-2.0-0.0"}}, {"uniqueid": "w62896769:a21439250", "current_trial": 5, "dateTime": 1691142700119, "trialdata": {"revealed_states": [], "clicked_states": [], "num_clicks_accrued": [0, 0, 0, 0, 0, 0, 0, 0, 0, 0, 0, 0, 0], "stateRewards": ["", -10, 10, -10, 10, -10, 10, -10, -10, 10, -10, -10, -10, 10, -10, -10, -10, 10, -10, 10, 10, -10, 10, -10, 10, -10, 10, 10, -10, -10, 10, -10, 10, -10], "withholdReward": false, "trial_id": "practice_2", "block": "test", "trialIndex": 1, "score": -6.5, "costs": 0, "simulationMode": [null, null, null, null, null], "rewards": [-10, 10, -10, 10, -10], "path": ["0", "0", "1", "2", "3", "4", "5"], "rt": [2660, 182, 522, 125, 471], "actions": ["up", "up", "up", "right", "up"], "actionTimes": [6103, 6776, 7800, 8421, 9383], "queries": {"click": {"state": {"target": [], "time": []}, "edge": {"target": [], "time": []}}, "mouseover": {"state": {"target": ["12", "13", "14"], "time": [3523, 3541, 3573]}, "edge": {"target": [], "time": []}}, "mouseout": {"state": {"target": ["15", "12", "12", "13", "14"], "time": [2600, 2972, 3540, 3557, 4090]}, "edge": {"target": [], "time": []}}}, "displayed_time": "9.88", "trialTime": 15901, "trial_type": "mouselab-mdp", "trial_index": 5, "time_elapsed": 701836, "internal_node_id": "0.0-2.0-2.0-1.0"}}, {"uniqueid": "w62896769:a21439250", "current_trial": 6, "dateTime": 1691142799882, "trialdata": {"view_history": [{"page_index": 0, "viewing_time": 85495}, {"page_index": 1, "viewing_time": 14266}], "rt": 99761, "trial_id": "mouselab_instructions_2_misaligned", "trial_type": "instructions", "trial_index": 6, "time_elapsed": 801599, "internal_node_id": "0.0-2.0-3.0"}}, {"uniqueid": "w62896769:a21439250", "current_trial": 7, "dateTime": 1691142867701, "trialdata": {"rt": 67816, "response": {"Q0": "The cost for clicking on nodes may vary between nodes.", "Q1": "The better I perform the higher my bonus will be.", "Q2": "No, the amount of cash at each node of the web may be different each time.", "Q3": "To get the highest total score.", "Q4": "Only before moving the spider.", "Q5": "3 seconds"}, "question_order": [0, 1, 2, 3, 4, 5], "correct": {"Q0": "The cost for clicking on nodes may vary between nodes.", "Q1": "The better I perform the higher my bonus will be.", "Q2": "No, the amount of cash at each node of the web may be different each time.", "Q3": "To get the highest total score.", "Q4": "Only before moving the spider.", "Q5": "3 seconds"}, "trial_id": "mouselab_quiz_misaligned", "trial_type": "survey-multi-choice", "trial_index": 7, "time_elapsed": 869419, "internal_node_id": "0.0-2.0-4.0"}}, {"uniqueid": "w62896769:a21439250", "current_trial": 8, "dateTime": 1691142898315, "trialdata": {"rt": 30608, "stimulus": "\n<h1> Get ready to start the game! </h1>\n\nThank you for reading the instructions. Get ready start with the 40 rounds of this game.\n<br><br>\nIf you need to take a break, feel free to take one after the end of a round, before continuing to the next one.\n<br><br>\nRemember, the more money the spider gets, the bigger your bonus will be!\n<br><br>\n<div style='text-align: center;'>Press <code>space</code> to begin.</div>\n\n<br><br>\n(If, at any point, the <code>space</code> key does not take you to the next page, click once on the text and try again.)", "response": " ", "trial_id": "mdp_ready", "trial_type": "html-keyboard-response", "trial_index": 8, "time_elapsed": 900033, "internal_node_id": "0.0-4.0-0.0"}}, {"uniqueid": "w62896769:a21439250", "current_trial": 9, "dateTime": 1691142920145, "trialdata": {"revealed_states": [], "clicked_states": [], "num_clicks_accrued": [0, 0, 0, 0, 0, 0, 0, 0, 0, 0, 0, 0, 0], "stateRewards": ["", -2, -3, -5, 8, 27, 11, 43, -6, -24, -87, 69, -2, 1, 1, 9, 19, 48, -37, 9, -14, 45, 62, 1, 2, 1, 16, -81, -41, 22, 4, -6, -63, 47], "withholdReward": false, "trial_id": "mdp_trial_1", "block": "test", "trialIndex": 2, "score": -103, "costs": 0, "simulationMode": [null, null, null, null, null], "rewards": [-2, -3, -5, -6, -87], "path": ["0", "0", "1", "2", "3", "8", "10"], "rt": [5091, 311, 369, 265, 182], "actions": ["up", "up", "up", "left", "down"], "actionTimes": [8116, 8922, 9780, 10543, 11227], "queries": {"click": {"state": {"target": [], "time": []}, "edge": {"target": [], "time": []}}, "mouseover": {"state": {"target": ["1", "2", "1"], "time": [5674, 5806, 6624]}, "edge": {"target": [], "time": []}}, "mouseout": {"state": {"target": ["15", "14", "19", "22", "0", "1", "2", "1"], "time": [702, 853, 935, 1220, 5577, 5742, 6574, 12955]}, "edge": {"target": [], "time": []}}}, "displayed_time": "17.02", "trialTime": 21731, "trial_type": "mouselab-mdp", "trial_index": 9, "time_elapsed": 921863, "internal_node_id": "0.0-4.0-1.0-0.0"}}, {"uniqueid": "w62896769:a21439250", "current_trial": 10, "dateTime": 1691142943434, "trialdata": {"revealed_states": [], "clicked_states": [], "num_clicks_accrued": [0, 0, 0, 0, 0, 0, 0, 0, 0, 0, 0, 0, 0], "stateRewards": ["", -2, -1, 3, -3, 71, -58, -21, 7, -10, -75, -37, 2, 4, -1, -12, -79, -29, -48, 3, -41, -10, -30, -1, -2, 1, -15, 13, 66, 22, -1, -42, -86, -55], "withholdReward": false, "trial_id": "mdp_trial_2", "block": "test", "trialIndex": 3, "score": -36, "costs": 0, "simulationMode": [null, null, null, null, null], "rewards": [2, 4, -1, -12, -29], "path": ["0", "0", "12", "13", "14", "15", "17"], "rt": [1643, 376, 384, 160, 112], "actions": ["right", "right", "right", "up", "right"], "actionTimes": [5296, 6176, 7050, 7712, 8314], "queries": {"click": {"state": {"target": [], "time": []}, "edge": {"target": [], "time": []}}, "mouseover": {"state": {"target": [], "time": []}, "edge": {"target": [], "time": []}}, "mouseout": {"state": {"target": ["14", "13", "12", "0", "12", "13", "14"], "time": [2144, 2177, 2512, 21059, 21077, 21360, 21444]}, "edge": {"target": [], "time": []}}}, "displayed_time": "17.66", "trialTime": 23193, "trial_type": "mouselab-mdp", "trial_index": 10, "time_elapsed": 945152, "internal_node_id": "0.0-4.0-1.0-1.0"}}, {"uniqueid": "w62896769:a21439250", "current_trial": 11, "dateTime": 1691142968843, "trialdata": {"revealed_states": [], "clicked_states": ["1", "23", "12"], "num_clicks_accrued": [0, 0, 0, 0, 0, 0, 0, 0, 0, 0, 0, 0, 0], "stateRewards": ["", -2, 2, -5, -6, 10, -66, -58, -10, -11, -63, -70, -1, -4, -5, 7, 66, -64, -43, -3, 45, -37, 4, -2, -2, -6, -4, -30, 33, 43, 15, -32, -65, -59], "withholdReward": false, "trial_id": "mdp_trial_3", "block": "test", "trialIndex": 4, "score": -45.25, "costs": 0.75, "simulationMode": [null, null, null, null, null], "rewards": [-1, -4, -5, 7, -43], "path": ["0", "0", "12", "13", "14", "15", "18"], "rt": [6425, 4360, 1203, 71, 99], "actions": ["right", "right", "right", "up", "left"], "actionTimes": [7683, 12534, 14232, 14800, 15396], "queries": {"click": {"state": {"target": ["1", "23", "12"], "time": [1918, 3864, 5524]}, "edge": {"target": [], "time": []}}, "mouseover": {"state": {"target": ["1", "23", "12"], "time": [1734, 2335, 5120]}, "edge": {"target": [], "time": []}}, "mouseout": {"state": {"target": ["12", "0", "1", "23", "12", "22", "13", "19"], "time": [666, 1567, 2185, 4070, 5638, 8491, 9174, 9240]}, "edge": {"target": [], "time": []}}}, "displayed_time": "15.90", "trialTime": 25306, "trial_type": "mouselab-mdp", "trial_index": 11, "time_elapsed": 970561, "internal_node_id": "0.0-4.0-1.0-2.0"}}, {"uniqueid": "w62896769:a21439250", "current_trial": 12, "dateTime": 1691142990389, "trialdata": {"revealed_states": [], "clicked_states": [], "num_clicks_accrued": [0, 0, 0, 0, 0, 0, 0, 0, 0, 0, 0, 0, 0], "stateRewards": ["", -1, 2, 5, -6, 13, -64, -47, 8, -79, -80, -33, 1, 2, -2, -16, 56, -71, -10, 3, 29, 44, 85, -1, 4, 5, 4, -36, -56, 19, 8, 52, -13, -2], "withholdReward": false, "trial_id": "mdp_trial_4", "block": "test", "trialIndex": 5, "score": -24, "costs": 0, "simulationMode": [null, null, null, null, null], "rewards": [-1, 4, 5, 4, -36], "path": ["0", "0", "23", "24", "25", "26", "27"], "rt": [6810, 1832, 896, 888, 185], "actions": ["left", "left", "left", "up", "up"], "actionTimes": [8801, 11137, 12537, 13913, 14594], "queries": {"click": {"state": {"target": [], "time": []}, "edge": {"target": [], "time": []}}, "mouseover": {"state": {"target": ["23", "23", "24", "23", "24", "25", "24", "23", "0"], "time": [2615, 2877, 4032, 4399, 4867, 5167, 6568, 6652, 6836]}, "edge": {"target": [], "time": []}}, "mouseout": {"state": {"target": ["0", "23", "23", "24", "23", "24", "25", "24", "23"], "time": [2565, 2716, 3982, 4367, 4800, 5017, 6519, 6619, 6702]}, "edge": {"target": [], "time": []}}}, "displayed_time": "15.99", "trialTime": 21445, "trial_type": "mouselab-mdp", "trial_index": 12, "time_elapsed": 992107, "internal_node_id": "0.0-4.0-1.0-3.0"}}, {"uniqueid": "w62896769:a21439250", "current_trial": 13, "dateTime": 1691143009067, "trialdata": {"revealed_states": [], "clicked_states": ["24", "13", "14", "16", "1", "3", "30"], "num_clicks_accrued": [0, 0, 0, 0, 0, 0, 0, 0, 0, 0, 0, 0, 0], "stateRewards": ["", -2, 4, -7, -3, -76, 39, -28, 10, 14, 12, 60, 2, -3, 6, -10, 88, -34, -41, -3, 72, -13, -56, 1, 3, 2, 8, -51, 23, -57, 1, 14, -46, -16], "withholdReward": false, "trial_id": "mdp_trial_5", "block": "test", "trialIndex": 6, "score": -42.05, "costs": -6.05, "simulationMode": [null, null, null, null, null], "rewards": [-2, 4, -7, -3, -28], "path": ["0", "0", "1", "2", "3", "4", "7"], "rt": [10145, 349, 161, 135, 1334], "actions": ["up", "up", "up", "right", "down"], "actionTimes": [11484, 12324, 12986, 13611, 15443], "queries": {"click": {"state": {"target": ["24", "13", "14", "16", "1", "3", "30"], "time": [2037, 2602, 3058, 3663, 7471, 8481, 10109]}, "edge": {"target": [], "time": []}}, "mouseover": {"state": {"target": ["23", "24", "23", "0", "12", "13", "14", "15", "16", "7", "2", "1", "0", "1", "2", "3", "7", "23", "24", "30", "31"], "time": [1564, 1865, 2165, 2200, 2232, 2315, 2799, 3366, 3566, 3966, 4016, 5518, 6002, 7085, 8037, 8303, 8704, 9421, 9504, 9838, 10255]}, "edge": {"target": [], "time": []}}, "mouseout": {"state": {"target": ["0", "23", "24", "23", "0", "12", "13", "14", "15", "16", "7", "2", "1", "0", "1", "2", "3", "7", "23", "24", "30", "31"], "time": [1515, 1698, 2148, 2199, 2215, 2265, 2749, 3216, 3483, 3867, 3999, 5451, 5651, 6952, 7545, 8186, 8654, 8754, 9471, 9521, 10239, 10272]}, "edge": {"target": [], "time": []}}}, "displayed_time": "15.94", "trialTime": 18571, "trial_type": "mouselab-mdp", "trial_index": 13, "time_elapsed": 1010784, "internal_node_id": "0.0-4.0-1.0-4.0"}}, {"uniqueid": "w62896769:a21439250", "current_trial": 14, "dateTime": 1691143065477, "trialdata": {"revealed_states": [], "clicked_states": [], "num_clicks_accrued": [0, 0, 0, 0, 0, 0, 0, 0, 0, 0, 0, 0, 0], "stateRewards": ["", 1, -4, 6, -3, 40, 76, -51, 5, -24, -63, 44, -2, -2, 8, 1, 76, -85, -58, 10, 59, 20, 11, -2, 3, -3, 3, -82, -10, 54, -7, -57, -6, -32], "withholdReward": false, "trial_id": "mdp_trial_6", "block": "test", "trialIndex": 7, "score": -41, "costs": 0, "simulationMode": [null, null, null, null, null], "rewards": [-2, 3, -3, -7, -32], "path": ["0", "0", "23", "24", "25", "30", "33"], "rt": [1225, 234, 997, 279, 474], "actions": ["left", "left", "left", "down", "left"], "actionTimes": [16346, 17072, 18569, 19369, 20330], "queries": {"click": {"state": {"target": [], "time": []}, "edge": {"target": [], "time": []}}, "mouseover": {"state": {"target": [], "time": []}, "edge": {"target": [], "time": []}}, "mouseout": {"state": {"target": ["12", "18", "16", "0", "14", "13", "31", "15"], "time": [1856, 1956, 2091, 14898, 48979, 49046, 49363, 54702]}, "edge": {"target": [], "time": []}}}, "displayed_time": "29.12", "trialTime": 56308, "trial_type": "mouselab-mdp", "trial_index": 14, "time_elapsed": 1067195, "internal_node_id": "0.0-4.0-1.0-5.0"}}, {"uniqueid": "w62896769:a21439250", "current_trial": 15, "dateTime": 1691143088971, "trialdata": {"revealed_states": [], "clicked_states": ["23", "25", "32"], "num_clicks_accrued": [0, 0, 0, 0, 0, 0, 0, 0, 0, 0, 0, 0, 0], "stateRewards": ["", -2, -4, 4, -11, -63, -60, -7, 2, -14, 81, -43, -1, -1, -5, 7, 10, 69, 40, 8, -83, 52, 60, 1, 2, 5, -5, 16, 64, 14, -3, 29, 7, -51], "withholdReward": false, "trial_id": "mdp_trial_7", "block": "test", "trialIndex": 8, "score": 14.15, "costs": -2.8499999999999996, "simulationMode": [null, null, null, null, null, null], "rewards": [1, 2, 5, -5, 14], "path": ["0", "0", "23", "24", "25", "26", "29"], "rt": [7382, 3174, 309, 229, 136, 398], "actions": ["left", "left", "left", "left", "up", "left"], "actionTimes": [11065, 14240, 15042, 15762, 16387, 17282], "queries": {"click": {"state": {"target": ["23", "25", "32"], "time": [5244, 7216, 8527]}, "edge": {"target": [], "time": []}}, "mouseover": {"state": {"target": ["23", "0", "12", "12", "24", "25", "30", "32", "24", "26", "27", "28", "23"], "time": [4456, 5424, 5524, 6358, 6575, 6742, 7960, 8259, 9144, 9177, 9444, 10161, 12029]}, "edge": {"target": [], "time": []}}, "mouseout": {"state": {"target": ["0", "23", "0", "12", "12", "23", "24", "25", "30", "32", "24", "26", "27", "28", "23", "0"], "time": [4106, 5391, 5459, 5608, 6508, 6558, 6708, 7893, 8110, 8602, 9161, 9244, 10095, 10178, 12481, 21654]}, "edge": {"target": [], "time": []}}}, "displayed_time": "17.79", "trialTime": 23387, "trial_type": "mouselab-mdp", "trial_index": 15, "time_elapsed": 1090689, "internal_node_id": "0.0-4.0-1.0-6.0"}}, {"uniqueid": "w62896769:a21439250", "current_trial": 16, "dateTime": 1691143111635, "trialdata": {"revealed_states": [], "clicked_states": ["14", "4", "25"], "num_clicks_accrued": [0, 0, 0, 0, 0, 0, 0, 0, 0, 0, 0, 0, 0], "stateRewards": ["", 1, -1, 8, 4, 76, -33, -17, -3, -1, -54, -74, -2, 2, -5, 13, -51, 63, 83, 1, 84, 29, -36, 2, -1, 7, -12, -10, -44, -43, -14, 8, -69, 19], "withholdReward": false, "trial_id": "mdp_trial_8", "block": "test", "trialIndex": 9, "score": 0.5499999999999998, "costs": -3.45, "simulationMode": [null, null, null, null, null], "rewards": [1, -1, 8, -3, -1], "path": ["0", "0", "1", "2", "3", "8", "9"], "rt": [6037, 56, 203, 157, 787], "actions": ["up", "up", "up", "left", "up"], "actionTimes": [11023, 11591, 12288, 12943, 14224], "queries": {"click": {"state": {"target": ["14", "4", "25"], "time": [5843, 6846, 7619]}, "edge": {"target": [], "time": []}}, "mouseover": {"state": {"target": ["0", "12", "14", "18", "7", "4", "3", "8", "26", "25", "24", "23"], "time": [5279, 5346, 5429, 6246, 6380, 6496, 7047, 7164, 7264, 7314, 7781, 7799]}, "edge": {"target": [], "time": []}}, "mouseout": {"state": {"target": ["22", "14", "13", "12", "0", "0", "12", "14", "18", "7", "4", "3", "8", "26", "25", "24"], "time": [374, 4177, 4344, 4428, 4694, 5312, 5379, 6180, 6296, 6415, 6997, 7147, 7197, 7280, 7695, 7798]}, "edge": {"target": [], "time": []}}}, "displayed_time": "18.99", "trialTime": 22552, "trial_type": "mouselab-mdp", "trial_index": 16, "time_elapsed": 1113353, "internal_node_id": "0.0-4.0-1.0-7.0"}}, {"uniqueid": "w62896769:a21439250", "current_trial": 17, "dateTime": 1691143132667, "trialdata": {"revealed_states": [], "clicked_states": ["30", "26", "4"], "num_clicks_accrued": [0, 0, 0, 0, 0, 0, 0, 0, 0, 0, 0, 0, 0], "stateRewards": ["", 2, -1, 5, 8, 75, -35, -77, 1, -9, -81, -58, 1, 2, -7, 5, 77, -16, 19, 16, -10, -18, 40, -2, 3, 7, -5, 64, 1, -62, 10, 27, 10, 65], "withholdReward": false, "trial_id": "mdp_trial_9", "block": "test", "trialIndex": 10, "score": 73.35, "costs": -4.65, "simulationMode": [null, null, null, null, null], "rewards": [1, 2, -7, 5, 77], "path": ["0", "0", "12", "13", "14", "15", "16"], "rt": [4697, 160, 141, 107, 67], "actions": ["right", "right", "right", "up", "up"], "actionTimes": [8796, 9452, 10084, 10684, 11244], "queries": {"click": {"state": {"target": ["30", "26", "4"], "time": [5210, 5880, 6994]}, "edge": {"target": [], "time": []}}, "mouseover": {"state": {"target": ["31", "30", "25", "26", "28", "10", "3", "4", "7", "12"], "time": [4570, 4737, 5355, 5521, 6238, 6322, 6672, 6755, 7773, 7957]}, "edge": {"target": [], "time": []}}, "mouseout": {"state": {"target": ["23", "0", "31", "30", "25", "26", "28", "10", "3", "4", "7", "12"], "time": [500, 4420, 4654, 5305, 5438, 6205, 6255, 6422, 6706, 7740, 7823, 13778]}, "edge": {"target": [], "time": []}}}, "displayed_time": "18.10", "trialTime": 20924, "trial_type": "mouselab-mdp", "trial_index": 17, "time_elapsed": 1134384, "internal_node_id": "0.0-4.0-1.0-8.0"}}, {"uniqueid": "w62896769:a21439250", "current_trial": 18, "dateTime": 1691143154931, "trialdata": {"revealed_states": [], "clicked_states": ["20", "9", "33"], "num_clicks_accrued": [0, 0, 0, 0, 0, 0, 0, 0, 0, 0, 0, 0, 0], "stateRewards": ["", -1, -2, -8, 8, -27, -82, 19, -14, -62, 4, 1, -2, 2, 6, 10, 73, -51, -2, 2, 73, -48, 54, -1, 2, -4, 11, -25, 47, 86, 15, 33, 43, -42], "withholdReward": false, "trial_id": "mdp_trial_10", "block": "test", "trialIndex": 11, "score": -36.45, "costs": -6.449999999999999, "simulationMode": [null, null, null, null, null], "rewards": [-1, -2, -8, 8, -27], "path": ["0", "0", "1", "2", "3", "4", "5"], "rt": [9653, 938, 183, 93, 1052], "actions": ["up", "up", "up", "right", "up"], "actionTimes": [13589, 15030, 15708, 16303, 17845], "queries": {"click": {"state": {"target": ["20", "9", "33"], "time": [4851, 7609, 10546]}, "edge": {"target": [], "time": []}}, "mouseover": {"state": {"target": ["12", "13", "14", "20", "14", "18", "7", "9", "8", "8", "9", "25", "33", "30", "33", "30", "31", "23", "0", "0"], "time": [4115, 4198, 4282, 4498, 5016, 5066, 5182, 5583, 5950, 6200, 6235, 8319, 8502, 8919, 9270, 11021, 11521, 11738, 12022, 12339]}, "edge": {"target": [], "time": []}}, "mouseout": {"state": {"target": ["0", "12", "13", "14", "20", "14", "18", "7", "9", "8", "8", "9", "25", "33", "30", "33", "30", "31", "23", "0", "0"], "time": [3581, 4165, 4232, 4349, 4950, 5049, 5116, 5200, 5917, 6050, 6234, 7835, 8386, 8887, 9169, 11004, 11071, 11604, 11771, 12055, 21246]}, "edge": {"target": [], "time": []}}}, "displayed_time": "18.34", "trialTime": 22149, "trial_type": "mouselab-mdp", "trial_index": 18, "time_elapsed": 1156649, "internal_node_id": "0.0-4.0-1.0-9.0"}}, {"uniqueid": "w62896769:a21439250", "current_trial": 19, "dateTime": 1691143179396, "trialdata": {"revealed_states": [], "clicked_states": ["26", "30", "15"], "num_clicks_accrued": [0, 0, 0, 0, 0, 0, 0, 0, 0, 0, 0, 0, 0], "stateRewards": ["", -2, -1, -4, -15, -14, -67, 32, -3, -59, 63, 31, 2, -1, -7, -15, 71, -66, -27, -3, -54, -39, 72, 2, 1, 1, -13, 77, -40, 35, -9, 35, 75, 57], "withholdReward": false, "trial_id": "mdp_trial_11", "block": "test", "trialIndex": 12, "score": 16.35, "costs": -4.65, "simulationMode": [null, null, null, null, null], "rewards": [-2, -1, -4, -3, 31], "path": ["0", "0", "1", "2", "3", "8", "11"], "rt": [6777, 230, 641, 1282, 1002], "actions": ["up", "up", "up", "left", "left"], "actionTimes": [14933, 15667, 16813, 18588, 20092], "queries": {"click": {"state": {"target": ["26", "30", "15"], "time": [9531, 10166, 10988]}, "edge": {"target": [], "time": []}}, "mouseover": {"state": {"target": ["23", "25", "26", "25", "30", "31", "0", "13", "15", "14"], "time": [8663, 9030, 9214, 9798, 9931, 10432, 10482, 10532, 10832, 11183]}, "edge": {"target": [], "time": []}}, "mouseout": {"state": {"target": ["22", "21", "21", "0", "23", "25", "26", "25", "30", "31", "0", "13", "15"], "time": [6995, 7112, 7295, 8597, 8680, 9097, 9764, 9898, 10415, 10449, 10499, 10682, 11133]}, "edge": {"target": [], "time": []}}}, "displayed_time": "22.16", "trialTime": 24357, "trial_type": "mouselab-mdp", "trial_index": 19, "time_elapsed": 1181114, "internal_node_id": "0.0-4.0-1.0-10.0"}}, {"uniqueid": "w62896769:a21439250", "current_trial": 20, "dateTime": 1691143197612, "trialdata": {"revealed_states": [], "clicked_states": [], "num_clicks_accrued": [0, 0, 0, 0, 0, 0, 0, 0, 0, 0, 0, 0, 0], "stateRewards": ["", -2, 2, -2, -7, -50, -62, -45, 7, 36, -24, -72, -1, -1, 8, -1, -67, 20, -52, 2, 35, -50, 80, -1, 1, 6, -6, -70, 6, 88, 8, -47, 74, -19], "withholdReward": false, "trial_id": "mdp_trial_12", "block": "test", "trialIndex": 13, "score": -71, "costs": 0, "simulationMode": [null, null, null, null, null], "rewards": [-2, 2, -2, -7, -62], "path": ["0", "0", "1", "2", "3", "4", "6"], "rt": [2080, 353, 175, 219, 199], "actions": ["up", "up", "up", "right", "right"], "actionTimes": [3546, 4394, 5066, 5778, 6475], "queries": {"click": {"state": {"target": [], "time": []}, "edge": {"target": [], "time": []}}, "mouseover": {"state": {"target": [], "time": []}, "edge": {"target": [], "time": []}}, "mouseout": {"state": {"target": ["14", "13", "12", "5", "3", "10", "23", "31", "22"], "time": [786, 854, 1020, 15767, 15783, 15865, 16033, 16099, 17200]}, "edge": {"target": [], "time": []}}}, "displayed_time": "15.47", "trialTime": 18099, "trial_type": "mouselab-mdp", "trial_index": 20, "time_elapsed": 1199330, "internal_node_id": "0.0-4.0-1.0-11.0"}}, {"uniqueid": "w62896769:a21439250", "current_trial": 21, "dateTime": 1691143214418, "trialdata": {"revealed_states": [], "clicked_states": ["4"], "num_clicks_accrued": [0, 0, 0, 0, 0, 0, 0, 0, 0, 0, 0, 0, 0], "stateRewards": ["", 2, -1, -3, 16, -3, -16, -62, -1, 13, -26, 43, -1, 4, 3, -9, -54, -37, -3, -12, -71, -68, -57, 1, -3, 2, -9, 2, -2, -9, -11, 84, -52, 55], "withholdReward": false, "trial_id": "mdp_trial_13", "block": "test", "trialIndex": 14, "score": -12.55, "costs": -1.55, "simulationMode": [null, null, null, null, null], "rewards": [1, -3, 2, -9, -2], "path": ["0", "0", "23", "24", "25", "26", "28"], "rt": [7744, 734, 902, 1108, 850], "actions": ["left", "left", "left", "up", "right"], "actionTimes": [9103, 10325, 11726, 13334, 14678], "queries": {"click": {"state": {"target": ["4"], "time": [2231]}, "edge": {"target": [], "time": []}}, "mouseover": {"state": {"target": ["7", "4", "3", "8", "10", "0"], "time": [1749, 2016, 2483, 2667, 6336, 6603]}, "edge": {"target": [], "time": []}}, "mouseout": {"state": {"target": ["0", "7", "4", "3", "8", "10", "0", "0"], "time": [1626, 1816, 2433, 2567, 6086, 6403, 8021, 15978]}, "edge": {"target": [], "time": []}}}, "displayed_time": "15.36", "trialTime": 16685, "trial_type": "mouselab-mdp", "trial_index": 21, "time_elapsed": 1216136, "internal_node_id": "0.0-4.0-1.0-12.0"}}, {"uniqueid": "w62896769:a21439250", "current_trial": 22, "dateTime": 1691143240363, "trialdata": {"revealed_states": [], "clicked_states": ["25", "14", "9"], "num_clicks_accrued": [0, 0, 0, 0, 0, 0, 0, 0, 0, 0, 0, 0, 0], "stateRewards": ["", -2, 1, -3, -16, -39, -52, 30, -7, -41, -59, 11, 2, 1, 8, 2, -11, -26, -42, -13, 87, -59, -48, -1, -1, -1, 16, -79, 31, 50, -1, -84, 34, -82], "withholdReward": false, "trial_id": "mdp_trial_14", "block": "test", "trialIndex": 15, "score": 80.95, "costs": -4.05, "simulationMode": [null, null, null, null, null], "rewards": [2, 1, 8, -13, 87], "path": ["0", "0", "12", "13", "14", "19", "20"], "rt": [6907, 178, 55, 1816, 913], "actions": ["right", "right", "right", "down", "right"], "actionTimes": [11819, 12498, 13043, 15371, 16786], "queries": {"click": {"state": {"target": ["25", "14", "9"], "time": [6019, 6742, 7641]}, "edge": {"target": [], "time": []}}, "mouseover": {"state": {"target": ["0", "23", "24", "25", "23", "12", "14", "4", "9", "2", "12", "22"], "time": [5380, 5430, 5547, 5914, 6164, 6214, 6464, 7148, 7382, 7866, 7949, 8000]}, "edge": {"target": [], "time": []}}, "mouseout": {"state": {"target": ["22", "12", "7", "0", "23", "24", "25", "23", "12", "14", "4", "9", "2", "12", "22", "22", "25", "24"], "time": [1627, 2044, 4295, 5396, 5463, 5753, 6098, 6180, 6231, 6931, 7165, 7783, 7882, 7966, 8016, 20895, 22694, 22945]}, "edge": {"target": [], "time": []}}}, "displayed_time": "18.92", "trialTime": 25827, "trial_type": "mouselab-mdp", "trial_index": 22, "time_elapsed": 1242081, "internal_node_id": "0.0-4.0-1.0-13.0"}}, {"uniqueid": "w62896769:a21439250", "current_trial": 23, "dateTime": 1691143262611, "trialdata": {"revealed_states": [], "clicked_states": ["3", "24", "13"], "num_clicks_accrued": [0, 0, 0, 0, 0, 0, 0, 0, 0, 0, 0, 0, 0], "stateRewards": ["", -1, 1, 8, -8, -49, 62, -78, 16, 28, -81, 78, -2, -3, -1, -4, 67, 49, -2, -13, -16, -39, 83, 1, -4, 4, -5, -20, 7, 84, 7, -32, -59, 19], "withholdReward": false, "trial_id": "mdp_trial_15", "block": "test", "trialIndex": 16, "score": -79.65, "costs": -1.65, "simulationMode": [null, null, null, null, null], "rewards": [-1, 1, 8, -8, -78], "path": ["0", "0", "1", "2", "3", "4", "7"], "rt": [5239, 86, 494, 2109, 293], "actions": ["up", "up", "up", "right", "down"], "actionTimes": [11837, 12421, 13412, 16012, 16797], "queries": {"click": {"state": {"target": ["3", "24", "13"], "time": [7454, 8422, 9073]}, "edge": {"target": [], "time": []}}, "mouseover": {"state": {"target": ["1", "2", "3", "2", "23", "24", "23", "0", "12", "13", "20"], "time": [6912, 7012, 7246, 7629, 7830, 8113, 8563, 8598, 8648, 8714, 9281]}, "edge": {"target": [], "time": []}}, "mouseout": {"state": {"target": ["24", "0", "1", "2", "3", "2", "23", "24", "23", "0", "12", "13", "20"], "time": [5945, 6729, 6962, 7096, 7613, 7681, 8047, 8547, 8597, 8631, 8681, 9198, 9314]}, "edge": {"target": [], "time": []}}}, "displayed_time": "20.60", "trialTime": 22101, "trial_type": "mouselab-mdp", "trial_index": 23, "time_elapsed": 1264329, "internal_node_id": "0.0-4.0-1.0-14.0"}}, {"uniqueid": "w62896769:a21439250", "current_trial": 24, "dateTime": 1691143281799, "trialdata": {"revealed_states": [], "clicked_states": ["2", "23", "12"], "num_clicks_accrued": [0, 0, 0, 0, 0, 0, 0, 0, 0, 0, 0, 0, 0], "stateRewards": ["", -1, 3, -7, 16, -32, -74, -48, 2, 10, 15, -30, 1, 1, -2, 10, 12, -83, 67, 13, -66, 47, 65, -2, 4, 2, -14, -8, -57, 24, 9, 65, 12, 46], "withholdReward": false, "trial_id": "mdp_trial_16", "block": "test", "trialIndex": 17, "score": 77.15, "costs": 0.15000000000000002, "simulationMode": [null, null, null, null, null], "rewards": [1, 1, -2, 10, 67], "path": ["0", "0", "12", "13", "14", "15", "18"], "rt": [5320, 1061, 830, 864, 153], "actions": ["right", "right", "right", "up", "left"], "actionTimes": [7486, 9038, 10358, 11710, 12366], "queries": {"click": {"state": {"target": ["2", "23", "12"], "time": [4165, 4628, 5130]}, "edge": {"target": [], "time": []}}, "mouseover": {"state": {"target": ["1", "2", "8", "10", "2", "1", "23", "0", "12"], "time": [2654, 2787, 3022, 3421, 3822, 4307, 4389, 4790, 4856]}, "edge": {"target": [], "time": []}}, "mouseout": {"state": {"target": ["22", "0", "1", "2", "8", "10", "2", "1", "23", "0", "12", "12"], "time": [1619, 2537, 2721, 2871, 3221, 3705, 4306, 4339, 4756, 4823, 5139, 5290]}, "edge": {"target": [], "time": []}}}, "displayed_time": "16.17", "trialTime": 19065, "trial_type": "mouselab-mdp", "trial_index": 24, "time_elapsed": 1283516, "internal_node_id": "0.0-4.0-1.0-15.0"}}, {"uniqueid": "w62896769:a21439250", "current_trial": 25, "dateTime": 1691143303172, "trialdata": {"revealed_states": [], "clicked_states": ["14", "25", "3"], "num_clicks_accrued": [0, 0, 0, 0, 0, 0, 0, 0, 0, 0, 0, 0, 0], "stateRewards": ["", 1, -4, -6, -1, -21, 17, -72, 10, 77, 67, -46, -1, 4, -2, 14, -66, -49, -45, -15, -52, 23, -67, 2, -2, -2, 15, -3, 45, -64, 5, -44, 83, 61], "withholdReward": false, "trial_id": "mdp_trial_17", "block": "test", "trialIndex": 18, "score": -43.85, "costs": -2.8499999999999996, "simulationMode": [null, null, null, null, null], "rewards": [2, -2, -2, 5, -44], "path": ["0", "0", "23", "24", "25", "30", "31"], "rt": [5270, 142, 757, 202, 293], "actions": ["left", "left", "left", "down", "right"], "actionTimes": [6517, 7148, 8397, 9092, 9884], "queries": {"click": {"state": {"target": ["14", "25", "3"], "time": [2272, 3147, 3945]}, "edge": {"target": [], "time": []}}, "mouseover": {"state": {"target": ["12", "13", "14", "13", "12", "0", "23", "24", "25", "28", "10", "3", "7"], "time": [1600, 1633, 1967, 2401, 2435, 2467, 2517, 2584, 2734, 3318, 3401, 3668, 4436]}, "edge": {"target": [], "time": []}}, "mouseout": {"state": {"target": ["0", "12", "13", "14", "13", "12", "0", "23", "24", "25", "28", "10", "3", "7", "12", "12", "6"], "time": [1583, 1616, 1666, 2400, 2434, 2450, 2484, 2551, 2634, 3268, 3351, 3451, 4386, 5470, 11941, 12075, 12108]}, "edge": {"target": [], "time": []}}}, "displayed_time": "15.25", "trialTime": 21253, "trial_type": "mouselab-mdp", "trial_index": 25, "time_elapsed": 1304889, "internal_node_id": "0.0-4.0-1.0-16.0"}}, {"uniqueid": "w62896769:a21439250", "current_trial": 26, "dateTime": 1691143321828, "trialdata": {"revealed_states": [], "clicked_states": ["2", "24", "13"], "num_clicks_accrued": [0, 0, 0, 0, 0, 0, 0, 0, 0, 0, 0, 0, 0], "stateRewards": ["", -2, -3, 8, -4, -30, 31, 69, 9, 66, 87, 64, -2, 2, 8, 5, 47, 16, -39, -8, -54, 51, -19, 1, -2, -2, -11, -25, -26, 43, -9, 19, -84, 86], "withholdReward": false, "trial_id": "mdp_trial_18", "block": "test", "trialIndex": 19, "score": 27.95, "costs": -1.0499999999999998, "simulationMode": [null, null, null, null, null], "rewards": [-2, 2, 8, 5, 16], "path": ["0", "0", "12", "13", "14", "15", "17"], "rt": [5297, 427, 181, 1289, 121], "actions": ["right", "right", "right", "up", "right"], "actionTimes": [6587, 7514, 8186, 9979, 10595], "queries": {"click": {"state": {"target": ["2", "24", "13"], "time": [2532, 3225, 3992]}, "edge": {"target": [], "time": []}}, "mouseover": {"state": {"target": ["0", "1", "2", "1", "23", "24", "23", "0", "12", "13"], "time": [1334, 2084, 2368, 2685, 2885, 3035, 3385, 3504, 3585, 3736]}, "edge": {"target": [], "time": []}}, "mouseout": {"state": {"target": ["6", "7", "1", "0", "1", "2", "1", "23", "24", "23", "0", "12", "13", "21"], "time": [482, 649, 782, 1641, 2169, 2668, 2703, 2952, 3353, 3402, 3552, 3635, 4153, 17129]}, "edge": {"target": [], "time": []}}}, "displayed_time": "15.29", "trialTime": 18525, "trial_type": "mouselab-mdp", "trial_index": 26, "time_elapsed": 1323545, "internal_node_id": "0.0-4.0-1.0-17.0"}}, {"uniqueid": "w62896769:a21439250", "current_trial": 27, "dateTime": 1691143341300, "trialdata": {"revealed_states": [], "clicked_states": ["14", "25", "3"], "num_clicks_accrued": [0, 0, 0, 0, 0, 0, 0, 0, 0, 0, 0, 0, 0], "stateRewards": ["", 1, 2, -3, -5, 66, -50, -47, -5, 1, 28, -27, 1, 1, -1, -6, 37, -25, 56, 1, -82, -66, -40, -1, -4, -7, 15, -61, -23, 26, 10, 14, -56, 29], "withholdReward": false, "trial_id": "mdp_trial_19", "block": "test", "trialIndex": 20, "score": -82.85, "costs": -2.8499999999999996, "simulationMode": [null, null, null, null, null], "rewards": [1, 1, -1, 1, -82], "path": ["0", "0", "12", "13", "14", "19", "20"], "rt": [5218, 374, 58, 180, 128], "actions": ["right", "right", "right", "down", "right"], "actionTimes": [6300, 7173, 7724, 8397, 9028], "queries": {"click": {"state": {"target": ["14", "25", "3"], "time": [2151, 2959, 3773]}, "edge": {"target": [], "time": []}}, "mouseover": {"state": {"target": ["12", "13", "14", "25", "10", "3", "16"], "time": [1510, 1560, 1643, 2760, 3361, 3461, 3945]}, "edge": {"target": [], "time": []}}, "mouseout": {"state": {"target": ["0", "12", "13", "14", "25", "10", "3", "16", "17", "19"], "time": [1509, 1542, 1593, 2327, 3261, 3412, 3911, 3961, 14537, 14570]}, "edge": {"target": [], "time": []}}}, "displayed_time": "15.08", "trialTime": 19341, "trial_type": "mouselab-mdp", "trial_index": 27, "time_elapsed": 1343017, "internal_node_id": "0.0-4.0-1.0-18.0"}}, {"uniqueid": "w62896769:a21439250", "current_trial": 28, "dateTime": 1691143361778, "trialdata": {"revealed_states": [], "clicked_states": ["32", "5"], "num_clicks_accrued": [0, 0, 0, 0, 0, 0, 0, 0, 0, 0, 0, 0, 0], "stateRewards": ["", -2, -3, -3, 9, 79, 67, 22, -15, -56, 27, -85, -2, 4, -4, -15, -20, -32, 60, 15, 71, 57, 17, 1, 2, -8, 15, -37, -81, 82, 15, 21, -3, 2], "withholdReward": false, "trial_id": "mdp_trial_20", "block": "test", "trialIndex": 21, "score": -31.3, "costs": -4.3, "simulationMode": [null, null, null, null, null], "rewards": [1, 2, -8, 15, -37], "path": ["0", "0", "23", "24", "25", "26", "27"], "rt": [11239, 622, 151, 228, 359], "actions": ["left", "left", "left", "up", "up"], "actionTimes": [13712, 14834, 15480, 16224, 17072], "queries": {"click": {"state": {"target": ["32", "5"], "time": [4748, 8222]}, "edge": {"target": [], "time": []}}, "mouseover": {"state": {"target": ["31", "30", "32", "21", "21", "19", "18", "4", "5", "4", "18", "13", "19", "21", "19", "4", "5", "17", "17"], "time": [3668, 4004, 4135, 5119, 5403, 5670, 5720, 5786, 6003, 6587, 6654, 6688, 6938, 7054, 7455, 7587, 8006, 9690, 9890]}, "edge": {"target": [], "time": []}}, "mouseout": {"state": {"target": ["21", "22", "0", "31", "30", "32", "21", "21", "19", "18", "4", "5", "4", "18", "13", "19", "21", "19", "4", "5", "17", "17", "14"], "time": [1516, 1599, 3351, 3835, 4018, 4886, 5186, 5654, 5687, 5736, 5854, 6554, 6621, 6687, 6704, 7038, 7438, 7471, 7638, 8455, 9724, 10274, 18747]}, "edge": {"target": [], "time": []}}}, "displayed_time": "17.56", "trialTime": 20344, "trial_type": "mouselab-mdp", "trial_index": 28, "time_elapsed": 1363496, "internal_node_id": "0.0-4.0-1.0-19.0"}}, {"uniqueid": "w62896769:a21439250", "current_trial": 29, "dateTime": 1691143380547, "trialdata": {"revealed_states": [], "clicked_states": ["2", "24", "13"], "num_clicks_accrued": [0, 0, 0, 0, 0, 0, 0, 0, 0, 0, 0, 0, 0], "stateRewards": ["", -2, 4, -5, -12, 85, -24, -18, -15, -78, -22, 26, -1, -1, 2, 14, -45, 52, -23, 7, -33, 24, -6, -2, -4, 5, -7, -16, 36, -39, 5, 71, -87, -23], "withholdReward": false, "trial_id": "mdp_trial_21", "block": "test", "trialIndex": 22, "score": -34.05, "costs": -1.0499999999999998, "simulationMode": [null, null, null, null, null], "rewards": [-2, 4, -5, -12, -18], "path": ["0", "0", "1", "2", "3", "4", "7"], "rt": [5401, 234, 1116, 881, 274], "actions": ["up", "up", "up", "right", "down"], "actionTimes": [8811, 9539, 11155, 12539, 13315], "queries": {"click": {"state": {"target": ["2", "24", "13"], "time": [5073, 6106, 7128]}, "edge": {"target": [], "time": []}}, "mouseover": {"state": {"target": ["1", "2", "24", "23", "0", "12", "13"], "time": [4433, 4816, 5450, 6284, 6317, 6467, 6984]}, "edge": {"target": [], "time": []}}, "mouseout": {"state": {"target": ["0", "1", "2", "24", "23", "0", "12", "13", "16", "17", "19", "22"], "time": [4349, 4616, 5250, 6268, 6301, 6401, 6601, 7351, 17360, 17627, 17878, 17894]}, "edge": {"target": [], "time": []}}}, "displayed_time": "17.41", "trialTime": 18643, "trial_type": "mouselab-mdp", "trial_index": 29, "time_elapsed": 1382265, "internal_node_id": "0.0-4.0-1.0-20.0"}}, {"uniqueid": "w62896769:a21439250", "current_trial": 30, "dateTime": 1691143398947, "trialdata": {"revealed_states": [], "clicked_states": ["3", "25", "14"], "num_clicks_accrued": [0, 0, 0, 0, 0, 0, 0, 0, 0, 0, 0, 0, 0], "stateRewards": ["", -2, -3, 8, 14, -73, 73, 84, -12, -2, -50, -17, 2, 1, -2, -9, -44, -27, -33, 16, -63, -47, -66, -2, 1, 4, -5, -33, -11, 50, 9, 38, -79, 31], "withholdReward": false, "trial_id": "mdp_trial_22", "block": "test", "trialIndex": 23, "score": -28.85, "costs": -2.8499999999999996, "simulationMode": [null, null, null, null, null], "rewards": [-2, -3, 8, -12, -17], "path": ["0", "0", "1", "2", "3", "8", "11"], "rt": [6680, 173, 289, 289, 801], "actions": ["up", "up", "up", "left", "left"], "actionTimes": [9786, 10457, 11258, 12041, 13337], "queries": {"click": {"state": {"target": ["3", "25", "14"], "time": [5526, 6453, 7425]}, "edge": {"target": [], "time": []}}, "mouseover": {"state": {"target": ["1", "2", "3", "2", "24", "25", "24", "23", "0", "12", "13", "14", "22"], "time": [3745, 3861, 4862, 5731, 5863, 6197, 6831, 6865, 6899, 6931, 7031, 7215, 7582]}, "edge": {"target": [], "time": []}}, "mouseout": {"state": {"target": ["0", "1", "2", "3", "2", "24", "25", "24", "23", "0", "12", "13", "14", "22", "22"], "time": [3578, 3811, 4762, 5714, 5747, 6014, 6815, 6864, 6897, 6914, 6998, 7098, 7548, 8182, 15805]}, "edge": {"target": [], "time": []}}}, "displayed_time": "17.11", "trialTime": 18273, "trial_type": "mouselab-mdp", "trial_index": 30, "time_elapsed": 1400665, "internal_node_id": "0.0-4.0-1.0-21.0"}}, {"uniqueid": "w62896769:a21439250", "current_trial": 31, "dateTime": 1691143420172, "trialdata": {"revealed_states": [], "clicked_states": ["11", "3", "6"], "num_clicks_accrued": [0, 0, 0, 0, 0, 0, 0, 0, 0, 0, 0, 0, 0], "stateRewards": ["", 2, -2, -8, 9, -20, 55, -58, 14, 42, 2, 36, 1, -3, -5, 5, -58, 57, 60, 16, 57, 30, -70, -2, 1, 3, 10, 59, 23, 77, -13, -26, 88, -72], "withholdReward": false, "trial_id": "mdp_trial_23", "block": "test", "trialIndex": 24, "score": 50.75, "costs": -5.25, "simulationMode": [null, null, null, null, null], "rewards": [2, -2, -8, 9, 55], "path": ["0", "0", "1", "2", "3", "4", "6"], "rt": [8410, 28, 512, 223, 530], "actions": ["up", "up", "up", "right", "right"], "actionTimes": [10018, 10537, 11554, 12266, 13290], "queries": {"click": {"state": {"target": ["11", "3", "6"], "time": [3379, 6153, 6888]}, "edge": {"target": [], "time": []}}, "mouseover": {"state": {"target": ["1", "2", "3", "8", "11", "27", "28", "28", "27", "10", "3", "4", "6", "7"], "time": [2183, 2250, 2486, 2667, 2917, 3852, 4369, 4602, 4652, 5820, 5953, 6554, 6687, 7104]}, "edge": {"target": [], "time": []}}, "mouseout": {"state": {"target": ["0", "1", "2", "3", "8", "11", "27", "28", "28", "27", "10", "3", "4", "6", "7", "1"], "time": [2133, 2233, 2350, 2634, 2801, 3568, 4302, 4386, 4619, 5753, 5837, 6454, 6655, 7071, 7140, 16412]}, "edge": {"target": [], "time": []}}}, "displayed_time": "15.61", "trialTime": 21106, "trial_type": "mouselab-mdp", "trial_index": 31, "time_elapsed": 1421890, "internal_node_id": "0.0-4.0-1.0-22.0"}}, {"uniqueid": "w62896769:a21439250", "current_trial": 32, "dateTime": 1691143443396, "trialdata": {"revealed_states": [], "clicked_states": ["32", "21", "27"], "num_clicks_accrued": [0, 0, 0, 0, 0, 0, 0, 0, 0, 0, 0, 0, 0], "stateRewards": ["", -1, 3, 1, -11, -22, -36, 19, -5, -70, -52, 50, -2, -4, 4, -2, -41, -83, 29, -2, 22, 10, -6, -2, 3, -2, 14, 54, 44, 77, -9, -65, -37, -40], "withholdReward": false, "trial_id": "mdp_trial_24", "block": "test", "trialIndex": 25, "score": 60.55, "costs": -6.449999999999999, "simulationMode": [null, null, null, null, null], "rewards": [-2, 3, -2, 14, 54], "path": ["0", "0", "23", "24", "25", "26", "27"], "rt": [13519, 47, 633, 522, 39], "actions": ["left", "left", "left", "up", "up"], "actionTimes": [15003, 15547, 16699, 17723, 18259], "queries": {"click": {"state": {"target": ["32", "21", "27"], "time": [2556, 5378, 8584]}, "edge": {"target": [], "time": []}}, "mouseover": {"state": {"target": ["31", "32", "21", "0", "27", "1", "12", "12", "1", "27"], "time": [2003, 2322, 3204, 5956, 6257, 9209, 9560, 12695, 12746, 14484]}, "edge": {"target": [], "time": []}}, "mouseout": {"state": {"target": ["0", "31", "32", "21", "0", "27", "1", "12", "12", "1", "27", "27"], "time": [1886, 2037, 2804, 5873, 5973, 9076, 9260, 9593, 12713, 12762, 19008, 19168]}, "edge": {"target": [], "time": []}}}, "displayed_time": "18.77", "trialTime": 23099, "trial_type": "mouselab-mdp", "trial_index": 32, "time_elapsed": 1445113, "internal_node_id": "0.0-4.0-1.0-23.0"}}, {"uniqueid": "w62896769:a21439250", "current_trial": 33, "dateTime": 1691143473884, "trialdata": {"revealed_states": [], "clicked_states": ["18", "21", "17"], "num_clicks_accrued": [0, 0, 0, 0, 0, 0, 0, 0, 0, 0, 0, 0, 0], "stateRewards": ["", 1, 2, 2, -15, -84, 28, -26, 13, 31, 86, 30, -2, 1, -1, -8, 66, -40, -1, -10, -32, 57, -17, 1, 2, -2, 9, -23, 77, 85, 12, -32, -62, -35], "withholdReward": false, "trial_id": "mdp_trial_25", "block": "test", "trialIndex": 26, "score": 38.55, "costs": -6.449999999999999, "simulationMode": [null, null, null, null, null], "rewards": [-2, 1, -1, -10, 57], "path": ["0", "0", "12", "13", "14", "19", "21"], "rt": [12954, 72, 410, 622, 305], "actions": ["right", "right", "right", "down", "down"], "actionTimes": [22715, 23281, 24186, 25298, 26098], "queries": {"click": {"state": {"target": ["18", "21", "17"], "time": [11242, 14695, 18232]}, "edge": {"target": [], "time": []}}, "mouseover": {"state": {"target": ["12", "13", "14", "15", "18", "16", "15", "14", "19", "21", "20", "17", "20"], "time": [10196, 10230, 10329, 10462, 10996, 11464, 12465, 12498, 12532, 12832, 15217, 15751, 19571]}, "edge": {"target": [], "time": []}}, "mouseout": {"state": {"target": ["1", "12", "13", "20", "22", "0", "12", "13", "14", "15", "18", "16", "15", "14", "19", "21", "20", "17", "20", "21"], "time": [655, 939, 1021, 7937, 8093, 10179, 10229, 10262, 10380, 10613, 11264, 12431, 12481, 12531, 12682, 15084, 15384, 18720, 19604, 29279]}, "edge": {"target": [], "time": []}}}, "displayed_time": "26.59", "trialTime": 30370, "trial_type": "mouselab-mdp", "trial_index": 33, "time_elapsed": 1475602, "internal_node_id": "0.0-4.0-1.0-24.0"}}, {"uniqueid": "w62896769:a21439250", "current_trial": 34, "dateTime": 1691143502579, "trialdata": {"revealed_states": [], "clicked_states": ["5", "9", "6"], "num_clicks_accrued": [0, 0, 0, 0, 0, 0, 0, 0, 0, 0, 0, 0, 0], "stateRewards": ["", -2, -1, -2, -15, 87, 57, 29, -10, 77, -80, -7, 1, -3, 6, 14, -11, 87, -59, 4, -71, 16, -11, 2, 2, -7, 2, -47, 61, 50, 14, -20, 17, 81], "withholdReward": false, "trial_id": "mdp_trial_26", "block": "test", "trialIndex": 27, "score": 60.55, "costs": -6.449999999999999, "simulationMode": [null, null, null, null, null], "rewards": [-2, -1, -2, -15, 87], "path": ["0", "0", "1", "2", "3", "4", "5"], "rt": [11698, 50, 483, 564, 318], "actions": ["up", "up", "up", "right", "up"], "actionTimes": [20613, 21164, 22164, 23229, 24068], "queries": {"click": {"state": {"target": ["5", "9", "6"], "time": [10074, 13429, 16398]}, "edge": {"target": [], "time": []}}, "mouseover": {"state": {"target": ["1", "2", "5", "9", "8", "10", "2", "7", "16", "6"], "time": [9204, 9270, 9671, 10438, 14091, 14809, 15092, 15491, 15775, 16159]}, "edge": {"target": [], "time": []}}, "mouseout": {"state": {"target": ["0", "1", "17", "14", "13", "12", "1", "2", "5", "9", "8", "10", "2", "7", "16", "6", "7", "0"], "time": [3398, 4733, 6551, 8085, 8302, 8452, 9255, 9303, 10338, 13958, 14608, 15058, 15342, 15525, 16109, 17026, 27218, 27686]}, "edge": {"target": [], "time": []}}}, "displayed_time": "24.57", "trialTime": 28548, "trial_type": "mouselab-mdp", "trial_index": 34, "time_elapsed": 1504297, "internal_node_id": "0.0-4.0-1.0-25.0"}}, {"uniqueid": "w62896769:a21439250", "current_trial": 35, "dateTime": 1691143529548, "trialdata": {"revealed_states": [], "clicked_states": ["33", "32", "31"], "num_clicks_accrued": [0, 0, 0, 0, 0, 0, 0, 0, 0, 0, 0, 0, 0], "stateRewards": ["", 2, -4, 7, 3, 23, -42, 4, 7, -81, -33, 7, -2, -4, 5, -1, 50, -57, -14, -13, -14, 44, 55, -2, -2, 5, -2, 33, 1, 57, -13, -7, 58, 87], "withholdReward": false, "trial_id": "mdp_trial_27", "block": "test", "trialIndex": 28, "score": 68.55, "costs": -6.449999999999999, "simulationMode": [null, null, null, null, null], "rewards": [-2, -2, 5, -13, 87], "path": ["0", "0", "23", "24", "25", "30", "33"], "rt": [11823, 70, 455, 495, 222], "actions": ["left", "left", "left", "down", "left"], "actionTimes": [17682, 18290, 19242, 20234, 20978], "queries": {"click": {"state": {"target": ["33", "32", "31"], "time": [6849, 10154, 13274]}, "edge": {"target": [], "time": []}}, "mouseover": {"state": {"target": ["31", "30", "33", "32", "31"], "time": [6225, 6342, 6575, 7226, 10579]}, "edge": {"target": [], "time": []}}, "mouseout": {"state": {"target": ["31", "23", "0", "31", "30", "33", "32", "31"], "time": [5157, 5257, 6025, 6275, 6492, 7176, 10396, 13649]}, "edge": {"target": [], "time": []}}}, "displayed_time": "21.47", "trialTime": 26818, "trial_type": "mouselab-mdp", "trial_index": 35, "time_elapsed": 1531266, "internal_node_id": "0.0-4.0-1.0-26.0"}}, {"uniqueid": "w62896769:a21439250", "current_trial": 36, "dateTime": 1691143547820, "trialdata": {"revealed_states": [], "clicked_states": ["29", "27", "28"], "num_clicks_accrued": [0, 0, 0, 0, 0, 0, 0, 0, 0, 0, 0, 0, 0], "stateRewards": ["", -2, -4, -6, 12, -58, -70, -80, 2, 16, -88, -62, 1, 2, -5, 11, 77, -35, -44, -5, 18, -83, 87, 1, -3, -5, 13, -44, -21, -86, 10, -52, 8, 29], "withholdReward": false, "trial_id": "mdp_trial_28", "block": "test", "trialIndex": 29, "score": 4.550000000000001, "costs": -6.449999999999999, "simulationMode": [null, null, null, null, null], "rewards": [1, -3, -5, 10, 8], "path": ["0", "0", "23", "24", "25", "30", "32"], "rt": [10838, 211, 61, 198, 233], "actions": ["left", "left", "left", "down", "down"], "actionTimes": [12439, 13153, 13703, 14407, 15143], "queries": {"click": {"state": {"target": ["29", "27", "28"], "time": [2549, 5639, 8414]}, "edge": {"target": [], "time": []}}, "mouseover": {"state": {"target": ["23", "24", "29", "27", "28", "23"], "time": [1948, 2014, 2166, 2999, 6135, 9638]}, "edge": {"target": [], "time": []}}, "mouseout": {"state": {"target": ["31", "24", "28", "23", "0", "23", "24", "29", "27", "28", "23"], "time": [346, 430, 730, 947, 1914, 1981, 2032, 2832, 6018, 9204, 9771]}, "edge": {"target": [], "time": []}}}, "displayed_time": "15.64", "trialTime": 18127, "trial_type": "mouselab-mdp", "trial_index": 36, "time_elapsed": 1549538, "internal_node_id": "0.0-4.0-1.0-27.0"}}, {"uniqueid": "w62896769:a21439250", "current_trial": 37, "dateTime": 1691143568684, "trialdata": {"revealed_states": [], "clicked_states": ["18", "17", "16"], "num_clicks_accrued": [0, 0, 0, 0, 0, 0, 0, 0, 0, 0, 0, 0, 0], "stateRewards": ["", 1, -4, -6, 11, -20, 8, -30, 1, -38, 88, 42, 2, 3, 5, -12, -8, -74, 30, -8, 67, -19, 42, 2, -1, 4, 13, 50, -68, 2, -8, -15, 87, -46], "withholdReward": false, "trial_id": "mdp_trial_29", "block": "test", "trialIndex": 30, "score": 21.55, "costs": -6.449999999999999, "simulationMode": [null, null, null, null, null], "rewards": [2, 3, 5, -12, 30], "path": ["0", "0", "12", "13", "14", "15", "18"], "rt": [12878, 233, 34, 36, 141], "actions": ["right", "right", "right", "up", "left"], "actionTimes": [15986, 16714, 17249, 17802, 18457], "queries": {"click": {"state": {"target": ["18", "17", "16"], "time": [4481, 8078, 11233]}, "edge": {"target": [], "time": []}}, "mouseover": {"state": {"target": ["12", "13", "18", "16", "18", "16", "17", "16", "15", "18", "18"], "time": [3488, 3569, 3803, 4151, 4304, 4904, 7456, 8574, 12328, 12360, 12594]}, "edge": {"target": [], "time": []}}, "mouseout": {"state": {"target": ["23", "0", "12", "13", "18", "16", "18", "16", "17", "16", "17", "15", "18", "18"], "time": [1283, 1918, 3536, 3736, 3820, 4204, 4604, 7406, 8390, 11560, 12327, 12343, 12394, 15546]}, "edge": {"target": [], "time": []}}}, "displayed_time": "18.95", "trialTime": 20729, "trial_type": "mouselab-mdp", "trial_index": 37, "time_elapsed": 1570402, "internal_node_id": "0.0-4.0-1.0-28.0"}}, {"uniqueid": "w62896769:a21439250", "current_trial": 38, "dateTime": 1691143594661, "trialdata": {"revealed_states": [], "clicked_states": ["11", "9", "5"], "num_clicks_accrued": [0, 0, 0, 0, 0, 0, 0, 0, 0, 0, 0, 0, 0], "stateRewards": ["", 1, 1, -5, 10, -31, 73, 14, -8, -23, 63, -70, -1, 2, 8, 7, 25, -59, 27, -10, -40, -71, -15, -2, 3, -8, -5, -19, 77, -34, 7, 67, 63, 19], "withholdReward": false, "trial_id": "mdp_trial_30", "block": "test", "trialIndex": 31, "score": 14.55, "costs": -6.449999999999999, "simulationMode": [null, null, null, null, null], "rewards": [1, 1, -5, 10, 14], "path": ["0", "0", "1", "2", "3", "4", "7"], "rt": [15046, 2847, 278, 880, 1023], "actions": ["up", "up", "up", "right", "down"], "actionTimes": [16153, 19497, 20264, 21634, 23145], "queries": {"click": {"state": {"target": ["11", "9", "5"], "time": [2670, 5878, 10038]}, "edge": {"target": [], "time": []}}, "mouseover": {"state": {"target": ["1", "3", "8", "11", "9", "3", "5", "4", "7"], "time": [1987, 2103, 2237, 2538, 3072, 6691, 7008, 10695, 10945]}, "edge": {"target": [], "time": []}}, "mouseout": {"state": {"target": ["12", "1", "3", "8", "11", "9", "3", "5", "4", "7"], "time": [769, 2020, 2187, 2387, 2922, 6441, 6708, 10661, 10795, 14181]}, "edge": {"target": [], "time": []}}}, "displayed_time": "23.64", "trialTime": 25841, "trial_type": "mouselab-mdp", "trial_index": 38, "time_elapsed": 1596378, "internal_node_id": "0.0-4.0-1.0-29.0"}}, {"uniqueid": "w62896769:a21439250", "current_trial": 39, "dateTime": 1691143620061, "trialdata": {"revealed_states": [], "clicked_states": ["29", "33", "20"], "num_clicks_accrued": [0, 0, 0, 0, 0, 0, 0, 0, 0, 0, 0, 0, 0], "stateRewards": ["", -1, -3, -7, -4, -85, -70, 79, 8, 84, -66, 42, 2, -2, -3, -16, -54, -66, 68, -3, 21, -14, 7, -2, -1, -3, -8, 75, 80, 86, -7, -84, 73, -16], "withholdReward": false, "trial_id": "mdp_trial_31", "block": "test", "trialIndex": 32, "score": 65.55, "costs": -6.449999999999999, "simulationMode": [null, null, null, null, null], "rewards": [-2, -1, -3, -8, 86], "path": ["0", "0", "23", "24", "25", "26", "29"], "rt": [13455, 68, 437, 77, 167], "actions": ["left", "left", "left", "up", "left"], "actionTimes": [15467, 16050, 16986, 17562, 18219], "queries": {"click": {"state": {"target": ["29", "33", "20"], "time": [4735, 7580, 11053]}, "edge": {"target": [], "time": []}}, "mouseover": {"state": {"target": ["23", "25", "26", "27", "29", "25", "33", "30", "20", "22"], "time": [2720, 3170, 3288, 3871, 4605, 4977, 5223, 8025, 8675, 14496]}, "edge": {"target": [], "time": []}}, "mouseout": {"state": {"target": ["13", "12", "0", "23", "25", "26", "27", "29", "29", "25", "33", "30", "20", "22"], "time": [1218, 1452, 2687, 2770, 3220, 3654, 3937, 4819, 4905, 5056, 8008, 8041, 11477, 14513]}, "edge": {"target": [], "time": []}}}, "displayed_time": "18.72", "trialTime": 25235, "trial_type": "mouselab-mdp", "trial_index": 39, "time_elapsed": 1621778, "internal_node_id": "0.0-4.0-1.0-30.0"}}, {"uniqueid": "w62896769:a21439250", "current_trial": 40, "dateTime": 1691143647397, "trialdata": {"revealed_states": [], "clicked_states": ["18", "22"], "num_clicks_accrued": [0, 0, 0, 0, 0, 0, 0, 0, 0, 0, 0, 0, 0], "stateRewards": ["", 2, -1, -2, -5, -47, -57, -33, -11, 31, -18, -72, -2, 1, -4, -8, -46, -53, -50, 15, -85, -9, 39, -2, -2, 1, 14, -1, -8, 53, -12, -41, -74, 62], "withholdReward": false, "trial_id": "mdp_trial_32", "block": "test", "trialIndex": 33, "score": 44.7, "costs": -4.3, "simulationMode": [null, null, null, null, null], "rewards": [-2, 1, -4, 15, 39], "path": ["0", "0", "12", "13", "14", "19", "22"], "rt": [15009, 231, 1362, 101, 173], "actions": ["right", "right", "right", "down", "left"], "actionTimes": [18665, 19385, 21249, 21841, 22513], "queries": {"click": {"state": {"target": ["18", "22"], "time": [4684, 9350]}, "edge": {"target": [], "time": []}}, "mouseover": {"state": {"target": ["12", "18", "14", "19", "22", "0", "23", "28", "23"], "time": [4090, 4408, 4974, 5091, 5408, 10913, 10949, 11046, 16083]}, "edge": {"target": [], "time": []}}, "mouseout": {"state": {"target": ["0", "12", "18", "14", "19", "22", "0", "23", "28", "23"], "time": [4040, 4123, 4891, 5044, 5141, 10863, 10929, 10963, 16034, 26792]}, "edge": {"target": [], "time": []}}}, "displayed_time": "23.01", "trialTime": 27169, "trial_type": "mouselab-mdp", "trial_index": 40, "time_elapsed": 1649115, "internal_node_id": "0.0-4.0-1.0-31.0"}}, {"uniqueid": "w62896769:a21439250", "current_trial": 41, "dateTime": 1691143668757, "trialdata": {"revealed_states": [], "clicked_states": ["17", "20", "29"], "num_clicks_accrued": [0, 0, 0, 0, 0, 0, 0, 0, 0, 0, 0, 0, 0], "stateRewards": ["", -1, -3, -6, 14, 41, 18, 63, -14, 80, 21, 17, -2, -4, -2, -5, 13, 70, 8, -4, -64, -10, -20, 2, -1, 4, -1, -17, -55, 42, -7, 47, 54, 15], "withholdReward": false, "trial_id": "mdp_trial_33", "block": "test", "trialIndex": 34, "score": 50.55, "costs": -6.449999999999999, "simulationMode": [null, null, null, null, null], "rewards": [-2, -4, -2, -5, 70], "path": ["0", "0", "12", "13", "14", "15", "17"], "rt": [14074, 113, 480, 104, 39], "actions": ["right", "right", "right", "up", "right"], "actionTimes": [15590, 16214, 17182, 17790, 18326], "queries": {"click": {"state": {"target": ["17", "20", "29"], "time": [4227, 7730, 10782]}, "edge": {"target": [], "time": []}}, "mouseover": {"state": {"target": ["0", "13", "14", "15", "17", "20", "19", "22", "12", "0", "23", "24", "25", "29", "26", "24"], "time": [1781, 3556, 3623, 3773, 3973, 4491, 8727, 8827, 8994, 9044, 9094, 9277, 9411, 9862, 11363, 11429]}, "edge": {"target": [], "time": []}}, "mouseout": {"state": {"target": ["0", "0", "13", "14", "15", "17", "20", "19", "22", "12", "0", "23", "24", "25", "29", "26", "24"], "time": [1204, 1905, 3589, 3639, 3806, 4407, 8327, 8777, 8844, 9011, 9078, 9211, 9361, 9711, 11348, 11379, 11630]}, "edge": {"target": [], "time": []}}}, "displayed_time": "18.84", "trialTime": 21206, "trial_type": "mouselab-mdp", "trial_index": 41, "time_elapsed": 1670475, "internal_node_id": "0.0-4.0-1.0-32.0"}}, {"uniqueid": "w62896769:a21439250", "current_trial": 42, "dateTime": 1691143695423, "trialdata": {"revealed_states": [], "clicked_states": ["11", "6", "16"], "num_clicks_accrued": [0, 0, 0, 0, 0, 0, 0, 0, 0, 0, 0, 0, 0], "stateRewards": ["", -2, 2, 2, -6, 9, 37, 50, -13, -7, -18, -75, -2, -4, 4, 7, 23, -57, -66, -7, -81, -48, -76, 1, 1, -8, 1, 51, -2, 70, 14, 59, 71, -37], "withholdReward": false, "trial_id": "mdp_trial_34", "block": "test", "trialIndex": 35, "score": 26.55, "costs": -6.449999999999999, "simulationMode": [null, null, null, null, null], "rewards": [-2, 2, 2, -6, 37], "path": ["0", "0", "1", "2", "3", "4", "6"], "rt": [12075, 8, 395, 366, 84], "actions": ["up", "up", "up", "right", "right"], "actionTimes": [19161, 19671, 20575, 21432, 22016], "queries": {"click": {"state": {"target": ["11", "6", "16"], "time": [8863, 11760, 14738]}, "edge": {"target": [], "time": []}}, "mouseover": {"state": {"target": ["2", "8", "11", "8", "3", "4", "6", "2", "1", "18", "15", "16"], "time": [8003, 8154, 8605, 9037, 9120, 9170, 9237, 12490, 12723, 12957, 13107, 13190]}, "edge": {"target": [], "time": []}}, "mouseout": {"state": {"target": ["0", "12", "2", "8", "11", "8", "3", "4", "6", "2", "1", "18", "15", "16"], "time": [4132, 4416, 8053, 8402, 9025, 9087, 9154, 9204, 12206, 12606, 12873, 13007, 13124, 15192]}, "edge": {"target": [], "time": []}}}, "displayed_time": "22.52", "trialTime": 26496, "trial_type": "mouselab-mdp", "trial_index": 42, "time_elapsed": 1697140, "internal_node_id": "0.0-4.0-1.0-33.0"}}, {"uniqueid": "w62896769:a21439250", "current_trial": 43, "dateTime": 1691143718541, "trialdata": {"revealed_states": [], "clicked_states": ["29", "33", "9"], "num_clicks_accrued": [0, 0, 0, 0, 0, 0, 0, 0, 0, 0, 0, 0, 0], "stateRewards": ["", -2, -4, -2, -13, -15, 87, -19, -6, -80, 30, 12, 1, 1, -8, 2, 55, 56, 15, 11, -68, -7, 55, -2, 3, -3, -3, 48, 62, 4, 1, -3, 69, -33], "withholdReward": false, "trial_id": "mdp_trial_35", "block": "test", "trialIndex": 36, "score": -7.449999999999999, "costs": -6.449999999999999, "simulationMode": [null, null, null, null, null], "rewards": [-2, 3, -3, -3, 4], "path": ["0", "0", "23", "24", "25", "26", "29"], "rt": [12882, 35, 29, 79, 424], "actions": ["left", "left", "left", "up", "left"], "actionTimes": [18324, 18859, 19403, 19971, 20916], "queries": {"click": {"state": {"target": ["29", "33", "9"], "time": [7190, 10297, 13668]}, "edge": {"target": [], "time": []}}, "mouseover": {"state": {"target": ["0", "23", "24", "25", "29", "33", "33", "12", "14", "17", "17", "16", "4", "3", "9", "26", "29"], "time": [6029, 6095, 6230, 6679, 7046, 7480, 7664, 10800, 10833, 10950, 11134, 11267, 11618, 11668, 11918, 14620, 14970]}, "edge": {"target": [], "time": []}}, "mouseout": {"state": {"target": ["15", "13", "0", "0", "23", "24", "25", "29", "33", "33", "12", "14", "17", "17", "16", "4", "3", "9", "26", "29"], "time": [4378, 4444, 5712, 6046, 6196, 6497, 6863, 7314, 7514, 10733, 10817, 10850, 11000, 11151, 11384, 11651, 11801, 14436, 14670, 22510]}, "edge": {"target": [], "time": []}}}, "displayed_time": "21.41", "trialTime": 22971, "trial_type": "mouselab-mdp", "trial_index": 43, "time_elapsed": 1720258, "internal_node_id": "0.0-4.0-1.0-34.0"}}, {"uniqueid": "w62896769:a21439250", "current_trial": 44, "dateTime": 1691143740319, "trialdata": {"revealed_states": [], "clicked_states": ["20", "22", "33"], "num_clicks_accrued": [0, 0, 0, 0, 0, 0, 0, 0, 0, 0, 0, 0, 0], "stateRewards": ["", -2, -1, -3, -1, -78, -6, 2, -1, 22, -88, 32, 2, 2, -7, -8, -51, -17, 54, 2, -44, 54, 75, 2, -2, -8, -15, -29, 12, -67, 15, -1, -47, -47], "withholdReward": false, "trial_id": "mdp_trial_36", "block": "test", "trialIndex": 37, "score": 67.55, "costs": -6.449999999999999, "simulationMode": [null, null, null, null, null], "rewards": [2, 2, -7, 2, 75], "path": ["0", "0", "12", "13", "14", "19", "22"], "rt": [11169, 248, 3, 100, 108], "actions": ["right", "right", "right", "down", "left"], "actionTimes": [16853, 17588, 18094, 18708, 19317], "queries": {"click": {"state": {"target": ["20", "22", "33"], "time": [6640, 9918, 13148]}, "edge": {"target": [], "time": []}}, "mouseover": {"state": {"target": ["0", "19", "20", "17", "14", "22", "32", "30", "33", "30"], "time": [5897, 6114, 6365, 7132, 7833, 8016, 11452, 12302, 12435, 13553]}, "edge": {"target": [], "time": []}}, "mouseout": {"state": {"target": ["22", "0", "0", "19", "20", "17", "14", "22", "32", "30", "33", "30"], "time": [5130, 5213, 5948, 6131, 6713, 7767, 7899, 10535, 12219, 12319, 13536, 13570]}, "edge": {"target": [], "time": []}}}, "displayed_time": "19.81", "trialTime": 21614, "trial_type": "mouselab-mdp", "trial_index": 44, "time_elapsed": 1742036, "internal_node_id": "0.0-4.0-1.0-35.0"}}, {"uniqueid": "w62896769:a21439250", "current_trial": 45, "dateTime": 1691143762054, "trialdata": {"revealed_states": [], "clicked_states": ["11", "6", "17"], "num_clicks_accrued": [0, 0, 0, 0, 0, 0, 0, 0, 0, 0, 0, 0, 0], "stateRewards": ["", 1, 2, -5, 14, 54, -14, -25, 16, -5, -87, 78, -1, 1, 3, -3, 52, 53, 53, -10, 73, -69, -48, 2, 3, 1, 8, -62, -7, 85, 7, 82, 52, -28], "withholdReward": false, "trial_id": "mdp_trial_37", "block": "test", "trialIndex": 38, "score": 85.55, "costs": -6.449999999999999, "simulationMode": [null, null, null, null, null], "rewards": [1, 2, -5, 16, 78], "path": ["0", "0", "1", "2", "3", "8", "11"], "rt": [12239, 56, 17, 60, 110], "actions": ["up", "up", "up", "left", "left"], "actionTimes": [17183, 17727, 18255, 18815, 19415], "queries": {"click": {"state": {"target": ["11", "6", "17"], "time": [5905, 9023, 12671]}, "edge": {"target": [], "time": []}}, "mouseover": {"state": {"target": ["2", "8", "11", "8", "3", "4", "6", "4", "9", "2", "18", "15", "17", "15", "7", "2"], "time": [5392, 5509, 5692, 6064, 6110, 6227, 6393, 9579, 9830, 10180, 10497, 10547, 11031, 13200, 13249, 13283]}, "edge": {"target": [], "time": []}}, "mouseout": {"state": {"target": ["22", "0", "2", "8", "11", "8", "3", "4", "6", "4", "9", "2", "18", "15", "17", "15", "7", "2"], "time": [4408, 4792, 5460, 5626, 6026, 6094, 6193, 6276, 9529, 9629, 10080, 10197, 10513, 10663, 13166, 13216, 13283, 13332]}, "edge": {"target": [], "time": []}}}, "displayed_time": "19.91", "trialTime": 21528, "trial_type": "mouselab-mdp", "trial_index": 45, "time_elapsed": 1763771, "internal_node_id": "0.0-4.0-1.0-36.0"}}, {"uniqueid": "w62896769:a21439250", "current_trial": 46, "dateTime": 1691143780694, "trialdata": {"revealed_states": [], "clicked_states": ["28", "18", "9"], "num_clicks_accrued": [0, 0, 0, 0, 0, 0, 0, 0, 0, 0, 0, 0, 0], "stateRewards": ["", -1, 4, -3, 3, 57, -61, 5, -11, 23, -1, 34, -2, -4, -1, -13, 27, 38, -36, 4, -45, 21, 88, 1, -2, -1, 1, -69, -5, -78, -12, -9, 38, -54], "withholdReward": false, "trial_id": "mdp_trial_38", "block": "test", "trialIndex": 39, "score": 5.550000000000001, "costs": -6.449999999999999, "simulationMode": [null, null, null, null, null], "rewards": [-1, 4, -3, -11, 23], "path": ["0", "0", "1", "2", "3", "8", "9"], "rt": [11605, 3, 317, 674, 107], "actions": ["up", "up", "up", "left", "up"], "actionTimes": [13112, 13617, 14448, 15623, 16223], "queries": {"click": {"state": {"target": ["28", "18", "9"], "time": [3002, 6261, 9597]}, "edge": {"target": [], "time": []}}, "mouseover": {"state": {"target": ["24", "25", "26", "28", "24", "31", "12", "13", "18", "13", "1", "2", "3", "8", "9", "4", "6"], "time": [2119, 2236, 2637, 2704, 3321, 3588, 4088, 4106, 4439, 6790, 7324, 7491, 7675, 8025, 8592, 10076, 10260]}, "edge": {"target": [], "time": []}}, "mouseout": {"state": {"target": ["0", "24", "25", "26", "28", "24", "31", "12", "13", "18", "13", "1", "2", "3", "8", "9", "4", "6"], "time": [2036, 2186, 2253, 2687, 3288, 3421, 4038, 4105, 4138, 6757, 6924, 7407, 7608, 7958, 8492, 9993, 10144, 17916]}, "edge": {"target": [], "time": []}}}, "displayed_time": "16.72", "trialTime": 18480, "trial_type": "mouselab-mdp", "trial_index": 46, "time_elapsed": 1782412, "internal_node_id": "0.0-4.0-1.0-37.0"}}, {"uniqueid": "w62896769:a21439250", "current_trial": 47, "dateTime": 1691143802616, "trialdata": {"revealed_states": [], "clicked_states": ["6", "10", "21"], "num_clicks_accrued": [0, 0, 0, 0, 0, 0, 0, 0, 0, 0, 0, 0, 0], "stateRewards": ["", -1, 2, -2, 13, -56, -28, 10, 14, 53, -80, -29, 1, -3, -3, -14, 14, 9, -40, -9, 18, 18, 48, 1, 1, 1, -9, 64, -39, -9, 7, -52, -78, 7], "withholdReward": false, "trial_id": "mdp_trial_39", "block": "test", "trialIndex": 40, "score": -2.4499999999999993, "costs": -6.449999999999999, "simulationMode": [null, null, null, null, null], "rewards": [1, -3, -3, -9, 18], "path": ["0", "0", "12", "13", "14", "19", "21"], "rt": [12689, 19, 414, 441, 34], "actions": ["right", "right", "right", "down", "down"], "actionTimes": [16589, 17101, 18029, 18973, 19500], "queries": {"click": {"state": {"target": ["6", "10", "21"], "time": [5984, 9122, 12798]}, "edge": {"target": [], "time": []}}, "mouseover": {"state": {"target": ["6", "7", "2", "10", "2", "18", "19", "21", "21"], "time": [5787, 6288, 6371, 6571, 10925, 11008, 11326, 11558, 12609]}, "edge": {"target": [], "time": []}}, "mouseout": {"state": {"target": ["12", "0", "6", "7", "2", "10", "2", "18", "19", "21", "21"], "time": [3017, 4352, 6221, 6322, 6505, 10891, 10958, 11026, 11425, 12426, 13093]}, "edge": {"target": [], "time": []}}}, "displayed_time": "20.02", "trialTime": 21767, "trial_type": "mouselab-mdp", "trial_index": 47, "time_elapsed": 1804334, "internal_node_id": "0.0-4.0-1.0-38.0"}}, {"uniqueid": "w62896769:a21439250", "current_trial": 48, "dateTime": 1691143821486, "trialdata": {"revealed_states": [], "clicked_states": ["29", "17", "5"], "num_clicks_accrued": [0, 0, 0, 0, 0, 0, 0, 0, 0, 0, 0, 0, 0], "stateRewards": ["", 1, 2, -6, -13, -51, 22, -4, -12, -44, -12, 6, -2, -2, -2, -14, -46, -4, -77, -2, 36, -79, 41, 2, -4, 2, -6, -55, 59, 70, -5, 39, -19, 24], "withholdReward": false, "trial_id": "mdp_trial_40", "block": "test", "trialIndex": 41, "score": 57.55, "costs": -6.449999999999999, "simulationMode": [null, null, null, null, null], "rewards": [2, -4, 2, -6, 70], "path": ["0", "0", "23", "24", "25", "26", "29"], "rt": [11723, 4, 266, 67, 475], "actions": ["left", "left", "left", "up", "left"], "actionTimes": [14003, 14495, 15274, 15842, 16834], "queries": {"click": {"state": {"target": ["29", "17", "5"], "time": [3423, 6250, 10020]}, "edge": {"target": [], "time": []}}, "mouseover": {"state": {"target": ["23", "24", "25", "29", "26", "28", "15", "17", "5", "4", "7"], "time": [2630, 2697, 2730, 3013, 3714, 3732, 4031, 4248, 7300, 11271, 11421]}, "edge": {"target": [], "time": []}}, "mouseout": {"state": {"target": ["0", "23", "24", "25", "29", "26", "28", "15", "17", "5", "4", "7"], "time": [2613, 2679, 2714, 2746, 3697, 3731, 3747, 4081, 6900, 10570, 11387, 11471]}, "edge": {"target": [], "time": []}}}, "displayed_time": "17.33", "trialTime": 18714, "trial_type": "mouselab-mdp", "trial_index": 48, "time_elapsed": 1823203, "internal_node_id": "0.0-4.0-1.0-39.0"}}, {"uniqueid": "w62896769:a21439250", "current_trial": 49, "dateTime": 1691143945271, "trialdata": {"rt": 123782, "response": {"Q0": "$-2 to $2", "Q1": "$-16 to $16", "Q2": "$-88 to $88", "Q3": "The cost for clicking on nodes varied between nodes.", "Q4": "Slightly motivated"}, "question_order": [0, 1, 2, 3, 4], "trial_id": "final_quiz_control", "trial_type": "survey-multi-choice", "trial_index": 49, "time_elapsed": 1946989, "internal_node_id": "0.0-4.0-2.0"}}, {"uniqueid": "w62896769:a21439250", "current_trial": 50, "dateTime": 1691144211666, "trialdata": {"rt": 266391, "response": {"Q0": "i started by viewing the circles closest to the center to determine my route then later switch to viewing the end circles to determine my route, which worked better. ", "Q1": "Yes, i switched from viewing circles closest to the center to viewing the last circles only. ", "Q2": "it wasn't difficult, i noticed my strategy wasn't working halfway through the experiment and tried something new. "}, "trial_id": "self_report_control", "trial_type": "survey-text", "trial_index": 50, "time_elapsed": 2213384, "internal_node_id": "0.0-4.0-3.0"}}, {"uniqueid": "w62896769:a21439250", "current_trial": 51, "dateTime": 1691144276590, "trialdata": {"rt": 64920, "response": {"Q0": "Neither disagree nor agree", "Q1": "Neither disagree nor agree", "Q2": "Neither disagree nor agree", "Q3": "Agree", "Q4": "Agree", "Q5": "Agree", "Q6": "Disagree"}, "question_order": [0, 1, 2, 3, 4, 5, 6], "trial_id": "self_report_2", "trial_type": "survey-multi-choice", "trial_index": 51, "time_elapsed": 2278308, "internal_node_id": "0.0-4.0-4.0"}}, {"uniqueid": "w62896769:a21439250", "current_trial": 52, "dateTime": 1691144313941, "trialdata": {"rt": 37347, "response": {"gender": "female", "age": "30", "colorblind": "0", "effort": "1"}, "trial_type": "survey-html-form", "trial_index": 52, "time_elapsed": 2315659, "internal_node_id": "0.0-4.0-5.0"}}, {"uniqueid": "w62896769:a21439250", "current_trial": 53, "dateTime": 1691144378828, "trialdata": {"rt": 64884, "response": {"Q0": "Not really. ", "Q1": "No, this is the first time I've participated in a Web for Cash HIT. ", "Q2": ""}, "trial_type": "survey-text", "trial_index": 53, "time_elapsed": 2380546, "internal_node_id": "0.0-4.0-6.0"}}, {"uniqueid": "w62896769:a21439250", "current_trial": 54, "dateTime": 1691144381311, "trialdata": {"rt": 2479, "stimulus": "Press 'Finish HIT' in order to reach the completion code. Once the data has been saved, you will receive the code either in this window or in the original browser window where you started the experiment.\n", "response": 0, "trial_type": "html-button-response", "trial_index": 54, "time_elapsed": 2383029, "internal_node_id": "0.0-5.0"}}, {"uniqueid": "w62896769:a21439250", "current_trial": 55, "dateTime": 1691144382314, "trialdata": {"success": true, "trial_type": "fullscreen", "trial_index": 55, "time_elapsed": 2384032, "internal_node_id": "0.0-6.0"}}], "questiondata": {"params": {"CODE": "C6DMOQA6", "MIN_TIME": 14, "inspectCost": 1, "startTime": "Fri Aug 04 2023 11:39:56 GMT+0200 (South Africa Standard Time)", "bonusRate": 0.002, "variance": "1_2_4_8_44", "branching": "31123"}, "final_score": 291.85}, "eventdata": [{"eventtype": "initialized", "value": null, "timestamp": 1691141995842, "interval": 0}, {"eventtype": "window_resize", "value": [1024, 768], "timestamp": 1691141995842, "interval": 0}, {"eventtype": "window_resize", "value": [1024, 768], "timestamp": 1691141996327, "interval": 485}, {"eventtype": "window_resize", "value": [1920, 978], "timestamp": 1691142003268, "interval": 6941}, {"eventtype": "focus", "value": "off", "timestamp": 1691142024038, "interval": 20770}, {"eventtype": "focus", "value": "on", "timestamp": 1691142049766, "interval": 25728}, {"eventtype": "window_resize", "value": [1920, 1080], "timestamp": 1691142050064, "interval": 298}, {"eventtype": "focus", "value": "off", "timestamp": 1691142090015, "interval": 39951}, {"eventtype": "window_resize", "value": [1920, 1079], "timestamp": 1691142090237, "interval": 222}, {"eventtype": "focus", "value": "on", "timestamp": 1691142131261, "interval": 41024}, {"eventtype": "window_resize", "value": [1920, 1080], "timestamp": 1691142131456, "interval": 195}, {"eventtype": "focus", "value": "off", "timestamp": 1691142391388, "interval": 259932}, {"eventtype": "focus", "value": "on", "timestamp": 1691142430705, "interval": 39317}, {"eventtype": "focus", "value": "off", "timestamp": 1691142467634, "interval": 36929}, {"eventtype": "focus", "value": "on", "timestamp": 1691142482672, "interval": 15038}, {"eventtype": "focus", "value": "off", "timestamp": 1691143038083, "interval": 555411}, {"eventtype": "focus", "value": "on", "timestamp": 1691143062867, "interval": 24784}, {"eventtype": "focus", "value": "off", "timestamp": 1691143062868, "interval": 1}, {"eventtype": "focus", "value": "on", "timestamp": 1691143062872, "interval": 4}, {"eventtype": "window_resize", "value": [1920, 978], "timestamp": 1691143063084, "interval": 212}], "useragent": "Mozilla/5.0 (Windows NT 10.0; Win64; x64) AppleWebKit/537.36 (KHTML, like Gecko) Chrome/115.0.0.0 Safari/537.36 Edg/115.0.1901.188", "mode": "live", "id": "w62896769:a21439250", "status": "user data saved", "Beginhit": "2023-08-04 09:39:53.304928", "Beginexp": "2023-08-04 09:40:51.004799", "Endhit": "2023-08-04 10:19:43.549758", "psiturkStatus": 3, "browser": "<redacted>", "platform": "windows", "language": "en-US"}