{"condition": 1, "counterbalance": 0, "assignmentId": "a24124702", "workerId": "w18580193", "hitId": "h89228424", "currenttrial": 56, "bonus": 0, "data": [{"uniqueid": "w18580193:a24124702", "current_trial": 0, "dateTime": 1691142746898, "trialdata": {"success": true, "trial_type": "fullscreen", "trial_index": 0, "time_elapsed": 89060, "internal_node_id": "0.0-0.0"}}, {"uniqueid": "w18580193:a24124702", "current_trial": 1, "dateTime": 1691142778587, "trialdata": {"view_history": [{"page_index": 0, "viewing_time": 31682}], "rt": 31684, "trial_id": "exp_instructions_misaligned", "trial_type": "instructions", "trial_index": 1, "time_elapsed": 120755, "internal_node_id": "0.0-1.0"}}, {"uniqueid": "w18580193:a24124702", "current_trial": 2, "dateTime": 1691142781650, "trialdata": {"success": true, "trial_type": "fullscreen", "trial_index": 2, "time_elapsed": 123818, "internal_node_id": "0.0-2.0-0.0"}}, {"uniqueid": "w18580193:a24124702", "current_trial": 3, "dateTime": 1691142998894, "trialdata": {"view_history": [{"page_index": 0, "viewing_time": 68640}, {"page_index": 1, "viewing_time": 99241}, {"page_index": 2, "viewing_time": 17870}, {"page_index": 3, "viewing_time": 31497}], "rt": 217248, "trial_id": "mouselab_instructions_1_misaligned", "trial_type": "instructions", "trial_index": 3, "time_elapsed": 341061, "internal_node_id": "0.0-2.0-1.0"}}, {"uniqueid": "w18580193:a24124702", "current_trial": 4, "dateTime": 1691143092700, "trialdata": {"revealed_states": [], "clicked_states": ["1", "7", "18", "17", "19", "31", "23", "25", "24", "30", "33", "32", "27", "9", "6", "14", "2", "4", "3", "11"], "num_clicks_accrued": [0, 0, 0, 0, 0, 0, 0, 0, 0, 0, 0, 0, 0], "stateRewards": ["", -10, -10, 10, 10, -10, -10, -10, -10, -10, -10, 10, 10, -10, -10, 10, -10, -10, -10, -10, -10, 10, -10, 10, -10, 10, -10, -10, 10, 10, -10, -10, 10, -10], "withholdReward": false, "trial_id": "practice_1", "block": "test", "trialIndex": 0, "score": -16.5, "costs": -10, "simulationMode": [null, null, null, null, null], "rewards": [10, -10, -10, -10, 10], "path": ["0", "0", "12", "13", "14", "19", "21"], "rt": [68869, 3404, 2908, 1170, 1286], "actions": ["right", "right", "right", "down", "down"], "actionTimes": [78202, 82140, 85568, 87257, 89067], "queries": {"click": {"state": {"target": ["1", "7", "18", "17", "19", "31", "23", "25", "24", "30", "33", "32", "27", "9", "6", "14", "2", "4", "3", "11"], "time": [16616, 18665, 22593, 25061, 29154, 34137, 35710, 38197, 39948, 46807, 48952, 52087, 54756, 57007, 59084, 61602, 63620, 64973, 66024, 69127]}, "edge": {"target": [], "time": []}}, "mouseover": {"state": {"target": ["1", "7", "4", "3", "2", "2", "18", "15", "17", "19", "22", "0", "22", "21", "31", "24", "23", "28", "28", "25", "24", "26", "31", "30", "33", "31", "32", "30", "25", "23", "28", "27", "11", "9", "4", "6", "18", "14", "13", "7", "2", "3", "4", "3", "8", "11", "8", "3", "2", "1", "0"], "time": [16264, 18494, 20007, 21371, 21871, 22068, 22435, 24597, 24895, 28770, 31912, 31978, 32563, 32844, 33923, 35218, 35470, 37083, 37248, 37995, 38749, 42388, 43068, 46578, 48873, 51564, 52031, 52698, 52863, 53427, 53692, 54474, 56252, 56652, 57991, 58416, 59597, 60595, 62175, 62307, 63502, 64347, 64848, 65884, 68525, 68972, 69906, 70073, 73096, 73978, 74841]}, "edge": {"target": [], "time": []}}, "mouseout": {"state": {"target": ["0", "1", "1", "0", "0", "1", "7", "4", "3", "2", "2", "18", "15", "17", "19", "22", "0", "22", "21", "31", "24", "23", "28", "28", "25", "24", "26", "24", "31", "30", "33", "31", "32", "30", "25", "23", "28", "27", "11", "9", "4", "6", "18", "14", "13", "7", "2", "3", "4", "3", "4", "4", "3", "8", "11", "8", "3", "2", "1", "0"], "time": [569, 634, 1552, 3347, 8333, 16718, 19875, 21303, 21721, 21885, 22118, 24562, 24695, 27121, 31897, 31930, 32511, 32759, 33291, 35139, 35438, 36934, 37151, 37665, 38304, 40830, 42636, 42935, 45381, 48504, 50467, 51732, 52216, 52736, 52930, 53543, 54359, 56169, 56502, 57146, 58047, 59532, 60311, 62142, 62225, 63370, 63755, 64783, 65848, 67066, 67127, 68175, 68292, 68573, 69873, 69989, 72847, 73830, 74774, 75855]}, "edge": {"target": [], "time": []}}}, "displayed_time": "89.59", "trialTime": 92753, "trial_type": "mouselab-mdp", "trial_index": 4, "time_elapsed": 434862, "internal_node_id": "0.0-2.0-2.0-0.0"}}, {"uniqueid": "w18580193:a24124702", "current_trial": 5, "dateTime": 1691143211969, "trialdata": {"revealed_states": [], "clicked_states": ["2", "16", "15", "13", "24", "23", "25", "33", "30", "27", "11", "3", "4", "5", "7", "1", "6", "10", "9", "8", "32", "29"], "num_clicks_accrued": [0, 0, 0, 0, 0, 0, 0, 0, 0, 0, 0, 0, 0], "stateRewards": ["", -10, -10, -10, 10, 10, -10, 10, 10, -10, 10, -10, -10, -10, 10, -10, -10, 10, 10, 10, 10, -10, -10, -10, -10, -10, 10, -10, 10, 10, -10, 10, -10, 10], "withholdReward": false, "trial_id": "practice_2", "block": "test", "trialIndex": 1, "score": -17.5, "costs": -11, "simulationMode": [null, null, null, null, null], "rewards": [-10, -10, -10, 10, 10], "path": ["0", "0", "1", "2", "3", "8", "10"], "rt": [96104, 654, 8688, 2933, 417], "actions": ["up", "up", "up", "left", "down"], "actionTimes": [98428, 99607, 108820, 112276, 113220], "queries": {"click": {"state": {"target": ["2", "16", "15", "13", "24", "23", "25", "33", "30", "27", "11", "3", "4", "5", "7", "1", "6", "10", "9", "8", "32", "29"], "time": [8817, 14403, 17445, 18624, 19946, 21618, 25784, 26986, 28316, 33528, 35269, 37345, 38804, 40087, 44009, 49452, 53910, 56155, 62358, 66731, 73562, 75728]}, "edge": {"target": [], "time": []}}, "mouseover": {"state": {"target": ["0", "1", "2", "1", "1", "4", "7", "7", "10", "2", "7", "16", "15", "13", "12", "0", "23", "24", "23", "0", "25", "30", "33", "30", "31", "31", "32", "30", "26", "27", "11", "9", "3", "4", "5", "10", "2", "7", "7", "7", "2", "2", "1", "7", "6", "1", "30", "33", "24", "10", "1", "3", "5", "9", "8", "28", "8", "3", "5", "3", "10", "3", "6", "10", "26", "25", "30", "32", "30", "29", "33", "29", "26", "28", "28", "10", "3", "6", "6", "4", "3", "8", "10", "10", "4", "5", "10", "28", "23", "0"], "time": [7753, 7817, 8202, 9499, 10894, 10976, 11340, 12521, 12855, 13371, 13752, 14267, 15880, 18194, 19277, 19326, 19658, 19755, 21267, 24083, 25658, 26408, 26702, 27972, 30479, 31477, 31792, 32973, 33205, 33339, 34851, 36798, 37081, 38147, 39474, 41158, 41505, 41553, 42550, 43116, 45162, 47407, 49318, 50074, 50137, 54725, 54807, 55070, 55353, 55835, 58628, 61138, 61654, 62104, 64068, 64696, 66592, 67839, 68307, 68721, 69252, 70635, 71381, 71865, 72097, 72262, 72829, 72926, 74127, 74526, 74957, 75654, 76290, 77435, 77866, 78100, 78333, 79713, 79947, 80013, 80095, 80293, 81126, 81991, 82858, 83554, 86795, 87162, 93512, 93533]}, "edge": {"target": [], "time": []}}, "mouseout": {"state": {"target": ["0", "0", "1", "2", "1", "1", "4", "7", "7", "2", "10", "2", "7", "16", "15", "13", "12", "0", "23", "24", "23", "0", "25", "30", "33", "30", "31", "31", "32", "30", "26", "27", "11", "9", "3", "4", "5", "10", "2", "7", "4", "4", "5", "5", "4", "7", "7", "2", "2", "1", "7", "6", "1", "30", "33", "24", "10", "10", "1", "10", "3", "5", "9", "8", "28", "8", "3", "5", "3", "10", "8", "8", "3", "6", "10", "26", "25", "30", "32", "30", "29", "33", "29", "26", "28", "28", "10", "3", "6", "6", "4", "3", "8", "10", "10", "4", "5", "10", "28", "23", "0"], "time": [7535, 7770, 8148, 9483, 9548, 10910, 11259, 12321, 12739, 12804, 13336, 13684, 13854, 15781, 18061, 19244, 19310, 19360, 19729, 21191, 24079, 24095, 26324, 26441, 27805, 30179, 30912, 31661, 32956, 32992, 33290, 34786, 35393, 36848, 37465, 39352, 41023, 41170, 41520, 41570, 41736, 42052, 42234, 42401, 42482, 42849, 45096, 47155, 49253, 49586, 50092, 54689, 54740, 54824, 55188, 55370, 57815, 58311, 58697, 61090, 61223, 61688, 64032, 64101, 64732, 67394, 67907, 68655, 68756, 69452, 69770, 70601, 70650, 71464, 71897, 72131, 72479, 72844, 73701, 74145, 74741, 75322, 76240, 77234, 77651, 78051, 78116, 78433, 79796, 79996, 80062, 80211, 80959, 81274, 82010, 83470, 84084, 87045, 93415, 93528, 93547]}, "edge": {"target": [], "time": []}}}, "displayed_time": "113.73", "trialTime": 118708, "trial_type": "mouselab-mdp", "trial_index": 5, "time_elapsed": 554136, "internal_node_id": "0.0-2.0-2.0-1.0"}}, {"uniqueid": "w18580193:a24124702", "current_trial": 6, "dateTime": 1691143245488, "trialdata": {"view_history": [{"page_index": 0, "viewing_time": 25056}, {"page_index": 1, "viewing_time": 8458}], "rt": 33514, "trial_id": "mouselab_instructions_2_misaligned", "trial_type": "instructions", "trial_index": 6, "time_elapsed": 587656, "internal_node_id": "0.0-2.0-3.0"}}, {"uniqueid": "w18580193:a24124702", "current_trial": 7, "dateTime": 1691143311675, "trialdata": {"rt": 66175, "response": {"Q0": "The cost for clicking on nodes may vary between nodes.", "Q1": "The better I perform the higher my bonus will be.", "Q2": "No, the amount of cash at each node of the web may be different each time.", "Q3": "To get the highest total score.", "Q4": "Only before moving the spider.", "Q5": "3 seconds"}, "question_order": [0, 1, 2, 3, 4, 5], "correct": {"Q0": "The cost for clicking on nodes may vary between nodes.", "Q1": "The better I perform the higher my bonus will be.", "Q2": "No, the amount of cash at each node of the web may be different each time.", "Q3": "To get the highest total score.", "Q4": "Only before moving the spider.", "Q5": "3 seconds"}, "trial_id": "mouselab_quiz_misaligned", "trial_type": "survey-multi-choice", "trial_index": 7, "time_elapsed": 653843, "internal_node_id": "0.0-2.0-4.0"}}, {"uniqueid": "w18580193:a24124702", "current_trial": 8, "dateTime": 1691143328389, "trialdata": {"rt": 16704, "stimulus": "\n<h1> Get ready to start the game! </h1>\n\nThank you for reading the instructions. Get ready start with the 40 rounds of this game.\n<br><br>\nIf you need to take a break, feel free to take one after the end of a round, before continuing to the next one.\n<br><br>\nRemember, the more money the spider gets, the bigger your bonus will be!\n<br><br>\n<div style='text-align: center;'>Press <code>space</code> to begin.</div>\n\n<br><br>\n(If, at any point, the <code>space</code> key does not take you to the next page, click once on the text and try again.)", "response": " ", "trial_id": "mdp_ready", "trial_type": "html-keyboard-response", "trial_index": 8, "time_elapsed": 670556, "internal_node_id": "0.0-4.0-0.0"}}, {"uniqueid": "w18580193:a24124702", "current_trial": 9, "dateTime": 1691143357298, "trialdata": {"revealed_states": [], "clicked_states": [], "num_clicks_accrued": [0, 0, 0, 0, 0, 0, 0, 0, 0, 0, 0, 0, 0], "stateRewards": ["", -1, -2, 8, -6, -79, -6, 87, 9, -5, -66, -38, 2, 2, 5, -6, -82, 74, 85, -8, 67, -30, -15, 1, -2, -2, -2, 87, 64, 49, 7, 2, -38, -9], "withholdReward": false, "trial_id": "mdp_trial_1", "block": "test", "trialIndex": 2, "score": -80, "costs": 0, "simulationMode": [null, null, null, null, null], "rewards": [-1, -2, 8, -6, -79], "path": ["0", "0", "1", "2", "3", "4", "5"], "rt": [3104, 3812, 8109, 745, 377], "actions": ["up", "up", "up", "right", "up"], "actionTimes": [7936, 12272, 20909, 22173, 23070], "queries": {"click": {"state": {"target": [], "time": []}, "edge": {"target": [], "time": []}}, "mouseover": {"state": {"target": [], "time": []}, "edge": {"target": [], "time": []}}, "mouseout": {"state": {"target": ["0", "0"], "time": [3714, 4347]}, "edge": {"target": [], "time": []}}}, "displayed_time": "23.59", "trialTime": 28373, "trial_type": "mouselab-mdp", "trial_index": 9, "time_elapsed": 699460, "internal_node_id": "0.0-4.0-1.0-0.0"}}, {"uniqueid": "w18580193:a24124702", "current_trial": 10, "dateTime": 1691143383113, "trialdata": {"revealed_states": [], "clicked_states": [], "num_clicks_accrued": [0, 0, 0, 0, 0, 0, 0, 0, 0, 0, 0, 0, 0], "stateRewards": ["", -1, 3, 2, 9, 41, 4, -46, -12, -54, -87, -25, 2, 3, -1, 11, -77, 12, -33, -9, -32, 35, 72, 1, 3, -7, 4, 37, 65, -73, 6, 77, -43, 8], "withholdReward": false, "trial_id": "mdp_trial_2", "block": "test", "trialIndex": 3, "score": -33, "costs": 0, "simulationMode": [null, null, null, null, null], "rewards": [-1, 3, 2, -12, -25], "path": ["0", "0", "1", "2", "3", "8", "11"], "rt": [6149, 1217, 2678, 685, 186], "actions": ["up", "up", "up", "left", "left"], "actionTimes": [15035, 16773, 19977, 21178, 21876], "queries": {"click": {"state": {"target": [], "time": []}, "edge": {"target": [], "time": []}}, "mouseover": {"state": {"target": [], "time": []}, "edge": {"target": [], "time": []}}, "mouseout": {"state": {"target": ["0"], "time": [8127]}, "edge": {"target": [], "time": []}}}, "displayed_time": "22.90", "trialTime": 25258, "trial_type": "mouselab-mdp", "trial_index": 10, "time_elapsed": 725281, "internal_node_id": "0.0-4.0-1.0-1.0"}}, {"uniqueid": "w18580193:a24124702", "current_trial": 11, "dateTime": 1691143421865, "trialdata": {"revealed_states": [], "clicked_states": ["23", "24", "25"], "num_clicks_accrued": [0, 0, 0, 0, 0, 0, 0, 0, 0, 0, 0, 0, 0], "stateRewards": ["", -1, 1, 8, -8, -49, 62, -78, 16, 28, -81, 78, -2, -3, -1, -4, 67, 49, -2, -13, -16, -39, 83, 1, -4, 4, -5, -20, 7, 84, 7, -32, -59, 19], "withholdReward": false, "trial_id": "mdp_trial_3", "block": "test", "trialIndex": 4, "score": 78.95, "costs": -1.0499999999999998, "simulationMode": [null, null, null, null, null], "rewards": [1, -4, 4, -5, 84], "path": ["0", "0", "23", "24", "25", "26", "29"], "rt": [18937, 1343, 1549, 4909, 424], "actions": ["left", "left", "left", "up", "left"], "actionTimes": [24038, 25905, 27974, 33412, 34364], "queries": {"click": {"state": {"target": ["23", "24", "25"], "time": [7357, 9937, 11866]}, "edge": {"target": [], "time": []}}, "mouseover": {"state": {"target": ["23", "24", "25", "30", "31", "23", "31", "31", "30", "23"], "time": [6533, 9093, 11803, 12771, 13584, 14315, 14630, 15014, 16860, 21645]}, "edge": {"target": [], "time": []}}, "mouseout": {"state": {"target": ["0", "0", "23", "24", "25", "30", "31", "23", "31", "31", "30", "23"], "time": [4122, 6483, 9043, 11171, 12392, 13535, 14182, 14564, 14715, 16792, 16893, 22395]}, "edge": {"target": [], "time": []}}}, "displayed_time": "34.89", "trialTime": 38183, "trial_type": "mouselab-mdp", "trial_index": 11, "time_elapsed": 764032, "internal_node_id": "0.0-4.0-1.0-2.0"}}, {"uniqueid": "w18580193:a24124702", "current_trial": 12, "dateTime": 1691143458765, "trialdata": {"revealed_states": [], "clicked_states": ["23"], "num_clicks_accrued": [0, 0, 0, 0, 0, 0, 0, 0, 0, 0, 0, 0, 0], "stateRewards": ["", -2, -3, 8, -4, -30, 31, 69, 9, 66, 87, 64, -2, 2, 8, 5, 47, 16, -39, -8, -54, 51, -19, 1, -2, -2, -11, -25, -26, 43, -9, 19, -84, 86], "withholdReward": false, "trial_id": "mdp_trial_4", "block": "test", "trialIndex": 5, "score": 29.25, "costs": 0.25, "simulationMode": [null, null, null, null, null], "rewards": [1, -2, -2, -11, 43], "path": ["0", "0", "23", "24", "25", "26", "29"], "rt": [14395, 1708, 6765, 1178, 291], "actions": ["left", "left", "left", "up", "left"], "actionTimes": [19946, 22173, 29457, 31138, 31945], "queries": {"click": {"state": {"target": ["23"], "time": [7805]}, "edge": {"target": [], "time": []}}, "mouseover": {"state": {"target": ["0", "23", "26", "29", "26", "24"], "time": [6727, 7142, 10402, 10949, 15488, 15606]}, "edge": {"target": [], "time": []}}, "mouseout": {"state": {"target": ["0", "0", "23", "26", "29", "26", "24"], "time": [5014, 6743, 10319, 10717, 13594, 15557, 15622]}, "edge": {"target": [], "time": []}}}, "displayed_time": "32.47", "trialTime": 36219, "trial_type": "mouselab-mdp", "trial_index": 12, "time_elapsed": 800932, "internal_node_id": "0.0-4.0-1.0-3.0"}}, {"uniqueid": "w18580193:a24124702", "current_trial": 13, "dateTime": 1691143489479, "trialdata": {"revealed_states": [], "clicked_states": ["28", "24", "23"], "num_clicks_accrued": [0, 0, 0, 0, 0, 0, 0, 0, 0, 0, 0, 0, 0], "stateRewards": ["", 1, 2, -3, 6, -88, 74, -45, 7, -46, 40, -77, 1, -4, 4, 3, 22, -25, -59, 8, -83, 19, -60, -1, -1, -1, -8, 26, -29, 64, -7, -88, -51, -55], "withholdReward": false, "trial_id": "mdp_trial_5", "block": "test", "trialIndex": 6, "score": -76.25, "costs": -2.25, "simulationMode": [null, null, null, null, null], "rewards": [1, -4, 4, 8, -83], "path": ["0", "0", "12", "13", "14", "19", "20"], "rt": [17123, 1113, 487, 97, 201], "actions": ["right", "right", "right", "down", "right"], "actionTimes": [22935, 24595, 25631, 26247, 26967], "queries": {"click": {"state": {"target": ["28", "24", "23"], "time": [8025, 13010, 14279]}, "edge": {"target": [], "time": []}}, "mouseover": {"state": {"target": ["1", "23", "24", "28", "10", "2", "1", "24", "23", "23", "28", "26", "26", "28", "1", "1", "12", "13"], "time": [6575, 6923, 6960, 7143, 8476, 8556, 9443, 12845, 13677, 14092, 14875, 15306, 17100, 17186, 18053, 19280, 19427, 19627]}, "edge": {"target": [], "time": []}}, "mouseout": {"state": {"target": ["0", "1", "23", "24", "28", "10", "2", "1", "24", "23", "24", "24", "23", "28", "26", "26", "28", "1", "1", "12"], "time": [6279, 6859, 6941, 7027, 8396, 8508, 9354, 12594, 13645, 13845, 13929, 14075, 14372, 14891, 15540, 17145, 17196, 18099, 19313, 19530]}, "edge": {"target": [], "time": []}}}, "displayed_time": "27.48", "trialTime": 30120, "trial_type": "mouselab-mdp", "trial_index": 13, "time_elapsed": 831646, "internal_node_id": "0.0-4.0-1.0-4.0"}}, {"uniqueid": "w18580193:a24124702", "current_trial": 14, "dateTime": 1691143532410, "trialdata": {"revealed_states": [], "clicked_states": ["16", "3", "10", "9", "5", "2"], "num_clicks_accrued": [0, 0, 0, 0, 0, 0, 0, 0, 0, 0, 0, 0, 0], "stateRewards": ["", 1, 2, 7, 13, 88, -71, 27, 3, 60, 5, -53, -2, 2, -6, -1, -30, 79, 47, -4, -14, 46, 68, 1, 1, 8, 10, -14, 86, 48, -11, -67, -44, 5], "withholdReward": false, "trial_id": "mdp_trial_6", "block": "test", "trialIndex": 7, "score": 63.1, "costs": -9.9, "simulationMode": [null, null, null, null, null], "rewards": [1, 2, 7, 3, 60], "path": ["0", "0", "1", "2", "3", "8", "9"], "rt": [28802, 435, 726, 486, 474], "actions": ["up", "up", "up", "left", "up"], "actionTimes": [33491, 34452, 35690, 36698, 37682], "queries": {"click": {"state": {"target": ["16", "3", "10", "9", "5", "2"], "time": [5627, 10018, 11860, 14752, 17765, 22773]}, "edge": {"target": [], "time": []}}, "mouseover": {"state": {"target": ["12", "18", "16", "15", "7", "1", "2", "3", "4", "2", "2", "10", "2", "7", "8", "9", "5", "8", "2", "2", "3", "3", "2"], "time": [5084, 5214, 5498, 6031, 6347, 7298, 7472, 9703, 10705, 11167, 11567, 11733, 12597, 12677, 13930, 14007, 17478, 18868, 20795, 22623, 24485, 29241, 30803]}, "edge": {"target": [], "time": []}}, "mouseout": {"state": {"target": ["13", "12", "0", "12", "18", "16", "15", "7", "1", "2", "3", "4", "2", "2", "10", "2", "7", "8", "9", "5", "8", "2", "2", "3", "3"], "time": [3849, 4066, 5048, 5116, 5396, 5982, 6098, 7197, 7395, 9038, 10605, 10822, 11334, 11667, 12566, 12632, 13631, 13983, 17108, 18785, 19067, 20861, 24237, 28756, 29789]}, "edge": {"target": [], "time": []}}}, "displayed_time": "38.21", "trialTime": 42310, "trial_type": "mouselab-mdp", "trial_index": 14, "time_elapsed": 874578, "internal_node_id": "0.0-4.0-1.0-5.0"}}, {"uniqueid": "w18580193:a24124702", "current_trial": 15, "dateTime": 1691143557201, "trialdata": {"revealed_states": [], "clicked_states": [], "num_clicks_accrued": [0, 0, 0, 0, 0, 0, 0, 0, 0, 0, 0, 0, 0], "stateRewards": ["", 1, 4, -8, -13, -13, -87, -77, -10, -44, 54, 42, 2, -3, -4, 12, -9, -80, 52, 9, 84, -2, -65, 1, -4, -5, -6, 8, 80, 32, 13, -59, -5, -13], "withholdReward": false, "trial_id": "mdp_trial_7", "block": "test", "trialIndex": 8, "score": 18, "costs": 0, "simulationMode": [null, null, null, null, null], "rewards": [1, -4, -5, -6, 32], "path": ["0", "0", "23", "24", "25", "26", "29"], "rt": [7416, 6390, 1299, 133, 3], "actions": ["left", "left", "left", "up", "left"], "actionTimes": [11884, 18802, 20628, 21274, 21793], "queries": {"click": {"state": {"target": [], "time": []}, "edge": {"target": [], "time": []}}, "mouseover": {"state": {"target": ["1"], "time": [8432]}, "edge": {"target": [], "time": []}}, "mouseout": {"state": {"target": ["2", "0"], "time": [168, 8356]}, "edge": {"target": [], "time": []}}}, "displayed_time": "22.32", "trialTime": 24145, "trial_type": "mouselab-mdp", "trial_index": 15, "time_elapsed": 899368, "internal_node_id": "0.0-4.0-1.0-6.0"}}, {"uniqueid": "w18580193:a24124702", "current_trial": 16, "dateTime": 1691143641946, "trialdata": {"revealed_states": [], "clicked_states": ["2", "8", "9", "26", "27", "28", "25", "29", "33", "30", "31", "18", "15", "16", "17", "14", "13", "12", "22", "19", "21", "20", "1", "7"], "num_clicks_accrued": [0, 0, 0, 0, 0, 0, 0, 0, 0, 0, 0, 0, 0], "stateRewards": ["", -1, -2, -8, 8, -27, -82, 19, -14, -62, 4, 1, -2, 2, 6, 10, 73, -51, -2, 2, 73, -48, 54, -1, 2, -4, 11, -25, 47, 86, 15, 33, 43, -42], "withholdReward": false, "trial_id": "mdp_trial_8", "block": "test", "trialIndex": 9, "score": 43.20000000000001, "costs": -37.79999999999999, "simulationMode": [null, null, null, null, null], "rewards": [-2, 2, 6, 2, 73], "path": ["0", "0", "12", "13", "14", "19", "20"], "rt": [62505, 692, 7556, 186, 2347], "actions": ["right", "right", "right", "down", "right"], "actionTimes": [68182, 69392, 77469, 78165, 81022], "queries": {"click": {"state": {"target": ["2", "8", "9", "26", "27", "28", "25", "29", "33", "30", "31", "18", "15", "16", "17", "14", "13", "12", "22", "19", "21", "20", "1", "7"], "time": [7764, 8673, 9611, 12559, 13463, 16336, 19940, 20811, 23723, 27648, 28382, 31365, 34253, 35214, 38675, 41553, 42450, 43303, 44186, 46985, 47714, 50715, 55741, 58733]}, "edge": {"target": [], "time": []}}, "mouseover": {"state": {"target": ["1", "2", "10", "8", "9", "11", "27", "26", "26", "27", "28", "25", "25", "29", "33", "30", "30", "31", "18", "15", "16", "17", "15", "14", "13", "12", "22", "19", "21", "20", "13", "13", "18", "18", "18", "1", "1", "2", "7", "2", "2", "4", "2"], "time": [7392, 7709, 8294, 8446, 9494, 9957, 10291, 12161, 12446, 13361, 14127, 16972, 19695, 20582, 23473, 25119, 27527, 28227, 30006, 32071, 34880, 36033, 39247, 39516, 42124, 43131, 43928, 44805, 47551, 48299, 51377, 52403, 53185, 53435, 53682, 53865, 54911, 56478, 58604, 60253, 62162, 63256, 64356]}, "edge": {"target": [], "time": []}}, "mouseout": {"state": {"target": ["1", "0", "1", "2", "10", "8", "9", "11", "27", "26", "26", "27", "28", "25", "25", "29", "33", "30", "30", "31", "18", "15", "16", "17", "15", "14", "13", "12", "22", "19", "21", "20", "13", "13", "18", "18", "18", "1", "1", "2", "7", "2", "7", "7", "2", "4", "2"], "time": [4680, 7357, 7442, 8276, 8346, 9160, 9939, 9991, 12068, 12232, 13194, 13986, 16917, 19329, 20387, 21445, 23816, 27278, 28195, 29712, 32005, 34829, 35827, 39242, 39267, 42062, 43062, 43862, 44774, 47484, 48165, 51325, 51416, 53036, 53219, 53548, 53731, 54095, 56394, 58502, 60137, 61004, 61528, 62127, 62911, 64203, 65055]}, "edge": {"target": [], "time": []}}}, "displayed_time": "81.54", "trialTime": 84173, "trial_type": "mouselab-mdp", "trial_index": 16, "time_elapsed": 984113, "internal_node_id": "0.0-4.0-1.0-7.0"}}, {"uniqueid": "w18580193:a24124702", "current_trial": 17, "dateTime": 1691143668462, "trialdata": {"revealed_states": [], "clicked_states": [], "num_clicks_accrued": [0, 0, 0, 0, 0, 0, 0, 0, 0, 0, 0, 0, 0], "stateRewards": ["", 2, 4, 4, -8, -36, -33, 38, 16, -51, 57, 57, 1, 3, 4, -6, 45, 68, 87, 1, 63, 24, -55, -2, 2, -6, -13, -63, -50, 8, 2, 80, 6, 60], "withholdReward": false, "trial_id": "mdp_trial_9", "block": "test", "trialIndex": 10, "score": 72, "costs": 0, "simulationMode": [null, null, null, null, null], "rewards": [1, 3, 4, 1, 63], "path": ["0", "0", "12", "13", "14", "19", "20"], "rt": [5151, 652, 1013, 247, 143], "actions": ["right", "right", "right", "down", "right"], "actionTimes": [15253, 16431, 17972, 18735, 19396], "queries": {"click": {"state": {"target": [], "time": []}, "edge": {"target": [], "time": []}}, "mouseover": {"state": {"target": ["0", "1"], "time": [12783, 13298]}, "edge": {"target": [], "time": []}}, "mouseout": {"state": {"target": ["0", "0", "0"], "time": [1623, 2570, 13247]}, "edge": {"target": [], "time": []}}}, "displayed_time": "24.11", "trialTime": 25926, "trial_type": "mouselab-mdp", "trial_index": 17, "time_elapsed": 1010628, "internal_node_id": "0.0-4.0-1.0-8.0"}}, {"uniqueid": "w18580193:a24124702", "current_trial": 18, "dateTime": 1691143749870, "trialdata": {"revealed_states": [], "clicked_states": ["1", "7", "6", "4", "3", "2", "8", "10", "9", "11", "26", "28", "24", "25", "30", "31", "32", "23", "12", "13", "14", "15", "17", "18", "19", "21", "20", "16", "27", "33", "5"], "num_clicks_accrued": [0, 0, 0, 0, 0, 0, 0, 0, 0, 0, 0, 0, 0], "stateRewards": ["", -2, 4, 3, 5, -61, 4, 30, 1, -47, 83, 10, 1, 4, 7, -14, 19, -74, -83, 6, -2, -2, -65, -1, -2, 4, -11, 12, -1, -68, 11, -38, -28, 66], "withholdReward": false, "trial_id": "mdp_trial_10", "block": "test", "trialIndex": 11, "score": 42.15000000000001, "costs": -46.84999999999999, "simulationMode": [null, null, null, null, null], "rewards": [-2, 4, 3, 1, 83], "path": ["0", "0", "1", "2", "3", "8", "10"], "rt": [71695, 186, 152, 32, 44], "actions": ["up", "up", "up", "left", "down"], "actionTimes": [75095, 75806, 76486, 77030, 77590], "queries": {"click": {"state": {"target": ["1", "7", "6", "4", "3", "2", "8", "10", "9", "11", "26", "28", "24", "25", "30", "31", "32", "23", "12", "13", "14", "15", "17", "18", "19", "21", "20", "16", "27", "33", "5"], "time": [4055, 4889, 7991, 11484, 12469, 13508, 14559, 15626, 18466, 21243, 24819, 25572, 28526, 29027, 30301, 32026, 35322, 38466, 39542, 40329, 41190, 41931, 42551, 45655, 49575, 50307, 53578, 57106, 59940, 63049, 65843]}, "edge": {"target": [], "time": []}}, "mouseover": {"state": {"target": ["1", "7", "4", "6", "5", "4", "3", "2", "8", "10", "11", "9", "11", "27", "26", "28", "24", "24", "25", "30", "31", "32", "33", "23", "23", "0", "12", "12", "13", "14", "15", "17", "16", "18", "14", "20", "19", "19", "21", "22", "19", "20", "19", "22", "12", "18", "16", "0", "28", "27", "29", "33", "29", "3", "5", "4"], "time": [3837, 4569, 5435, 7576, 8660, 11319, 12266, 13258, 14281, 15608, 16490, 18108, 19921, 21592, 24686, 25437, 26212, 26637, 28928, 30254, 31868, 32769, 35895, 37608, 37879, 38813, 38913, 39441, 40169, 41113, 41764, 42408, 43228, 44925, 46238, 46666, 47357, 49415, 50208, 50963, 53184, 53400, 54070, 54299, 55897, 56272, 56992, 58075, 58622, 59638, 60536, 62959, 64127, 65240, 65672, 66708]}, "edge": {"target": [], "time": []}}, "mouseout": {"state": {"target": ["1", "1", "7", "4", "6", "5", "4", "3", "2", "8", "8", "10", "11", "9", "9", "11", "27", "26", "28", "24", "24", "25", "25", "30", "31", "32", "33", "23", "23", "0", "12", "12", "13", "14", "15", "17", "16", "18", "14", "20", "19", "19", "21", "22", "19", "20", "19", "22", "12", "18", "16", "0", "28", "27", "27", "29", "33", "29", "3", "5", "4"], "time": [2702, 4133, 4959, 7519, 8429, 11251, 11579, 13184, 14111, 14634, 15247, 15722, 17822, 18884, 19716, 21529, 24652, 25371, 26169, 26295, 28655, 29150, 29648, 30436, 32568, 35436, 37241, 37709, 38774, 38855, 39143, 40102, 41067, 41713, 42368, 43162, 44774, 46164, 46291, 47330, 49077, 50145, 50412, 53135, 53264, 54052, 54117, 55048, 55914, 56316, 57592, 58558, 58645, 60031, 60489, 62681, 63173, 64759, 65257, 66689, 66725]}, "edge": {"target": [], "time": []}}}, "displayed_time": "78.13", "trialTime": 80814, "trial_type": "mouselab-mdp", "trial_index": 18, "time_elapsed": 1092037, "internal_node_id": "0.0-4.0-1.0-9.0"}}, {"uniqueid": "w18580193:a24124702", "current_trial": 19, "dateTime": 1691143783806, "trialdata": {"revealed_states": [], "clicked_states": ["10", "19", "20", "21", "14", "13", "12"], "num_clicks_accrued": [0, 0, 0, 0, 0, 0, 0, 0, 0, 0, 0, 0, 0], "stateRewards": ["", -2, 1, -5, 2, -68, 80, 33, 10, 67, -59, 20, -1, -3, 3, 14, 74, -2, 24, -16, 63, 80, 46, -1, 4, 6, 12, 83, -38, -43, -4, 43, 14, -79], "withholdReward": false, "trial_id": "mdp_trial_11", "block": "test", "trialIndex": 12, "score": 53.95, "costs": -9.049999999999999, "simulationMode": [null, null, null, null, null], "rewards": [-1, -3, 3, -16, 80], "path": ["0", "0", "12", "13", "14", "19", "21"], "rt": [25604, 1159, 99, 32, 86], "actions": ["right", "right", "right", "down", "down"], "actionTimes": [27947, 29624, 30244, 30792, 31394], "queries": {"click": {"state": {"target": ["10", "19", "20", "21", "14", "13", "12"], "time": [3554, 7630, 8547, 12207, 15140, 16264, 17226]}, "edge": {"target": [], "time": []}}, "mouseover": {"state": {"target": ["10", "1", "13", "19", "21", "19", "20", "22", "21", "21", "22", "14", "13", "12", "19", "22", "0"], "time": [3337, 6714, 6995, 7046, 7094, 7410, 8382, 9335, 11451, 12049, 13035, 14752, 16130, 16933, 18252, 18902, 24025]}, "edge": {"target": [], "time": []}}, "mouseout": {"state": {"target": ["0", "10", "10", "10", "1", "13", "19", "21", "19", "20", "19", "22", "21", "21", "22", "14", "13", "12", "13", "19", "22", "0"], "time": [1691, 5451, 5790, 6698, 6732, 7030, 7064, 7312, 8312, 9075, 9281, 11370, 11616, 12902, 14612, 15796, 16826, 17791, 17855, 18863, 18951, 24205]}, "edge": {"target": [], "time": []}}}, "displayed_time": "31.91", "trialTime": 33329, "trial_type": "mouselab-mdp", "trial_index": 19, "time_elapsed": 1125973, "internal_node_id": "0.0-4.0-1.0-10.0"}}, {"uniqueid": "w18580193:a24124702", "current_trial": 20, "dateTime": 1691143842484, "trialdata": {"revealed_states": [], "clicked_states": ["19", "14", "20", "22", "13", "12", "18", "17", "16", "23", "24", "31", "25", "30", "33", "26", "27", "29"], "num_clicks_accrued": [0, 0, 0, 0, 0, 0, 0, 0, 0, 0, 0, 0, 0], "stateRewards": ["", 1, 1, 4, 11, 83, -66, 18, -16, -23, 5, 25, 1, -3, 1, -12, 18, 24, -86, -11, -64, 36, 40, 2, 1, -6, 13, 55, 29, 72, -2, 81, -72, -41], "withholdReward": false, "trial_id": "mdp_trial_12", "block": "test", "trialIndex": 13, "score": 49.900000000000006, "costs": -26.099999999999998, "simulationMode": [null, null, null, null, null], "rewards": [2, 1, -6, -2, 81], "path": ["0", "0", "23", "24", "25", "30", "31"], "rt": [47573, 275, 370, 29, 71], "actions": ["left", "left", "left", "down", "right"], "actionTimes": [51509, 52309, 53199, 53741, 54332], "queries": {"click": {"state": {"target": ["19", "14", "20", "22", "13", "12", "18", "17", "16", "23", "24", "31", "25", "30", "33", "26", "27", "29"], "time": [6332, 7129, 7977, 11359, 14876, 15673, 16494, 19699, 22691, 25715, 26523, 27265, 30145, 30837, 31599, 34907, 35674, 39084]}, "edge": {"target": [], "time": []}}, "mouseover": {"state": {"target": ["12", "13", "19", "14", "20", "21", "22", "21", "13", "12", "18", "15", "17", "15", "16", "15", "18", "1", "23", "24", "31", "30", "25", "30", "33", "30", "25", "30", "25", "26", "27", "28", "28", "26", "29", "25", "24", "25", "23", "26", "25", "31", "25", "26", "29", "31"], "time": [4810, 5374, 6188, 6874, 7660, 8553, 11178, 12191, 14736, 15507, 16314, 17064, 19541, 20525, 22600, 23216, 24352, 24407, 24915, 26337, 27163, 27826, 29072, 30652, 31445, 33978, 34387, 34488, 34626, 34671, 35439, 37535, 37834, 38512, 38935, 39615, 39768, 42070, 43534, 43882, 44762, 45876, 47373, 47474, 47640, 50301]}, "edge": {"target": [], "time": []}}, "mouseout": {"state": {"target": ["0", "12", "13", "19", "14", "20", "21", "22", "21", "22", "13", "12", "18", "15", "17", "15", "16", "15", "18", "1", "23", "24", "31", "30", "25", "30", "33", "30", "25", "30", "25", "26", "27", "28", "28", "26", "29", "25", "24", "25", "23", "26", "25", "31", "25", "26", "29", "31"], "time": [4728, 5240, 5424, 6437, 7607, 8462, 10668, 11928, 14370, 14419, 15470, 16141, 17020, 19474, 20474, 22420, 23168, 24333, 24373, 24444, 26279, 27095, 27352, 29037, 30618, 31370, 32248, 34049, 34423, 34604, 34646, 35373, 36307, 37572, 38477, 38644, 39530, 39747, 39786, 42135, 43552, 43948, 44896, 47207, 47407, 47490, 47673, 50450]}, "edge": {"target": [], "time": []}}}, "displayed_time": "54.84", "trialTime": 58013, "trial_type": "mouselab-mdp", "trial_index": 20, "time_elapsed": 1184651, "internal_node_id": "0.0-4.0-1.0-11.0"}}, {"uniqueid": "w18580193:a24124702", "current_trial": 21, "dateTime": 1691143930084, "trialdata": {"revealed_states": [], "clicked_states": ["12", "13", "14", "19", "20", "22", "15", "17", "18", "23", "24", "25", "26", "28", "33", "31", "29", "11", "5", "10", "3", "8", "2", "1", "4", "6", "7", "9", "16"], "num_clicks_accrued": [0, 0, 0, 0, 0, 0, 0, 0, 0, 0, 0, 0, 0], "stateRewards": ["", -2, 2, -5, 1, 42, -63, -58, -6, 2, 16, 81, -2, 4, 7, -10, 33, 3, -33, -2, -52, -84, -27, 2, -3, -3, 15, -74, -14, -5, -5, -84, 79, -31], "withholdReward": false, "trial_id": "mdp_trial_13", "block": "test", "trialIndex": 14, "score": 26.850000000000016, "costs": -43.149999999999984, "simulationMode": [null, null, null, null, null], "rewards": [-2, 2, -5, -6, 81], "path": ["0", "0", "1", "2", "3", "8", "11"], "rt": [73028, 40, 137, 5, 4932], "actions": ["up", "up", "up", "left", "left"], "actionTimes": [78175, 78737, 79398, 79928, 85391], "queries": {"click": {"state": {"target": ["12", "13", "14", "19", "20", "22", "15", "17", "18", "23", "24", "25", "26", "28", "33", "31", "29", "11", "5", "10", "3", "8", "2", "1", "4", "6", "7", "9", "16"], "time": [7653, 8705, 9458, 10155, 10824, 14973, 18258, 19247, 22360, 25302, 26086, 26849, 27535, 28157, 31181, 33972, 37385, 41406, 44208, 47131, 50331, 51262, 52235, 53242, 53854, 55337, 58663, 61650, 64534]}, "edge": {"target": [], "time": []}}, "mouseover": {"state": {"target": ["12", "12", "13", "14", "19", "20", "22", "19", "22", "21", "14", "15", "17", "18", "16", "18", "16", "7", "1", "23", "24", "25", "26", "28", "27", "29", "33", "30", "31", "30", "32", "29", "27", "11", "11", "8", "9", "5", "4", "8", "10", "2", "2", "3", "8", "4", "2", "1", "4", "4", "6", "7", "3", "9", "9", "16", "15", "12", "1", "0", "0"], "time": [6749, 7479, 8265, 9326, 9963, 10671, 12095, 13964, 14827, 15526, 17869, 18101, 19096, 19919, 20912, 21944, 22900, 24338, 24557, 24696, 25953, 26736, 27399, 28011, 28621, 30060, 30971, 31927, 32748, 34565, 35599, 37072, 37946, 38034, 38343, 42070, 42872, 43994, 44858, 45877, 46910, 47679, 47952, 49357, 50916, 51795, 52059, 52965, 53499, 53690, 55211, 56051, 59176, 59212, 59544, 62201, 65244, 65978, 66435, 67110, 67199]}, "edge": {"target": [], "time": []}}, "mouseout": {"state": {"target": ["0", "23", "0", "12", "12", "13", "14", "19", "20", "19", "22", "19", "20", "19", "22", "21", "14", "15", "17", "15", "18", "16", "18", "16", "7", "1", "23", "24", "25", "26", "28", "27", "29", "33", "30", "31", "30", "32", "29", "27", "11", "11", "11", "8", "9", "5", "4", "8", "10", "2", "2", "3", "8", "3", "4", "2", "2", "1", "2", "4", "4", "6", "7", "3", "9", "9", "16", "15", "12", "1", "0", "0"], "time": [4251, 4485, 6620, 6931, 8207, 9274, 9891, 10612, 11872, 11973, 12834, 12884, 13945, 14046, 15466, 17803, 17886, 18853, 19690, 19805, 20793, 21733, 22438, 24272, 24359, 24581, 25654, 26198, 27358, 27950, 28510, 29994, 30741, 31675, 32709, 34483, 35514, 36776, 37926, 37979, 38054, 41546, 42017, 42801, 43646, 44808, 44912, 46873, 47638, 47855, 49213, 50880, 51721, 51760, 51996, 52325, 52819, 53261, 53455, 53523, 53929, 55867, 59121, 59208, 59239, 62164, 65044, 65263, 66000, 66469, 67153, 67600]}, "edge": {"target": [], "time": []}}}, "displayed_time": "85.91", "trialTime": 87011, "trial_type": "mouselab-mdp", "trial_index": 21, "time_elapsed": 1272251, "internal_node_id": "0.0-4.0-1.0-12.0"}}, {"uniqueid": "w18580193:a24124702", "current_trial": 22, "dateTime": 1691144008062, "trialdata": {"revealed_states": [], "clicked_states": ["2", "4", "6", "26", "25", "33", "24", "1", "12", "13", "18", "15", "17", "20", "14", "19", "22", "23", "31", "30", "32", "29", "11", "8", "9", "5", "16"], "num_clicks_accrued": [0, 0, 0, 0, 0, 0, 0, 0, 0, 0, 0, 0, 0], "stateRewards": ["", 1, 2, -3, -6, 50, -7, 7, -7, -80, 21, -1, 2, 2, 4, -1, 33, 84, 1, 14, -53, 81, 6, -2, -2, -3, -9, -87, -38, -59, -5, -74, -3, -71], "withholdReward": false, "trial_id": "mdp_trial_14", "block": "test", "trialIndex": 15, "score": 4.550000000000011, "costs": -39.44999999999999, "simulationMode": [null, null, null, null, null], "rewards": [1, 2, -3, -6, 50], "path": ["0", "0", "1", "2", "3", "4", "5"], "rt": [68150, 158, 261, 745, 63], "actions": ["up", "up", "up", "right", "up"], "actionTimes": [71371, 72053, 72835, 74100, 74682], "queries": {"click": {"state": {"target": ["2", "4", "6", "26", "25", "33", "24", "1", "12", "13", "18", "15", "17", "20", "14", "19", "22", "23", "31", "30", "32", "29", "11", "8", "9", "5", "16"], "time": [5305, 6409, 7269, 10349, 11122, 11833, 15489, 16575, 17482, 18249, 19763, 22918, 23703, 27930, 31442, 32399, 33108, 36603, 37455, 40400, 41339, 44596, 47904, 51261, 52173, 55031, 59540]}, "edge": {"target": [], "time": []}}, "mouseover": {"state": {"target": ["1", "2", "7", "4", "6", "9", "11", "27", "26", "25", "33", "30", "30", "32", "31", "24", "23", "1", "12", "13", "18", "18", "16", "16", "15", "17", "16", "14", "19", "21", "20", "14", "19", "22", "13", "16", "7", "23", "31", "30", "32", "28", "26", "29", "27", "11", "10", "8", "9", "3", "5", "5", "4", "7", "16", "16", "3", "2", "1"], "time": [4682, 5030, 5972, 6104, 7071, 7876, 9107, 9309, 10236, 10954, 11755, 12457, 13422, 13950, 14824, 15106, 16124, 16397, 17259, 18072, 18832, 19614, 20297, 21897, 22722, 23505, 24322, 25170, 26073, 26896, 27329, 28681, 32056, 32955, 33620, 33899, 35957, 36571, 37296, 37944, 41000, 42361, 43503, 43745, 45273, 47398, 48617, 51038, 51957, 52890, 54339, 54651, 55567, 55735, 58853, 59467, 60289, 62018, 62105]}, "edge": {"target": [], "time": []}}, "mouseout": {"state": {"target": ["0", "1", "2", "7", "4", "6", "9", "11", "27", "26", "26", "25", "33", "30", "30", "32", "31", "24", "23", "1", "12", "13", "18", "18", "16", "16", "15", "15", "17", "16", "15", "14", "19", "21", "20", "14", "19", "22", "13", "16", "7", "23", "23", "31", "30", "32", "30", "28", "26", "29", "27", "11", "10", "8", "9", "3", "5", "5", "4", "7", "16", "16", "3", "2", "1"], "time": [4631, 4697, 5916, 6012, 6981, 7782, 9058, 9174, 10170, 10467, 10886, 11586, 11927, 13283, 13897, 14741, 14890, 16094, 16147, 17124, 17589, 18767, 18878, 20230, 21566, 22591, 23054, 23463, 24254, 25018, 25118, 26030, 26799, 27294, 28429, 32036, 32917, 33584, 33642, 35926, 35977, 36733, 37192, 37527, 40937, 41846, 41882, 43482, 43561, 45121, 47184, 48464, 50838, 51367, 52741, 54289, 54394, 55516, 55601, 58587, 58987, 59938, 61967, 62042, 62167]}, "edge": {"target": [], "time": []}}}, "displayed_time": "75.20", "trialTime": 77346, "trial_type": "mouselab-mdp", "trial_index": 22, "time_elapsed": 1350229, "internal_node_id": "0.0-4.0-1.0-13.0"}}, {"uniqueid": "w18580193:a24124702", "current_trial": 23, "dateTime": 1691144268197, "trialdata": {"revealed_states": [], "clicked_states": ["1", "2", "3", "5", "7", "6", "9", "10", "27", "29", "26", "28", "16", "15", "18", "14", "13", "12", "19", "22", "21", "24", "23", "25", "30", "33", "32"], "num_clicks_accrued": [0, 0, 0, 0, 0, 0, 0, 0, 0, 0, 0, 0, 0], "stateRewards": ["", -2, 3, -5, -7, 66, 43, -60, -4, -70, -75, 4, -1, 2, 2, -13, 54, 11, -40, -1, 77, 32, 15, -2, 3, -8, -9, -35, 83, -27, 6, -74, -34, 44], "withholdReward": false, "trial_id": "mdp_trial_15", "block": "test", "trialIndex": 16, "score": 15.550000000000004, "costs": -39.449999999999996, "simulationMode": [null, null, null, null, null], "rewards": [-2, 3, -5, -7, 66], "path": ["0", "0", "1", "2", "3", "4", "5"], "rt": [73046, 53, 23, 362, 1785], "actions": ["up", "up", "up", "right", "up"], "actionTimes": [76907, 77484, 78035, 78938, 81242], "queries": {"click": {"state": {"target": ["1", "2", "3", "5", "7", "6", "9", "10", "27", "29", "26", "28", "16", "15", "18", "14", "13", "12", "19", "22", "21", "24", "23", "25", "30", "33", "32"], "time": [5164, 5979, 6938, 7785, 10643, 14114, 17926, 21350, 24662, 28026, 31351, 32269, 35301, 38635, 39505, 42958, 43664, 44458, 45299, 45797, 48676, 51524, 52536, 53470, 54070, 54918, 57722]}, "edge": {"target": [], "time": []}}, "mouseover": {"state": {"target": ["1", "2", "3", "5", "4", "4", "7", "4", "6", "4", "9", "9", "9", "8", "10", "11", "27", "26", "29", "26", "26", "28", "7", "16", "15", "18", "17", "14", "13", "12", "19", "22", "20", "21", "31", "24", "23", "25", "30", "33", "31", "32", "31", "23", "1", "2", "3", "8", "28", "1", "7", "4", "4", "7", "4", "7"], "time": [4932, 5744, 6558, 7612, 8234, 9216, 10603, 11172, 13794, 14716, 15844, 16130, 17402, 19603, 21210, 21947, 23291, 25173, 27794, 29224, 29758, 31921, 32895, 33272, 36327, 39332, 40496, 42740, 43531, 44302, 44986, 45678, 46400, 48235, 49363, 51061, 52013, 53302, 53972, 54699, 55449, 57542, 58777, 59822, 59990, 60305, 60697, 60848, 62342, 62643, 62894, 63291, 64457, 64523, 64791, 68946]}, "edge": {"target": [], "time": []}}, "mouseout": {"state": {"target": ["0", "0", "12", "0", "1", "2", "3", "5", "4", "4", "7", "4", "6", "4", "9", "9", "9", "8", "10", "11", "27", "26", "29", "26", "26", "28", "7", "16", "15", "18", "15", "17", "14", "14", "13", "12", "12", "13", "19", "22", "19", "20", "21", "31", "24", "23", "24", "25", "30", "33", "30", "31", "32", "31", "23", "1", "2", "3", "8", "28", "1", "7", "4", "4", "7", "4", "7"], "time": [2975, 3068, 3236, 4864, 5681, 6448, 7433, 8191, 9057, 10421, 10750, 13744, 14661, 15791, 15912, 17185, 19389, 21174, 21911, 22691, 25137, 27759, 28999, 29633, 31852, 32837, 32917, 36063, 39259, 40303, 40419, 42607, 43055, 43476, 44212, 44540, 44891, 44931, 45622, 46146, 46225, 48083, 48978, 50343, 51927, 52993, 53088, 53887, 54166, 55301, 55392, 57447, 57793, 58854, 59858, 60218, 60342, 60797, 61081, 62361, 62663, 62927, 63974, 64490, 64541, 64839, 68979]}, "edge": {"target": [], "time": []}}}, "displayed_time": "81.77", "trialTime": 259465, "trial_type": "mouselab-mdp", "trial_index": 23, "time_elapsed": 1610365, "internal_node_id": "0.0-4.0-1.0-14.0"}}, {"uniqueid": "w18580193:a24124702", "current_trial": 24, "dateTime": 1691144318018, "trialdata": {"revealed_states": [], "clicked_states": ["1", "2", "3", "4", "6", "9", "26", "29", "28", "33", "13", "22", "20", "15", "17", "18", "7"], "num_clicks_accrued": [0, 0, 0, 0, 0, 0, 0, 0, 0, 0, 0, 0, 0], "stateRewards": ["", 1, 2, -3, -5, 66, -50, -47, -5, 1, 28, -27, 1, 1, -1, -6, 37, -25, 56, 1, -82, -66, -40, -1, -4, -7, 15, -61, -23, 26, 10, 14, -56, 29], "withholdReward": false, "trial_id": "mdp_trial_16", "block": "test", "trialIndex": 17, "score": 23.450000000000003, "costs": -27.549999999999997, "simulationMode": [null, null, null, null, null], "rewards": [1, 1, -1, -6, 56], "path": ["0", "0", "12", "13", "14", "15", "18"], "rt": [42328, 159, 24, 263, 983], "actions": ["right", "right", "right", "up", "left"], "actionTimes": [44026, 44697, 45245, 46034, 47533], "queries": {"click": {"state": {"target": ["1", "2", "3", "4", "6", "9", "26", "29", "28", "33", "13", "22", "20", "15", "17", "18", "7"], "time": [2377, 3287, 4084, 4803, 5464, 8652, 11781, 12570, 15359, 18319, 21746, 22644, 25624, 29611, 30649, 33738, 36657]}, "edge": {"target": [], "time": []}}, "mouseover": {"state": {"target": ["1", "2", "3", "4", "6", "7", "5", "9", "11", "27", "26", "29", "27", "28", "24", "25", "30", "33", "32", "31", "0", "12", "13", "22", "19", "20", "19", "14", "15", "17", "16", "18", "16", "7", "4", "5", "3", "2"], "time": [2184, 2941, 3837, 4704, 5323, 5901, 7010, 7774, 9500, 10482, 11578, 12348, 13123, 14190, 15772, 16660, 17412, 18072, 19199, 20565, 21339, 21388, 21589, 22293, 23212, 24621, 26365, 27296, 29237, 30568, 31567, 33543, 34316, 35640, 37223, 37266, 38957, 38986]}, "edge": {"target": [], "time": []}}, "mouseout": {"state": {"target": ["0", "1", "2", "3", "4", "6", "7", "4", "5", "9", "11", "27", "26", "29", "27", "28", "24", "25", "30", "33", "32", "31", "0", "12", "13", "22", "19", "20", "19", "14", "15", "17", "16", "18", "16", "7", "4", "5", "3", "2"], "time": [2102, 2919, 3374, 4586, 5266, 5865, 6662, 6716, 7692, 9253, 10421, 11513, 12313, 13066, 14129, 15705, 16624, 17355, 18053, 18968, 20471, 21306, 21357, 21539, 22239, 23157, 24584, 25871, 27261, 29153, 29667, 31436, 32753, 34227, 35574, 36747, 37244, 38935, 38981, 39006]}, "edge": {"target": [], "time": []}}}, "displayed_time": "48.05", "trialTime": 49089, "trial_type": "mouselab-mdp", "trial_index": 24, "time_elapsed": 1660186, "internal_node_id": "0.0-4.0-1.0-15.0"}}, {"uniqueid": "w18580193:a24124702", "current_trial": 25, "dateTime": 1691144398601, "trialdata": {"revealed_states": [], "clicked_states": ["3", "4", "5", "2", "10", "9", "8", "11", "26", "27", "28", "25", "30", "33", "12", "13", "14", "22", "24", "23", "31", "7", "15", "16", "18", "1", "20", "19", "21", "32"], "num_clicks_accrued": [0, 0, 0, 0, 0, 0, 0, 0, 0, 0, 0, 0, 0], "stateRewards": ["", 2, 3, -1, 6, 44, -4, -59, -14, -3, 64, 16, 1, -3, 3, 6, 3, 49, 19, 3, -49, -14, -86, 1, 2, -3, -8, -33, 14, 32, -13, -77, -47, -67], "withholdReward": false, "trial_id": "mdp_trial_17", "block": "test", "trialIndex": 18, "score": 9.300000000000011, "costs": -44.69999999999999, "simulationMode": [null, null, null, null, null], "rewards": [2, 3, -1, -14, 64], "path": ["0", "0", "1", "2", "3", "8", "10"], "rt": [70275, 71, 51, 376, 538], "actions": ["up", "up", "up", "left", "down"], "actionTimes": [74630, 75220, 75799, 76705, 77764], "queries": {"click": {"state": {"target": ["3", "4", "5", "2", "10", "9", "8", "11", "26", "27", "28", "25", "30", "33", "12", "13", "14", "22", "24", "23", "31", "7", "15", "16", "18", "1", "20", "19", "21", "32"], "time": [5134, 5826, 6590, 9512, 10353, 13251, 16377, 17291, 20181, 21127, 24688, 28108, 29110, 29954, 32752, 33721, 34531, 35394, 39553, 40317, 41127, 44501, 47594, 49031, 52140, 55707, 58258, 61647, 62371, 65546]}, "edge": {"target": [], "time": []}}, "mouseover": {"state": {"target": ["1", "2", "3", "4", "5", "6", "7", "2", "10", "8", "9", "11", "8", "11", "8", "11", "27", "26", "26", "27", "29", "29", "26", "28", "28", "28", "24", "25", "25", "30", "33", "31", "12", "13", "14", "22", "23", "24", "23", "31", "1", "7", "6", "18", "15", "16", "16", "18", "15", "7", "2", "1", "15", "20", "21", "19", "21", "22", "32", "24"], "time": [4761, 4801, 4833, 5726, 6401, 7181, 8086, 8826, 9879, 10899, 12756, 13776, 14859, 15036, 16201, 17074, 18816, 19730, 19984, 20914, 21666, 22591, 23812, 23891, 24249, 24467, 26034, 26864, 27906, 28893, 29898, 30663, 31076, 33441, 34372, 35160, 36393, 37216, 40158, 40944, 42579, 44317, 45087, 47153, 47493, 48243, 48907, 50804, 52725, 53052, 53098, 53427, 56880, 58138, 58835, 61128, 62222, 63408, 64338, 66616]}, "edge": {"target": [], "time": []}}, "mouseout": {"state": {"target": ["0", "0", "1", "2", "3", "4", "5", "6", "7", "2", "10", "8", "9", "11", "8", "11", "8", "11", "27", "26", "26", "27", "29", "29", "26", "28", "28", "28", "24", "25", "25", "30", "33", "30", "31", "12", "13", "14", "22", "23", "24", "23", "31", "23", "1", "7", "6", "7", "18", "15", "16", "16", "18", "15", "7", "2", "1", "18", "15", "20", "21", "19", "19", "21", "22", "32", "24"], "time": [2633, 3945, 4796, 4816, 5226, 5934, 7077, 7950, 8798, 9853, 10852, 12662, 13616, 14743, 14959, 16165, 17029, 18057, 19706, 19868, 20813, 21599, 21954, 23782, 23840, 24065, 24314, 25604, 26810, 27028, 28681, 29240, 30556, 30632, 30683, 33402, 34320, 35047, 36060, 37176, 40064, 40848, 42055, 42181, 43813, 44951, 46801, 47087, 47394, 47858, 48318, 49929, 52703, 52749, 53076, 53209, 56409, 56769, 57069, 58774, 60760, 61771, 62164, 62459, 63656, 66554, 66638]}, "edge": {"target": [], "time": []}}}, "displayed_time": "78.29", "trialTime": 79924, "trial_type": "mouselab-mdp", "trial_index": 25, "time_elapsed": 1740768, "internal_node_id": "0.0-4.0-1.0-16.0"}}, {"uniqueid": "w18580193:a24124702", "current_trial": 26, "dateTime": 1691144455387, "trialdata": {"revealed_states": [], "clicked_states": ["7", "10", "3", "4", "2", "1", "8", "11", "9", "27", "29", "31", "25", "26", "28", "24"], "num_clicks_accrued": [0, 0, 0, 0, 0, 0, 0, 0, 0, 0, 0, 0, 0], "stateRewards": ["", -1, 1, -2, 5, 73, 15, 61, 8, 7, 38, 76, 2, 2, -4, -6, -6, -26, 43, -5, -45, -85, -35, -2, 1, -4, 15, -10, 69, 72, -11, 84, -49, -38], "withholdReward": false, "trial_id": "mdp_trial_18", "block": "test", "trialIndex": 19, "score": 57.8, "costs": -24.2, "simulationMode": [null, null, null, null, null], "rewards": [-2, 1, -4, 15, 72], "path": ["0", "0", "23", "24", "25", "26", "29"], "rt": [42852, 5, 112, 101, 511], "actions": ["left", "left", "left", "up", "left"], "actionTimes": [50876, 51425, 52107, 52723, 53750], "queries": {"click": {"state": {"target": ["7", "10", "3", "4", "2", "1", "8", "11", "9", "27", "29", "31", "25", "26", "28", "24"], "time": [9272, 12207, 15759, 16595, 17366, 18248, 19124, 21197, 25494, 29191, 32091, 35786, 38602, 39429, 40162, 44056]}, "edge": {"target": [], "time": []}}, "mouseover": {"state": {"target": ["1", "2", "7", "2", "10", "10", "8", "3", "4", "3", "4", "2", "1", "8", "10", "11", "9", "11", "27", "29", "26", "25", "31", "24", "23", "24", "25", "26", "28", "24", "24", "25", "26", "28", "24", "24", "23", "24"], "time": [8558, 8690, 9072, 9776, 9845, 12025, 12763, 13986, 14183, 15504, 16429, 17157, 18174, 18812, 20543, 21044, 22697, 28774, 28842, 30155, 32672, 35109, 35425, 36380, 36586, 38121, 38433, 39238, 40057, 41838, 43606, 44989, 46682, 47347, 47411, 47612, 47765, 47895]}, "edge": {"target": [], "time": []}}, "mouseout": {"state": {"target": ["12", "1", "2", "7", "2", "10", "10", "8", "3", "4", "3", "4", "2", "1", "8", "10", "11", "11", "9", "11", "27", "29", "26", "25", "31", "24", "23", "24", "25", "26", "28", "24", "28", "24", "24", "25", "26", "28", "24", "24", "23", "24"], "time": [7025, 8590, 8754, 9747, 9822, 11826, 12298, 13960, 14068, 15356, 16387, 17107, 18034, 18344, 20462, 20977, 21308, 22621, 28709, 28793, 29895, 32585, 35060, 35194, 36282, 36526, 38061, 38296, 39138, 39508, 41341, 42759, 43556, 44658, 44809, 46497, 46847, 47363, 47562, 47714, 47862, 47915]}, "edge": {"target": [], "time": []}}}, "displayed_time": "54.27", "trialTime": 56139, "trial_type": "mouselab-mdp", "trial_index": 26, "time_elapsed": 1797554, "internal_node_id": "0.0-4.0-1.0-17.0"}}, {"uniqueid": "w18580193:a24124702", "current_trial": 27, "dateTime": 1691144503657, "trialdata": {"revealed_states": [], "clicked_states": ["1", "2", "28", "29", "25", "24", "23", "12", "13", "14", "15", "18", "16", "22", "19", "20", "21"], "num_clicks_accrued": [0, 0, 0, 0, 0, 0, 0, 0, 0, 0, 0, 0, 0], "stateRewards": ["", 2, -1, 5, 6, 10, 86, 55, 10, -45, 63, -71, 1, -2, 5, -8, -50, -72, 36, 15, 61, 12, 33, -1, -4, 6, 5, 79, -56, -21, -16, -87, 60, -81], "withholdReward": false, "trial_id": "mdp_trial_19", "block": "test", "trialIndex": 20, "score": 10.650000000000002, "costs": -20.349999999999998, "simulationMode": [null, null, null, null, null], "rewards": [1, -2, 5, 15, 12], "path": ["0", "0", "12", "13", "14", "19", "21"], "rt": [35563, 118, 52, 53, 52], "actions": ["right", "right", "right", "down", "down"], "actionTimes": [40610, 41251, 41818, 42417, 42997], "queries": {"click": {"state": {"target": ["1", "2", "28", "29", "25", "24", "23", "12", "13", "14", "15", "18", "16", "22", "19", "20", "21"], "time": [6360, 7066, 8112, 11486, 14572, 15346, 16229, 17176, 17937, 18643, 19383, 20153, 23273, 26349, 29308, 29964, 33598]}, "edge": {"target": [], "time": []}}, "mouseover": {"state": {"target": ["1", "2", "28", "26", "29", "25", "25", "24", "23", "0", "12", "13", "14", "15", "18", "16", "17", "16", "13", "22", "22", "19", "19", "20", "21", "0"], "time": [6162, 6866, 7818, 8656, 9036, 12153, 14460, 15197, 15930, 16824, 16887, 17737, 18510, 19187, 19995, 21123, 22034, 22943, 23901, 23962, 24451, 26889, 29016, 29713, 33247, 35079]}, "edge": {"target": [], "time": []}}, "mouseout": {"state": {"target": ["28", "23", "0", "1", "2", "28", "26", "29", "25", "25", "24", "23", "0", "12", "13", "14", "15", "18", "16", "17", "16", "13", "22", "22", "19", "19", "20", "20", "21"], "time": [4116, 4199, 4433, 6445, 7702, 8594, 8699, 11984, 14186, 15127, 15848, 16318, 16847, 17712, 18429, 19109, 19937, 21050, 21872, 22865, 23831, 23957, 24205, 26852, 28706, 29630, 30041, 33114, 34204]}, "edge": {"target": [], "time": []}}}, "displayed_time": "43.51", "trialTime": 47545, "trial_type": "mouselab-mdp", "trial_index": 27, "time_elapsed": 1845825, "internal_node_id": "0.0-4.0-1.0-18.0"}}, {"uniqueid": "w18580193:a24124702", "current_trial": 28, "dateTime": 1691144579460, "trialdata": {"revealed_states": [], "clicked_states": ["12", "25", "33", "32", "21", "20", "22", "19", "14", "13", "15", "17", "16", "29", "7", "2", "10", "6", "4", "3", "5", "11", "8", "9"], "num_clicks_accrued": [0, 0, 0, 0, 0, 0, 0, 0, 0, 0, 0, 0, 0], "stateRewards": ["", 2, 3, -3, 4, 72, -28, 34, -12, 57, -64, -15, 2, 1, -4, -15, 2, 49, 31, -1, -42, -58, 31, -2, 1, -2, -13, -75, -19, -22, -6, 61, 10, -56], "withholdReward": false, "trial_id": "mdp_trial_20", "block": "test", "trialIndex": 21, "score": 38.40000000000001, "costs": -39.59999999999999, "simulationMode": [null, null, null, null, null], "rewards": [2, 3, -3, 4, 72], "path": ["0", "0", "1", "2", "3", "4", "5"], "rt": [64977, 6, 38, 79, 588], "actions": ["up", "up", "up", "right", "up"], "actionTimes": [69687, 70213, 70775, 71398, 72505], "queries": {"click": {"state": {"target": ["12", "25", "33", "32", "21", "20", "22", "19", "14", "13", "15", "17", "16", "29", "7", "2", "10", "6", "4", "3", "5", "11", "8", "9"], "time": [5818, 7409, 8229, 11485, 14716, 17955, 21261, 24280, 26375, 27169, 28224, 29116, 32115, 36154, 40580, 43435, 44397, 47231, 50238, 51066, 51982, 55078, 57912, 60541]}, "edge": {"target": [], "time": []}}, "mouseover": {"state": {"target": ["0", "12", "0", "23", "24", "25", "33", "32", "21", "20", "19", "22", "19", "14", "14", "13", "15", "17", "16", "18", "26", "29", "10", "2", "7", "2", "10", "4", "6", "5", "4", "4", "3", "5", "8", "11", "8", "9", "5", "5"], "time": [5423, 5554, 6299, 6377, 6429, 7235, 8051, 8880, 12378, 15354, 18531, 21036, 21859, 24890, 26121, 26892, 28124, 28945, 30127, 32845, 35337, 35451, 36731, 36928, 37097, 41913, 44142, 45153, 46711, 47793, 49089, 50067, 50892, 51718, 52621, 54902, 55692, 60223, 62233, 62634]}, "edge": {"target": [], "time": []}}, "mouseout": {"state": {"target": ["0", "0", "12", "0", "23", "24", "25", "33", "32", "21", "20", "19", "22", "19", "14", "14", "13", "15", "17", "16", "18", "26", "29", "10", "2", "7", "2", "10", "4", "6", "5", "4", "4", "3", "5", "8", "11", "8", "8", "9", "5"], "time": [4155, 5520, 6274, 6352, 6403, 6475, 7971, 8840, 11927, 14823, 18456, 21004, 21788, 24858, 24918, 26470, 27819, 28898, 29803, 32771, 35052, 35384, 36651, 36758, 36986, 41841, 44111, 45038, 46597, 47736, 49022, 49716, 50842, 51503, 52486, 54729, 55624, 58728, 60021, 62006, 62480]}, "edge": {"target": [], "time": []}}}, "displayed_time": "73.03", "trialTime": 74854, "trial_type": "mouselab-mdp", "trial_index": 28, "time_elapsed": 1921628, "internal_node_id": "0.0-4.0-1.0-19.0"}}, {"uniqueid": "w18580193:a24124702", "current_trial": 29, "dateTime": 1691144634594, "trialdata": {"revealed_states": [], "clicked_states": ["1", "2", "3", "5", "4", "7", "8", "9", "10", "27", "25", "33", "13", "14", "15", "17", "30", "31", "24", "23", "26", "28"], "num_clicks_accrued": [0, 0, 0, 0, 0, 0, 0, 0, 0, 0, 0, 0, 0], "stateRewards": ["", -1, 3, -4, -14, 78, 67, 2, 13, -32, 28, 39, -2, 1, -4, -4, -4, -42, -86, 11, 64, -29, -32, -1, -4, 2, -7, 5, 68, -61, 2, -21, 85, 50], "withholdReward": false, "trial_id": "mdp_trial_21", "block": "test", "trialIndex": 22, "score": 27.5, "costs": -30.5, "simulationMode": [null, null, null, null, null], "rewards": [-1, -4, 2, -7, 68], "path": ["0", "0", "23", "24", "25", "26", "28"], "rt": [46675, 538, 30, 150, 387], "actions": ["left", "left", "left", "up", "right"], "actionTimes": [48788, 49851, 50406, 51074, 51978], "queries": {"click": {"state": {"target": ["1", "2", "3", "5", "4", "7", "8", "9", "10", "27", "25", "33", "13", "14", "15", "17", "30", "31", "24", "23", "26", "28"], "time": [3329, 4836, 5759, 6563, 11060, 11908, 15074, 16120, 18993, 22949, 25981, 26933, 29847, 30793, 31953, 33135, 37153, 38252, 41364, 42409, 44760, 45521]}, "edge": {"target": [], "time": []}}, "mouseover": {"state": {"target": ["1", "2", "3", "5", "6", "4", "4", "6", "6", "6", "6", "4", "7", "8", "9", "9", "8", "9", "11", "10", "11", "27", "27", "26", "25", "33", "30", "12", "13", "14", "15", "17", "16", "23", "31", "30", "24", "31", "24", "23", "25", "26", "28", "29", "23"], "time": [3142, 4614, 5442, 6376, 7372, 8197, 8400, 8604, 9903, 10531, 10783, 10915, 11627, 12464, 12672, 12862, 14922, 15660, 16803, 18456, 19644, 22420, 22854, 23562, 25812, 26693, 27485, 28759, 29754, 30622, 31678, 32683, 33814, 34647, 34708, 35104, 37881, 38076, 39128, 42193, 43888, 44526, 45375, 46052, 46859]}, "edge": {"target": [], "time": []}}, "mouseout": {"state": {"target": ["5", "4", "5", "3", "2", "1", "1", "1", "2", "3", "5", "6", "4", "4", "6", "6", "6", "6", "4", "7", "8", "9", "9", "8", "9", "11", "10", "11", "27", "27", "26", "25", "33", "30", "12", "13", "14", "15", "17", "16", "23", "31", "30", "24", "31", "24", "23", "24", "25", "26", "28", "26", "29", "26"], "time": [123, 305, 986, 1006, 1054, 1285, 3996, 4565, 5374, 6255, 7247, 8166, 8234, 8507, 9337, 10032, 10633, 10848, 11542, 12379, 12490, 12719, 14049, 15155, 16678, 18254, 19096, 22039, 22486, 23534, 25733, 26533, 27416, 28510, 29646, 30556, 31358, 32437, 33632, 34600, 34674, 34848, 37710, 38051, 39007, 42128, 43327, 43852, 44453, 45306, 45963, 46028, 46645, 46712]}, "edge": {"target": [], "time": []}}}, "displayed_time": "52.50", "trialTime": 54442, "trial_type": "mouselab-mdp", "trial_index": 29, "time_elapsed": 1976762, "internal_node_id": "0.0-4.0-1.0-20.0"}}, {"uniqueid": "w18580193:a24124702", "current_trial": 30, "dateTime": 1691144672107, "trialdata": {"revealed_states": [], "clicked_states": ["2", "7", "19", "25", "32", "29", "24", "28", "23", "26"], "num_clicks_accrued": [0, 0, 0, 0, 0, 0, 0, 0, 0, 0, 0, 0, 0], "stateRewards": ["", -2, -3, 7, -13, 60, 9, 37, -6, 37, 20, 1, 2, -2, -8, 6, -80, -31, -10, -7, 70, -65, -44, -1, 1, 7, 6, -11, 73, -85, 16, -21, 47, 34], "withholdReward": false, "trial_id": "mdp_trial_22", "block": "test", "trialIndex": 23, "score": 72.9, "costs": -13.100000000000001, "simulationMode": [null, null, null, null, null], "rewards": [-1, 1, 7, 6, 73], "path": ["0", "0", "23", "24", "25", "26", "28"], "rt": [26743, 217, 244, 5, 473], "actions": ["left", "left", "left", "up", "right"], "actionTimes": [31760, 32497, 33258, 33805, 34819], "queries": {"click": {"state": {"target": ["2", "7", "19", "25", "32", "29", "24", "28", "23", "26"], "time": [6135, 6915, 10939, 12320, 13628, 17639, 20951, 22071, 25125, 27495]}, "edge": {"target": [], "time": []}}, "mouseover": {"state": {"target": ["1", "2", "7", "18", "16", "15", "14", "19", "21", "0", "24", "25", "30", "32", "30", "29", "27", "11", "28", "24", "28", "23", "25", "25", "26"], "time": [5654, 6039, 6721, 7472, 7956, 10178, 10279, 10628, 11469, 11667, 11944, 12174, 12861, 13504, 14107, 14618, 18255, 18531, 19642, 19998, 21834, 22701, 26704, 27072, 27252]}, "edge": {"target": [], "time": []}}, "mouseout": {"state": {"target": ["23", "0", "1", "2", "7", "18", "16", "15", "14", "19", "21", "0", "24", "25", "30", "32", "30", "29", "27", "11", "28", "24", "28", "23", "25", "25", "26"], "time": [4292, 5587, 5756, 6673, 7429, 7770, 10129, 10244, 10328, 11442, 11579, 11690, 12008, 12812, 12995, 13755, 14131, 17710, 18493, 19492, 19792, 21809, 22578, 26470, 26739, 27088, 29081]}, "edge": {"target": [], "time": []}}}, "displayed_time": "35.34", "trialTime": 36831, "trial_type": "mouselab-mdp", "trial_index": 30, "time_elapsed": 2014274, "internal_node_id": "0.0-4.0-1.0-21.0"}}, {"uniqueid": "w18580193:a24124702", "current_trial": 31, "dateTime": 1691144728169, "trialdata": {"revealed_states": [], "clicked_states": ["9", "5", "27", "30", "29", "26", "28", "32", "31", "22", "21", "14", "17", "18", "7"], "num_clicks_accrued": [0, 0, 0, 0, 0, 0, 0, 0, 0, 0, 0, 0, 0], "stateRewards": ["", -2, 1, -7, 9, 8, 25, 61, -7, -17, 69, -81, 1, 4, -4, -11, 16, 67, 44, 3, 6, -45, -54, -2, 3, 6, -11, -15, 32, -47, 3, -39, -6, -88], "withholdReward": false, "trial_id": "mdp_trial_23", "block": "test", "trialIndex": 24, "score": 4.150000000000006, "costs": -29.84999999999999, "simulationMode": [null, null, null, null, null, null], "rewards": [1, 4, -4, -11, 44], "path": ["0", "0", "12", "13", "14", "15", "18"], "rt": [45245, 192, 105, 53, 7, 671], "actions": ["right", "right", "right", "right", "up", "left"], "actionTimes": [49436, 49637, 50270, 50865, 51391, 52599], "queries": {"click": {"state": {"target": ["9", "5", "27", "30", "29", "26", "28", "32", "31", "22", "21", "14", "17", "18", "7"], "time": [5139, 7979, 11866, 14748, 15807, 21000, 21819, 24677, 27507, 31232, 35669, 39261, 40168, 42977, 48106]}, "edge": {"target": [], "time": []}}, "mouseover": {"state": {"target": ["8", "9", "9", "5", "4", "15", "18", "7", "2", "10", "27", "29", "33", "30", "25", "29", "26", "28", "28", "26", "28", "30", "32", "32", "33", "30", "31", "22", "19", "21", "21", "20", "14", "17", "16", "18", "1", "2", "2", "7"], "time": [4692, 4904, 5005, 5890, 8792, 9906, 11028, 11073, 11173, 11226, 11622, 12438, 13607, 14597, 15266, 15445, 16396, 17463, 17778, 20749, 21647, 22339, 22369, 22699, 25274, 26701, 26835, 28653, 31832, 32167, 35415, 36206, 39090, 39896, 40843, 42921, 43897, 45435, 47671, 47969]}, "edge": {"target": [], "time": []}}, "mouseout": {"state": {"target": ["23", "8", "9", "9", "5", "4", "15", "18", "7", "2", "10", "27", "29", "33", "30", "25", "29", "26", "28", "28", "26", "28", "30", "32", "32", "33", "30", "31", "22", "19", "21", "21", "20", "14", "17", "16", "18", "1", "2", "2", "7", "21", "19", "14"], "time": [2907, 4871, 4927, 5623, 8646, 9631, 11023, 11047, 11107, 11206, 11256, 12347, 13417, 14340, 14847, 15293, 16329, 17415, 17592, 20651, 21540, 22275, 22363, 22433, 25169, 26674, 26792, 27836, 31757, 32121, 34786, 36143, 38889, 39869, 40678, 42800, 43082, 45388, 47385, 47785, 53058, 53988, 54088, 54187]}, "edge": {"target": [], "time": []}}}, "displayed_time": "53.15", "trialTime": 55380, "trial_type": "mouselab-mdp", "trial_index": 31, "time_elapsed": 2070336, "internal_node_id": "0.0-4.0-1.0-22.0"}}, {"uniqueid": "w18580193:a24124702", "current_trial": 32, "dateTime": 1691144778199, "trialdata": {"revealed_states": [], "clicked_states": ["1", "2", "7", "12", "23", "25", "24", "28", "26", "29", "27", "33", "30", "32", "14", "22", "21", "19"], "num_clicks_accrued": [0, 0, 0, 0, 0, 0, 0, 0, 0, 0, 0, 0, 0], "stateRewards": ["", -1, 4, -3, 3, 57, -61, 5, -11, 23, -1, 34, -2, -4, -1, -13, 27, 38, -36, 4, -45, 21, 88, 1, -2, -1, 1, -69, -5, -78, -12, -9, 38, -54], "withholdReward": false, "trial_id": "mdp_trial_24", "block": "test", "trialIndex": 25, "score": -5.699999999999999, "costs": -23.7, "simulationMode": [null, null, null, null, null], "rewards": [-2, -4, -1, 4, 21], "path": ["0", "0", "12", "13", "14", "19", "21"], "rt": [40284, 988, 4, 125, 709], "actions": ["right", "right", "right", "down", "down"], "actionTimes": [42391, 43896, 44424, 45078, 46309], "queries": {"click": {"state": {"target": ["1", "2", "7", "12", "23", "25", "24", "28", "26", "29", "27", "33", "30", "32", "14", "22", "21", "19"], "time": [3413, 4232, 4909, 8235, 9073, 9965, 10952, 11769, 14578, 15290, 18716, 21643, 24555, 25172, 28584, 30018, 33185, 36140]}, "edge": {"target": [], "time": []}}, "mouseover": {"state": {"target": ["0", "1", "2", "7", "18", "12", "0", "23", "24", "25", "24", "28", "26", "29", "26", "29", "27", "26", "25", "30", "33", "30", "31", "30", "32", "31", "0", "12", "13", "13", "14", "22", "19", "20", "20", "21", "13", "19", "12", "12", "12", "13", "14", "13"], "time": [2930, 3114, 3994, 4751, 5506, 8000, 8714, 8753, 9599, 9768, 10836, 11601, 12435, 13203, 14080, 15055, 15852, 19290, 19381, 19728, 20942, 22523, 22781, 24227, 24958, 27153, 27500, 27764, 27939, 28286, 28440, 29475, 30542, 30747, 31993, 32303, 33744, 35853, 36689, 37183, 37830, 38781, 39079, 40108]}, "edge": {"target": [], "time": []}}, "mouseout": {"state": {"target": ["0", "1", "2", "7", "18", "12", "0", "23", "24", "25", "24", "28", "26", "29", "26", "29", "27", "26", "25", "30", "33", "30", "31", "30", "32", "31", "0", "12", "13", "13", "14", "22", "19", "20", "20", "21", "13", "19", "12", "12", "12", "13", "14"], "time": [3019, 3898, 4684, 5407, 7737, 8679, 8749, 9556, 9686, 10699, 11489, 12194, 13126, 14015, 15026, 15759, 19231, 19311, 19627, 20915, 22498, 22665, 24178, 24872, 26560, 27176, 27531, 27870, 27985, 28388, 29201, 30120, 30624, 31799, 32162, 33660, 35678, 36602, 36714, 37281, 38746, 38894, 39942]}, "edge": {"target": [], "time": []}}}, "displayed_time": "46.87", "trialTime": 49366, "trial_type": "mouselab-mdp", "trial_index": 32, "time_elapsed": 2120367, "internal_node_id": "0.0-4.0-1.0-23.0"}}, {"uniqueid": "w18580193:a24124702", "current_trial": 33, "dateTime": 1691144810958, "trialdata": {"revealed_states": [], "clicked_states": ["1", "7", "14", "20", "22", "23", "24", "25", "30", "31", "26"], "num_clicks_accrued": [0, 0, 0, 0, 0, 0, 0, 0, 0, 0, 0, 0, 0], "stateRewards": ["", -1, -4, -1, -11, 43, 69, 39, 4, 17, -20, -82, -2, -1, 4, 8, -79, 24, -79, 11, 36, 64, 41, 2, 4, -1, 11, -79, -47, 75, -3, 63, -36, -19], "withholdReward": false, "trial_id": "mdp_trial_25", "block": "test", "trialIndex": 26, "score": 51.55, "costs": -13.450000000000001, "simulationMode": [null, null, null, null, null], "rewards": [2, 4, -1, -3, 63], "path": ["0", "0", "23", "24", "25", "30", "31"], "rt": [24046, 197, 607, 438, 112], "actions": ["left", "left", "left", "down", "right"], "actionTimes": [27307, 28050, 29170, 30133, 30771], "queries": {"click": {"state": {"target": ["1", "7", "14", "20", "22", "23", "24", "25", "30", "31", "26"], "time": [4175, 5137, 8331, 9504, 13158, 16253, 17270, 18179, 19016, 19716, 23198]}, "edge": {"target": [], "time": []}}, "mouseover": {"state": {"target": ["1", "7", "16", "15", "14", "19", "20", "19", "21", "22", "22", "13", "12", "23", "24", "25", "30", "31", "33", "26", "28", "28", "29", "26"], "time": [3916, 4871, 5994, 8012, 8225, 8929, 9159, 10368, 11479, 12631, 12997, 13731, 14727, 16139, 16905, 17936, 18822, 19572, 20331, 21383, 23786, 25882, 26232, 26962]}, "edge": {"target": [], "time": []}}, "mouseout": {"state": {"target": ["13", "12", "0", "1", "7", "16", "15", "14", "14", "19", "20", "19", "21", "22", "22", "13", "12", "23", "24", "25", "30", "31", "30", "33", "26", "28", "28", "26", "29", "26"], "time": [2207, 2318, 2568, 4787, 5189, 7980, 8141, 8425, 8903, 9093, 10304, 11431, 12595, 12679, 13261, 14603, 15448, 16840, 17891, 18798, 19532, 20090, 20279, 20996, 23761, 23812, 25898, 26164, 26929, 26979]}, "edge": {"target": [], "time": []}}}, "displayed_time": "31.29", "trialTime": 32066, "trial_type": "mouselab-mdp", "trial_index": 33, "time_elapsed": 2153125, "internal_node_id": "0.0-4.0-1.0-24.0"}}, {"uniqueid": "w18580193:a24124702", "current_trial": 34, "dateTime": 1691144846597, "trialdata": {"revealed_states": [], "clicked_states": ["2", "4", "29", "32", "23", "25", "30", "31", "24", "33", "26", "28"], "num_clicks_accrued": [0, 0, 0, 0, 0, 0, 0, 0, 0, 0, 0, 0, 0], "stateRewards": ["", 2, -2, -8, 9, -20, 55, -58, 14, 42, 2, 36, 1, -3, -5, 5, -58, 57, 60, 16, 57, 30, -70, -2, 1, 3, 10, 59, 23, 77, -13, -26, 88, -72], "withholdReward": false, "trial_id": "mdp_trial_26", "block": "test", "trialIndex": 27, "score": 60.2, "costs": -16.8, "simulationMode": [null, null, null, null, null], "rewards": [-2, 1, 3, -13, 88], "path": ["0", "0", "23", "24", "25", "30", "32"], "rt": [24890, 238, 336, 314, 384], "actions": ["left", "left", "left", "down", "down"], "actionTimes": [29890, 30651, 31512, 32338, 33240], "queries": {"click": {"state": {"target": ["2", "4", "29", "32", "23", "25", "30", "31", "24", "33", "26", "28"], "time": [6453, 7265, 8386, 11660, 14946, 15909, 16645, 17531, 20368, 21776, 24613, 25484]}, "edge": {"target": [], "time": []}}, "mouseover": {"state": {"target": ["1", "2", "1", "1", "2", "4", "27", "29", "25", "33", "32", "31", "24", "23", "24", "25", "30", "31", "32", "24", "25", "33", "25", "28", "26", "28", "27", "25", "23"], "time": [5631, 5688, 5935, 6098, 6230, 7082, 7859, 8102, 9190, 10477, 11519, 12405, 13546, 14761, 15542, 15613, 16632, 17312, 18235, 19815, 21210, 21579, 22644, 23076, 24463, 25263, 26519, 28056, 29110]}, "edge": {"target": [], "time": []}}, "mouseout": {"state": {"target": ["0", "1", "2", "1", "1", "2", "4", "27", "29", "25", "33", "32", "31", "24", "23", "24", "25", "30", "31", "32", "30", "24", "25", "33", "25", "28", "26", "28", "27", "28", "28", "25", "23"], "time": [5153, 5667, 5899, 6000, 6164, 6982, 7783, 8034, 8919, 10421, 11270, 11734, 13403, 14694, 15520, 15589, 16430, 16724, 17974, 19423, 19472, 20925, 21253, 22564, 22926, 24247, 25201, 26455, 27405, 27600, 27805, 28910, 29129]}, "edge": {"target": [], "time": []}}}, "displayed_time": "33.75", "trialTime": 34920, "trial_type": "mouselab-mdp", "trial_index": 34, "time_elapsed": 2188764, "internal_node_id": "0.0-4.0-1.0-25.0"}}, {"uniqueid": "w18580193:a24124702", "current_trial": 35, "dateTime": 1691144897195, "trialdata": {"revealed_states": [], "clicked_states": ["1", "2", "16", "3", "8", "10", "4", "7", "9", "11", "5", "27", "26", "29", "25", "24", "23"], "num_clicks_accrued": [0, 0, 0, 0, 0, 0, 0, 0, 0, 0, 0, 0, 0], "stateRewards": ["", 1, 4, -4, 14, 35, 51, 19, -13, 54, 78, -74, -2, -1, -3, 13, -11, -42, -73, -15, -24, -3, -69, 2, -1, 5, 16, -27, 73, 58, 9, -60, 5, -60], "withholdReward": false, "trial_id": "mdp_trial_27", "block": "test", "trialIndex": 28, "score": 56.05, "costs": -23.95, "simulationMode": [null, null, null, null, null], "rewards": [2, -1, 5, 16, 58], "path": ["0", "0", "23", "24", "25", "26", "29"], "rt": [40082, 895, 294, 146, 356], "actions": ["left", "left", "left", "up", "left"], "actionTimes": [44350, 45766, 46575, 47276, 48150], "queries": {"click": {"state": {"target": ["1", "2", "16", "3", "8", "10", "4", "7", "9", "11", "5", "27", "26", "29", "25", "24", "23"], "time": [5354, 6115, 7399, 10568, 11282, 11940, 15091, 15860, 19891, 23642, 26698, 29515, 32649, 33427, 36451, 38183, 39557]}, "edge": {"target": [], "time": []}}, "mouseover": {"state": {"target": ["1", "2", "18", "16", "7", "4", "3", "8", "10", "4", "7", "9", "11", "9", "11", "5", "27", "26", "29", "28", "25", "24", "23", "0", "23", "23"], "time": [5140, 5922, 6782, 7056, 8060, 9264, 10326, 11103, 11793, 12786, 15576, 17015, 18047, 19571, 20547, 24562, 27864, 30106, 33238, 34529, 36199, 37959, 39011, 41767, 43548, 43813]}, "edge": {"target": [], "time": []}}, "mouseout": {"state": {"target": ["0", "1", "2", "18", "16", "7", "4", "3", "8", "10", "4", "7", "9", "11", "9", "9", "11", "5", "27", "26", "29", "28", "25", "24", "23", "0", "23"], "time": [5006, 5808, 6698, 6807, 7882, 9218, 10276, 10661, 11725, 11997, 15459, 16580, 17955, 19289, 20032, 20476, 24183, 27225, 30081, 33192, 33714, 36095, 37910, 38961, 41718, 43530, 43568]}, "edge": {"target": [], "time": []}}}, "displayed_time": "48.67", "trialTime": 49908, "trial_type": "mouselab-mdp", "trial_index": 35, "time_elapsed": 2239363, "internal_node_id": "0.0-4.0-1.0-26.0"}}, {"uniqueid": "w18580193:a24124702", "current_trial": 36, "dateTime": 1691144922875, "trialdata": {"revealed_states": [], "clicked_states": ["1", "7", "5", "6", "4", "3", "2"], "num_clicks_accrued": [0, 0, 0, 0, 0, 0, 0, 0, 0, 0, 0, 0, 0], "stateRewards": ["", -2, 2, 3, -7, 76, 63, 21, 15, 35, -8, -44, 1, 1, -2, -12, 23, 24, 76, -9, 46, 66, -49, -2, -1, 7, 12, 40, -71, -45, -6, 38, -49, 46], "withholdReward": false, "trial_id": "mdp_trial_28", "block": "test", "trialIndex": 29, "score": 62.95, "costs": -9.049999999999999, "simulationMode": [null, null, null, null, null], "rewards": [-2, 2, 3, -7, 76], "path": ["0", "0", "1", "2", "3", "4", "5"], "rt": [16743, 40, 689, 43, 29], "actions": ["up", "up", "up", "right", "up"], "actionTimes": [19543, 20097, 21326, 21894, 22462], "queries": {"click": {"state": {"target": ["1", "7", "5", "6", "4", "3", "2"], "time": [3584, 4370, 7352, 11101, 14235, 15986, 16975]}, "edge": {"target": [], "time": []}}, "mouseover": {"state": {"target": ["1", "7", "4", "3", "8", "9", "5", "6", "6", "4", "3", "3", "2"], "time": [3324, 4211, 4889, 5704, 5734, 6058, 7199, 7897, 8539, 11700, 14859, 15844, 16829]}, "edge": {"target": [], "time": []}}, "mouseout": {"state": {"target": ["23", "1", "7", "4", "3", "8", "9", "5", "6", "6", "4", "3", "3", "2", "31"], "time": [2128, 4101, 4469, 5679, 5729, 5760, 6966, 7846, 7942, 11659, 14812, 15115, 16769, 23909, 24110]}, "edge": {"target": [], "time": []}}}, "displayed_time": "22.98", "trialTime": 25022, "trial_type": "mouselab-mdp", "trial_index": 36, "time_elapsed": 2265042, "internal_node_id": "0.0-4.0-1.0-27.0"}}, {"uniqueid": "w18580193:a24124702", "current_trial": 37, "dateTime": 1691144956829, "trialdata": {"revealed_states": [], "clicked_states": ["2", "10", "3", "4", "5", "11", "7", "9", "8"], "num_clicks_accrued": [0, 0, 0, 0, 0, 0, 0, 0, 0, 0, 0, 0, 0], "stateRewards": ["", 2, -4, 1, -12, -59, -53, -74, 16, -88, -66, 66, 1, -2, 8, -9, -14, 22, 25, -1, -39, 47, -14, -1, -1, -2, 1, -4, 52, -26, 15, -7, 46, 43], "withholdReward": false, "trial_id": "mdp_trial_29", "block": "test", "trialIndex": 30, "score": 65.85, "costs": -15.150000000000002, "simulationMode": [null, null, null, null, null], "rewards": [2, -4, 1, 16, 66], "path": ["0", "0", "1", "2", "3", "8", "11"], "rt": [24123, 787, 281, 258, 509], "actions": ["up", "up", "up", "left", "left"], "actionTimes": [26258, 27572, 28377, 29154, 30185], "queries": {"click": {"state": {"target": ["2", "10", "3", "4", "5", "11", "7", "9", "8"], "time": [3610, 4832, 8180, 8899, 9779, 12631, 16137, 18915, 22355]}, "edge": {"target": [], "time": []}}, "mouseover": {"state": {"target": ["0", "1", "2", "10", "10", "11", "9", "8", "3", "4", "5", "6", "9", "11", "8", "9", "8", "3", "7", "3", "8", "9", "8", "8", "11"], "time": [2735, 3185, 3467, 4071, 4746, 5466, 6556, 7333, 7973, 8721, 9559, 10417, 11472, 12389, 13205, 14046, 14977, 15597, 15829, 16733, 16992, 18199, 19443, 20983, 23021]}, "edge": {"target": [], "time": []}}, "mouseout": {"state": {"target": ["0", "0", "1", "2", "10", "10", "11", "9", "8", "3", "4", "5", "6", "9", "11", "8", "9", "8", "3", "7", "3", "8", "9", "8", "8", "11", "8"], "time": [2619, 3133, 3249, 4027, 4316, 5189, 6434, 7242, 7907, 8653, 9378, 10297, 11072, 12282, 13138, 14023, 14926, 15581, 15621, 16238, 16756, 18038, 19397, 20896, 22952, 25262, 25331]}, "edge": {"target": [], "time": []}}}, "displayed_time": "30.73", "trialTime": 33179, "trial_type": "mouselab-mdp", "trial_index": 37, "time_elapsed": 2298996, "internal_node_id": "0.0-4.0-1.0-28.0"}}, {"uniqueid": "w18580193:a24124702", "current_trial": 38, "dateTime": 1691145015128, "trialdata": {"revealed_states": [], "clicked_states": ["1", "2", "3", "4", "7", "10", "11", "26", "29", "28", "25", "27", "23", "24", "30", "31", "32", "12", "13", "14", "19", "22", "20"], "num_clicks_accrued": [0, 0, 0, 0, 0, 0, 0, 0, 0, 0, 0, 0, 0], "stateRewards": ["", -2, 2, -2, -7, -50, -62, -45, 7, 36, -24, -72, -1, -1, 8, -1, -67, 20, -52, 2, 35, -50, 80, -1, 1, 6, -6, -70, 6, 88, 8, -47, 74, -19], "withholdReward": false, "trial_id": "mdp_trial_30", "block": "test", "trialIndex": 31, "score": 57.150000000000006, "costs": -30.849999999999998, "simulationMode": [null, null, null, null, null], "rewards": [-1, -1, 8, 2, 80], "path": ["0", "0", "12", "13", "14", "19", "22"], "rt": [48194, 553, 573, 748, 251], "actions": ["right", "right", "right", "down", "left"], "actionTimes": [51854, 52983, 54071, 55343, 56108], "queries": {"click": {"state": {"target": ["1", "2", "3", "4", "7", "10", "11", "26", "29", "28", "25", "27", "23", "24", "30", "31", "32", "12", "13", "14", "19", "22", "20"], "time": [5450, 6226, 7113, 7960, 8720, 12421, 15628, 19047, 19820, 23061, 27430, 30420, 33444, 34144, 35060, 35771, 38620, 42056, 43592, 44577, 45531, 46152, 49079]}, "edge": {"target": [], "time": []}}, "mouseover": {"state": {"target": ["1", "1", "2", "3", "4", "7", "6", "3", "8", "10", "8", "8", "9", "11", "27", "26", "29", "27", "28", "27", "26", "25", "25", "26", "25", "26", "27", "26", "24", "23", "24", "30", "31", "33", "32", "33", "12", "13", "12", "13", "14", "19", "22", "21", "20", "19", "20", "21", "19", "14", "13", "13"], "time": [4593, 5340, 5988, 6917, 7696, 8529, 9521, 10328, 10586, 12273, 12975, 13156, 13988, 15300, 16371, 17639, 19628, 20458, 22833, 23754, 24468, 24569, 24848, 26356, 27255, 28052, 30231, 30962, 31190, 31905, 34030, 34931, 35739, 36293, 38099, 39263, 40119, 41034, 41769, 43416, 44405, 45383, 46014, 46759, 47570, 48609, 48890, 49788, 50565, 51089, 51137, 51225]}, "edge": {"target": [], "time": []}}, "mouseout": {"state": {"target": ["0", "1", "1", "2", "3", "4", "7", "6", "4", "3", "8", "10", "8", "8", "9", "11", "27", "26", "29", "27", "28", "27", "26", "25", "25", "26", "25", "26", "27", "26", "24", "23", "24", "30", "31", "30", "33", "32", "33", "12", "13", "12", "13", "14", "19", "22", "19", "21", "20", "19", "20", "21", "19", "14", "13", "13"], "time": [2746, 4693, 5526, 6296, 7612, 8457, 9218, 10274, 10323, 10355, 12039, 12522, 13065, 13888, 15116, 16078, 17394, 19565, 20324, 22667, 23554, 24420, 24496, 24746, 26108, 27205, 27956, 30147, 30918, 30985, 31881, 33928, 34778, 35175, 35858, 36269, 37887, 39090, 40013, 40929, 41718, 42962, 44235, 45094, 45968, 46492, 46542, 47515, 48398, 48656, 49602, 50538, 50591, 51111, 51163, 51255]}, "edge": {"target": [], "time": []}}}, "displayed_time": "56.62", "trialTime": 57572, "trial_type": "mouselab-mdp", "trial_index": 38, "time_elapsed": 2357296, "internal_node_id": "0.0-4.0-1.0-29.0"}}, {"uniqueid": "w18580193:a24124702", "current_trial": 39, "dateTime": 1691145052524, "trialdata": {"revealed_states": [], "clicked_states": ["1", "7", "25", "26", "29", "27", "24", "28", "23", "30", "33", "31", "12"], "num_clicks_accrued": [0, 0, 0, 0, 0, 0, 0, 0, 0, 0, 0, 0, 0], "stateRewards": ["", 1, -1, 1, -14, -10, 67, -28, -11, 72, 40, -65, -1, 1, 1, -2, 8, -55, 34, -10, 61, 33, -15, 2, -4, 7, 4, -75, 63, -21, -16, 61, 19, 21], "withholdReward": false, "trial_id": "mdp_trial_31", "block": "test", "trialIndex": 32, "score": 33.45, "costs": -16.55, "simulationMode": [null, null, null, null, null], "rewards": [2, -4, 7, -16, 61], "path": ["0", "0", "23", "24", "25", "30", "31"], "rt": [27306, 525, 506, 12, 94], "actions": ["left", "left", "left", "down", "right"], "actionTimes": [31990, 33037, 34060, 34600, 35229], "queries": {"click": {"state": {"target": ["1", "7", "25", "26", "29", "27", "24", "28", "23", "30", "33", "31", "12"], "time": [5587, 6398, 9564, 10267, 10986, 14382, 17160, 17951, 21282, 22268, 23145, 26688, 29631]}, "edge": {"target": [], "time": []}}, "mouseover": {"state": {"target": ["1", "7", "2", "26", "29", "25", "26", "29", "28", "27", "28", "24", "28", "23", "30", "33", "31", "31", "32", "1", "12", "13", "0", "23"], "time": [5451, 6141, 6857, 7124, 7771, 9375, 10096, 10815, 11574, 14212, 14826, 16309, 17710, 18588, 21844, 22956, 24151, 25232, 27478, 29217, 29511, 30512, 31258, 31296]}, "edge": {"target": [], "time": []}}, "mouseout": {"state": {"target": ["12", "0", "1", "7", "2", "26", "29", "25", "26", "29", "26", "28", "27", "28", "24", "28", "23", "30", "33", "30", "31", "31", "32", "1", "12", "13", "12", "0"], "time": [3968, 4184, 6050, 6484, 6885, 7706, 9200, 10002, 10748, 11407, 11489, 13962, 14758, 16112, 17258, 18534, 21775, 22908, 23767, 23900, 25064, 27186, 28904, 29261, 29710, 31204, 31254, 31275]}, "edge": {"target": [], "time": []}}}, "displayed_time": "35.75", "trialTime": 36733, "trial_type": "mouselab-mdp", "trial_index": 39, "time_elapsed": 2394691, "internal_node_id": "0.0-4.0-1.0-30.0"}}, {"uniqueid": "w18580193:a24124702", "current_trial": 40, "dateTime": 1691145086895, "trialdata": {"revealed_states": [], "clicked_states": ["1", "2", "3", "4", "7", "5", "8", "10"], "num_clicks_accrued": [0, 0, 0, 0, 0, 0, 0, 0, 0, 0, 0, 0, 0], "stateRewards": ["", -2, 4, -3, -13, 63, -36, 62, 11, 78, 34, -51, 2, -2, 8, -6, -40, -18, 31, 9, 64, 39, 79, 1, 4, -4, 15, -12, 76, 73, -10, -77, 86, -4], "withholdReward": false, "trial_id": "mdp_trial_32", "block": "test", "trialIndex": 33, "score": 38.4, "costs": -10.600000000000001, "simulationMode": [null, null, null, null, null], "rewards": [-2, 4, -3, -13, 63], "path": ["0", "0", "1", "2", "3", "4", "5"], "rt": [15855, 295, 259, 204, 120], "actions": ["up", "up", "up", "right", "up"], "actionTimes": [23734, 24557, 25344, 26061, 26709], "queries": {"click": {"state": {"target": ["1", "2", "3", "4", "7", "5", "8", "10"], "time": [9525, 10639, 11521, 12255, 12930, 16242, 19755, 20480]}, "edge": {"target": [], "time": []}}, "mouseover": {"state": {"target": ["1", "2", "3", "4", "7", "6", "5", "6", "8", "10", "9"], "time": [9309, 10370, 11234, 12094, 12762, 13822, 15713, 16812, 18464, 20425, 21316]}, "edge": {"target": [], "time": []}}, "mouseout": {"state": {"target": ["0", "0", "1", "2", "3", "4", "7", "6", "5", "6", "8", "10", "8", "9"], "time": [81, 7096, 10230, 11134, 12060, 12693, 13578, 15634, 16765, 18123, 20231, 20560, 21009, 23263]}, "edge": {"target": [], "time": []}}}, "displayed_time": "27.24", "trialTime": 33611, "trial_type": "mouselab-mdp", "trial_index": 40, "time_elapsed": 2429062, "internal_node_id": "0.0-4.0-1.0-31.0"}}, {"uniqueid": "w18580193:a24124702", "current_trial": 41, "dateTime": 1691145250012, "trialdata": {"revealed_states": [], "clicked_states": ["1", "2", "3", "4", "7", "6", "5", "11", "28", "27", "26", "29", "25", "33", "30", "12", "13", "14", "20", "17"], "num_clicks_accrued": [0, 0, 0, 0, 0, 0, 0, 0, 0, 0, 0, 0, 0], "stateRewards": ["", 1, -2, -2, 10, -31, -77, 35, 9, -47, 8, 48, -2, 1, -4, -3, -26, -50, 43, -11, 76, -38, 17, 1, -1, 6, 10, 15, -9, 12, -8, 85, 11, -55], "withholdReward": false, "trial_id": "mdp_trial_33", "block": "test", "trialIndex": 34, "score": 30.800000000000004, "costs": -29.199999999999996, "simulationMode": [null, null, null, null, null, null], "rewards": [-2, 1, -4, -11, 76], "path": ["0", "0", "12", "13", "14", "19", "20"], "rt": [40435, 178, 74, 813, 608, 196], "actions": ["right", "right", "right", "right", "down", "right"], "actionTimes": [46167, 46356, 46962, 48298, 49425, 50156], "queries": {"click": {"state": {"target": ["1", "2", "3", "4", "7", "6", "5", "11", "28", "27", "26", "29", "25", "33", "30", "12", "13", "14", "20", "17"], "time": [7086, 7897, 8789, 9512, 10283, 13585, 16398, 19229, 22657, 25952, 29014, 29886, 33334, 34455, 37764, 38909, 39808, 40485, 41438, 44335]}, "edge": {"target": [], "time": []}}, "mouseover": {"state": {"target": ["1", "2", "3", "4", "7", "6", "5", "9", "11", "28", "26", "27", "26", "29", "25", "33", "30", "23", "12", "13", "14", "20", "21", "19", "17", "16"], "time": [6880, 7649, 8645, 9313, 10059, 10885, 14185, 16844, 19075, 19933, 23477, 24771, 26828, 29655, 33046, 34145, 35067, 38474, 38807, 39556, 40320, 41134, 42063, 43213, 43535, 44846]}, "edge": {"target": [], "time": []}}, "mouseout": {"state": {"target": ["10", "0", "1", "2", "3", "4", "7", "6", "5", "9", "11", "28", "26", "27", "26", "29", "29", "25", "25", "33", "30", "23", "12", "13", "14", "20", "21", "19", "17", "16", "31"], "time": [4729, 6806, 7593, 8415, 9263, 10010, 10735, 13662, 16751, 18733, 19767, 23256, 24673, 26824, 29516, 29968, 32880, 33565, 34041, 35016, 38427, 38498, 39509, 40243, 41005, 41913, 43183, 43240, 44680, 161634, 161740]}, "edge": {"target": [], "time": []}}}, "displayed_time": "50.69", "trialTime": 162407, "trial_type": "mouselab-mdp", "trial_index": 41, "time_elapsed": 2592180, "internal_node_id": "0.0-4.0-1.0-32.0"}}, {"uniqueid": "w18580193:a24124702", "current_trial": 42, "dateTime": 1691145318659, "trialdata": {"revealed_states": [], "clicked_states": ["1", "2", "3", "8", "11", "9", "5", "7", "4", "6", "16", "18", "15", "17", "14", "13", "12", "19", "22", "20", "23", "24", "25", "30", "31", "33", "32"], "num_clicks_accrued": [0, 0, 0, 0, 0, 0, 0, 0, 0, 0, 0, 0, 0], "stateRewards": ["", 1, -1, 4, -2, -75, -75, 84, -9, -60, -79, 59, 2, -4, 8, 9, -17, -82, 80, 14, -4, 49, 49, -1, 3, 6, -11, -33, 34, 55, 9, -57, 5, 59], "withholdReward": false, "trial_id": "mdp_trial_34", "block": "test", "trialIndex": 35, "score": 37.150000000000006, "costs": -38.849999999999994, "simulationMode": [null, null, null, null, null, null], "rewards": [-1, 3, 6, 9, 59], "path": ["0", "0", "23", "24", "25", "30", "33"], "rt": [54496, 210, 294, 214, 7, 63], "actions": ["left", "left", "left", "left", "down", "left"], "actionTimes": [62934, 63150, 63981, 64746, 65283, 65913], "queries": {"click": {"state": {"target": ["1", "2", "3", "8", "11", "9", "5", "7", "4", "6", "16", "18", "15", "17", "14", "13", "12", "19", "22", "20", "23", "24", "25", "30", "31", "33", "32"], "time": [9145, 9943, 10852, 11685, 12390, 15324, 18312, 22068, 25111, 25973, 28895, 32459, 35385, 36561, 39773, 40746, 41625, 44060, 44814, 48619, 52055, 52821, 53671, 54558, 55317, 58501, 62054]}, "edge": {"target": [], "time": []}}, "mouseover": {"state": {"target": ["1", "2", "3", "8", "11", "10", "9", "5", "5", "4", "7", "7", "4", "6", "16", "18", "15", "17", "14", "13", "12", "18", "16", "15", "14", "19", "22", "21", "20", "0", "23", "23", "24", "25", "30", "31", "33", "32"], "time": [9021, 9783, 10723, 11410, 12222, 13209, 14980, 16331, 16560, 18938, 21621, 21958, 22681, 25775, 26587, 29510, 33033, 36339, 37698, 40522, 41338, 42756, 43055, 43621, 43672, 43875, 44641, 45291, 48226, 49347, 49601, 49894, 52609, 53439, 54365, 55168, 55932, 59365]}, "edge": {"target": [], "time": []}}, "mouseout": {"state": {"target": ["0", "0", "1", "2", "3", "8", "11", "10", "9", "5", "5", "4", "7", "7", "4", "6", "16", "18", "15", "17", "15", "14", "13", "12", "18", "16", "15", "14", "19", "22", "21", "20", "20", "0", "23", "23", "24", "25", "30", "31", "30", "33"], "time": [7047, 8888, 9644, 10575, 11321, 12177, 13181, 14645, 16030, 16441, 18852, 21541, 21774, 22477, 25730, 26545, 29424, 32969, 36239, 37136, 37523, 40476, 41287, 41878, 42797, 43604, 43644, 43705, 44576, 45261, 48144, 48724, 49281, 49376, 49709, 52567, 52911, 54297, 55100, 55783, 55850, 59236]}, "edge": {"target": [], "time": []}}}, "displayed_time": "66.44", "trialTime": 67825, "trial_type": "mouselab-mdp", "trial_index": 42, "time_elapsed": 2660826, "internal_node_id": "0.0-4.0-1.0-33.0"}}, {"uniqueid": "w18580193:a24124702", "current_trial": 43, "dateTime": 1691145373217, "trialdata": {"revealed_states": [], "clicked_states": ["1", "7", "9", "25", "33", "19", "20", "16", "17", "13", "12", "5", "6", "3", "4", "2"], "num_clicks_accrued": [0, 0, 0, 0, 0, 0, 0, 0, 0, 0, 0, 0, 0], "stateRewards": ["", -2, 3, 8, -9, 59, 41, -50, -1, 82, 66, 33, 2, -2, 7, 8, 1, -38, 12, -16, 24, -37, 67, 1, 4, -2, 5, 35, -83, 28, 8, -27, 69, -64], "withholdReward": false, "trial_id": "mdp_trial_35", "block": "test", "trialIndex": 36, "score": 18.599999999999998, "costs": -22.400000000000002, "simulationMode": [null, null, null, null, null], "rewards": [-2, 3, 8, -9, 41], "path": ["0", "0", "1", "2", "3", "4", "6"], "rt": [39507, 1396, 167, 7, 418], "actions": ["up", "up", "up", "right", "right"], "actionTimes": [48477, 50390, 51111, 51645, 52596], "queries": {"click": {"state": {"target": ["1", "7", "9", "25", "33", "19", "20", "16", "17", "13", "12", "5", "6", "3", "4", "2"], "time": [9922, 10992, 13796, 16734, 17961, 21579, 22314, 25543, 28391, 31502, 32365, 33552, 37383, 40955, 41767, 42811]}, "edge": {"target": [], "time": []}}, "mouseover": {"state": {"target": ["1", "7", "4", "5", "9", "27", "26", "25", "33", "30", "31", "32", "12", "22", "19", "20", "19", "20", "21", "14", "15", "16", "17", "15", "18", "15", "14", "13", "12", "4", "5", "6", "6", "4", "4", "3", "4", "2", "7", "8", "10"], "time": [9650, 10714, 11583, 11714, 13096, 14349, 15844, 15977, 17537, 18445, 18478, 18882, 19645, 20090, 21040, 21122, 21406, 22188, 23070, 24033, 24063, 25213, 26402, 28771, 28833, 29735, 30599, 31345, 32172, 33169, 33305, 34259, 37049, 37967, 39755, 39959, 41568, 42431, 43604, 46147, 46925]}, "edge": {"target": [], "time": []}}, "mouseout": {"state": {"target": ["0", "1", "7", "4", "5", "9", "27", "26", "25", "33", "30", "31", "32", "12", "22", "19", "20", "19", "20", "21", "19", "14", "15", "16", "17", "15", "18", "15", "14", "13", "12", "4", "5", "5", "6", "6", "4", "4", "3", "4", "2", "7", "8"], "time": [9468, 10185, 11461, 11682, 12699, 14201, 15816, 15872, 17421, 18420, 18474, 18503, 19522, 19840, 20942, 21073, 21305, 22107, 22914, 24000, 24027, 24055, 25180, 26121, 28765, 28804, 29643, 30572, 31314, 32099, 32865, 33236, 33646, 34092, 36700, 37899, 39300, 39907, 41074, 42341, 43510, 45847, 46877]}, "edge": {"target": [], "time": []}}}, "displayed_time": "53.12", "trialTime": 53827, "trial_type": "mouselab-mdp", "trial_index": 43, "time_elapsed": 2715385, "internal_node_id": "0.0-4.0-1.0-34.0"}}, {"uniqueid": "w18580193:a24124702", "current_trial": 44, "dateTime": 1691145432440, "trialdata": {"revealed_states": [], "clicked_states": ["2", "3", "9", "5", "6", "16", "18", "15", "17", "14", "13", "12", "19", "20", "24", "25", "30", "10", "8", "11", "26", "29", "27"], "num_clicks_accrued": [0, 0, 0, 0, 0, 0, 0, 0, 0, 0, 0, 0, 0], "stateRewards": ["", -2, 2, 2, -6, 9, 37, 50, -13, -7, -18, -75, -2, -4, 4, 7, 23, -57, -66, -7, -81, -48, -76, 1, 1, -8, 1, 51, -2, 70, 14, 59, 71, -37], "withholdReward": false, "trial_id": "mdp_trial_36", "block": "test", "trialIndex": 37, "score": 29.949999999999996, "costs": -35.050000000000004, "simulationMode": [null, null, null, null, null], "rewards": [1, 1, -8, 1, 70], "path": ["0", "0", "23", "24", "25", "26", "29"], "rt": [46593, 1061, 65, 194, 347], "actions": ["left", "left", "left", "up", "left"], "actionTimes": [53120, 54721, 55343, 56055, 56922], "queries": {"click": {"state": {"target": ["2", "3", "9", "5", "6", "16", "18", "15", "17", "14", "13", "12", "19", "20", "24", "25", "30", "10", "8", "11", "26", "29", "27"], "time": [7996, 8773, 9726, 12569, 15546, 18363, 21897, 24887, 25663, 28455, 29108, 29859, 30943, 31714, 35039, 35826, 36525, 37855, 40702, 41713, 44952, 45784, 48648]}, "edge": {"target": [], "time": []}}, "mouseover": {"state": {"target": ["0", "1", "2", "3", "8", "9", "8", "11", "8", "5", "4", "6", "16", "15", "18", "15", "17", "14", "13", "12", "19", "20", "21", "24", "25", "30", "28", "10", "10", "8", "11", "27", "26", "29", "28", "27", "4"], "time": [7504, 7638, 7675, 8578, 9318, 9423, 10209, 11024, 11705, 12017, 13757, 14637, 16221, 18825, 19578, 22445, 25544, 26716, 28965, 29738, 30638, 31536, 32224, 33323, 35622, 36459, 36988, 37020, 37567, 38347, 41549, 42310, 44750, 45599, 46523, 48380, 49581]}, "edge": {"target": [], "time": []}}, "mouseout": {"state": {"target": ["0", "0", "1", "2", "3", "8", "9", "8", "11", "8", "5", "4", "6", "6", "16", "15", "18", "15", "17", "14", "13", "12", "12", "13", "19", "20", "21", "24", "25", "30", "28", "10", "10", "8", "11", "27", "26", "29", "26", "28", "27", "4"], "time": [6038, 7605, 7655, 8077, 9246, 9343, 10162, 10978, 11679, 11751, 13144, 14567, 15635, 15966, 18736, 19529, 22366, 25450, 26624, 28559, 29211, 29919, 30359, 30393, 31518, 32100, 32955, 35575, 36335, 36916, 37015, 37047, 37959, 41319, 42219, 44716, 45524, 46306, 46449, 48328, 49131, 50782]}, "edge": {"target": [], "time": []}}}, "displayed_time": "57.45", "trialTime": 58463, "trial_type": "mouselab-mdp", "trial_index": 44, "time_elapsed": 2774607, "internal_node_id": "0.0-4.0-1.0-35.0"}}, {"uniqueid": "w18580193:a24124702", "current_trial": 45, "dateTime": 1691145495263, "trialdata": {"revealed_states": [], "clicked_states": ["1", "2", "3", "8", "11", "4", "7", "15", "17", "16", "13", "14", "12", "23", "24", "25", "30", "33", "20", "27", "29", "26", "28", "9", "5", "6", "10", "18"], "num_clicks_accrued": [0, 0, 0, 0, 0, 0, 0, 0, 0, 0, 0, 0, 0], "stateRewards": ["", -1, -2, 4, 9, 10, -75, 39, 16, -43, 88, -19, -1, 1, 2, 4, -31, 10, 73, 12, 41, -64, -81, -2, 2, -6, 1, -81, -1, -26, 3, -59, -3, -20], "withholdReward": false, "trial_id": "mdp_trial_37", "block": "test", "trialIndex": 38, "score": 64.00000000000001, "costs": -40.999999999999986, "simulationMode": [null, null, null, null, null, null], "rewards": [-1, -2, 4, 16, 88], "path": ["0", "0", "1", "2", "3", "8", "10"], "rt": [53980, 803, 75, 86, 7, 16], "actions": ["up", "up", "up", "up", "left", "down"], "actionTimes": [57424, 58236, 58868, 59468, 60003, 60577], "queries": {"click": {"state": {"target": ["1", "2", "3", "8", "11", "4", "7", "15", "17", "16", "13", "14", "12", "23", "24", "25", "30", "33", "20", "27", "29", "26", "28", "9", "5", "6", "10", "18"], "time": [4565, 5317, 6116, 6884, 7589, 10519, 11300, 14223, 14881, 17737, 21079, 21894, 22596, 23320, 24485, 25218, 25888, 26477, 29713, 32932, 35880, 39291, 40052, 42885, 46445, 49481, 52404, 55397]}, "edge": {"target": [], "time": []}}, "mouseover": {"state": {"target": ["1", "1", "2", "3", "8", "11", "5", "5", "6", "4", "7", "16", "15", "17", "18", "16", "15", "14", "13", "14", "12", "23", "24", "25", "30", "33", "22", "19", "21", "20", "19", "23", "28", "27", "29", "11", "11", "29", "26", "26", "28", "8", "9", "5", "6", "10", "18", "18"], "time": [3957, 4174, 5111, 5906, 6700, 7511, 8146, 8459, 9613, 10370, 11181, 11888, 14121, 14807, 15455, 16675, 18251, 18306, 20966, 21705, 22386, 23067, 24378, 25012, 25794, 26303, 27111, 27371, 27965, 29546, 30255, 30328, 30545, 30807, 33540, 34889, 35306, 35636, 36591, 39174, 39878, 40615, 40872, 43505, 47434, 50196, 53165, 53348]}, "edge": {"target": [], "time": []}}, "mouseout": {"state": {"target": ["1", "1", "2", "3", "8", "11", "5", "5", "6", "4", "4", "7", "16", "15", "17", "15", "18", "16", "15", "14", "13", "14", "13", "12", "23", "24", "25", "30", "33", "22", "19", "21", "20", "19", "23", "28", "27", "29", "27", "11", "11", "27", "29", "26", "26", "28", "8", "9", "5", "5", "6", "10", "18"], "time": [4041, 4664, 5821, 6672, 7379, 8053, 8192, 9561, 10322, 10759, 11129, 11705, 13975, 14718, 15357, 15428, 16492, 18226, 18280, 20900, 21648, 22301, 22358, 22996, 23398, 24966, 25734, 25945, 26806, 27154, 27917, 29381, 30250, 30279, 30354, 30574, 33364, 34627, 34678, 34946, 35335, 35468, 35978, 38889, 39806, 40579, 40667, 43304, 47001, 47364, 49954, 52866, 53213]}, "edge": {"target": [], "time": []}}}, "displayed_time": "61.11", "trialTime": 62122, "trial_type": "mouselab-mdp", "trial_index": 45, "time_elapsed": 2837430, "internal_node_id": "0.0-4.0-1.0-36.0"}}, {"uniqueid": "w18580193:a24124702", "current_trial": 46, "dateTime": 1691145536918, "trialdata": {"revealed_states": [], "clicked_states": ["2", "1", "10", "9", "8", "3", "4", "5", "11", "27", "29", "24", "33", "31"], "num_clicks_accrued": [0, 0, 0, 0, 0, 0, 0, 0, 0, 0, 0, 0, 0], "stateRewards": ["", -1, 2, -6, 6, -82, -19, -39, -16, -83, 11, -33, -2, -2, 4, -6, -82, -1, -19, -6, -10, -67, -41, -2, 1, -7, 16, -23, -78, -52, 14, 31, -71, 74], "withholdReward": false, "trial_id": "mdp_trial_38", "block": "test", "trialIndex": 39, "score": 58.3, "costs": -21.7, "simulationMode": [null, null, null, null, null, null], "rewards": [-2, 1, -7, 14, 74], "path": ["0", "0", "23", "24", "25", "30", "33"], "rt": [32062, 940, 22, 17, 77, 49], "actions": ["left", "left", "left", "left", "down", "left"], "actionTimes": [36543, 37491, 38033, 38576, 39185, 39761], "queries": {"click": {"state": {"target": ["2", "1", "10", "9", "8", "3", "4", "5", "11", "27", "29", "24", "33", "31"], "time": [6295, 7123, 8121, 11449, 14336, 15166, 15965, 16922, 19871, 23632, 26470, 29945, 30910, 33865]}, "edge": {"target": [], "time": []}}, "mouseover": {"state": {"target": ["1", "2", "1", "10", "10", "8", "9", "8", "11", "8", "3", "4", "5", "6", "4", "3", "8", "11", "2", "7", "2", "10", "27", "26", "26", "29", "26", "28", "25", "24", "33", "30", "32", "31", "0", "12", "13", "13"], "time": [5649, 5949, 6857, 7633, 8000, 8635, 10732, 12042, 12807, 14057, 14947, 15767, 16749, 17562, 19248, 19281, 19339, 19620, 20571, 21071, 23060, 23088, 23424, 24484, 25671, 25897, 26912, 27782, 28647, 29707, 30601, 31590, 32682, 33498, 34460, 34515, 34747, 34940]}, "edge": {"target": [], "time": []}}, "mouseout": {"state": {"target": ["0", "1", "2", "1", "10", "10", "8", "9", "8", "11", "8", "3", "4", "5", "6", "4", "3", "8", "11", "2", "7", "2", "10", "27", "26", "26", "29", "26", "28", "25", "24", "33", "33", "30", "32", "31", "0", "12", "13", "13"], "time": [5568, 5733, 6807, 7574, 7679, 8583, 10637, 11972, 12733, 13900, 14895, 15715, 16590, 17446, 19243, 19275, 19308, 19570, 20500, 20853, 23039, 23083, 23111, 24411, 25501, 25737, 26585, 27757, 28575, 29559, 30447, 31017, 31500, 32361, 33402, 34411, 34487, 34719, 34910, 34982]}, "edge": {"target": [], "time": []}}}, "displayed_time": "40.29", "trialTime": 40889, "trial_type": "mouselab-mdp", "trial_index": 46, "time_elapsed": 2879085, "internal_node_id": "0.0-4.0-1.0-37.0"}}, {"uniqueid": "w18580193:a24124702", "current_trial": 47, "dateTime": 1691145574020, "trialdata": {"revealed_states": [], "clicked_states": ["2", "7", "6", "8", "10", "11", "3", "9", "4"], "num_clicks_accrued": [0, 0, 0, 0, 0, 0, 0, 0, 0, 0, 0, 0, 0], "stateRewards": ["", 1, -4, -6, -1, -21, 17, -72, 10, 77, 67, -46, -1, 4, -2, 14, -66, -49, -45, -15, -52, 23, -67, 2, -2, -2, 15, -3, 45, -64, 5, -44, 83, 61], "withholdReward": false, "trial_id": "mdp_trial_39", "block": "test", "trialIndex": 40, "score": 62.85, "costs": -15.15, "simulationMode": [null, null, null, null, null], "rewards": [1, -4, -6, 10, 77], "path": ["0", "0", "1", "2", "3", "8", "9"], "rt": [24398, 14, 271, 578, 190], "actions": ["up", "up", "up", "left", "up"], "actionTimes": [29898, 30506, 31344, 32443, 33152], "queries": {"click": {"state": {"target": ["2", "7", "6", "8", "10", "11", "3", "9", "4"], "time": [7127, 7883, 11344, 14211, 15121, 18500, 22028, 24198, 27662]}, "edge": {"target": [], "time": []}}, "mouseover": {"state": {"target": ["1", "2", "7", "4", "5", "6", "3", "9", "8", "10", "11", "27", "10", "2", "3", "8", "9", "4"], "time": [6736, 6901, 7688, 8368, 8495, 10219, 11836, 12176, 13540, 14783, 15695, 20475, 21383, 21533, 21782, 23378, 23929, 25728]}, "edge": {"target": [], "time": []}}, "mouseout": {"state": {"target": ["1", "2", "7", "4", "5", "6", "3", "9", "8", "10", "11", "27", "10", "2", "3", "3", "8", "9", "4", "7"], "time": [6819, 7682, 8274, 8418, 10031, 11786, 11865, 13376, 14735, 15555, 20407, 20527, 21431, 21650, 22120, 23018, 23627, 25435, 34841, 34860]}, "edge": {"target": [], "time": []}}}, "displayed_time": "33.70", "trialTime": 36297, "trial_type": "mouselab-mdp", "trial_index": 47, "time_elapsed": 2916188, "internal_node_id": "0.0-4.0-1.0-38.0"}}, {"uniqueid": "w18580193:a24124702", "current_trial": 48, "dateTime": 1691145629827, "trialdata": {"revealed_states": [], "clicked_states": ["2", "1", "3", "4", "7", "6", "5", "8", "9", "27", "26", "28", "29", "24", "30", "31", "13", "22", "19", "21", "14"], "num_clicks_accrued": [0, 0, 0, 0, 0, 0, 0, 0, 0, 0, 0, 0, 0], "stateRewards": ["", -1, -4, -6, -15, 21, -67, -63, 9, 51, 69, -14, -1, 3, 8, -8, 39, 72, 63, 15, 19, 47, 15, 1, 4, 5, 16, -18, 34, 35, -14, -80, 40, 1], "withholdReward": false, "trial_id": "mdp_trial_40", "block": "test", "trialIndex": 41, "score": 40.05, "costs": -31.95, "simulationMode": [null, null, null, null, null], "rewards": [-1, 3, 8, 15, 47], "path": ["0", "0", "12", "13", "14", "19", "21"], "rt": [43123, 465, 11, 70, 575], "actions": ["right", "right", "right", "down", "down"], "actionTimes": [50004, 50996, 51532, 52130, 53234], "queries": {"click": {"state": {"target": ["2", "1", "3", "4", "7", "6", "5", "8", "9", "27", "26", "28", "2