{"condition": 0, "counterbalance": 0, "assignmentId": "a88581418", "workerId": "w44544083", "hitId": "h16896356", "currenttrial": 55, "bonus": 0, "data": [{"uniqueid": "w44544083:a88581418", "current_trial": 0, "dateTime": 1691141913901, "trialdata": {"success": true, "trial_type": "fullscreen", "trial_index": 0, "time_elapsed": 5206, "internal_node_id": "0.0-0.0"}}, {"uniqueid": "w44544083:a88581418", "current_trial": 1, "dateTime": 1691141976580, "trialdata": {"view_history": [{"page_index": 0, "viewing_time": 62675}], "rt": 62676, "trial_id": "exp_instructions_control", "trial_type": "instructions", "trial_index": 1, "time_elapsed": 67884, "internal_node_id": "0.0-1.0"}}, {"uniqueid": "w44544083:a88581418", "current_trial": 2, "dateTime": 1691141984677, "trialdata": {"success": true, "trial_type": "fullscreen", "trial_index": 2, "time_elapsed": 75982, "internal_node_id": "0.0-2.0-0.0"}}, {"uniqueid": "w44544083:a88581418", "current_trial": 3, "dateTime": 1691142155724, "trialdata": {"view_history": [{"page_index": 0, "viewing_time": 73806}, {"page_index": 1, "viewing_time": 64191}, {"page_index": 2, "viewing_time": 22288}, {"page_index": 3, "viewing_time": 10760}], "rt": 171045, "trial_id": "mouselab_instructions_1_control", "trial_type": "instructions", "trial_index": 3, "time_elapsed": 247029, "internal_node_id": "0.0-2.0-1.0"}}, {"uniqueid": "w44544083:a88581418", "current_trial": 4, "dateTime": 1691142201652, "trialdata": {"revealed_states": [], "clicked_states": ["14"], "num_clicks_accrued": [0, 0, 0, 0, 0, 0, 0, 0, 0, 0, 0, 0, 0], "stateRewards": ["", -10, -10, 10, 10, -10, -10, 10, 10, 10, 10, 10, 10, -10, 10, 10, -10, 10, -10, 10, -10, -10, 10, -10, -10, 10, 10, -10, -10, 10, -10, 10, -10, 10], "withholdReward": false, "trial_id": "practice_1", "block": "test", "trialIndex": 0, "score": 13, "costs": -0.5, "simulationMode": [null, null, null, null, null], "rewards": [10, -10, 10, 10, -10], "path": ["0", "0", "12", "13", "14", "15", "16"], "rt": [8264, 3146, 568, 18062, 1048], "actions": ["right", "right", "right", "up", "up"], "actionTimes": [12398, 16045, 17117, 35694, 37230], "queries": {"click": {"state": {"target": ["14"], "time": [9563]}, "edge": {"target": [], "time": []}}, "mouseover": {"state": {"target": ["0", "0", "14", "19", "22", "14", "19"], "time": [4515, 6264, 6964, 7591, 8948, 9064, 9898]}, "edge": {"target": [], "time": []}}, "mouseout": {"state": {"target": ["0", "0", "0", "14", "19", "22", "14", "19", "2", "12", "13", "14", "13", "1", "10", "8", "8", "18", "15", "13"], "time": [3048, 4648, 6297, 7231, 7698, 8964, 9882, 9914, 21098, 21215, 21281, 22331, 22381, 22514, 22681, 22881, 23747, 25097, 30376, 30948]}, "edge": {"target": [], "time": []}}}, "displayed_time": "37.75", "trialTime": 45166, "trial_type": "mouselab-mdp", "trial_index": 4, "time_elapsed": 292957, "internal_node_id": "0.0-2.0-2.0-0.0"}}, {"uniqueid": "w44544083:a88581418", "current_trial": 5, "dateTime": 1691142219493, "trialdata": {"revealed_states": [], "clicked_states": [], "num_clicks_accrued": [0, 0, 0, 0, 0, 0, 0, 0, 0, 0, 0, 0, 0], "stateRewards": ["", 10, -10, -10, 10, 10, -10, 10, -10, 10, -10, 10, 10, 10, 10, 10, -10, -10, 10, -10, -10, -10, -10, -10, 10, 10, 10, 10, -10, 10, -10, -10, 10, -10], "withholdReward": false, "trial_id": "practice_2", "block": "test", "trialIndex": 1, "score": -6.5, "costs": 0, "simulationMode": [null, null, null, null, null], "rewards": [10, -10, -10, -10, 10], "path": ["0", "0", "1", "2", "3", "8", "9"], "rt": [2468, 796, 952, 734, 236], "actions": ["up", "up", "up", "left", "up"], "actionTimes": [8289, 9600, 11040, 12273, 13024], "queries": {"click": {"state": {"target": [], "time": []}, "edge": {"target": [], "time": []}}, "mouseover": {"state": {"target": ["0"], "time": [6104]}, "edge": {"target": [], "time": []}}, "mouseout": {"state": {"target": ["0", "0"], "time": [5138, 6170]}, "edge": {"target": [], "time": []}}}, "displayed_time": "13.52", "trialTime": 17729, "trial_type": "mouselab-mdp", "trial_index": 5, "time_elapsed": 310797, "internal_node_id": "0.0-2.0-2.0-1.0"}}, {"uniqueid": "w44544083:a88581418", "current_trial": 6, "dateTime": 1691142245476, "trialdata": {"view_history": [{"page_index": 0, "viewing_time": 7990}, {"page_index": 1, "viewing_time": 17991}], "rt": 25982, "trial_id": "mouselab_instructions_2_control", "trial_type": "instructions", "trial_index": 6, "time_elapsed": 336781, "internal_node_id": "0.0-2.0-3.0"}}, {"uniqueid": "w44544083:a88581418", "current_trial": 7, "dateTime": 1691142306166, "trialdata": {"rt": 60687, "response": {"Q0": "The cost for clicking on nodes may vary between nodes.", "Q1": "The better I perform the higher my bonus will be.", "Q2": "No, the amount of cash at each node of the web may be different each time.", "Q3": "To get the highest total score.", "Q4": "Only before moving the spider.", "Q5": "3 seconds"}, "question_order": [0, 1, 2, 3, 4, 5], "correct": {"Q0": "The cost for clicking on nodes may vary between nodes.", "Q1": "The better I perform the higher my bonus will be.", "Q2": "No, the amount of cash at each node of the web may be different each time.", "Q3": "To get the highest total score.", "Q4": "Only before moving the spider.", "Q5": "3 seconds"}, "trial_id": "mouselab_quiz_control", "trial_type": "survey-multi-choice", "trial_index": 7, "time_elapsed": 397471, "internal_node_id": "0.0-2.0-4.0"}}, {"uniqueid": "w44544083:a88581418", "current_trial": 8, "dateTime": 1691142313572, "trialdata": {"rt": 7402, "stimulus": "\n<h1> Get ready to start the game! </h1>\n\nThank you for reading the instructions. Get ready start with the 40 rounds of this game.\n<br><br>\nIf you need to take a break, feel free to take one after the end of a round, before continuing to the next one.\n<br><br>\nRemember, the more money the spider gets, the bigger your bonus will be!\n<br><br>\n<div style='text-align: center;'>Press <code>space</code> to begin.</div>\n\n<br><br>\n(If, at any point, the <code>space</code> key does not take you to the next page, click once on the text and try again.)", "response": " ", "trial_id": "mdp_ready", "trial_type": "html-keyboard-response", "trial_index": 8, "time_elapsed": 404877, "internal_node_id": "0.0-4.0-0.0"}}, {"uniqueid": "w44544083:a88581418", "current_trial": 9, "dateTime": 1691142333189, "trialdata": {"revealed_states": [], "clicked_states": [], "num_clicks_accrued": [0, 0, 0, 0, 0, 0, 0, 0, 0, 0, 0, 0, 0], "stateRewards": ["", 2, 2, 3, -15, 23, -14, 73, -7, -32, -20, -6, 1, 1, -5, -12, 73, 6, -84, 11, -81, -57, 13, -2, -1, -4, -8, -52, -58, 49, 13, 5, -41, -41], "withholdReward": false, "trial_id": "mdp_trial_1", "block": "test", "trialIndex": 2, "score": -35, "costs": 0, "simulationMode": [null, null, null, null, null], "rewards": [-2, -1, -4, 13, -41], "path": ["0", "0", "23", "24", "25", "30", "32"], "rt": [3588, 578, 727, 407, 355], "actions": ["left", "left", "left", "down", "down"], "actionTimes": [5831, 6902, 8118, 9014, 9862], "queries": {"click": {"state": {"target": [], "time": []}, "edge": {"target": [], "time": []}}, "mouseover": {"state": {"target": [], "time": []}, "edge": {"target": [], "time": []}}, "mouseout": {"state": {"target": ["3", "2", "1", "0"], "time": [1072, 1105, 1189, 2672]}, "edge": {"target": [], "time": []}}}, "displayed_time": "16.24", "trialTime": 19510, "trial_type": "mouselab-mdp", "trial_index": 9, "time_elapsed": 424494, "internal_node_id": "0.0-4.0-1.0-0.0"}}, {"uniqueid": "w44544083:a88581418", "current_trial": 10, "dateTime": 1691142356677, "trialdata": {"revealed_states": [], "clicked_states": ["8"], "num_clicks_accrued": [0, 0, 0, 0, 0, 0, 0, 0, 0, 0, 0, 0, 0], "stateRewards": ["", 1, -1, 1, 13, 31, -56, 72, 2, 41, 5, 63, -2, -3, -2, 3, -71, -26, 52, 13, -31, 24, -67, 2, -2, 5, 4, 66, 43, 72, 9, 86, -26, 44], "withholdReward": false, "trial_id": "mdp_trial_2", "block": "test", "trialIndex": 3, "score": -31.4, "costs": -1.4, "simulationMode": [null, null, null, null, null], "rewards": [-2, -3, -2, 3, -26], "path": ["0", "0", "12", "13", "14", "15", "17"], "rt": [9906, 104, 208, 148, 778], "actions": ["right", "right", "right", "up", "right"], "actionTimes": [13635, 14242, 14962, 15602, 16882], "queries": {"click": {"state": {"target": ["8"], "time": [5598]}, "edge": {"target": [], "time": []}}, "mouseover": {"state": {"target": ["23", "10", "3", "8", "10"], "time": [4035, 4202, 4469, 5070, 7885]}, "edge": {"target": [], "time": []}}, "mouseout": {"state": {"target": ["32", "23", "0", "0", "23", "10", "3", "8", "10"], "time": [2502, 2652, 2852, 3986, 4103, 4236, 4869, 7752, 8152]}, "edge": {"target": [], "time": []}}}, "displayed_time": "17.73", "trialTime": 23378, "trial_type": "mouselab-mdp", "trial_index": 10, "time_elapsed": 447981, "internal_node_id": "0.0-4.0-1.0-1.0"}}, {"uniqueid": "w44544083:a88581418", "current_trial": 11, "dateTime": 1691142378790, "trialdata": {"revealed_states": [], "clicked_states": [], "num_clicks_accrued": [0, 0, 0, 0, 0, 0, 0, 0, 0, 0, 0, 0, 0], "stateRewards": ["", 1, 3, -2, 15, 51, 15, -19, 11, 67, -45, -73, 2, 4, -2, -13, 36, 9, -28, 10, -30, 31, 16, 1, 2, -1, -16, 14, -22, 36, -1, 88, -5, 45], "withholdReward": false, "trial_id": "mdp_trial_3", "block": "test", "trialIndex": 4, "score": 80, "costs": 0, "simulationMode": [null, null, null, null, null], "rewards": [1, 3, -2, 11, 67], "path": ["0", "0", "1", "2", "3", "8", "9"], "rt": [3098, 403, 1022, 577, 135], "actions": ["up", "up", "up", "left", "up"], "actionTimes": [7098, 7994, 9530, 10602, 11226], "queries": {"click": {"state": {"target": [], "time": []}, "edge": {"target": [], "time": []}}, "mouseover": {"state": {"target": [], "time": []}, "edge": {"target": [], "time": []}}, "mouseout": {"state": {"target": ["31", "24", "23", "0", "12", "12", "0"], "time": [2962, 3156, 3173, 3189, 3206, 3606, 4140]}, "edge": {"target": [], "time": []}}}, "displayed_time": "18.00", "trialTime": 21995, "trial_type": "mouselab-mdp", "trial_index": 11, "time_elapsed": 470095, "internal_node_id": "0.0-4.0-1.0-2.0"}}, {"uniqueid": "w44544083:a88581418", "current_trial": 12, "dateTime": 1691142398773, "trialdata": {"revealed_states": [], "clicked_states": [], "num_clicks_accrued": [0, 0, 0, 0, 0, 0, 0, 0, 0, 0, 0, 0, 0], "stateRewards": ["", -2, -2, -3, -6, -15, -11, 41, -12, -63, -76, 2, -2, -3, 8, 9, -36, -2, -18, -16, -32, -85, -17, -2, 1, 5, -16, 82, 35, -88, -1, 80, -82, -20], "withholdReward": false, "trial_id": "mdp_trial_4", "block": "test", "trialIndex": 5, "score": -28, "costs": 0, "simulationMode": [null, null, null, null, null], "rewards": [-2, -2, -3, -6, -15], "path": ["0", "0", "1", "2", "3", "4", "5"], "rt": [2865, 591, 292, 84, 10], "actions": ["up", "up", "up", "right", "up"], "actionTimes": [6266, 7354, 8154, 8747, 9274], "queries": {"click": {"state": {"target": [], "time": []}, "edge": {"target": [], "time": []}}, "mouseover": {"state": {"target": ["24"], "time": [5212]}, "edge": {"target": [], "time": []}}, "mouseout": {"state": {"target": ["27", "26", "24", "0", "24", "1", "9", "2", "1"], "time": [2644, 2694, 2744, 3628, 13528, 13894, 14178, 18311, 18328]}, "edge": {"target": [], "time": []}}}, "displayed_time": "17.40", "trialTime": 19866, "trial_type": "mouselab-mdp", "trial_index": 12, "time_elapsed": 490078, "internal_node_id": "0.0-4.0-1.0-3.0"}}, {"uniqueid": "w44544083:a88581418", "current_trial": 13, "dateTime": 1691142421381, "trialdata": {"revealed_states": [], "clicked_states": [], "num_clicks_accrued": [0, 0, 0, 0, 0, 0, 0, 0, 0, 0, 0, 0, 0], "stateRewards": ["", -2, 2, 8, -6, -25, 3, 87, 2, -62, -2, 74, -2, -1, 2, -1, 79, 49, -37, -14, 5, 67, -9, -1, 2, -2, 5, 15, 38, 32, -14, -38, -38, 30], "withholdReward": false, "trial_id": "mdp_trial_5", "block": "test", "trialIndex": 6, "score": -23, "costs": 0, "simulationMode": [null, null, null, null, null], "rewards": [-2, 2, 8, -6, -25], "path": ["0", "0", "1", "2", "3", "4", "5"], "rt": [1622, 436, 141, 3, 111], "actions": ["up", "up", "up", "right", "up"], "actionTimes": [5372, 6300, 6956, 7468, 8092], "queries": {"click": {"state": {"target": [], "time": []}, "edge": {"target": [], "time": []}}, "mouseover": {"state": {"target": ["0"], "time": [3934]}, "edge": {"target": [], "time": []}}, "mouseout": {"state": {"target": ["23", "0", "0"], "time": [3045, 3616, 3980]}, "edge": {"target": [], "time": []}}}, "displayed_time": "17.75", "trialTime": 22477, "trial_type": "mouselab-mdp", "trial_index": 13, "time_elapsed": 512686, "internal_node_id": "0.0-4.0-1.0-4.0"}}, {"uniqueid": "w44544083:a88581418", "current_trial": 14, "dateTime": 1691142439013, "trialdata": {"revealed_states": [], "clicked_states": [], "num_clicks_accrued": [0, 0, 0, 0, 0, 0, 0, 0, 0, 0, 0, 0, 0], "stateRewards": ["", -2, 1, -5, 2, -68, 80, 33, 10, 67, -59, 20, -1, -3, 3, 14, 74, -2, 24, -16, 63, 80, 46, -1, 4, 6, 12, 83, -38, -43, -4, 43, 14, -79], "withholdReward": false, "trial_id": "mdp_trial_6", "block": "test", "trialIndex": 7, "score": -72, "costs": 0, "simulationMode": [null, null, null, null, null], "rewards": [-2, 1, -5, 2, -68], "path": ["0", "0", "1", "2", "3", "4", "5"], "rt": [8198, 23, 354, 463, 89], "actions": ["up", "up", "up", "right", "up"], "actionTimes": [9860, 10371, 11251, 12211, 12803], "queries": {"click": {"state": {"target": [], "time": []}, "edge": {"target": [], "time": []}}, "mouseover": {"state": {"target": ["23", "24", "28", "10", "3", "2", "3", "4", "5", "4", "7", "13", "22"], "time": [1830, 1913, 2579, 2646, 3129, 3463, 4230, 4363, 4514, 6847, 7530, 7813, 7913]}, "edge": {"target": [], "time": []}}, "mouseout": {"state": {"target": ["0", "1", "0", "23", "24", "28", "10", "3", "2", "3", "4", "5", "4", "7", "13", "22"], "time": [729, 946, 1796, 1880, 2046, 2629, 2746, 3346, 4163, 4247, 4430, 5363, 7181, 7663, 7863, 7980]}, "edge": {"target": [], "time": []}}}, "displayed_time": "15.66", "trialTime": 17491, "trial_type": "mouselab-mdp", "trial_index": 14, "time_elapsed": 530318, "internal_node_id": "0.0-4.0-1.0-5.0"}}, {"uniqueid": "w44544083:a88581418", "current_trial": 15, "dateTime": 1691142457350, "trialdata": {"revealed_states": [], "clicked_states": ["8"], "num_clicks_accrued": [0, 0, 0, 0, 0, 0, 0, 0, 0, 0, 0, 0, 0], "stateRewards": ["", 2, -2, -8, 9, -20, 55, -58, 14, 42, 2, 36, 1, -3, -5, 5, -58, 57, 60, 16, 57, 30, -70, -2, 1, 3, 10, 59, 23, 77, -13, -26, 88, -72], "withholdReward": false, "trial_id": "mdp_trial_7", "block": "test", "trialIndex": 8, "score": 40.6, "costs": -1.4, "simulationMode": [null, null, null, null, null], "rewards": [2, -2, -8, 14, 36], "path": ["0", "0", "1", "2", "3", "8", "11"], "rt": [4354, 345, 150, 108, 36], "actions": ["up", "up", "up", "left", "left"], "actionTimes": [5831, 6663, 7318, 7942, 8470], "queries": {"click": {"state": {"target": ["8"], "time": [3122]}, "edge": {"target": [], "time": []}}, "mouseover": {"state": {"target": ["0", "1", "2", "8", "10"], "time": [2317, 2400, 2484, 2900, 3833]}, "edge": {"target": [], "time": []}}, "mouseout": {"state": {"target": ["0", "0", "0", "1", "2", "8", "10"], "time": [549, 1683, 2350, 2450, 2567, 3567, 3934]}, "edge": {"target": [], "time": []}}}, "displayed_time": "15.48", "trialTime": 18215, "trial_type": "mouselab-mdp", "trial_index": 15, "time_elapsed": 548655, "internal_node_id": "0.0-4.0-1.0-6.0"}}, {"uniqueid": "w44544083:a88581418", "current_trial": 16, "dateTime": 1691142480454, "trialdata": {"revealed_states": [], "clicked_states": ["4"], "num_clicks_accrued": [0, 0, 0, 0, 0, 0, 0, 0, 0, 0, 0, 0, 0], "stateRewards": ["", 1, 1, 1, -3, -7, -1, -41, -10, 20, -72, -63, 1, -4, -2, 2, -66, 30, -84, -2, 49, 23, 71, -1, -4, 4, -12, 67, 5, 18, -16, 88, 56, -5], "withholdReward": false, "trial_id": "mdp_trial_8", "block": "test", "trialIndex": 9, "score": 37.6, "costs": -1.4, "simulationMode": [null, null, null, null, null], "rewards": [-1, -4, 4, -16, 56], "path": ["0", "0", "23", "24", "25", "30", "32"], "rt": [4988, 206, 658, 180, 121], "actions": ["left", "left", "left", "down", "down"], "actionTimes": [6099, 6818, 7970, 8642, 9266], "queries": {"click": {"state": {"target": ["4"], "time": [2150]}, "edge": {"target": [], "time": []}}, "mouseover": {"state": {"target": ["7", "4", "7", "12"], "time": [1411, 1676, 2978, 3561]}, "edge": {"target": [], "time": []}}, "mouseout": {"state": {"target": ["0", "7", "4", "7", "12"], "time": [1311, 1444, 2894, 3094, 3728]}, "edge": {"target": [], "time": []}}}, "displayed_time": "15.11", "trialTime": 22964, "trial_type": "mouselab-mdp", "trial_index": 16, "time_elapsed": 571759, "internal_node_id": "0.0-4.0-1.0-7.0"}}, {"uniqueid": "w44544083:a88581418", "current_trial": 17, "dateTime": 1691142512805, "trialdata": {"revealed_states": [], "clicked_states": ["2"], "num_clicks_accrued": [0, 0, 0, 0, 0, 0, 0, 0, 0, 0, 0, 0, 0], "stateRewards": ["", -2, 3, 3, -14, 62, 36, 49, 16, 11, 17, -84, 2, -1, 6, 2, -82, -73, 49, -6, -87, 48, 50, -1, -2, -1, -16, -11, 37, -44, 4, 55, 73, -10], "withholdReward": false, "trial_id": "mdp_trial_9", "block": "test", "trialIndex": 10, "score": -65.4, "costs": -1.4, "simulationMode": [null, null, null, null, null], "rewards": [-2, 3, 3, 16, -84], "path": ["0", "0", "1", "2", "3", "8", "11"], "rt": [5179, 563, 457, 643, 20], "actions": ["up", "up", "up", "left", "left"], "actionTimes": [7308, 8363, 9307, 10460, 10987], "queries": {"click": {"state": {"target": ["2"], "time": [4271]}, "edge": {"target": [], "time": []}}, "mouseover": {"state": {"target": ["1", "12", "12", "2", "12"], "time": [3299, 3516, 3732, 3899, 4683]}, "edge": {"target": [], "time": []}}, "mouseout": {"state": {"target": ["21", "22", "0", "0", "1", "12", "12", "2", "2", "12", "17", "15", "18", "12"], "time": [598, 615, 665, 2516, 3332, 3533, 3749, 4349, 4633, 30265, 31099, 31299, 31365, 31567]}, "edge": {"target": [], "time": []}}}, "displayed_time": "16.13", "trialTime": 32219, "trial_type": "mouselab-mdp", "trial_index": 17, "time_elapsed": 604110, "internal_node_id": "0.0-4.0-1.0-8.0"}}, {"uniqueid": "w44544083:a88581418", "current_trial": 18, "dateTime": 1691142529750, "trialdata": {"revealed_states": [], "clicked_states": ["17"], "num_clicks_accrued": [0, 0, 0, 0, 0, 0, 0, 0, 0, 0, 0, 0, 0], "stateRewards": ["", 1, -2, -3, 14, -42, -87, -37, -11, -50, 33, -44, -2, 4, -7, 13, 48, -75, -66, 12, 23, -2, 82, 1, -4, 3, 12, 51, -15, -26, -11, -52, -29, 82], "withholdReward": false, "trial_id": "mdp_trial_10", "block": "test", "trialIndex": 11, "score": -59.4, "costs": -1.4, "simulationMode": [null, null, null, null, null], "rewards": [-2, 4, -7, 13, -66], "path": ["0", "0", "12", "13", "14", "15", "18"], "rt": [4457, 401, 77, 71, 496], "actions": ["right", "right", "right", "up", "left"], "actionTimes": [5383, 6277, 6853, 7429, 8421], "queries": {"click": {"state": {"target": ["17"], "time": [2161]}, "edge": {"target": [], "time": []}}, "mouseover": {"state": {"target": ["14", "17", "14"], "time": [1408, 1874, 2658]}, "edge": {"target": [], "time": []}}, "mouseout": {"state": {"target": ["0", "14", "17", "14", "14"], "time": [640, 1425, 2457, 2708, 15041]}, "edge": {"target": [], "time": []}}}, "displayed_time": "14.93", "trialTime": 16806, "trial_type": "mouselab-mdp", "trial_index": 18, "time_elapsed": 621055, "internal_node_id": "0.0-4.0-1.0-9.0"}}, {"uniqueid": "w44544083:a88581418", "current_trial": 19, "dateTime": 1691142547894, "trialdata": {"revealed_states": [], "clicked_states": ["26"], "num_clicks_accrued": [0, 0, 0, 0, 0, 0, 0, 0, 0, 0, 0, 0, 0], "stateRewards": ["", 2, -3, 5, 11, -79, 54, 11, -9, -78, 33, 22, -2, -1, 2, 14, 43, 34, 1, 10, 49, -65, 39, -1, 1, -1, 3, -16, -2, 11, 2, 12, 48, -65], "withholdReward": false, "trial_id": "mdp_trial_11", "block": "test", "trialIndex": 12, "score": -15.4, "costs": -1.4, "simulationMode": [null, null, null, null, null], "rewards": [-1, 1, -1, 3, -16], "path": ["0", "0", "23", "24", "25", "26", "27"], "rt": [3873, 158, 197, 41, 97], "actions": ["left", "left", "left", "up", "up"], "actionTimes": [6525, 7180, 7868, 8412, 9036], "queries": {"click": {"state": {"target": ["26"], "time": [4311]}, "edge": {"target": [], "time": []}}, "mouseover": {"state": {"target": ["23", "28", "26", "26", "24", "31", "0"], "time": [2987, 3104, 3421, 3904, 4787, 4937, 5154]}, "edge": {"target": [], "time": []}}, "mouseout": {"state": {"target": ["0", "23", "28", "26", "26", "24", "31", "0", "12", "18", "15", "14"], "time": [2954, 3039, 3254, 3521, 4637, 4887, 5087, 15770, 16071, 16271, 16321, 16504]}, "edge": {"target": [], "time": []}}}, "displayed_time": "16.65", "trialTime": 18013, "trial_type": "mouselab-mdp", "trial_index": 19, "time_elapsed": 639198, "internal_node_id": "0.0-4.0-1.0-10.0"}}, {"uniqueid": "w44544083:a88581418", "current_trial": 20, "dateTime": 1691142567382, "trialdata": {"revealed_states": [], "clicked_states": ["1"], "num_clicks_accrued": [0, 0, 0, 0, 0, 0, 0, 0, 0, 0, 0, 0, 0], "stateRewards": ["", -1, 4, 3, 12, -27, 34, -33, 3, -63, 1, 6, 2, 2, -6, -11, -77, -85, 68, -6, 51, 81, -60, -2, -2, 1, 15, 20, 15, 68, -10, -14, 6, -4], "withholdReward": false, "trial_id": "mdp_trial_12", "block": "test", "trialIndex": 13, "score": 8.6, "costs": -1.4, "simulationMode": [null, null, null, null, null], "rewards": [-1, 4, 3, 3, 1], "path": ["0", "0", "1", "2", "3", "8", "10"], "rt": [5138, 20, 63, 24, 531], "actions": ["up", "up", "up", "left", "down"], "actionTimes": [9032, 9543, 10104, 10647, 11688], "queries": {"click": {"state": {"target": ["1"], "time": [6547]}, "edge": {"target": [], "time": []}}, "mouseover": {"state": {"target": ["1", "1", "12"], "time": [4706, 6122, 7455]}, "edge": {"target": [], "time": []}}, "mouseout": {"state": {"target": ["0", "1", "1", "12", "13", "18", "18", "12"], "time": [3455, 4855, 7222, 14922, 15039, 15472, 15905, 17089]}, "edge": {"target": [], "time": []}}}, "displayed_time": "17.90", "trialTime": 19352, "trial_type": "mouselab-mdp", "trial_index": 20, "time_elapsed": 658686, "internal_node_id": "0.0-4.0-1.0-11.0"}}, {"uniqueid": "w44544083:a88581418", "current_trial": 21, "dateTime": 1691142587334, "trialdata": {"revealed_states": [], "clicked_states": ["29"], "num_clicks_accrued": [0, 0, 0, 0, 0, 0, 0, 0, 0, 0, 0, 0, 0], "stateRewards": ["", 2, 3, -3, 12, -43, 81, -82, -15, 58, -7, -75, -1, -1, 3, -5, 50, -25, -8, 4, 66, 65, -66, 2, -4, 2, -1, -10, 10, 37, 11, 88, -37, 8], "withholdReward": false, "trial_id": "mdp_trial_13", "block": "test", "trialIndex": 14, "score": 34.6, "costs": -1.4, "simulationMode": [null, null, null, null, null], "rewards": [2, -4, 2, -1, 37], "path": ["0", "0", "23", "24", "25", "26", "29"], "rt": [4827, 484, 94, 198, 58], "actions": ["left", "left", "left", "up", "left"], "actionTimes": [6322, 7313, 7905, 8594, 9170], "queries": {"click": {"state": {"target": ["29"], "time": [3541]}, "edge": {"target": [], "time": []}}, "mouseover": {"state": {"target": ["1", "10", "28", "25", "29", "26", "28"], "time": [2194, 2328, 2394, 2511, 3294, 4027, 4211]}, "edge": {"target": [], "time": []}}, "mouseout": {"state": {"target": ["1", "0", "1", "10", "28", "25", "29", "26", "28", "1", "1", "1", "18", "17", "15", "4", "5", "4"], "time": [1027, 1827, 2228, 2361, 2411, 2661, 3994, 4145, 4661, 12044, 14587, 16294, 16346, 17161, 17210, 17527, 18444, 18561]}, "edge": {"target": [], "time": []}}}, "displayed_time": "15.50", "trialTime": 19826, "trial_type": "mouselab-mdp", "trial_index": 21, "time_elapsed": 678638, "internal_node_id": "0.0-4.0-1.0-12.0"}}, {"uniqueid": "w44544083:a88581418", "current_trial": 22, "dateTime": 1691142607031, "trialdata": {"revealed_states": [], "clicked_states": ["5"], "num_clicks_accrued": [0, 0, 0, 0, 0, 0, 0, 0, 0, 0, 0, 0, 0], "stateRewards": ["", -2, 3, -5, -7, 66, 43, -60, -4, -70, -75, 4, -1, 2, 2, -13, 54, 11, -40, -1, 77, 32, 15, -2, 3, -8, -9, -35, 83, -27, 6, -74, -34, 44], "withholdReward": false, "trial_id": "mdp_trial_14", "block": "test", "trialIndex": 15, "score": 53.6, "costs": -1.4, "simulationMode": [null, null, null, null, null], "rewards": [-2, 3, -5, -7, 66], "path": ["0", "0", "1", "2", "3", "4", "5"], "rt": [3805, 49, 683, 11, 38], "actions": ["up", "up", "up", "right", "up"], "actionTimes": [5647, 6207, 7407, 7918, 8479], "queries": {"click": {"state": {"target": ["5"], "time": [2810]}, "edge": {"target": [], "time": []}}, "mouseover": {"state": {"target": ["5", "4", "1"], "time": [2506, 3123, 3556]}, "edge": {"target": [], "time": []}}, "mouseout": {"state": {"target": ["31", "24", "28", "11", "5", "12", "0", "5", "4", "1", "13", "18"], "time": [6, 56, 72, 106, 556, 789, 1924, 3090, 3157, 3606, 17056, 19473]}, "edge": {"target": [], "time": []}}}, "displayed_time": "15.84", "trialTime": 19552, "trial_type": "mouselab-mdp", "trial_index": 22, "time_elapsed": 698335, "internal_node_id": "0.0-4.0-1.0-13.0"}}, {"uniqueid": "w44544083:a88581418", "current_trial": 23, "dateTime": 1691142625750, "trialdata": {"revealed_states": [], "clicked_states": ["11"], "num_clicks_accrued": [0, 0, 0, 0, 0, 0, 0, 0, 0, 0, 0, 0, 0], "stateRewards": ["", 2, -3, -8, 14, -7, -51, 73, 2, 36, 36, -43, -1, 3, -4, 1, 6, 87, -65, 15, 61, -42, -83, -1, 3, -2, -7, 30, -48, 35, 13, 26, 60, 78], "withholdReward": false, "trial_id": "mdp_trial_15", "block": "test", "trialIndex": 16, "score": -47.4, "costs": -1.4, "simulationMode": [null, null, null, null, null], "rewards": [2, -3, -8, 14, -51], "path": ["0", "0", "1", "2", "3", "4", "6"], "rt": [5376, 92, 68, 941, 564], "actions": ["up", "up", "up", "right", "right"], "actionTimes": [6494, 7086, 7662, 9102, 10158], "queries": {"click": {"state": {"target": ["11"], "time": [2353]}, "edge": {"target": [], "time": []}}, "mouseover": {"state": {"target": ["28", "11"], "time": [1243, 1967]}, "edge": {"target": [], "time": []}}, "mouseout": {"state": {"target": ["27", "28", "28", "11", "10", "2", "2", "28", "26", "29", "26", "28"], "time": [76, 442, 1293, 2643, 16476, 16543, 17093, 17476, 17576, 18032, 18293, 18411]}, "edge": {"target": [], "time": []}}}, "displayed_time": "15.12", "trialTime": 18575, "trial_type": "mouselab-mdp", "trial_index": 23, "time_elapsed": 717055, "internal_node_id": "0.0-4.0-1.0-14.0"}}, {"uniqueid": "w44544083:a88581418", "current_trial": 24, "dateTime": 1691142642887, "trialdata": {"revealed_states": [], "clicked_states": ["8"], "num_clicks_accrued": [0, 0, 0, 0, 0, 0, 0, 0, 0, 0, 0, 0, 0], "stateRewards": ["", 1, -4, -4, 8, 1, -79, 68, -10, -79, 8, -74, -1, -3, -6, 14, 43, 23, 9, 5, -51, 63, 61, -2, 4, 6, -10, 69, -32, 57, 15, -80, -80, -77], "withholdReward": false, "trial_id": "mdp_trial_16", "block": "test", "trialIndex": 17, "score": 65.6, "costs": -1.4, "simulationMode": [null, null, null, null, null], "rewards": [-2, 4, 6, -10, 69], "path": ["0", "0", "23", "24", "25", "26", "27"], "rt": [6206, 124, 563, 72, 799], "actions": ["left", "left", "left", "up", "up"], "actionTimes": [7378, 8002, 9058, 9650, 10962], "queries": {"click": {"state": {"target": ["8"], "time": [2205]}, "edge": {"target": [], "time": []}}, "mouseover": {"state": {"target": ["10", "8", "8", "10"], "time": [1443, 1477, 1628, 2493]}, "edge": {"target": [], "time": []}}, "mouseout": {"state": {"target": ["24", "28", "10", "8", "8", "10", "1"], "time": [243, 443, 1460, 1527, 2460, 2510, 15844]}, "edge": {"target": [], "time": []}}}, "displayed_time": "15.17", "trialTime": 16995, "trial_type": "mouselab-mdp", "trial_index": 24, "time_elapsed": 734191, "internal_node_id": "0.0-4.0-1.0-15.0"}}, {"uniqueid": "w44544083:a88581418", "current_trial": 25, "dateTime": 1691142659814, "trialdata": {"revealed_states": [], "clicked_states": ["14"], "num_clicks_accrued": [0, 0, 0, 0, 0, 0, 0, 0, 0, 0, 0, 0, 0], "stateRewards": ["", 2, 3, -6, -5, -3, 55, 40, 11, 61, 11, 51, 2, -4, -6, 9, -25, 29, -15, -6, 7, -77, -2, -2, -4, 1, 14, -43, -1, 56, -12, -54, 41, -74], "withholdReward": false, "trial_id": "mdp_trial_17", "block": "test", "trialIndex": 18, "score": -17.4, "costs": -1.4, "simulationMode": [null, null, null, null, null], "rewards": [2, -4, -6, -6, -2], "path": ["0", "0", "12", "13", "14", "19", "22"], "rt": [6709, 351, 15, 153, 30], "actions": ["right", "right", "right", "down", "left"], "actionTimes": [8154, 9002, 9515, 10186, 10714], "queries": {"click": {"state": {"target": ["14"], "time": [2837]}, "edge": {"target": [], "time": []}}, "mouseover": {"state": {"target": ["14"], "time": [2332]}, "edge": {"target": [], "time": []}}, "mouseout": {"state": {"target": ["0", "14", "28", "27", "28"], "time": [1749, 3316, 12682, 13132, 13282]}, "edge": {"target": [], "time": []}}}, "displayed_time": "15.45", "trialTime": 16794, "trial_type": "mouselab-mdp", "trial_index": 25, "time_elapsed": 751119, "internal_node_id": "0.0-4.0-1.0-16.0"}}, {"uniqueid": "w44544083:a88581418", "current_trial": 26, "dateTime": 1691142676806, "trialdata": {"revealed_states": [], "clicked_states": ["30"], "num_clicks_accrued": [0, 0, 0, 0, 0, 0, 0, 0, 0, 0, 0, 0, 0], "stateRewards": ["", 2, 3, 6, -12, -29, 12, 87, 4, 35, -30, 67, 2, 3, -5, -9, 44, 69, -8, 1, 45, -8, 28, -2, -1, -8, 11, -12, -5, 81, 9, 87, 82, 88], "withholdReward": false, "trial_id": "mdp_trial_18", "block": "test", "trialIndex": 19, "score": 78.6, "costs": -1.4, "simulationMode": [null, null, null, null, null], "rewards": [-2, -1, -8, 9, 82], "path": ["0", "0", "23", "24", "25", "30", "32"], "rt": [5381, 485, 126, 6, 2], "actions": ["left", "left", "left", "down", "down"], "actionTimes": [7067, 8043, 8667, 9163, 9692], "queries": {"click": {"state": {"target": ["30"], "time": [4591]}, "edge": {"target": [], "time": []}}, "mouseover": {"state": {"target": ["1", "2", "10", "8", "9", "8", "28", "25", "30", "32"], "time": [2190, 2306, 2773, 3006, 3174, 3306, 3372, 3423, 3806, 4956]}, "edge": {"target": [], "time": []}}, "mouseout": {"state": {"target": ["0", "1", "2", "10", "8", "9", "8", "28", "25", "30", "32"], "time": [1923, 2273, 2739, 2956, 3123, 3276, 3323, 3389, 3472, 4873, 5106]}, "edge": {"target": [], "time": []}}}, "displayed_time": "15.69", "trialTime": 16843, "trial_type": "mouselab-mdp", "trial_index": 26, "time_elapsed": 768111, "internal_node_id": "0.0-4.0-1.0-17.0"}}, {"uniqueid": "w44544083:a88581418", "current_trial": 27, "dateTime": 1691142694854, "trialdata": {"revealed_states": [], "clicked_states": ["14"], "num_clicks_accrued": [0, 0, 0, 0, 0, 0, 0, 0, 0, 0, 0, 0, 0], "stateRewards": ["", -1, 3, -4, -14, 78, 67, 2, 13, -32, 28, 39, -2, 1, -4, -4, -4, -42, -86, 11, 64, -29, -32, -1, -4, 2, -7, 5, 68, -61, 2, -21, 85, 50], "withholdReward": false, "trial_id": "mdp_trial_19", "block": "test", "trialIndex": 20, "score": -22.4, "costs": -1.4, "simulationMode": [null, null, null, null, null], "rewards": [-1, 3, -4, 13, -32], "path": ["0", "0", "1", "2", "3", "8", "9"], "rt": [5030, 390, 18, 204, 305], "actions": ["up", "up", "up", "left", "up"], "actionTimes": [7277, 8157, 8685, 9405, 10205], "queries": {"click": {"state": {"target": ["14"], "time": [4496]}, "edge": {"target": [], "time": []}}, "mouseover": {"state": {"target": ["0", "0", "12", "13", "14", "22"], "time": [2533, 3150, 3416, 3633, 3999, 4966]}, "edge": {"target": [], "time": []}}, "mouseout": {"state": {"target": ["0", "0", "0", "12", "13", "14", "22"], "time": [1649, 2549, 3383, 3583, 3866, 4816, 5016]}, "edge": {"target": [], "time": []}}}, "displayed_time": "16.25", "trialTime": 17901, "trial_type": "mouselab-mdp", "trial_index": 27, "time_elapsed": 786158, "internal_node_id": "0.0-4.0-1.0-18.0"}}, {"uniqueid": "w44544083:a88581418", "current_trial": 28, "dateTime": 1691142716006, "trialdata": {"revealed_states": [], "clicked_states": ["7"], "num_clicks_accrued": [0, 0, 0, 0, 0, 0, 0, 0, 0, 0, 0, 0, 0], "stateRewards": ["", -1, -3, -5, -14, -13, -47, 79, 8, -60, -64, 41, -1, 2, 3, 13, -46, 61, -79, -11, -64, -65, 23, 1, -2, 6, -14, 46, 32, 21, 7, 75, -66, 15], "withholdReward": false, "trial_id": "mdp_trial_20", "block": "test", "trialIndex": 21, "score": 54.6, "costs": -1.4, "simulationMode": [null, null, null, null, null], "rewards": [-1, -3, -5, -14, 79], "path": ["0", "0", "1", "2", "3", "4", "7"], "rt": [5519, 69, 95, 70, 2], "actions": ["up", "up", "up", "right", "down"], "actionTimes": [8835, 9395, 9987, 10563, 11061], "queries": {"click": {"state": {"target": ["7"], "time": [6175]}, "edge": {"target": [], "time": []}}, "mouseover": {"state": {"target": ["2", "7", "7"], "time": [5474, 5575, 5875]}, "edge": {"target": [], "time": []}}, "mouseout": {"state": {"target": ["32", "30", "24", "23", "0", "2", "7", "7", "0", "23", "24"], "time": [2191, 2291, 2507, 2628, 5425, 5558, 5591, 6442, 20491, 20775, 20908]}, "edge": {"target": [], "time": []}}}, "displayed_time": "17.32", "trialTime": 20995, "trial_type": "mouselab-mdp", "trial_index": 28, "time_elapsed": 807311, "internal_node_id": "0.0-4.0-1.0-19.0"}}, {"uniqueid": "w44544083:a88581418", "current_trial": 29, "dateTime": 1691142733734, "trialdata": {"revealed_states": [], "clicked_states": ["27"], "num_clicks_accrued": [0, 0, 0, 0, 0, 0, 0, 0, 0, 0, 0, 0, 0], "stateRewards": ["", 2, -4, 1, -12, -59, -53, -74, 16, -88, -66, 66, 1, -2, 8, -9, -14, 22, 25, -1, -39, 47, -14, -1, -1, -2, 1, -4, 52, -26, 15, -7, 46, 43], "withholdReward": false, "trial_id": "mdp_trial_21", "block": "test", "trialIndex": 22, "score": 2.5999999999999996, "costs": -1.4, "simulationMode": [null, null, null, null, null], "rewards": [-1, -1, -2, 15, -7], "path": ["0", "0", "23", "24", "25", "30", "31"], "rt": [3712, 237, 768, 429, 120], "actions": ["left", "left", "left", "down", "right"], "actionTimes": [5067, 5803, 7067, 7995, 8619], "queries": {"click": {"state": {"target": ["27"], "time": [2278]}, "edge": {"target": [], "time": []}}, "mouseover": {"state": {"target": ["28", "27"], "time": [1498, 1781]}, "edge": {"target": [], "time": []}}, "mouseout": {"state": {"target": ["26", "28", "0", "28", "27"], "time": [114, 314, 1398, 1615, 2715]}, "edge": {"target": [], "time": []}}}, "displayed_time": "15.36", "trialTime": 17564, "trial_type": "mouselab-mdp", "trial_index": 29, "time_elapsed": 825039, "internal_node_id": "0.0-4.0-1.0-20.0"}}, {"uniqueid": "w44544083:a88581418", "current_trial": 30, "dateTime": 1691142752230, "trialdata": {"revealed_states": [], "clicked_states": ["4"], "num_clicks_accrued": [0, 0, 0, 0, 0, 0, 0, 0, 0, 0, 0, 0, 0], "stateRewards": ["", -2, 4, -7, -3, -76, 39, -28, 10, 14, 12, 60, 2, -3, 6, -10, 88, -34, -41, -3, 72, -13, -56, 1, 3, 2, 8, -51, 23, -57, 1, 14, -46, -16], "withholdReward": false, "trial_id": "mdp_trial_22", "block": "test", "trialIndex": 23, "score": -55.4, "costs": -1.4, "simulationMode": [null, null, null, null, null], "rewards": [2, -3, 6, -3, -56], "path": ["0", "0", "12", "13", "14", "19", "22"], "rt": [4375, 613, 344, 184, 60], "actions": ["right", "right", "right", "down", "left"], "actionTimes": [7532, 8651, 9483, 10156, 10715], "queries": {"click": {"state": {"target": ["4"], "time": [4655]}, "edge": {"target": [], "time": []}}, "mouseover": {"state": {"target": ["1", "4"], "time": [3587, 4120]}, "edge": {"target": [], "time": []}}, "mouseout": {"state": {"target": ["23", "12", "0", "1", "4"], "time": [2320, 2636, 3461, 3687, 5837]}, "edge": {"target": [], "time": []}}}, "displayed_time": "17.16", "trialTime": 18331, "trial_type": "mouselab-mdp", "trial_index": 30, "time_elapsed": 843535, "internal_node_id": "0.0-4.0-1.0-21.0"}}, {"uniqueid": "w44544083:a88581418", "current_trial": 31, "dateTime": 1691142769926, "trialdata": {"revealed_states": [], "clicked_states": ["8"], "num_clicks_accrued": [0, 0, 0, 0, 0, 0, 0, 0, 0, 0, 0, 0, 0], "stateRewards": ["", 2, -3, -2, 14, -4, 85, 46, 15, -28, 41, 31, -1, -1, -1, 5, 62, 79, 57, 12, -73, -64, 86, -1, 1, -3, -5, 68, 11, -32, 8, -80, -21, -56], "withholdReward": false, "trial_id": "mdp_trial_23", "block": "test", "trialIndex": 24, "score": 41.6, "costs": -1.4, "simulationMode": [null, null, null, null, null], "rewards": [2, -3, -2, 15, 31], "path": ["0", "0", "1", "2", "3", "8", "11"], "rt": [3092, 477, 54, 32, 586], "actions": ["up", "up", "up", "left", "left"], "actionTimes": [5634, 6610, 7154, 7699, 8802], "queries": {"click": {"state": {"target": ["8"], "time": [3589]}, "edge": {"target": [], "time": []}}, "mouseover": {"state": {"target": ["10", "8", "8"], "time": [2866, 2932, 3398]}, "edge": {"target": [], "time": []}}, "mouseout": {"state": {"target": ["25", "0", "10", "8", "8"], "time": [1265, 2732, 2899, 3100, 4765]}, "edge": {"target": [], "time": []}}}, "displayed_time": "16.55", "trialTime": 17523, "trial_type": "mouselab-mdp", "trial_index": 31, "time_elapsed": 861231, "internal_node_id": "0.0-4.0-1.0-22.0"}}, {"uniqueid": "w44544083:a88581418", "current_trial": 32, "dateTime": 1691142787559, "trialdata": {"revealed_states": [], "clicked_states": ["8"], "num_clicks_accrued": [0, 0, 0, 0, 0, 0, 0, 0, 0, 0, 0, 0, 0], "stateRewards": ["", 1, 1, -7, -9, -44, 24, -83, -15, 44, -24, 72, -2, -3, 4, -5, 57, 55, 29, -11, 22, 12, -25, -1, 2, 7, 12, 33, -8, 47, -4, 8, 50, -4], "withholdReward": false, "trial_id": "mdp_trial_24", "block": "test", "trialIndex": 25, "score": 22.6, "costs": -1.4, "simulationMode": [null, null, null, null, null], "rewards": [1, 1, -7, -15, 44], "path": ["0", "0", "1", "2", "3", "8", "9"], "rt": [4034, 1046, 103, 463, 441], "actions": ["up", "up", "up", "left", "up"], "actionTimes": [6132, 7668, 8276, 9252, 10196], "queries": {"click": {"state": {"target": ["8"], "time": [2799]}, "edge": {"target": [], "time": []}}, "mouseover": {"state": {"target": ["10", "8", "10"], "time": [2372, 2438, 3139]}, "edge": {"target": [], "time": []}}, "mouseout": {"state": {"target": ["0", "0", "10", "8", "8", "10"], "time": [1387, 2205, 2405, 2909, 3105, 3955]}, "edge": {"target": [], "time": []}}}, "displayed_time": "16.10", "trialTime": 17461, "trial_type": "mouselab-mdp", "trial_index": 32, "time_elapsed": 878863, "internal_node_id": "0.0-4.0-1.0-23.0"}}, {"uniqueid": "w44544083:a88581418", "current_trial": 33, "dateTime": 1691142806087, "trialdata": {"revealed_states": [], "clicked_states": ["13"], "num_clicks_accrued": [0, 0, 0, 0, 0, 0, 0, 0, 0, 0, 0, 0, 0], "stateRewards": ["", -1, -3, -7, -4, -85, -70, 79, 8, 84, -66, 42, 2, -2, -3, -16, -54, -66, 68, -3, 21, -14, 7, -2, -1, -3, -8, 75, 80, 86, -7, -84, 73, -16], "withholdReward": false, "trial_id": "mdp_trial_25", "block": "test", "trialIndex": 26, "score": 59.6, "costs": -1.4, "simulationMode": [null, null, null, null, null], "rewards": [-2, -1, -3, -8, 75], "path": ["0", "0", "23", "24", "25", "26", "27"], "rt": [6173, 300, 366, 27, 1622], "actions": ["left", "left", "left", "up", "up"], "actionTimes": [8682, 9497, 10362, 10889, 13001], "queries": {"click": {"state": {"target": ["13"], "time": [5447]}, "edge": {"target": [], "time": []}}, "mouseover": {"state": {"target": ["12", "13", "12"], "time": [4761, 5211, 7094]}, "edge": {"target": [], "time": []}}, "mouseout": {"state": {"target": ["7", "0", "12", "13", "12"], "time": [1544, 2294, 4778, 6944, 7811]}, "edge": {"target": [], "time": []}}}, "displayed_time": "16.51", "trialTime": 18363, "trial_type": "mouselab-mdp", "trial_index": 33, "time_elapsed": 897392, "internal_node_id": "0.0-4.0-1.0-24.0"}}, {"uniqueid": "w44544083:a88581418", "current_trial": 34, "dateTime": 1691142823383, "trialdata": {"revealed_states": [], "clicked_states": ["8"], "num_clicks_accrued": [0, 0, 0, 0, 0, 0, 0, 0, 0, 0, 0, 0, 0], "stateRewards": ["", -2, -3, -6, -7, 9, 16, 65, 5, -41, 20, -25, -1, -4, 1, -11, -49, -4, 71, 1, 39, -62, 52, -2, -3, 7, -9, -28, -70, 84, 8, 24, -58, 82], "withholdReward": false, "trial_id": "mdp_trial_26", "block": "test", "trialIndex": 27, "score": -48.4, "costs": -1.4, "simulationMode": [null, null, null, null, null], "rewards": [-2, -3, -6, 5, -41], "path": ["0", "0", "1", "2", "3", "8", "9"], "rt": [3492, 56, 820, 621, 496], "actions": ["up", "up", "up", "left", "up"], "actionTimes": [5077, 5636, 6966, 8100, 9108], "queries": {"click": {"state": {"target": ["8"], "time": [2639]}, "edge": {"target": [], "time": []}}, "mouseover": {"state": {"target": ["10", "8", "10", "24", "31"], "time": [1929, 2211, 2961, 3045, 3078]}, "edge": {"target": [], "time": []}}, "mouseout": {"state": {"target": ["0", "10", "8", "10", "24", "31"], "time": [1811, 1962, 2928, 2995, 3061, 4045]}, "edge": {"target": [], "time": []}}}, "displayed_time": "15.59", "trialTime": 17125, "trial_type": "mouselab-mdp", "trial_index": 34, "time_elapsed": 914688, "internal_node_id": "0.0-4.0-1.0-25.0"}}, {"uniqueid": "w44544083:a88581418", "current_trial": 35, "dateTime": 1691142842119, "trialdata": {"revealed_states": [], "clicked_states": [], "num_clicks_accrued": [0, 0, 0, 0, 0, 0, 0, 0, 0, 0, 0, 0, 0], "stateRewards": ["", 1, -1, 1, -14, -10, 67, -28, -11, 72, 40, -65, -1, 1, 1, -2, 8, -55, 34, -10, 61, 33, -15, 2, -4, 7, 4, -75, 63, -21, -16, 61, 19, 21], "withholdReward": false, "trial_id": "mdp_trial_27", "block": "test", "trialIndex": 28, "score": -56, "costs": 0, "simulationMode": [null, null, null, null, null], "rewards": [-1, 1, 1, -2, -55], "path": ["0", "0", "12", "13", "14", "15", "17"], "rt": [1339, 156, 116, 27, 21], "actions": ["right", "right", "right", "up", "right"], "actionTimes": [4081, 4736, 5345, 5873, 6384], "queries": {"click": {"state": {"target": [], "time": []}, "edge": {"target": [], "time": []}}, "mouseover": {"state": {"target": ["23", "24"], "time": [3545, 3678]}, "edge": {"target": [], "time": []}}, "mouseout": {"state": {"target": ["31", "0", "23"], "time": [1927, 2477, 3578]}, "edge": {"target": [], "time": []}}}, "displayed_time": "16.74", "trialTime": 18561, "trial_type": "mouselab-mdp", "trial_index": 35, "time_elapsed": 933424, "internal_node_id": "0.0-4.0-1.0-26.0"}}, {"uniqueid": "w44544083:a88581418", "current_trial": 36, "dateTime": 1691142859303, "trialdata": {"revealed_states": [], "clicked_states": [], "num_clicks_accrued": [0, 0, 0, 0, 0, 0, 0, 0, 0, 0, 0, 0, 0], "stateRewards": ["", -1, 2, -7, -12, -62, 12, -13, 5, 77, -71, 83, 1, -4, 7, 15, -42, -87, -4, 5, -25, 44, 88, -1, 4, -5, -8, 14, 51, 8, -5, 83, -24, -19], "withholdReward": false, "trial_id": "mdp_trial_28", "block": "test", "trialIndex": 29, "score": -2, "costs": 0, "simulationMode": [null, null, null, null, null], "rewards": [-1, 4, -5, -8, 8], "path": ["0", "0", "23", "24", "25", "26", "29"], "rt": [1192, 164, 56, 801, 45], "actions": ["left", "left", "left", "up", "left"], "actionTimes": [3165, 3821, 4397, 5724, 6268], "queries": {"click": {"state": {"target": [], "time": []}, "edge": {"target": [], "time": []}}, "mouseover": {"state": {"target": [], "time": []}, "edge": {"target": [], "time": []}}, "mouseout": {"state": {"target": ["24", "23"], "time": [823, 856]}, "edge": {"target": [], "time": []}}}, "displayed_time": "15.97", "trialTime": 16990, "trial_type": "mouselab-mdp", "trial_index": 36, "time_elapsed": 950608, "internal_node_id": "0.0-4.0-1.0-27.0"}}, {"uniqueid": "w44544083:a88581418", "current_trial": 37, "dateTime": 1691142877046, "trialdata": {"revealed_states": [], "clicked_states": [], "num_clicks_accrued": [0, 0, 0, 0, 0, 0, 0, 0, 0, 0, 0, 0, 0], "stateRewards": ["", -1, -3, 4, -10, -5, 79, -87, -2, 53, 29, -20, -2, -1, -5, 10, 27, 86, 46, -16, -29, 40, 3, 2, 4, -1, -6, 37, 79, -29, 7, 86, -62, 29], "withholdReward": false, "trial_id": "mdp_trial_29", "block": "test", "trialIndex": 30, "score": -97, "costs": 0, "simulationMode": [null, null, null, null, null], "rewards": [-1, -3, 4, -10, -87], "path": ["0", "0", "1", "2", "3", "4", "7"], "rt": [3852, 156, 35, 188, 801], "actions": ["up", "up", "up", "right", "down"], "actionTimes": [6174, 6829, 7358, 8077, 9374], "queries": {"click": {"state": {"target": [], "time": []}, "edge": {"target": [], "time": []}}, "mouseover": {"state": {"target": ["7"], "time": [2439]}, "edge": {"target": [], "time": []}}, "mouseout": {"state": {"target": ["0", "7"], "time": [2408, 2455]}, "edge": {"target": [], "time": []}}}, "displayed_time": "16.32", "trialTime": 17566, "trial_type": "mouselab-mdp", "trial_index": 37, "time_elapsed": 968350, "internal_node_id": "0.0-4.0-1.0-28.0"}}, {"uniqueid": "w44544083:a88581418", "current_trial": 38, "dateTime": 1691142894998, "trialdata": {"revealed_states": [], "clicked_states": ["8"], "num_clicks_accrued": [0, 0, 0, 0, 0, 0, 0, 0, 0, 0, 0, 0, 0], "stateRewards": ["", 1, -1, 8, 4, 76, -33, -17, -3, -1, -54, -74, -2, 2, -5, 13, -51, 63, 83, 1, 84, 29, -36, 2, -1, 7, -12, -10, -44, -43, -14, 8, -69, 19], "withholdReward": false, "trial_id": "mdp_trial_30", "block": "test", "trialIndex": 31, "score": -6.4, "costs": -1.4, "simulationMode": [null, null, null, null, null], "rewards": [1, -1, 8, 4, -17], "path": ["0", "0", "1", "2", "3", "4", "7"], "rt": [3369, 405, 80, 39, 34], "actions": ["up", "up", "up", "right", "down"], "actionTimes": [6198, 7109, 7702, 8262, 8805], "queries": {"click": {"state": {"target": ["8"], "time": [3673]}, "edge": {"target": [], "time": []}}, "mouseover": {"state": {"target": ["10", "8", "10", "28", "24", "25"], "time": [3187, 3387, 3920, 3987, 4020, 5287]}, "edge": {"target": [], "time": []}}, "mouseout": {"state": {"target": ["0", "10", "8", "10", "28", "24", "25"], "time": [3037, 3320, 3903, 3937, 4003, 5037, 5303]}, "edge": {"target": [], "time": []}}}, "displayed_time": "16.83", "trialTime": 17766, "trial_type": "mouselab-mdp", "trial_index": 38, "time_elapsed": 986302, "internal_node_id": "0.0-4.0-1.0-29.0"}}, {"uniqueid": "w44544083:a88581418", "current_trial": 39, "dateTime": 1691142948650, "trialdata": {"revealed_states": [], "clicked_states": [], "num_clicks_accrued": [0, 0, 0, 0, 0, 0, 0, 0, 0, 0, 0, 0, 0], "stateRewards": ["", -2, -4, -8, 8, 63, -50, -19, -7, -17, -31, 31, 1, 3, -5, 12, -35, -63, -29, -4, -17, -75, -79, -2, -3, -2, 8, -3, -85, 10, -2, -82, -82, 56], "withholdReward": false, "trial_id": "mdp_trial_31", "block": "test", "trialIndex": 32, "score": -84, "costs": 0, "simulationMode": [null, null, null, null, null], "rewards": [-2, -3, -2, 8, -85], "path": ["0", "0", "23", "24", "25", "26", "28"], "rt": [1537, 259, 533, 44, 822], "actions": ["left", "left", "left", "up", "right"], "actionTimes": [4648, 5400, 6423, 6967, 8295], "queries": {"click": {"state": {"target": [], "time": []}, "edge": {"target": [], "time": []}}, "mouseover": {"state": {"target": ["23"], "time": [4022]}, "edge": {"target": [], "time": []}}, "mouseout": {"state": {"target": ["24", "0", "23", "3", "0", "1", "23", "21", "28", "11", "9", "8", "10", "18", "16", "6", "1", "28", "24"], "time": [2188, 4005, 4039, 21257, 33077, 33123, 34173, 34773, 39256, 39373, 39556, 39622, 39689, 41640, 41656, 44694, 49539, 49740, 49824]}, "edge": {"target": [], "time": []}}}, "displayed_time": "17.11", "trialTime": 53418, "trial_type": "mouselab-mdp", "trial_index": 39, "time_elapsed": 1039954, "internal_node_id": "0.0-4.0-1.0-30.0"}}, {"uniqueid": "w44544083:a88581418", "current_trial": 40, "dateTime": 1691142966171, "trialdata": {"revealed_states": [], "clicked_states": [], "num_clicks_accrued": [0, 0, 0, 0, 0, 0, 0, 0, 0, 0, 0, 0, 0], "stateRewards": ["", -1, -3, 3, 5, 56, 39, 50, -1, -80, 33, -46, 1, -2, -6, -8, 87, 48, 54, -11, -20, -64, -54, -2, 3, -7, -3, 12, 88, 35, -16, -46, -70, -3], "withholdReward": false, "trial_id": "mdp_trial_32", "block": "test", "trialIndex": 33, "score": -82, "costs": 0, "simulationMode": [null, null, null, null, null], "rewards": [-1, -3, 3, -1, -80], "path": ["0", "0", "1", "2", "3", "8", "9"], "rt": [2120, 248, 761, 23, 132], "actions": ["up", "up", "up", "left", "up"], "actionTimes": [4158, 4909, 6191, 6701, 7344], "queries": {"click": {"state": {"target": [], "time": []}, "edge": {"target": [], "time": []}}, "mouseover": {"state": {"target": ["1"], "time": [2460]}, "edge": {"target": [], "time": []}}, "mouseout": {"state": {"target": ["22", "0", "1"], "time": [660, 2360, 9060]}, "edge": {"target": [], "time": []}}}, "displayed_time": "16.04", "trialTime": 17360, "trial_type": "mouselab-mdp", "trial_index": 40, "time_elapsed": 1057475, "internal_node_id": "0.0-4.0-1.0-31.0"}}, {"uniqueid": "w44544083:a88581418", "current_trial": 41, "dateTime": 1691142984935, "trialdata": {"revealed_states": [], "clicked_states": ["3"], "num_clicks_accrued": [0, 0, 0, 0, 0, 0, 0, 0, 0, 0, 0, 0, 0], "stateRewards": ["", 2, 3, -3, 4, 72, -28, 34, -12, 57, -64, -15, 2, 1, -4, -15, 2, 49, 31, -1, -42, -58, 31, -2, 1, -2, -13, -75, -19, -22, -6, 61, 10, -56], "withholdReward": false, "trial_id": "mdp_trial_33", "block": "test", "trialIndex": 34, "score": -0.40000000000000036, "costs": -1.4, "simulationMode": [null, null, null, null, null], "rewards": [-2, 1, -2, -6, 10], "path": ["0", "0", "23", "24", "25", "30", "32"], "rt": [4440, 412, 198, 362, 583], "actions": ["left", "left", "left", "down", "down"], "actionTimes": [7374, 8303, 8989, 9854, 10925], "queries": {"click": {"state": {"target": ["3"], "time": [4760]}, "edge": {"target": [], "time": []}}, "mouseover": {"state": {"target": ["1", "2", "3", "10", "28"], "time": [4074, 4190, 4342, 5074, 5257]}, "edge": {"target": [], "time": []}}, "mouseout": {"state": {"target": ["0", "1", "2", "3", "10", "28", "26"], "time": [3858, 4174, 4257, 5024, 5107, 7474, 11879]}, "edge": {"target": [], "time": []}}}, "displayed_time": "16.94", "trialTime": 18589, "trial_type": "mouselab-mdp", "trial_index": 41, "time_elapsed": 1076239, "internal_node_id": "0.0-4.0-1.0-32.0"}}, {"uniqueid": "w44544083:a88581418", "current_trial": 42, "dateTime": 1691143002218, "trialdata": {"revealed_states": [], "clicked_states": ["14"], "num_clicks_accrued": [0, 0, 0, 0, 0, 0, 0, 0, 0, 0, 0, 0, 0], "stateRewards": ["", -1, 3, 2, 9, 41, 4, -46, -12, -54, -87, -25, 2, 3, -1, 11, -77, 12, -33, -9, -32, 35, 72, 1, 3, -7, 4, 37, 65, -73, 6, 77, -43, 8], "withholdReward": false, "trial_id": "mdp_trial_34", "block": "test", "trialIndex": 35, "score": 25.6, "costs": -1.4, "simulationMode": [null, null, null, null, null], "rewards": [2, 3, -1, 11, 12], "path": ["0", "0", "12", "13", "14", "15", "17"], "rt": [6737, 425, 306, 95, 35], "actions": ["right", "right", "right", "up", "right"], "actionTimes": [8688, 9614, 10430, 11021, 11565], "queries": {"click": {"state": {"target": ["14"], "time": [4441]}, "edge": {"target": [], "time": []}}, "mouseover": {"state": {"target": ["23", "24", "25", "25", "1", "13", "14"], "time": [2721, 2739, 2805, 3628, 3759, 3956, 3989]}, "edge": {"target": [], "time": []}}, "mouseout": {"state": {"target": ["26", "28", "24", "31", "0", "23", "24", "25", "25", "1", "13", "14"], "time": [1205, 1238, 1288, 1322, 2705, 2738, 2772, 3539, 3640, 3890, 3972, 15072]}, "edge": {"target": [], "time": []}}}, "displayed_time": "15.95", "trialTime": 17119, "trial_type": "mouselab-mdp", "trial_index": 42, "time_elapsed": 1093523, "internal_node_id": "0.0-4.0-1.0-33.0"}}, {"uniqueid": "w44544083:a88581418", "current_trial": 43, "dateTime": 1691143019163, "trialdata": {"revealed_states": [], "clicked_states": ["3"], "num_clicks_accrued": [0, 0, 0, 0, 0, 0, 0, 0, 0, 0, 0, 0, 0], "stateRewards": ["", 1, 2, -5, 14, 54, -14, -25, 16, -5, -87, 78, -1, 1, 3, -3, 52, 53, 53, -10, 73, -69, -48, 2, 3, 1, 8, -62, -7, 85, 7, 82, 52, -28], "withholdReward": false, "trial_id": "mdp_trial_35", "block": "test", "trialIndex": 36, "score": 64.6, "costs": -1.4, "simulationMode": [null, null, null, null, null], "rewards": [1, 2, -5, 14, 54], "path": ["0", "0", "1", "2", "3", "4", "5"], "rt": [3763, 118, 180, 3, 123], "actions": ["up", "up", "up", "right", "up"], "actionTimes": [5500, 6110, 6795, 7311, 7948], "queries": {"click": {"state": {"target": ["3"], "time": [3192]}, "edge": {"target": [], "time": []}}, "mouseover": {"state": {"target": ["0", "1", "2", "3", "2"], "time": [2123, 2373, 2423, 2806, 3456]}, "edge": {"target": [], "time": []}}, "mouseout": {"state": {"target": ["0", "0", "0", "1", "2", "3", "2"], "time": [889, 1990, 2223, 2390, 2458, 3440, 3490]}, "edge": {"target": [], "time": []}}}, "displayed_time": "15.74", "trialTime": 16781, "trial_type": "mouselab-mdp", "trial_index": 43, "time_elapsed": 1110467, "internal_node_id": "0.0-4.0-1.0-34.0"}}, {"uniqueid": "w44544083:a88581418", "current_trial": 44, "dateTime": 1691143037719, "trialdata": {"revealed_states": [], "clicked_states": ["26"], "num_clicks_accrued": [0, 0, 0, 0, 0, 0, 0, 0, 0, 0, 0, 0, 0], "stateRewards": ["", 2, -1, 5, 6, 10, 86, 55, 10, -45, 63, -71, 1, -2, 5, -8, -50, -72, 36, 15, 61, 12, 33, -1, -4, 6, 5, 79, -56, -21, -16, -87, 60, -81], "withholdReward": false, "trial_id": "mdp_trial_36", "block": "test", "trialIndex": 37, "score": 83.6, "costs": -1.4, "simulationMode": [null, null, null, null, null], "rewards": [-1, -4, 6, 5, 79], "path": ["0", "0", "23", "24", "25", "26", "27"], "rt": [3471, 330, 90, 11, 523], "actions": ["left", "left", "left", "up", "up"], "actionTimes": [6392, 7221, 7798, 8309, 9348], "queries": {"click": {"state": {"target": ["26"], "time": [4328]}, "edge": {"target": [], "time": []}}, "mouseover": {"state": {"target": ["23", "28", "26", "26"], "time": [3174, 3324, 3557, 3959]}, "edge": {"target": [], "time": []}}, "mouseout": {"state": {"target": ["0", "23", "28", "26"], "time": [3057, 3191, 3440, 3758]}, "edge": {"target": [], "time": []}}}, "displayed_time": "16.92", "trialTime": 18373, "trial_type": "mouselab-mdp", "trial_index": 44, "time_elapsed": 1129024, "internal_node_id": "0.0-4.0-1.0-35.0"}}, {"uniqueid": "w44544083:a88581418", "current_trial": 45, "dateTime": 1691143055514, "trialdata": {"revealed_states": [], "clicked_states": ["4"], "num_clicks_accrued": [0, 0, 0, 0, 0, 0, 0, 0, 0, 0, 0, 0, 0], "stateRewards": ["", -1, -4, -6, -15, 21, -67, -63, 9, 51, 69, -14, -1, 3, 8, -8, 39, 72, 63, 15, 19, 47, 15, 1, 4, 5, 16, -18, 34, 35, -14, -80, 40, 1], "withholdReward": false, "trial_id": "mdp_trial_37", "block": "test", "trialIndex": 38, "score": 6.600000000000001, "costs": -1.4, "simulationMode": [null, null, null, null, null], "rewards": [1, 4, 5, 16, -18], "path": ["0", "0", "23", "24", "25", "26", "27"], "rt": [4834, 483, 140, 325, 194], "actions": ["left", "left", "left", "up", "up"], "actionTimes": [7587, 8563, 9203, 10021, 10707], "queries": {"click": {"state": {"target": ["4"], "time": [4999]}, "edge": {"target": [], "time": []}}, "mouseover": {"state": {"target": ["15", "4", "1", "23", "31"], "time": [4333, 4578, 5295, 5312, 6278]}, "edge": {"target": [], "time": []}}, "mouseout": {"state": {"target": ["26", "23", "15", "4", "1", "23", "31"], "time": [1678, 1844, 4395, 5262, 5311, 5329, 6329]}, "edge": {"target": [], "time": []}}}, "displayed_time": "16.75", "trialTime": 17604, "trial_type": "mouselab-mdp", "trial_index": 45, "time_elapsed": 1146818, "internal_node_id": "0.0-4.0-1.0-36.0"}}, {"uniqueid": "w44544083:a88581418", "current_trial": 46, "dateTime": 1691143072809, "trialdata": {"revealed_states": [], "clicked_states": ["25"], "num_clicks_accrued": [0, 0, 0, 0, 0, 0, 0, 0, 0, 0, 0, 0, 0], "stateRewards": ["", -2, -3, 8, 14, -73, 73, 84, -12, -2, -50, -17, 2, 1, -2, -9, -44, -27, -33, 16, -63, -47, -66, -2, 1, 4, -5, -33, -11, 50, 9, 38, -79, 31], "withholdReward": false, "trial_id": "mdp_trial_38", "block": "test", "trialIndex": 39, "score": 41.6, "costs": -1.4, "simulationMode": [null, null, null, null, null], "rewards": [-2, 1, 4, 9, 31], "path": ["0", "0", "23", "24", "25", "30", "33"], "rt": [3584, 57, 115, 25, 178], "actions": ["left", "left", "left", "down", "left"], "actionTimes": [5636, 6210, 6836, 7363, 8039], "queries": {"click": {"state": {"target": ["25"], "time": [3527]}, "edge": {"target": [], "time": []}}, "mouseover": {"state": {"target": ["0", "25", "30"], "time": [2275, 3170, 3837]}, "edge": {"target": [], "time": []}}, "mouseout": {"state": {"target": ["24", "23", "0", "0", "25", "30"], "time": [1403, 1437, 1812, 2307, 3803, 4586]}, "edge": {"target": [], "time": []}}}, "displayed_time": "16.05", "trialTime": 17109, "trial_type": "mouselab-mdp", "trial_index": 46, "time_elapsed": 1164114, "internal_node_id": "0.0-4.0-1.0-37.0"}}, {"uniqueid": "w44544083:a88581418", "current_trial": 47, "dateTime": 1691143090537, "trialdata": {"revealed_states": [], "clicked_states": ["3"], "num_clicks_accrued": [0, 0, 0, 0, 0, 0, 0, 0, 0, 0, 0, 0, 0], "stateRewards": ["", 1, -1, 4, -2, -75, -75, 84, -9, -60, -79, 59, 2, -4, 8, 9, -17, -82, 80, 14, -4, 49, 49, -1, 3, 6, -11, -33, 34, 55, 9, -57, 5, 59], "withholdReward": false, "trial_id": "mdp_trial_39", "block": "test", "trialIndex": 40, "score": -74.4, "costs": -1.4, "simulationMode": [null, null, null, null, null], "rewards": [1, -1, 4, -2, -75], "path": ["0", "0", "1", "2", "3", "4", "6"], "rt": [2904, 119, 62, 6, 545], "actions": ["up", "up", "up", "right", "right"], "actionTimes": [4837, 5446, 6021, 6540, 7605], "queries": {"click": {"state": {"target": ["3"], "time": [2632]}, "edge": {"target": [], "time": []}}, "mouseover": {"state": {"target": ["1", "2", "3"], "time": [2093, 2126, 2338]}, "edge": {"target": [], "time": []}}, "mouseout": {"state": {"target": ["30", "32", "22", "19", "22", "0", "1", "2", "3"], "time": [844, 1142, 1175, 1326, 1344, 1576, 2109, 2192, 2859]}, "edge": {"target": [], "time": []}}}, "displayed_time": "15.94", "trialTime": 17543, "trial_type": "mouselab-mdp", "trial_index": 47, "time_elapsed": 1181841, "internal_node_id": "0.0-4.0-1.0-38.0"}}, {"uniqueid": "w44544083:a88581418", "current_trial": 48, "dateTime": 1691143109355, "trialdata": {"revealed_states": [], "clicked_states": ["26"], "num_clicks_accrued": [0, 0, 0, 0, 0, 0, 0, 0, 0, 0, 0, 0, 0], "stateRewards": ["", 1, 2, -8, 9, 18, -83, -11, 6, -64, -48, 17, -2, -2, -5, -3, -24, -3, -86, -2, 48, -41, -22, -2, 4, 7, 8, 81, 13, -48, 10, 61, 19, 57], "withholdReward": false, "trial_id": "mdp_trial_40", "block": "test", "trialIndex": 41, "score": -32.4, "costs": -1.4, "simulationMode": [null, null, null, null, null], "rewards": [-2, 4, 7, 8, -48], "path": ["0", "0", "23", "24", "25", "26", "29"], "rt": [3719, 462, 732, 521, 128], "actions": ["left", "left", "left", "up", "left"], "actionTimes": [7592, 8568, 9816, 10856, 11479], "queries": {"click": {"state": {"target": ["26"], "time": [5538]}, "edge": {"target": [], "time": []}}, "mouseover": {"state": {"target": ["23", "26", "25"], "time": [4401, 5217, 5934]}, "edge": {"target": [], "time": []}}, "mouseout": {"state": {"target": ["28", "23", "0", "12", "0", "23", "26", "25"], "time": [2768, 3184, 3250, 3417, 4169, 4417, 5900, 15752]}, "edge": {"target": [], "time": []}}}, "displayed_time": "17.89", "trialTime": 18617, "trial_type": "mouselab-mdp", "trial_index": 48, "time_elapsed": 1200659, "internal_node_id": "0.0-4.0-1.0-39.0"}}, {"uniqueid": "w44544083:a88581418", "current_trial": 49, "dateTime": 1691143182656, "trialdata": {"rt": 73293, "response": {"Q0": "$-2 to $2", "Q1": "$-16 to $16", "Q2": "$-88 to $88", "Q3": "The cost was always $1.4.", "Q4": "Very motivated"}, "question_order": [0, 1, 2, 3, 4], "trial_id": "final_quiz_control", "trial_type": "survey-multi-choice", "trial_index": 49, "time_elapsed": 1273960, "internal_node_id": "0.0-4.0-2.0"}}, {"uniqueid": "w44544083:a88581418", "current_trial": 50, "dateTime": 1691143470400, "trialdata": {"rt": 287737, "response": {"Q0": "the strategy i use was check for the node value and take it from there, but mostly i just take a guess.", "Q1": "there was a slight improvement because at first i could not understand the game but because it has more rounds i was able to quickly understand.", "Q2": "it a bit difficult to understand but with more rounds that i played was able to understand."}, "trial_id": "self_report_control", "trial_type": "survey-text", "trial_index": 50, "time_elapsed": 1561705, "internal_node_id": "0.0-4.0-3.0"}}, {"uniqueid": "w44544083:a88581418", "current_trial": 51, "dateTime": 1691143511160, "trialdata": {"rt": 40756, "response": {"gender": "male", "age": "31", "colorblind": "0", "effort": "0"}, "trial_type": "survey-html-form", "trial_index": 51, "time_elapsed": 1602465, "internal_node_id": "0.0-4.0-4.0"}}, {"uniqueid": "w44544083:a88581418", "current_trial": 52, "dateTime": 1691143615944, "trialdata": {"rt": 104781, "response": {"Q0": "no, nothing was confusing.", "Q1": "No i did not realize", "Q2": "no comments"}, "trial_type": "survey-text", "trial_index": 52, "time_elapsed": 1707249, "internal_node_id": "0.0-4.0-5.0"}}, {"uniqueid": "w44544083:a88581418", "current_trial": 53, "dateTime": 1691143618873, "trialdata": {"rt": 2926, "stimulus": "Press 'Finish HIT' in order to reach the completion code. Once the data has been saved, you will receive the code either in this window or in the original browser window where you started the experiment.\n", "response": 0, "trial_type": "html-button-response", "trial_index": 53, "time_elapsed": 1710178, "internal_node_id": "0.0-5.0"}}, {"uniqueid": "w44544083:a88581418", "current_trial": 54, "dateTime": 1691143619875, "trialdata": {"success": true, "trial_type": "fullscreen", "trial_index": 54, "time_elapsed": 1711180, "internal_node_id": "0.0-6.0"}}], "questiondata": {"params": {"CODE": "C6DMOQA6", "MIN_TIME": 14, "inspectCost": 1, "startTime": "Fri Aug 04 2023 11:38:26 GMT+0200 (South Africa Standard Time)", "bonusRate": 0.002, "variance": "1_2_4_8_44", "branching": "31123"}, "final_score": -153}, "eventdata": [{"eventtype": "initialized", "value": null, "timestamp": 1691141905867, "interval": 0}, {"eventtype": "window_resize", "value": [1024, 768], "timestamp": 1691141905867, "interval": 0}, {"eventtype": "window_resize", "value": [1024, 768], "timestamp": 1691141906431, "interval": 564}, {"eventtype": "window_resize", "value": [1920, 978], "timestamp": 1691141911836, "interval": 5405}, {"eventtype": "window_resize", "value": [1920, 1080], "timestamp": 1691141913117, "interval": 1281}, {"eventtype": "focus", "value": "off", "timestamp": 1691142918564, "interval": 1005447}, {"eventtype": "focus", "value": "on", "timestamp": 1691142933252, "interval": 14688}, {"eventtype": "window_resize", "value": [1920, 978], "timestamp": 1691143619101, "interval": 685849}], "useragent": "Mozilla/5.0 (Windows NT 10.0; Win64; x64) AppleWebKit/537.36 (KHTML, like Gecko) Chrome/115.0.0.0 Safari/537.36 Edg/115.0.1901.188", "mode": "live", "id": "w44544083:a88581418", "status": "user data saved", "Beginhit": "2023-08-04 09:38:22.740881", "Beginexp": "2023-08-04 09:38:34.264324", "Endhit": "2023-08-04 10:07:01.577311", "psiturkStatus": 3, "browser": "<redacted>", "platform": "windows", "language": "en-US"}