{"condition": 0, "counterbalance": 0, "assignmentId": "a24063364", "workerId": "w62159434", "hitId": "h44014931", "currenttrial": 55, "bonus": 0, "data": [{"uniqueid": "w62159434:a24063364", "current_trial": 0, "dateTime": 1691072984019, "trialdata": {"success": true, "trial_type": "fullscreen", "trial_index": 0, "time_elapsed": 4237, "internal_node_id": "0.0-0.0"}}, {"uniqueid": "w62159434:a24063364", "current_trial": 1, "dateTime": 1691073006634, "trialdata": {"view_history": [{"page_index": 0, "viewing_time": 22611}], "rt": 22612, "trial_id": "exp_instructions_control", "trial_type": "instructions", "trial_index": 1, "time_elapsed": 26852, "internal_node_id": "0.0-1.0"}}, {"uniqueid": "w62159434:a24063364", "current_trial": 2, "dateTime": 1691073011480, "trialdata": {"success": true, "trial_type": "fullscreen", "trial_index": 2, "time_elapsed": 31698, "internal_node_id": "0.0-2.0-0.0"}}, {"uniqueid": "w62159434:a24063364", "current_trial": 3, "dateTime": 1691073197386, "trialdata": {"view_history": [{"page_index": 0, "viewing_time": 61431}, {"page_index": 1, "viewing_time": 65472}, {"page_index": 2, "viewing_time": 24296}, {"page_index": 3, "viewing_time": 34705}], "rt": 185904, "trial_id": "mouselab_instructions_1_control", "trial_type": "instructions", "trial_index": 3, "time_elapsed": 217604, "internal_node_id": "0.0-2.0-1.0"}}, {"uniqueid": "w62159434:a24063364", "current_trial": 4, "dateTime": 1691073215840, "trialdata": {"revealed_states": [], "clicked_states": [], "num_clicks_accrued": [0, 0, 0, 0, 0, 0, 0, 0, 0, 0, 0, 0, 0], "stateRewards": ["", 10, 10, 10, -10, 10, -10, -10, 10, -10, -10, -10, -10, -10, 10, -10, -10, 10, -10, -10, -10, 10, -10, -10, -10, -10, 10, -10, -10, -10, 10, -10, -10, 10], "withholdReward": false, "trial_id": "practice_1", "block": "test", "trialIndex": 0, "score": -26.5, "costs": 0, "simulationMode": [null, null, null, null, null], "rewards": [-10, -10, -10, 10, -10], "path": ["0", "0", "23", "24", "25", "26", "29"], "rt": [5204, 1981, 808, 1188, 130], "actions": ["left", "left", "left", "up", "left"], "actionTimes": [7653, 10161, 11473, 13176, 13820], "queries": {"click": {"state": {"target": [], "time": []}, "edge": {"target": [], "time": []}}, "mouseover": {"state": {"target": ["1", "2", "28", "23", "24"], "time": [3440, 3592, 6430, 6765, 6816]}, "edge": {"target": [], "time": []}}, "mouseout": {"state": {"target": ["0", "1", "2", "28", "23", "24"], "time": [3209, 3493, 6112, 6492, 6782, 16446]}, "edge": {"target": [], "time": []}}}, "displayed_time": "14.33", "trialTime": 17702, "trial_type": "mouselab-mdp", "trial_index": 4, "time_elapsed": 236058, "internal_node_id": "0.0-2.0-2.0-0.0"}}, {"uniqueid": "w62159434:a24063364", "current_trial": 5, "dateTime": 1691073225200, "trialdata": {"revealed_states": [], "clicked_states": [], "num_clicks_accrued": [0, 0, 0, 0, 0, 0, 0, 0, 0, 0, 0, 0, 0], "stateRewards": ["", 10, 10, 10, -10, 10, -10, -10, 10, -10, 10, -10, 10, -10, -10, -10, 10, 10, 10, -10, -10, 10, 10, 10, -10, 10, -10, 10, 10, 10, 10, 10, -10, -10], "withholdReward": false, "trial_id": "practice_2", "block": "test", "trialIndex": 1, "score": 33.5, "costs": 0, "simulationMode": [null, null, null, null, null], "rewards": [10, 10, 10, -10, 10], "path": ["0", "0", "1", "2", "3", "4", "5"], "rt": [1147, 315, 203, 120, 108], "actions": ["up", "up", "up", "right", "up"], "actionTimes": [3406, 4218, 4925, 5548, 6151], "queries": {"click": {"state": {"target": [], "time": []}, "edge": {"target": [], "time": []}}, "mouseover": {"state": {"target": [], "time": []}, "edge": {"target": [], "time": []}}, "mouseout": {"state": {"target": ["28", "23", "0"], "time": [1175, 1480, 8108]}, "edge": {"target": [], "time": []}}}, "displayed_time": "6.66", "trialTime": 9006, "trial_type": "mouselab-mdp", "trial_index": 5, "time_elapsed": 245418, "internal_node_id": "0.0-2.0-2.0-1.0"}}, {"uniqueid": "w62159434:a24063364", "current_trial": 6, "dateTime": 1691073254212, "trialdata": {"view_history": [{"page_index": 0, "viewing_time": 19200}, {"page_index": 1, "viewing_time": 9810}], "rt": 29010, "trial_id": "mouselab_instructions_2_control", "trial_type": "instructions", "trial_index": 6, "time_elapsed": 274430, "internal_node_id": "0.0-2.0-3.0"}}, {"uniqueid": "w62159434:a24063364", "current_trial": 7, "dateTime": 1691073309004, "trialdata": {"rt": 54785, "response": {"Q0": "The cost for clicking on nodes may vary between nodes.", "Q1": "The better I perform the higher my bonus will be.", "Q2": "No, the amount of cash at each node of the web may be different each time.", "Q3": "To get the highest total score.", "Q4": "Only before moving the spider.", "Q5": "3 seconds"}, "question_order": [0, 1, 2, 3, 4, 5], "correct": {"Q0": "The cost for clicking on nodes may vary between nodes.", "Q1": "The better I perform the higher my bonus will be.", "Q2": "No, the amount of cash at each node of the web may be different each time.", "Q3": "To get the highest total score.", "Q4": "Only before moving the spider.", "Q5": "3 seconds"}, "trial_id": "mouselab_quiz_control", "trial_type": "survey-multi-choice", "trial_index": 7, "time_elapsed": 329222, "internal_node_id": "0.0-2.0-4.0"}}, {"uniqueid": "w62159434:a24063364", "current_trial": 8, "dateTime": 1691073318612, "trialdata": {"rt": 9591, "stimulus": "\n<h1> Get ready to start the game! </h1>\n\nThank you for reading the instructions. Get ready start with the 40 rounds of this game.\n<br><br>\nIf you need to take a break, feel free to take one after the end of a round, before continuing to the next one.\n<br><br>\nRemember, the more money the spider gets, the bigger your bonus will be!\n<br><br>\n<div style='text-align: center;'>Press <code>space</code> to begin.</div>\n\n<br><br>\n(If, at any point, the <code>space</code> key does not take you to the next page, click once on the text and try again.)", "response": " ", "trial_id": "mdp_ready", "trial_type": "html-keyboard-response", "trial_index": 8, "time_elapsed": 338830, "internal_node_id": "0.0-4.0-0.0"}}, {"uniqueid": "w62159434:a24063364", "current_trial": 9, "dateTime": 1691073336916, "trialdata": {"revealed_states": [], "clicked_states": [], "num_clicks_accrued": [0, 0, 0, 0, 0, 0, 0, 0, 0, 0, 0, 0, 0], "stateRewards": ["", -2, 2, 3, -7, 76, 63, 21, 15, 35, -8, -44, 1, 1, -2, -12, 23, 24, 76, -9, 46, 66, -49, -2, -1, 7, 12, 40, -71, -45, -6, 38, -49, 46], "withholdReward": false, "trial_id": "mdp_trial_1", "block": "test", "trialIndex": 2, "score": 12, "costs": 0, "simulationMode": [null, null, null, null, null], "rewards": [1, 1, -2, -12, 24], "path": ["0", "0", "12", "13", "14", "15", "17"], "rt": [1140, 174, 165, 425, 592], "actions": ["right", "right", "right", "up", "right"], "actionTimes": [3361, 4042, 4713, 5641, 6760], "queries": {"click": {"state": {"target": [], "time": []}, "edge": {"target": [], "time": []}}, "mouseover": {"state": {"target": [], "time": []}, "edge": {"target": [], "time": []}}, "mouseout": {"state": {"target": ["12", "0", "0", "1", "7"], "time": [1083, 7786, 10226, 11363, 14686]}, "edge": {"target": [], "time": []}}}, "displayed_time": "16.22", "trialTime": 17961, "trial_type": "mouselab-mdp", "trial_index": 9, "time_elapsed": 357133, "internal_node_id": "0.0-4.0-1.0-0.0"}}, {"uniqueid": "w62159434:a24063364", "current_trial": 10, "dateTime": 1691073358319, "trialdata": {"revealed_states": [], "clicked_states": [], "num_clicks_accrued": [0, 0, 0, 0, 0, 0, 0, 0, 0, 0, 0, 0, 0], "stateRewards": ["", -1, -4, -6, -15, 21, -67, -63, 9, 51, 69, -14, -1, 3, 8, -8, 39, 72, 63, 15, 19, 47, 15, 1, 4, 5, 16, -18, 34, 35, -14, -80, 40, 1], "withholdReward": false, "trial_id": "mdp_trial_2", "block": "test", "trialIndex": 3, "score": 44, "costs": 0, "simulationMode": [null, null, null, null, null], "rewards": [-1, 3, 8, 15, 19], "path": ["0", "0", "12", "13", "14", "19", "20"], "rt": [1067, 114, 338, 2863, 474], "actions": ["right", "right", "right", "down", "right"], "actionTimes": [3336, 3951, 4793, 8151, 9150], "queries": {"click": {"state": {"target": [], "time": []}, "edge": {"target": [], "time": []}}, "mouseover": {"state": {"target": ["12"], "time": [2393]}, "edge": {"target": [], "time": []}}, "mouseout": {"state": {"target": ["7", "1", "0", "0", "12"], "time": [1157, 1394, 1440, 2286, 12993]}, "edge": {"target": [], "time": []}}}, "displayed_time": "16.27", "trialTime": 21057, "trial_type": "mouselab-mdp", "trial_index": 10, "time_elapsed": 378536, "internal_node_id": "0.0-4.0-1.0-1.0"}}, {"uniqueid": "w62159434:a24063364", "current_trial": 11, "dateTime": 1691073378397, "trialdata": {"revealed_states": [], "clicked_states": [], "num_clicks_accrued": [0, 0, 0, 0, 0, 0, 0, 0, 0, 0, 0, 0, 0], "stateRewards": ["", 1, 1, 1, 15, -76, 52, -32, 14, -57, 37, 49, 1, -4, -3, 6, 83, -76, 25, 9, 36, -1, -17, -1, 4, 4, -2, -22, -21, 58, -15, -57, 49, -24], "withholdReward": false, "trial_id": "mdp_trial_3", "block": "test", "trialIndex": 4, "score": 41, "costs": 0, "simulationMode": [null, null, null, null, null], "rewards": [-1, 4, 4, -15, 49], "path": ["0", "0", "23", "24", "25", "30", "32"], "rt": [733, 40, 95, 133, 399], "actions": ["left", "left", "left", "down", "down"], "actionTimes": [3654, 4213, 4822, 5471, 6381], "queries": {"click": {"state": {"target": [], "time": []}, "edge": {"target": [], "time": []}}, "mouseover": {"state": {"target": [], "time": []}, "edge": {"target": [], "time": []}}, "mouseout": {"state": {"target": ["0"], "time": [3199]}, "edge": {"target": [], "time": []}}}, "displayed_time": "16.92", "trialTime": 19670, "trial_type": "mouselab-mdp", "trial_index": 11, "time_elapsed": 398614, "internal_node_id": "0.0-4.0-1.0-2.0"}}, {"uniqueid": "w62159434:a24063364", "current_trial": 12, "dateTime": 1691073396005, "trialdata": {"revealed_states": [], "clicked_states": [], "num_clicks_accrued": [0, 0, 0, 0, 0, 0, 0, 0, 0, 0, 0, 0, 0], "stateRewards": ["", 1, -4, -4, 8, 1, -79, 68, -10, -79, 8, -74, -1, -3, -6, 14, 43, 23, 9, 5, -51, 63, 61, -2, 4, 6, -10, 69, -32, 57, 15, -80, -80, -77], "withholdReward": false, "trial_id": "mdp_trial_4", "block": "test", "trialIndex": 5, "score": 67, "costs": 0, "simulationMode": [null, null, null, null, null], "rewards": [-2, 4, 6, -10, 69], "path": ["0", "0", "23", "24", "25", "26", "27"], "rt": [1508, 316, 342, 38, 577], "actions": ["left", "left", "left", "up", "up"], "actionTimes": [3465, 4294, 5139, 5697, 6781], "queries": {"click": {"state": {"target": [], "time": []}, "edge": {"target": [], "time": []}}, "mouseover": {"state": {"target": [], "time": []}, "edge": {"target": [], "time": []}}, "mouseout": {"state": {"target": ["0", "0", "0"], "time": [2831, 5574, 10831]}, "edge": {"target": [], "time": []}}}, "displayed_time": "15.96", "trialTime": 17209, "trial_type": "mouselab-mdp", "trial_index": 12, "time_elapsed": 416222, "internal_node_id": "0.0-4.0-1.0-3.0"}}, {"uniqueid": "w62159434:a24063364", "current_trial": 13, "dateTime": 1691073413575, "trialdata": {"revealed_states": [], "clicked_states": [], "num_clicks_accrued": [0, 0, 0, 0, 0, 0, 0, 0, 0, 0, 0, 0, 0], "stateRewards": ["", -2, 1, -8, 12, -65, -79, 16, 7, -80, -17, -45, -2, 2, -5, -2, -85, 23, -4, -7, 48, 27, -76, 2, 3, 5, 2, 43, 71, -13, 7, -49, 59, -31], "withholdReward": false, "trial_id": "mdp_trial_5", "block": "test", "trialIndex": 6, "score": -82, "costs": 0, "simulationMode": [null, null, null, null, null], "rewards": [-2, 1, -8, 7, -80], "path": ["0", "0", "1", "2", "3", "8", "9"], "rt": [808, 155, 106, 791, 800], "actions": ["up", "up", "up", "left", "up"], "actionTimes": [2042, 2708, 3323, 4611, 5922], "queries": {"click": {"state": {"target": [], "time": []}, "edge": {"target": [], "time": []}}, "mouseover": {"state": {"target": [], "time": []}, "edge": {"target": [], "time": []}}, "mouseout": {"state": {"target": [], "time": []}, "edge": {"target": [], "time": []}}}, "displayed_time": "15.24", "trialTime": 17111, "trial_type": "mouselab-mdp", "trial_index": 13, "time_elapsed": 433792, "internal_node_id": "0.0-4.0-1.0-4.0"}}, {"uniqueid": "w62159434:a24063364", "current_trial": 14, "dateTime": 1691073430701, "trialdata": {"revealed_states": [], "clicked_states": [], "num_clicks_accrued": [0, 0, 0, 0, 0, 0, 0, 0, 0, 0, 0, 0, 0], "stateRewards": ["", 2, -3, -5, 5, 11, -9, -33, 6, 67, 6, -30, -1, -2, -6, 13, 55, 13, 72, -14, 75, 21, -66, -2, -4, 6, 15, -1, -35, 60, 2, 51, -73, 12], "withholdReward": false, "trial_id": "mdp_trial_6", "block": "test", "trialIndex": 7, "score": 10, "costs": 0, "simulationMode": [null, null, null, null, null], "rewards": [2, -3, -5, 5, 11], "path": ["0", "0", "1", "2", "3", "4", "5"], "rt": [571, 95, 60, 489, 710], "actions": ["up", "up", "up", "right", "up"], "actionTimes": [1782, 2373, 2943, 3938, 5152], "queries": {"click": {"state": {"target": [], "time": []}, "edge": {"target": [], "time": []}}, "mouseover": {"state": {"target": [], "time": []}, "edge": {"target": [], "time": []}}, "mouseout": {"state": {"target": ["0"], "time": [1211]}, "edge": {"target": [], "time": []}}}, "displayed_time": "15.20", "trialTime": 16679, "trial_type": "mouselab-mdp", "trial_index": 14, "time_elapsed": 450918, "internal_node_id": "0.0-4.0-1.0-5.0"}}, {"uniqueid": "w62159434:a24063364", "current_trial": 15, "dateTime": 1691073449477, "trialdata": {"revealed_states": [], "clicked_states": [], "num_clicks_accrued": [0, 0, 0, 0, 0, 0, 0, 0, 0, 0, 0, 0, 0], "stateRewards": ["", 1, -3, -1, 9, -34, -40, 22, -7, 45, 53, -11, 2, 4, 5, 15, 21, 37, -49, -3, 80, -28, -34, 1, -3, 1, 1, -40, -6, -5, -16, -85, -86, 59], "withholdReward": false, "trial_id": "mdp_trial_7", "block": "test", "trialIndex": 8, "score": -23, "costs": 0, "simulationMode": [null, null, null, null, null], "rewards": [2, 4, 5, 15, -49], "path": ["0", "0", "12", "13", "14", "15", "18"], "rt": [1633, 151, 119, 242, 507], "actions": ["right", "right", "right", "up", "left"], "actionTimes": [3923, 4587, 5210, 5947, 6963], "queries": {"click": {"state": {"target": [], "time": []}, "edge": {"target": [], "time": []}}, "mouseover": {"state": {"target": [], "time": []}, "edge": {"target": [], "time": []}}, "mouseout": {"state": {"target": ["0", "0"], "time": [2022, 14921]}, "edge": {"target": [], "time": []}}}, "displayed_time": "16.30", "trialTime": 18195, "trial_type": "mouselab-mdp", "trial_index": 15, "time_elapsed": 469695, "internal_node_id": "0.0-4.0-1.0-6.0"}}, {"uniqueid": "w62159434:a24063364", "current_trial": 16, "dateTime": 1691073467484, "trialdata": {"revealed_states": [], "clicked_states": [], "num_clicks_accrued": [0, 0, 0, 0, 0, 0, 0, 0, 0, 0, 0, 0, 0], "stateRewards": ["", -2, -1, -3, -1, -78, -6, 2, -1, 22, -88, 32, 2, 2, -7, -8, -51, -17, 54, 2, -44, 54, 75, 2, -2, -8, -15, -29, 12, -67, 15, -1, -47, -47], "withholdReward": false, "trial_id": "mdp_trial_8", "block": "test", "trialIndex": 9, "score": 53, "costs": 0, "simulationMode": [null, null, null, null, null], "rewards": [2, 2, -7, 2, 54], "path": ["0", "0", "12", "13", "14", "19", "21"], "rt": [1098, 27, 102, 374, 152], "actions": ["right", "right", "right", "down", "down"], "actionTimes": [2540, 3083, 3683, 4557, 5219], "queries": {"click": {"state": {"target": [], "time": []}, "edge": {"target": [], "time": []}}, "mouseover": {"state": {"target": [], "time": []}, "edge": {"target": [], "time": []}}, "mouseout": {"state": {"target": [], "time": []}, "edge": {"target": [], "time": []}}}, "displayed_time": "15.45", "trialTime": 17571, "trial_type": "mouselab-mdp", "trial_index": 16, "time_elapsed": 487702, "internal_node_id": "0.0-4.0-1.0-7.0"}}, {"uniqueid": "w62159434:a24063364", "current_trial": 17, "dateTime": 1691073484383, "trialdata": {"revealed_states": [], "clicked_states": [], "num_clicks_accrued": [0, 0, 0, 0, 0, 0, 0, 0, 0, 0, 0, 0, 0], "stateRewards": ["", -2, 3, -1, 2, -72, 63, 20, -1, 62, -66, 39, -2, 3, -6, 14, 22, 47, 1, 8, -49, -1, -41, 2, 2, -6, -16, -64, -60, -34, 16, 54, 22, -7], "withholdReward": false, "trial_id": "mdp_trial_9", "block": "test", "trialIndex": 10, "score": 36, "costs": 0, "simulationMode": [null, null, null, null, null], "rewards": [2, 2, -6, 16, 22], "path": ["0", "0", "23", "24", "25", "30", "32"], "rt": [906, 67, 461, 68, 17], "actions": ["left", "left", "left", "down", "down"], "actionTimes": [2046, 2626, 3589, 4164, 4684], "queries": {"click": {"state": {"target": [], "time": []}, "edge": {"target": [], "time": []}}, "mouseover": {"state": {"target": [], "time": []}, "edge": {"target": [], "time": []}}, "mouseout": {"state": {"target": [], "time": []}, "edge": {"target": [], "time": []}}}, "displayed_time": "15.14", "trialTime": 16390, "trial_type": "mouselab-mdp", "trial_index": 17, "time_elapsed": 504601, "internal_node_id": "0.0-4.0-1.0-8.0"}}, {"uniqueid": "w62159434:a24063364", "current_trial": 18, "dateTime": 1691073503552, "trialdata": {"revealed_states": [], "clicked_states": [], "num_clicks_accrued": [0, 0, 0, 0, 0, 0, 0, 0, 0, 0, 0, 0, 0], "stateRewards": ["", -2, 2, -4, -4, -59, 88, 62, -3, 69, -15, -34, 1, -2, -5, 7, -54, -20, 78, -16, -74, -53, -21, 2, -4, 2, 13, -8, -44, 26, 9, 72, 4, 17], "withholdReward": false, "trial_id": "mdp_trial_10", "block": "test", "trialIndex": 11, "score": 5, "costs": 0, "simulationMode": [null, null, null, null, null], "rewards": [2, -4, 2, 13, -8], "path": ["0", "0", "23", "24", "25", "26", "27"], "rt": [573, 4, 337, 37, 372], "actions": ["left", "left", "left", "up", "up"], "actionTimes": [1383, 1904, 2755, 3301, 4173], "queries": {"click": {"state": {"target": [], "time": []}, "edge": {"target": [], "time": []}}, "mouseover": {"state": {"target": [], "time": []}, "edge": {"target": [], "time": []}}, "mouseout": {"state": {"target": [], "time": []}, "edge": {"target": [], "time": []}}}, "displayed_time": "14.81", "trialTime": 18752, "trial_type": "mouselab-mdp", "trial_index": 18, "time_elapsed": 523769, "internal_node_id": "0.0-4.0-1.0-9.0"}}, {"uniqueid": "w62159434:a24063364", "current_trial": 19, "dateTime": 1691073527245, "trialdata": {"revealed_states": [], "clicked_states": [], "num_clicks_accrued": [0, 0, 0, 0, 0, 0, 0, 0, 0, 0, 0, 0, 0], "stateRewards": ["", -2, 4, 3, 5, -61, 4, 30, 1, -47, 83, 10, 1, 4, 7, -14, 19, -74, -83, 6, -2, -2, -65, -1, -2, 4, -11, 12, -1, -68, 11, -38, -28, 66], "withholdReward": false, "trial_id": "mdp_trial_11", "block": "test", "trialIndex": 12, "score": 16, "costs": 0, "simulationMode": [null, null, null, null, null], "rewards": [-2, 4, 3, 1, 10], "path": ["0", "0", "1", "2", "3", "8", "11"], "rt": [444, 69, 75, 163, 486], "actions": ["up", "up", "up", "left", "left"], "actionTimes": [1732, 2298, 2891, 3571, 4555], "queries": {"click": {"state": {"target": [], "time": []}, "edge": {"target": [], "time": []}}, "mouseover": {"state": {"target": [], "time": []}, "edge": {"target": [], "time": []}}, "mouseout": {"state": {"target": ["0", "22", "32"], "time": [11145, 11180, 21942]}, "edge": {"target": [], "time": []}}}, "displayed_time": "15.29", "trialTime": 23236, "trial_type": "mouselab-mdp", "trial_index": 19, "time_elapsed": 547462, "internal_node_id": "0.0-4.0-1.0-10.0"}}, {"uniqueid": "w62159434:a24063364", "current_trial": 20, "dateTime": 1691073544243, "trialdata": {"revealed_states": [], "clicked_states": [], "num_clicks_accrued": [0, 0, 0, 0, 0, 0, 0, 0, 0, 0, 0, 0, 0], "stateRewards": ["", -1, 3, -4, -14, 78, 67, 2, 13, -32, 28, 39, -2, 1, -4, -4, -4, -42, -86, 11, 64, -29, -32, -1, -4, 2, -7, 5, 68, -61, 2, -21, 85, 50], "withholdReward": false, "trial_id": "mdp_trial_12", "block": "test", "trialIndex": 13, "score": 51, "costs": 0, "simulationMode": [null, null, null, null, null], "rewards": [-1, 3, -4, -14, 67], "path": ["0", "0", "1", "2", "3", "4", "6"], "rt": [2723, 115, 102, 311, 66], "actions": ["up", "up", "up", "right", "right"], "actionTimes": [4213, 4834, 5437, 6246, 6822], "queries": {"click": {"state": {"target": [], "time": []}, "edge": {"target": [], "time": []}}, "mouseover": {"state": {"target": [], "time": []}, "edge": {"target": [], "time": []}}, "mouseout": {"state": {"target": ["0", "0", "1"], "time": [1007, 6547, 12433]}, "edge": {"target": [], "time": []}}}, "displayed_time": "15.49", "trialTime": 16419, "trial_type": "mouselab-mdp", "trial_index": 20, "time_elapsed": 564460, "internal_node_id": "0.0-4.0-1.0-11.0"}}, {"uniqueid": "w62159434:a24063364", "current_trial": 21, "dateTime": 1691073563461, "trialdata": {"revealed_states": [], "clicked_states": [], "num_clicks_accrued": [0, 0, 0, 0, 0, 0, 0, 0, 0, 0, 0, 0, 0], "stateRewards": ["", 1, 4, -8, -5, -15, -7, 21, 13, -30, 40, -65, 1, 1, 5, -14, 35, 27, -38, -11, 36, -58, -47, -2, 4, -3, 13, -16, -49, 22, 15, -56, -44, -10], "withholdReward": false, "trial_id": "mdp_trial_13", "block": "test", "trialIndex": 14, "score": 28, "costs": 0, "simulationMode": [null, null, null, null, null], "rewards": [1, 1, 5, -14, 35], "path": ["0", "0", "12", "13", "14", "15", "16"], "rt": [936, 90, 83, 637, 21], "actions": ["right", "right", "right", "up", "up"], "actionTimes": [3401, 4009, 4593, 5736, 6303], "queries": {"click": {"state": {"target": [], "time": []}, "edge": {"target": [], "time": []}}, "mouseover": {"state": {"target": [], "time": []}, "edge": {"target": [], "time": []}}, "mouseout": {"state": {"target": ["1"], "time": [1191]}, "edge": {"target": [], "time": []}}}, "displayed_time": "16.47", "trialTime": 18689, "trial_type": "mouselab-mdp", "trial_index": 21, "time_elapsed": 583679, "internal_node_id": "0.0-4.0-1.0-12.0"}}, {"uniqueid": "w62159434:a24063364", "current_trial": 22, "dateTime": 1691073579910, "trialdata": {"revealed_states": [], "clicked_states": [], "num_clicks_accrued": [0, 0, 0, 0, 0, 0, 0, 0, 0, 0, 0, 0, 0], "stateRewards": ["", 2, 4, 4, -8, -36, -33, 38, 16, -51, 57, 57, 1, 3, 4, -6, 45, 68, 87, 1, 63, 24, -55, -2, 2, -6, -13, -63, -50, 8, 2, 80, 6, 60], "withholdReward": false, "trial_id": "mdp_trial_14", "block": "test", "trialIndex": 15, "score": 33, "costs": 0, "simulationMode": [null, null, null, null, null], "rewards": [1, 3, 4, 1, 24], "path": ["0", "0", "12", "13", "14", "19", "21"], "rt": [985, 85, 434, 491, 69], "actions": ["right", "right", "right", "down", "down"], "actionTimes": [2017, 2607, 3538, 4529, 5109], "queries": {"click": {"state": {"target": [], "time": []}, "edge": {"target": [], "time": []}}, "mouseover": {"state": {"target": [], "time": []}, "edge": {"target": [], "time": []}}, "mouseout": {"state": {"target": ["0", "0"], "time": [723, 10996]}, "edge": {"target": [], "time": []}}}, "displayed_time": "15.04", "trialTime": 15937, "trial_type": "mouselab-mdp", "trial_index": 22, "time_elapsed": 600128, "internal_node_id": "0.0-4.0-1.0-13.0"}}, {"uniqueid": "w62159434:a24063364", "current_trial": 23, "dateTime": 1691073597742, "trialdata": {"revealed_states": [], "clicked_states": [], "num_clicks_accrued": [0, 0, 0, 0, 0, 0, 0, 0, 0, 0, 0, 0, 0], "stateRewards": ["", -1, 1, 8, -8, -49, 62, -78, 16, 28, -81, 78, -2, -3, -1, -4, 67, 49, -2, -13, -16, -39, 83, 1, -4, 4, -5, -20, 7, 84, 7, -32, -59, 19], "withholdReward": false, "trial_id": "mdp_trial_15", "block": "test", "trialIndex": 16, "score": -51, "costs": 0, "simulationMode": [null, null, null, null, null], "rewards": [1, -4, 4, 7, -59], "path": ["0", "0", "23", "24", "25", "30", "32"], "rt": [880, 237, 213, 221, 20], "actions": ["left", "left", "left", "down", "down"], "actionTimes": [2237, 2973, 3685, 4413, 4932], "queries": {"click": {"state": {"target": [], "time": []}, "edge": {"target": [], "time": []}}, "mouseover": {"state": {"target": [], "time": []}, "edge": {"target": [], "time": []}}, "mouseout": {"state": {"target": [], "time": []}, "edge": {"target": [], "time": []}}}, "displayed_time": "15.36", "trialTime": 17381, "trial_type": "mouselab-mdp", "trial_index": 23, "time_elapsed": 617960, "internal_node_id": "0.0-4.0-1.0-14.0"}}, {"uniqueid": "w62159434:a24063364", "current_trial": 24, "dateTime": 1691073614632, "trialdata": {"revealed_states": [], "clicked_states": [], "num_clicks_accrued": [0, 0, 0, 0, 0, 0, 0, 0, 0, 0, 0, 0, 0], "stateRewards": ["", -2, -3, -7, 7, -54, -69, -4, -14, -77, 22, 40, -2, -1, 5, 6, -35, 50, -60, 10, -28, 75, 57, 1, -4, -2, 2, 68, 34, -18, 12, 3, -21, -43], "withholdReward": false, "trial_id": "mdp_trial_16", "block": "test", "trialIndex": 17, "score": 65, "costs": 0, "simulationMode": [null, null, null, null, null], "rewards": [1, -4, -2, 2, 68], "path": ["0", "0", "23", "24", "25", "26", "27"], "rt": [913, 28, 5, 224, 81], "actions": ["left", "left", "left", "up", "up"], "actionTimes": [1809, 2347, 2866, 3593, 4193], "queries": {"click": {"state": {"target": [], "time": []}, "edge": {"target": [], "time": []}}, "mouseover": {"state": {"target": [], "time": []}, "edge": {"target": [], "time": []}}, "mouseout": {"state": {"target": ["0"], "time": [558]}, "edge": {"target": [], "time": []}}}, "displayed_time": "14.90", "trialTime": 16292, "trial_type": "mouselab-mdp", "trial_index": 24, "time_elapsed": 634850, "internal_node_id": "0.0-4.0-1.0-15.0"}}, {"uniqueid": "w62159434:a24063364", "current_trial": 25, "dateTime": 1691073631020, "trialdata": {"revealed_states": [], "clicked_states": [], "num_clicks_accrued": [0, 0, 0, 0, 0, 0, 0, 0, 0, 0, 0, 0, 0], "stateRewards": ["", 2, -2, -3, 10, -4, -1, -11, -8, -9, -36, -78, 2, 1, 7, -7, 44, -1, -31, -1, 26, 47, 83, 2, -4, -4, -6, -52, -76, -81, -1, -59, 45, 67], "withholdReward": false, "trial_id": "mdp_trial_17", "block": "test", "trialIndex": 18, "score": -89, "costs": 0, "simulationMode": [null, null, null, null, null], "rewards": [2, -2, -3, -8, -78], "path": ["0", "0", "1", "2", "3", "8", "11"], "rt": [691, 138, 21, 141, 25], "actions": ["up", "up", "up", "left", "left"], "actionTimes": [1884, 2539, 3075, 3724, 4259], "queries": {"click": {"state": {"target": [], "time": []}, "edge": {"target": [], "time": []}}, "mouseover": {"state": {"target": [], "time": []}, "edge": {"target": [], "time": []}}, "mouseout": {"state": {"target": ["0"], "time": [859]}, "edge": {"target": [], "time": []}}}, "displayed_time": "15.20", "trialTime": 15897, "trial_type": "mouselab-mdp", "trial_index": 25, "time_elapsed": 651237, "internal_node_id": "0.0-4.0-1.0-16.0"}}, {"uniqueid": "w62159434:a24063364", "current_trial": 26, "dateTime": 1691073649158, "trialdata": {"revealed_states": [], "clicked_states": [], "num_clicks_accrued": [0, 0, 0, 0, 0, 0, 0, 0, 0, 0, 0, 0, 0], "stateRewards": ["", -2, -3, 7, -13, 60, 9, 37, -6, 37, 20, 1, 2, -2, -8, 6, -80, -31, -10, -7, 70, -65, -44, -1, 1, 7, 6, -11, 73, -85, 16, -21, 47, 34], "withholdReward": false, "trial_id": "mdp_trial_18", "block": "test", "trialIndex": 19, "score": -2, "costs": 0, "simulationMode": [null, null, null, null, null], "rewards": [-2, -3, 7, -13, 9], "path": ["0", "0", "1", "2", "3", "4", "6"], "rt": [509, 72, 121, 58, 990], "actions": ["up", "up", "up", "right", "right"], "actionTimes": [1458, 2034, 2666, 3227, 4730], "queries": {"click": {"state": {"target": [], "time": []}, "edge": {"target": [], "time": []}}, "mouseover": {"state": {"target": [], "time": []}, "edge": {"target": [], "time": []}}, "mouseout": {"state": {"target": ["0"], "time": [517]}, "edge": {"target": [], "time": []}}}, "displayed_time": "14.95", "trialTime": 17546, "trial_type": "mouselab-mdp", "trial_index": 26, "time_elapsed": 669376, "internal_node_id": "0.0-4.0-1.0-17.0"}}, {"uniqueid": "w62159434:a24063364", "current_trial": 27, "dateTime": 1691073666719, "trialdata": {"revealed_states": [], "clicked_states": [], "num_clicks_accrued": [0, 0, 0, 0, 0, 0, 0, 0, 0, 0, 0, 0, 0], "stateRewards": ["", -1, -3, -6, -2, -7, 80, -45, -3, -38, -72, 76, 2, 1, 7, 4, -62, 14, -74, 14, -87, -21, -88, -2, 1, -7, -10, 66, 56, -76, 10, -29, -72, -70], "withholdReward": false, "trial_id": "mdp_trial_19", "block": "test", "trialIndex": 20, "score": -48, "costs": 0, "simulationMode": [null, null, null, null, null], "rewards": [2, 1, 7, 4, -62], "path": ["0", "0", "12", "13", "14", "15", "16"], "rt": [1049, 66, 115, 129, 43], "actions": ["right", "right", "right", "up", "up"], "actionTimes": [1919, 2496, 3128, 3759, 4311], "queries": {"click": {"state": {"target": [], "time": []}, "edge": {"target": [], "time": []}}, "mouseover": {"state": {"target": [], "time": []}, "edge": {"target": [], "time": []}}, "mouseout": {"state": {"target": [], "time": []}, "edge": {"target": [], "time": []}}}, "displayed_time": "14.88", "trialTime": 16928, "trial_type": "mouselab-mdp", "trial_index": 27, "time_elapsed": 686937, "internal_node_id": "0.0-4.0-1.0-18.0"}}, {"uniqueid": "w62159434:a24063364", "current_trial": 28, "dateTime": 1691073684126, "trialdata": {"revealed_states": [], "clicked_states": [], "num_clicks_accrued": [0, 0, 0, 0, 0, 0, 0, 0, 0, 0, 0, 0, 0], "stateRewards": ["", -1, -4, -1, -11, 43, 69, 39, 4, 17, -20, -82, -2, -1, 4, 8, -79, 24, -79, 11, 36, 64, 41, 2, 4, -1, 11, -79, -47, 75, -3, 63, -36, -19], "withholdReward": false, "trial_id": "mdp_trial_20", "block": "test", "trialIndex": 21, "score": 76, "costs": 0, "simulationMode": [null, null, null, null, null], "rewards": [-2, -1, 4, 11, 64], "path": ["0", "0", "12", "13", "14", "19", "21"], "rt": [1701, 6, 54, 100, 37], "actions": ["right", "right", "right", "down", "down"], "actionTimes": [2714, 3226, 3826, 4456, 4994], "queries": {"click": {"state": {"target": [], "time": []}, "edge": {"target": [], "time": []}}, "mouseover": {"state": {"target": [], "time": []}, "edge": {"target": [], "time": []}}, "mouseout": {"state": {"target": ["0", "0", "13", "14", "20", "19", "22"], "time": [1157, 11732, 11765, 11783, 13101, 13110, 13920]}, "edge": {"target": [], "time": []}}}, "displayed_time": "15.02", "trialTime": 16762, "trial_type": "mouselab-mdp", "trial_index": 28, "time_elapsed": 704343, "internal_node_id": "0.0-4.0-1.0-19.0"}}, {"uniqueid": "w62159434:a24063364", "current_trial": 29, "dateTime": 1691073701754, "trialdata": {"revealed_states": [], "clicked_states": [], "num_clicks_accrued": [0, 0, 0, 0, 0, 0, 0, 0, 0, 0, 0, 0, 0], "stateRewards": ["", -2, 2, 3, -7, -31, -33, 29, -8, -57, 50, -83, -1, -1, 5, 13, -23, -62, 25, 5, -66, -85, 14, 1, -2, -1, 16, 71, 33, -19, -14, 5, -43, 79], "withholdReward": false, "trial_id": "mdp_trial_21", "block": "test", "trialIndex": 22, "score": 63, "costs": 0, "simulationMode": [null, null, null, null, null], "rewards": [1, -2, -1, -14, 79], "path": ["0", "0", "23", "24", "25", "30", "33"], "rt": [3231, 35, 413, 449, 242], "actions": ["left", "left", "left", "down", "left"], "actionTimes": [5024, 5568, 6480, 7435, 8204], "queries": {"click": {"state": {"target": [], "time": []}, "edge": {"target": [], "time": []}}, "mouseover": {"state": {"target": [], "time": []}, "edge": {"target": [], "time": []}}, "mouseout": {"state": {"target": [], "time": []}, "edge": {"target": [], "time": []}}}, "displayed_time": "15.80", "trialTime": 17004, "trial_type": "mouselab-mdp", "trial_index": 29, "time_elapsed": 721972, "internal_node_id": "0.0-4.0-1.0-20.0"}}, {"uniqueid": "w62159434:a24063364", "current_trial": 30, "dateTime": 1691073718847, "trialdata": {"revealed_states": [], "clicked_states": [], "num_clicks_accrued": [0, 0, 0, 0, 0, 0, 0, 0, 0, 0, 0, 0, 0], "stateRewards": ["", 2, 2, 3, -15, 23, -14, 73, -7, -32, -20, -6, 1, 1, -5, -12, 73, 6, -84, 11, -81, -57, 13, -2, -1, -4, -8, -52, -58, 49, 13, 5, -41, -41], "withholdReward": false, "trial_id": "mdp_trial_22", "block": "test", "trialIndex": 23, "score": 34, "costs": 0, "simulationMode": [null, null, null, null, null], "rewards": [-2, -1, -4, -8, 49], "path": ["0", "0", "23", "24", "25", "26", "29"], "rt": [542, 32, 359, 56, 92], "actions": ["left", "left", "left", "up", "left"], "actionTimes": [1452, 1998, 2869, 3425, 4029], "queries": {"click": {"state": {"target": [], "time": []}, "edge": {"target": [], "time": []}}, "mouseover": {"state": {"target": [], "time": []}, "edge": {"target": [], "time": []}}, "mouseout": {"state": {"target": [], "time": []}, "edge": {"target": [], "time": []}}}, "displayed_time": "14.91", "trialTime": 16430, "trial_type": "mouselab-mdp", "trial_index": 30, "time_elapsed": 739064, "internal_node_id": "0.0-4.0-1.0-21.0"}}, {"uniqueid": "w62159434:a24063364", "current_trial": 31, "dateTime": 1691073736918, "trialdata": {"revealed_states": [], "clicked_states": [], "num_clicks_accrued": [0, 0, 0, 0, 0, 0, 0, 0, 0, 0, 0, 0, 0], "stateRewards": ["", -1, -2, 8, -6, -79, -6, 87, 9, -5, -66, -38, 2, 2, 5, -6, -82, 74, 85, -8, 67, -30, -15, 1, -2, -2, -2, 87, 64, 49, 7, 2, -38, -9], "withholdReward": false, "trial_id": "mdp_trial_23", "block": "test", "trialIndex": 24, "score": 9, "costs": 0, "simulationMode": [null, null, null, null, null], "rewards": [-1, -2, 8, 9, -5], "path": ["0", "0", "1", "2", "3", "8", "9"], "rt": [622, 73, 38, 255, 39], "actions": ["up", "up", "up", "left", "up"], "actionTimes": [2492, 3078, 3627, 4380, 4932], "queries": {"click": {"state": {"target": [], "time": []}, "edge": {"target": [], "time": []}}, "mouseover": {"state": {"target": [], "time": []}, "edge": {"target": [], "time": []}}, "mouseout": {"state": {"target": [], "time": []}, "edge": {"target": [], "time": []}}}, "displayed_time": "15.87", "trialTime": 17427, "trial_type": "mouselab-mdp", "trial_index": 31, "time_elapsed": 757136, "internal_node_id": "0.0-4.0-1.0-22.0"}}, {"uniqueid": "w62159434:a24063364", "current_trial": 32, "dateTime": 1691073754455, "trialdata": {"revealed_states": [], "clicked_states": [], "num_clicks_accrued": [0, 0, 0, 0, 0, 0, 0, 0, 0, 0, 0, 0, 0], "stateRewards": ["", -1, -3, 1, -4, -48, -63, -49, -2, -84, -19, 65, 2, -2, -2, -12, -4, 59, 9, 6, 75, 69, -13, -1, -3, -3, -2, -37, -68, -36, 13, 32, 18, -14], "withholdReward": false, "trial_id": "mdp_trial_24", "block": "test", "trialIndex": 25, "score": -55, "costs": 0, "simulationMode": [null, null, null, null, null], "rewards": [-1, -3, 1, -4, -48], "path": ["0", "0", "1", "2", "3", "4", "5"], "rt": [666, 65, 342, 19, 48], "actions": ["up", "up", "up", "right", "up"], "actionTimes": [2134, 2701, 3582, 4120, 4677], "queries": {"click": {"state": {"target": [], "time": []}, "edge": {"target": [], "time": []}}, "mouseover": {"state": {"target": [], "time": []}, "edge": {"target": [], "time": []}}, "mouseout": {"state": {"target": [], "time": []}, "edge": {"target": [], "time": []}}}, "displayed_time": "15.47", "trialTime": 16903, "trial_type": "mouselab-mdp", "trial_index": 32, "time_elapsed": 774673, "internal_node_id": "0.0-4.0-1.0-23.0"}}, {"uniqueid": "w62159434:a24063364", "current_trial": 33, "dateTime": 1691073771710, "trialdata": {"revealed_states": [], "clicked_states": [], "num_clicks_accrued": [0, 0, 0, 0, 0, 0, 0, 0, 0, 0, 0, 0, 0], "stateRewards": ["", 1, 4, -4, 14, 35, 51, 19, -13, 54, 78, -74, -2, -1, -3, 13, -11, -42, -73, -15, -24, -3, -69, 2, -1, 5, 16, -27, 73, 58, 9, -60, 5, -60], "withholdReward": false, "trial_id": "mdp_trial_25", "block": "test", "trialIndex": 26, "score": -35, "costs": 0, "simulationMode": [null, null, null, null, null], "rewards": [-2, -1, -3, 13, -42], "path": ["0", "0", "12", "13", "14", "15", "17"], "rt": [732, 117, 48, 288, 1823], "actions": ["right", "right", "right", "up", "right"], "actionTimes": [1750, 2366, 2919, 3733, 6073], "queries": {"click": {"state": {"target": [], "time": []}, "edge": {"target": [], "time": []}}, "mouseover": {"state": {"target": [], "time": []}, "edge": {"target": [], "time": []}}, "mouseout": {"state": {"target": [], "time": []}, "edge": {"target": [], "time": []}}}, "displayed_time": "15.03", "trialTime": 16613, "trial_type": "mouselab-mdp", "trial_index": 33, "time_elapsed": 791927, "internal_node_id": "0.0-4.0-1.0-24.0"}}, {"uniqueid": "w62159434:a24063364", "current_trial": 34, "dateTime": 1691073788702, "trialdata": {"revealed_states": [], "clicked_states": [], "num_clicks_accrued": [0, 0, 0, 0, 0, 0, 0, 0, 0, 0, 0, 0, 0], "stateRewards": ["", -2, -1, -5, 10, -36, -70, 68, -9, 86, 71, -10, 2, -4, 7, -7, 66, 44, -66, -13, -69, 43, 15, -2, 2, 6, -13, 62, 57, 50, -10, -69, 42, -72], "withholdReward": false, "trial_id": "mdp_trial_26", "block": "test", "trialIndex": 27, "score": -77, "costs": 0, "simulationMode": [null, null, null, null, null], "rewards": [2, -4, 7, -13, -69], "path": ["0", "0", "12", "13", "14", "19", "20"], "rt": [449, 38, 12, 96, 87], "actions": ["right", "right", "right", "down", "right"], "actionTimes": [1403, 1940, 2450, 3067, 3667], "queries": {"click": {"state": {"target": [], "time": []}, "edge": {"target": [], "time": []}}, "mouseover": {"state": {"target": [], "time": []}, "edge": {"target": [], "time": []}}, "mouseout": {"state": {"target": ["0"], "time": [574]}, "edge": {"target": [], "time": []}}}, "displayed_time": "14.96", "trialTime": 16299, "trial_type": "mouselab-mdp", "trial_index": 34, "time_elapsed": 808920, "internal_node_id": "0.0-4.0-1.0-25.0"}}, {"uniqueid": "w62159434:a24063364", "current_trial": 35, "dateTime": 1691073807004, "trialdata": {"revealed_states": [], "clicked_states": [], "num_clicks_accrued": [0, 0, 0, 0, 0, 0, 0, 0, 0, 0, 0, 0, 0], "stateRewards": ["", 2, 4, 4, 9, -88, -10, 44, 16, -54, 64, 78, 1, 2, 5, 16, 80, 36, 7, -4, 9, -47, -70, -1, -3, 6, -16, 11, 80, 28, 8, -1, 34, -17], "withholdReward": false, "trial_id": "mdp_trial_27", "block": "test", "trialIndex": 28, "score": 44, "costs": 0, "simulationMode": [null, null, null, null, null], "rewards": [-1, -3, 6, 8, 34], "path": ["0", "0", "23", "24", "25", "30", "32"], "rt": [652, 57, 485, 6, 62], "actions": ["left", "left", "left", "down", "down"], "actionTimes": [3072, 3657, 4647, 5152, 5728], "queries": {"click": {"state": {"target": [], "time": []}, "edge": {"target": [], "time": []}}, "mouseover": {"state": {"target": [], "time": []}, "edge": {"target": [], "time": []}}, "mouseout": {"state": {"target": ["0"], "time": [97]}, "edge": {"target": [], "time": []}}}, "displayed_time": "16.43", "trialTime": 17628, "trial_type": "mouselab-mdp", "trial_index": 35, "time_elapsed": 827221, "internal_node_id": "0.0-4.0-1.0-26.0"}}, {"uniqueid": "w62159434:a24063364", "current_trial": 36, "dateTime": 1691073827710, "trialdata": {"revealed_states": [], "clicked_states": [], "num_clicks_accrued": [0, 0, 0, 0, 0, 0, 0, 0, 0, 0, 0, 0, 0], "stateRewards": ["", -1, 3, 8, 9, -53, 20, -84, 2, -28, -62, -31, -1, -2, -7, 2, 51, 58, 45, -4, -17, -41, 36, 2, -2, -7, -15, 29, -54, -37, -16, -43, 65, -17], "withholdReward": false, "trial_id": "mdp_trial_28", "block": "test", "trialIndex": 29, "score": 7, "costs": 0, "simulationMode": [null, null, null, null, null], "rewards": [2, -2, -7, -15, 29], "path": ["0", "0", "23", "24", "25", "26", "27"], "rt": [8215, 8, 381, 265, 790], "actions": ["left", "left", "left", "up", "up"], "actionTimes": [10494, 11024, 11928, 12700, 13997], "queries": {"click": {"state": {"target": [], "time": []}, "edge": {"target": [], "time": []}}, "mouseover": {"state": {"target": [], "time": []}, "edge": {"target": [], "time": []}}, "mouseout": {"state": {"target": ["0"], "time": [185]}, "edge": {"target": [], "time": []}}}, "displayed_time": "16.28", "trialTime": 19957, "trial_type": "mouselab-mdp", "trial_index": 36, "time_elapsed": 847928, "internal_node_id": "0.0-4.0-1.0-27.0"}}, {"uniqueid": "w62159434:a24063364", "current_trial": 37, "dateTime": 1691073852479, "trialdata": {"revealed_states": [], "clicked_states": [], "num_clicks_accrued": [0, 0, 0, 0, 0, 0, 0, 0, 0, 0, 0, 0, 0], "stateRewards": ["", -2, 2, -2, -7, -50, -62, -45, 7, 36, -24, -72, -1, -1, 8, -1, -67, 20, -52, 2, 35, -50, 80, -1, 1, 6, -6, -70, 6, 88, 8, -47, 74, -19], "withholdReward": false, "trial_id": "mdp_trial_29", "block": "test", "trialIndex": 30, "score": 41, "costs": 0, "simulationMode": [null, null, null, null, null], "rewards": [-2, 2, -2, 7, 36], "path": ["0", "0", "1", "2", "3", "8", "9"], "rt": [629, 46, 32, 180, 738], "actions": ["up", "up", "up", "left", "up"], "actionTimes": [9659, 10228, 10779, 11459, 12715], "queries": {"click": {"state": {"target": [], "time": []}, "edge": {"target": [], "time": []}}, "mouseover": {"state": {"target": [], "time": []}, "edge": {"target": [], "time": []}}, "mouseout": {"state": {"target": ["0"], "time": [1304]}, "edge": {"target": [], "time": []}}}, "displayed_time": "23.03", "trialTime": 24075, "trial_type": "mouselab-mdp", "trial_index": 37, "time_elapsed": 872696, "internal_node_id": "0.0-4.0-1.0-28.0"}}, {"uniqueid": "w62159434:a24063364", "current_trial": 38, "dateTime": 1691073872279, "trialdata": {"revealed_states": [], "clicked_states": [], "num_clicks_accrued": [0, 0, 0, 0, 0, 0, 0, 0, 0, 0, 0, 0, 0], "stateRewards": ["", 1, -1, 8, -3, 38, 85, -20, -4, 8, 23, 73, 2, -4, 6, -13, 44, 7, -28, -11, -77, 45, -69, 1, -1, -7, -11, 75, -51, -87, 7, 36, -53, -26], "withholdReward": false, "trial_id": "mdp_trial_30", "block": "test", "trialIndex": 31, "score": 43, "costs": 0, "simulationMode": [null, null, null, null, null], "rewards": [1, -1, 8, -3, 38], "path": ["0", "0", "1", "2", "3", "4", "5"], "rt": [775, 194, 226, 910, 222], "actions": ["up", "up", "up", "right", "up"], "actionTimes": [3884, 4597, 5333, 6745, 7477], "queries": {"click": {"state": {"target": [], "time": []}, "edge": {"target": [], "time": []}}, "mouseover": {"state": {"target": [], "time": []}, "edge": {"target": [], "time": []}}, "mouseout": {"state": {"target": ["0"], "time": [30]}, "edge": {"target": [], "time": []}}}, "displayed_time": "17.11", "trialTime": 19117, "trial_type": "mouselab-mdp", "trial_index": 38, "time_elapsed": 892496, "internal_node_id": "0.0-4.0-1.0-29.0"}}, {"uniqueid": "w62159434:a24063364", "current_trial": 39, "dateTime": 1691073891935, "trialdata": {"revealed_states": [], "clicked_states": [], "num_clicks_accrued": [0, 0, 0, 0, 0, 0, 0, 0, 0, 0, 0, 0, 0], "stateRewards": ["", -1, 2, 6, 11, 21, -21, -21, -6, 48, -71, 88, -1, -3, 3, 7, 64, 2, 9, -4, 37, -67, 72, 2, 2, -8, -8, -10, 71, -40, -3, 73, 80, 47], "withholdReward": false, "trial_id": "mdp_trial_31", "block": "test", "trialIndex": 32, "score": 39, "costs": 0, "simulationMode": [null, null, null, null, null], "rewards": [-1, 2, 6, 11, 21], "path": ["0", "0", "1", "2", "3", "4", "5"], "rt": [1161, 718, 748, 540, 177], "actions": ["up", "up", "up", "right", "up"], "actionTimes": [2394, 3614, 4875, 5910, 6584], "queries": {"click": {"state": {"target": [], "time": []}, "edge": {"target": [], "time": []}}, "mouseover": {"state": {"target": ["12"], "time": [1346]}, "edge": {"target": [], "time": []}}, "mouseout": {"state": {"target": ["0", "12", "14", "12", "14", "13"], "time": [809, 1358, 12667, 14538, 16908, 16925]}, "edge": {"target": [], "time": []}}}, "displayed_time": "15.23", "trialTime": 18759, "trial_type": "mouselab-mdp", "trial_index": 39, "time_elapsed": 912152, "internal_node_id": "0.0-4.0-1.0-30.0"}}, {"uniqueid": "w62159434:a24063364", "current_trial": 40, "dateTime": 1691073910183, "trialdata": {"revealed_states": [], "clicked_states": [], "num_clicks_accrued": [0, 0, 0, 0, 0, 0, 0, 0, 0, 0, 0, 0, 0], "stateRewards": ["", 2, 3, 3, 10, 19, -21, 6, 9, 54, 68, 16, 2, 2, -6, -8, 40, -2, -75, -2, -42, 55, 59, -1, 2, 4, -14, 11, -34, -30, -6, 61, -53, 13], "withholdReward": false, "trial_id": "mdp_trial_32", "block": "test", "trialIndex": 33, "score": 30, "costs": 0, "simulationMode": [null, null, null, null, null], "rewards": [2, 2, -6, -8, 40], "path": ["0", "0", "12", "13", "14", "15", "16"], "rt": [978, 131, 147, 576, 319], "actions": ["right", "right", "right", "up", "up"], "actionTimes": [2680, 3328, 3984, 5056, 5889], "queries": {"click": {"state": {"target": [], "time": []}, "edge": {"target": [], "time": []}}, "mouseover": {"state": {"target": [], "time": []}, "edge": {"target": [], "time": []}}, "mouseout": {"state": {"target": ["0", "0", "1"], "time": [930, 2053, 11340]}, "edge": {"target": [], "time": []}}}, "displayed_time": "15.71", "trialTime": 17520, "trial_type": "mouselab-mdp", "trial_index": 40, "time_elapsed": 930401, "internal_node_id": "0.0-4.0-1.0-31.0"}}, {"uniqueid": "w62159434:a24063364", "current_trial": 41, "dateTime": 1691073927807, "trialdata": {"revealed_states": [], "clicked_states": [], "num_clicks_accrued": [0, 0, 0, 0, 0, 0, 0, 0, 0, 0, 0, 0, 0], "stateRewards": ["", 2, -3, 5, -14, -63, -9, -24, -11, -54, -43, 68, 2, -2, -4, 7, -64, 30, 47, 12, -74, 11, 86, 1, -3, 3, 10, -71, -42, -52, -1, -29, -16, 69], "withholdReward": false, "trial_id": "mdp_trial_33", "block": "test", "trialIndex": 34, "score": 19, "costs": 0, "simulationMode": [null, null, null, null, null], "rewards": [2, -2, -4, 12, 11], "path": ["0", "0", "12", "13", "14", "19", "21"], "rt": [466, 128, 112, 12, 69], "actions": ["right", "right", "right", "down", "down"], "actionTimes": [2032, 2683, 3307, 3850, 4440], "queries": {"click": {"state": {"target": [], "time": []}, "edge": {"target": [], "time": []}}, "mouseover": {"state": {"target": ["19"], "time": [1757]}, "edge": {"target": [], "time": []}}, "mouseout": {"state": {"target": ["0", "19", "17"], "time": [921, 1775, 16425]}, "edge": {"target": [], "time": []}}}, "displayed_time": "15.57", "trialTime": 16888, "trial_type": "mouselab-mdp", "trial_index": 41, "time_elapsed": 948024, "internal_node_id": "0.0-4.0-1.0-32.0"}}, {"uniqueid": "w62159434:a24063364", "current_trial": 42, "dateTime": 1691073958716, "trialdata": {"revealed_states": [], "clicked_states": [], "num_clicks_accrued": [0, 0, 0, 0, 0, 0, 0, 0, 0, 0, 0, 0, 0], "stateRewards": ["", -1, -2, -1, -10, -57, 73, -72, -16, 75, -14, -46, -2, -3, -7, -1, -61, -60, 76, -4, 50, 4, 14, 2, 2, -7, 12, -65, -32, 15, -8, -76, -25, -61], "withholdReward": false, "trial_id": "mdp_trial_34", "block": "test", "trialIndex": 35, "score": -36, "costs": 0, "simulationMode": [null, null, null, null, null], "rewards": [2, 2, -7, -8, -25], "path": ["0", "0", "23", "24", "25", "30", "32"], "rt": [472, 39, 24, 433, 442], "actions": ["left", "left", "left", "down", "down"], "actionTimes": [1819, 2395, 3114, 4075, 5011], "queries": {"click": {"state": {"target": [], "time": []}, "edge": {"target": [], "time": []}}, "mouseover": {"state": {"target": ["22"], "time": [1381]}, "edge": {"target": [], "time": []}}, "mouseout": {"state": {"target": ["13", "12", "0", "22", "19", "0", "21", "14", "4", "11", "1", "0"], "time": [337, 462, 1372, 4797, 5242, 19411, 24440, 24454, 24515, 25066, 25454, 26740]}, "edge": {"target": [], "time": []}}}, "displayed_time": "15.35", "trialTime": 30072, "trial_type": "mouselab-mdp", "trial_index": 42, "time_elapsed": 978934, "internal_node_id": "0.0-4.0-1.0-33.0"}}, {"uniqueid": "w62159434:a24063364", "current_trial": 43, "dateTime": 1691073981056, "trialdata": {"revealed_states": [], "clicked_states": [], "num_clicks_accrued": [0, 0, 0, 0, 0, 0, 0, 0, 0, 0, 0, 0, 0], "stateRewards": ["", -1, -3, -7, -4, -85, -70, 79, 8, 84, -66, 42, 2, -2, -3, -16, -54, -66, 68, -3, 21, -14, 7, -2, -1, -3, -8, 75, 80, 86, -7, -84, 73, -16], "withholdReward": false, "trial_id": "mdp_trial_35", "block": "test", "trialIndex": 36, "score": 61, "costs": 0, "simulationMode": [null, null, null, null, null], "rewards": [-2, -1, -3, -8, 75], "path": ["0", "0", "23", "24", "25", "26", "27"], "rt": [1173, 20, 93, 584, 200], "actions": ["left", "left", "left", "up", "up"], "actionTimes": [7385, 7936, 8543, 9727, 10438], "queries": {"click": {"state": {"target": [], "time": []}, "edge": {"target": [], "time": []}}, "mouseover": {"state": {"target": ["1", "1"], "time": [6237, 6707]}, "edge": {"target": [], "time": []}}, "mouseout": {"state": {"target": ["12", "0", "1", "1", "12", "13"], "time": [4715, 6232, 6245, 6775, 12403, 12457]}, "edge": {"target": [], "time": []}}}, "displayed_time": "20.22", "trialTime": 21639, "trial_type": "mouselab-mdp", "trial_index": 43, "time_elapsed": 1001273, "internal_node_id": "0.0-4.0-1.0-34.0"}}, {"uniqueid": "w62159434:a24063364", "current_trial": 44, "dateTime": 1691073998901, "trialdata": {"revealed_states": [], "clicked_states": [], "num_clicks_accrued": [0, 0, 0, 0, 0, 0, 0, 0, 0, 0, 0, 0, 0], "stateRewards": ["", -1, 4, -5, 9, 29, -75, -42, -16, 24, -28, -41, 2, -3, 1, 10, 60, 47, 55, -1, -53, 22, -40, 2, -3, -6, 4, -26, 44, 54, 15, -76, 42, 14], "withholdReward": false, "trial_id": "mdp_trial_36", "block": "test", "trialIndex": 37, "score": 6, "costs": 0, "simulationMode": [null, null, null, null, null], "rewards": [-1, 4, -5, -16, 24], "path": ["0", "0", "1", "2", "3", "8", "9"], "rt": [935, 27, 31, 817, 209], "actions": ["up", "up", "up", "left", "up"], "actionTimes": [2991, 3543, 4114, 5454, 6172], "queries": {"click": {"state": {"target": [], "time": []}, "edge": {"target": [], "time": []}}, "mouseover": {"state": {"target": ["0"], "time": [2498]}, "edge": {"target": [], "time": []}}, "mouseout": {"state": {"target": ["0", "0", "0", "0"], "time": [1141, 2230, 2832, 7222]}, "edge": {"target": [], "time": []}}}, "displayed_time": "16.04", "trialTime": 17128, "trial_type": "mouselab-mdp", "trial_index": 44, "time_elapsed": 1019118, "internal_node_id": "0.0-4.0-1.0-35.0"}}, {"uniqueid": "w62159434:a24063364", "current_trial": 45, "dateTime": 1691074016409, "trialdata": {"revealed_states": [], "clicked_states": [], "num_clicks_accrued": [0, 0, 0, 0, 0, 0, 0, 0, 0, 0, 0, 0, 0], "stateRewards": ["", -2, -4, -2, 10, -8, -15, -47, 7, -84, 53, 5, -1, 2, -7, 3, 83, 31, 47, -1, 30, -8, 69, 2, -4, -1, 8, -7, 12, -8, -8, -13, 30, -84], "withholdReward": false, "trial_id": "mdp_trial_37", "block": "test", "trialIndex": 38, "score": -6, "costs": 0, "simulationMode": [null, null, null, null, null], "rewards": [-2, -4, -2, 10, -8], "path": ["0", "0", "1", "2", "3", "4", "5"], "rt": [1022, 12, 82, 9, 186], "actions": ["up", "up", "up", "right", "up"], "actionTimes": [2758, 3283, 3885, 4399, 5091], "queries": {"click": {"state": {"target": [], "time": []}, "edge": {"target": [], "time": []}}, "mouseover": {"state": {"target": ["12"], "time": [1853]}, "edge": {"target": [], "time": []}}, "mouseout": {"state": {"target": ["0", "12"], "time": [1784, 6700]}, "edge": {"target": [], "time": []}}}, "displayed_time": "15.74", "trialTime": 16636, "trial_type": "mouselab-mdp", "trial_index": 45, "time_elapsed": 1036626, "internal_node_id": "0.0-4.0-1.0-36.0"}}, {"uniqueid": "w62159434:a24063364", "current_trial": 46, "dateTime": 1691074034328, "trialdata": {"revealed_states": [], "clicked_states": [], "num_clicks_accrued": [0, 0, 0, 0, 0, 0, 0, 0, 0, 0, 0, 0, 0], "stateRewards": ["", 2, -1, -2, -5, -47, -57, -33, -11, 31, -18, -72, -2, 1, -4, -8, -46, -53, -50, 15, -85, -9, 39, -2, -2, 1, 14, -1, -8, 53, -12, -41, -74, 62], "withholdReward": false, "trial_id": "mdp_trial_38", "block": "test", "trialIndex": 39, "score": -59, "costs": 0, "simulationMode": [null, null, null, null, null], "rewards": [-2, 1, -4, -8, -46], "path": ["0", "0", "12", "13", "14", "15", "16"], "rt": [837, 90, 59, 275, 113], "actions": ["right", "right", "right", "up", "up"], "actionTimes": [1913, 2505, 3076, 3875, 4505], "queries": {"click": {"state": {"target": [], "time": []}, "edge": {"target": [], "time": []}}, "mouseover": {"state": {"target": [], "time": []}, "edge": {"target": [], "time": []}}, "mouseout": {"state": {"target": ["0", "12"], "time": [1368, 7432]}, "edge": {"target": [], "time": []}}}, "displayed_time": "15.08", "trialTime": 17041, "trial_type": "mouselab-mdp", "trial_index": 46, "time_elapsed": 1054545, "internal_node_id": "0.0-4.0-1.0-37.0"}}, {"uniqueid": "w62159434:a24063364", "current_trial": 47, "dateTime": 1691074054880, "trialdata": {"revealed_states": [], "clicked_states": [], "num_clicks_accrued": [0, 0, 0, 0, 0, 0, 0, 0, 0, 0, 0, 0, 0], "stateRewards": ["", 1, 2, 3, 16, 63, -25, 16, -4, -14, 82, -66, -1, -3, -3, -11, -14, 19, 46, 3, -34, -82, 66, -2, -3, 4, -5, -63, 77, -37, -1, -45, -41, 84], "withholdReward": false, "trial_id": "mdp_trial_39", "block": "test", "trialIndex": 40, "score": -32, "costs": 0, "simulationMode": [null, null, null, null, null], "rewards": [-1, -3, -3, -11, -14], "path": ["0", "0", "12", "13", "14", "15", "16"], "rt": [685, 90, 97, 140, 1006], "actions": ["right", "right", "right", "up", "up"], "actionTimes": [2053, 2653, 3253, 3909, 5413], "queries": {"click": {"state": {"target": [], "time": []}, "edge": {"target": [], "time": []}}, "mouseover": {"state": {"target": [], "time": []}, "edge": {"target": [], "time": []}}, "mouseout": {"state": {"target": ["12", "15"], "time": [624, 16949]}, "edge": {"target": [], "time": []}}}, "displayed_time": "15.38", "trialTime": 19709, "trial_type": "mouselab-mdp", "trial_index": 47, "time_elapsed": 1075097, "internal_node_id": "0.0-4.0-1.0-38.0"}}, {"uniqueid": "w62159434:a24063364", "current_trial": 48, "dateTime": 1691074073384, "trialdata": {"revealed_states": [], "clicked_states": [], "num_clicks_accrued": [0, 0, 0, 0, 0, 0, 0, 0, 0, 0, 0, 0, 0], "stateRewards": ["", 1, -1, -7, -7, -22, 15, -13, 13, 26, -32, 38, -1, 1, -7, -4, 16, -62, 86, 12, -54, 56, 64, -2, -1, 6, 14, -57, 37, 62, -6, -25, 50, -70], "withholdReward": false, "trial_id": "mdp_trial_40", "block": "test", "trialIndex": 41, "score": -40, "costs": 0, "simulationMode": [null, null, null, null, null], "rewards": [-2, -1, 6, 14, -57], "path": ["0", "0", "23", "24", "25", "26", "27"], "rt": [1316, 243, 904, 224, 742], "actions": ["left", "left", "left", "up", "up"], "actionTimes": [3252, 4004, 5422, 6170, 7413], "queries": {"click": {"state": {"target": [], "time": []}, "edge": {"target": [], "time": []}}, "mouseover": {"state": {"target": ["12", "13"], "time": [1960, 2183]}, "edge": {"target": [], "time": []}}, "mouseout": {"state": {"target": ["15", "13", "0", "12", "13"], "time": [694, 746, 1956, 2099, 8887]}, "edge": {"target": [], "time": []}}}, "displayed_time": "15.94", "trialTime": 17748, "trial_type": "mouselab-mdp", "trial_index": 48, "time_elapsed": 1093601, "internal_node_id": "0.0-4.0-1.0-39.0"}}, {"uniqueid": "w62159434:a24063364", "current_trial": 49, "dateTime": 1691074109536, "trialdata": {"rt": 36148, "response": {"Q0": "$-88 to $88", "Q1": "$-16 to $16", "Q2": "$-32 to $32", "Q3": "The cost for clicking on nodes varied between nodes.", "Q4": "Neither motivated nor unmotivated"}, "question_order": [0, 1, 2, 3, 4], "trial_id": "final_quiz_control", "trial_type": "survey-multi-choice", "trial_index": 49, "time_elapsed": 1129753, "internal_node_id": "0.0-4.0-2.0"}}, {"uniqueid": "w62159434:a24063364", "current_trial": 50, "dateTime": 1691074149679, "trialdata": {"rt": 40136, "response": {"Q0": "Go clockwise arounf", "Q1": "No", "Q2": "No"}, "trial_id": "self_report_control", "trial_type": "survey-text", "trial_index": 50, "time_elapsed": 1169897, "internal_node_id": "0.0-4.0-3.0"}}, {"uniqueid": "w62159434:a24063364", "current_trial": 51, "dateTime": 1691074171431, "trialdata": {"rt": 21749, "response": {"gender": "male", "age": "56", "colorblind": "0", "effort": "2"}, "trial_type": "survey-html-form", "trial_index": 51, "time_elapsed": 1191649, "internal_node_id": "0.0-4.0-4.0"}}, {"uniqueid": "w62159434:a24063364", "current_trial": 52, "dateTime": 1691074196864, "trialdata": {"rt": 25426, "response": {"Q0": "No", "Q1": "Yes", "Q2": ""}, "trial_type": "survey-text", "trial_index": 52, "time_elapsed": 1217082, "internal_node_id": "0.0-4.0-5.0"}}, {"uniqueid": "w62159434:a24063364", "current_trial": 53, "dateTime": 1691074204044, "trialdata": {"rt": 7174, "stimulus": "Press 'Finish HIT' in order to reach the completion code. Once the data has been saved, you will receive the code either in this window or in the original browser window where you started the experiment.\n", "response": 0, "trial_type": "html-button-response", "trial_index": 53, "time_elapsed": 1224261, "internal_node_id": "0.0-5.0"}}, {"uniqueid": "w62159434:a24063364", "current_trial": 54, "dateTime": 1691074205048, "trialdata": {"success": true, "trial_type": "fullscreen", "trial_index": 54, "time_elapsed": 1225266, "internal_node_id": "0.0-6.0"}}], "questiondata": {"params": {"CODE": "C6DMOQA6", "MIN_TIME": 14, "inspectCost": 1, "startTime": "Thu Aug 03 2023 16:29:38 GMT+0200 (South Africa Standard Time)", "bonusRate": 0.002, "variance": "1_2_4_8_44", "branching": "31123"}, "final_score": 298}, "eventdata": [{"eventtype": "initialized", "value": null, "timestamp": 1691072977555, "interval": 0}, {"eventtype": "window_resize", "value": [1680, 983], "timestamp": 1691072977555, "interval": 0}, {"eventtype": "window_resize", "value": [1680, 983], "timestamp": 1691072978000, "interval": 445}, {"eventtype": "window_resize", "value": [1680, 1050], "timestamp": 1691072983240, "interval": 5240}, {"eventtype": "focus", "value": "off", "timestamp": 1691072986330, "interval": 3090}, {"eventtype": "focus", "value": "on", "timestamp": 1691073006440, "interval": 20110}, {"eventtype": "focus", "value": "off", "timestamp": 1691073518736, "interval": 512296}, {"eventtype": "focus", "value": "on", "timestamp": 1691073526213, "interval": 7477}, {"eventtype": "focus", "value": "off", "timestamp": 1691073882401, "interval": 356188}, {"eventtype": "focus", "value": "on", "timestamp": 1691073890560, "interval": 8159}, {"eventtype": "focus", "value": "off", "timestamp": 1691073937217, "interval": 46657}, {"eventtype": "focus", "value": "on", "timestamp": 1691073945522, "interval": 8305}, {"eventtype": "focus", "value": "off", "timestamp": 1691073959580, "interval": 14058}, {"eventtype": "focus", "value": "on", "timestamp": 1691073962210, "interval": 2630}, {"eventtype": "focus", "value": "off", "timestamp": 1691073973159, "interval": 10949}, {"eventtype": "focus", "value": "on", "timestamp": 1691073978568, "interval": 5409}, {"eventtype": "window_resize", "value": [1680, 983], "timestamp": 1691074204265, "interval": 225697}], "useragent": "Mozilla/5.0 (X11; Linux x86_64) AppleWebKit/537.36 (KHTML, like Gecko) Chrome/115.0.0.0 Safari/537.36", "mode": "live", "id": "w62159434:a24063364", "status": "user data saved", "Beginhit": "2023-08-03 14:29:35.122849", "Beginexp": "2023-08-03 14:29:44.164171", "Endhit": "2023-08-03 14:50:06.157887", "psiturkStatus": 3, "browser": "<redacted>", "platform": "linux", "language": "en-GB", "excludeReason": "noeffort"}