{"condition": 1, "counterbalance": 0, "assignmentId": "a13143526", "workerId": "w70440515", "hitId": "h91433046", "currenttrial": 56, "bonus": 0, "data": [{"uniqueid": "w70440515:a13143526", "current_trial": 0, "dateTime": 1693485945355, "trialdata": {"success": true, "trial_type": "fullscreen", "trial_index": 0, "time_elapsed": 4194, "internal_node_id": "0.0-0.0"}}, {"uniqueid": "w70440515:a13143526", "current_trial": 1, "dateTime": 1693485963269, "trialdata": {"view_history": [{"page_index": 0, "viewing_time": 17911}], "rt": 17911, "trial_id": "exp_instructions_misaligned", "trial_type": "instructions", "trial_index": 1, "time_elapsed": 22108, "internal_node_id": "0.0-1.0"}}, {"uniqueid": "w70440515:a13143526", "current_trial": 2, "dateTime": 1693486020990, "trialdata": {"view_history": [{"page_index": 0, "viewing_time": 1915}, {"page_index": 1, "viewing_time": 6982}, {"page_index": 2, "viewing_time": 1888}, {"page_index": 3, "viewing_time": 46936}], "rt": 57720, "trial_id": "mouselab_instructions_1_misaligned", "trial_type": "instructions", "trial_index": 2, "time_elapsed": 79829, "internal_node_id": "0.0-2.0-1.0"}}, {"uniqueid": "w70440515:a13143526", "current_trial": 3, "dateTime": 1693486038587, "trialdata": {"revealed_states": [], "clicked_states": ["27"], "num_clicks_accrued": [0, 0, 0, 0, 0, 0, 0, 0, 0, 0, 0, 0, 0], "stateRewards": ["", -10, -10, -10, 10, 10, 10, -10, -10, 10, 10, 10, 10, 10, 10, -10, 10, -10, 10, 10, -10, -10, 10, -10, -10, 10, 10, 10, -10, -10, -10, -10, -10, -10], "withholdReward": false, "trial_id": "practice_1", "block": "test", "trialIndex": 0, "score": 13, "costs": -0.5, "simulationMode": [null, null, null, null, null], "rewards": [-10, -10, 10, 10, 10], "path": ["0", "0", "23", "24", "25", "26", "27"], "rt": [3133, 1530, 79, 64, 26], "actions": ["left", "left", "left", "up", "up"], "actionTimes": [4092, 6124, 6692, 7276, 7804], "queries": {"click": {"state": {"target": ["27"], "time": [2175]}, "edge": {"target": [], "time": []}}, "mouseover": {"state": {"target": ["23", "26", "27"], "time": [1493, 1743, 1926]}, "edge": {"target": [], "time": []}}, "mouseout": {"state": {"target": ["0", "23", "26", "27", "27", "7", "4", "7", "1", "10", "28", "22", "19", "0"], "time": [1477, 1510, 1860, 2265, 2477, 10520, 12311, 12361, 12627, 12711, 12944, 14078, 14095, 16627]}, "edge": {"target": [], "time": []}}}, "displayed_time": "8.29", "trialTime": 17324, "trial_type": "mouselab-mdp", "trial_index": 3, "time_elapsed": 97425, "internal_node_id": "0.0-2.0-2.0-0.0"}}, {"uniqueid": "w70440515:a13143526", "current_trial": 4, "dateTime": 1693486056882, "trialdata": {"revealed_states": [], "clicked_states": ["9"], "num_clicks_accrued": [0, 0, 0, 0, 0, 0, 0, 0, 0, 0, 0, 0, 0], "stateRewards": ["", -10, 10, 10, 10, 10, 10, -10, 10, 10, 10, -10, -10, 10, 10, 10, 10, -10, -10, 10, -10, -10, -10, -10, 10, -10, -10, -10, -10, 10, -10, 10, 10, -10], "withholdReward": false, "trial_id": "practice_2", "block": "test", "trialIndex": 1, "score": 33, "costs": -0.5, "simulationMode": [null, null, null, null, null], "rewards": [-10, 10, 10, 10, 10], "path": ["0", "0", "1", "2", "3", "8", "9"], "rt": [4535, 765, 58, 12, 71], "actions": ["up", "up", "up", "left", "up"], "actionTimes": [5744, 7008, 7568, 8071, 8647], "queries": {"click": {"state": {"target": ["9"], "time": [2326]}, "edge": {"target": [], "time": []}}, "mouseover": {"state": {"target": ["2", "3", "9", "3"], "time": [1759, 1959, 2192, 2642]}, "edge": {"target": [], "time": []}}, "mouseout": {"state": {"target": ["0", "2", "3", "9", "9", "3", "7", "16", "19"], "time": [1058, 1909, 2042, 2421, 2608, 2658, 9709, 9792, 17426]}, "edge": {"target": [], "time": []}}}, "displayed_time": "9.14", "trialTime": 18184, "trial_type": "mouselab-mdp", "trial_index": 4, "time_elapsed": 115721, "internal_node_id": "0.0-2.0-2.0-1.0"}}, {"uniqueid": "w70440515:a13143526", "current_trial": 5, "dateTime": 1693486121611, "trialdata": {"view_history": [{"page_index": 0, "viewing_time": 63785}, {"page_index": 1, "viewing_time": 942}], "rt": 64727, "trial_id": "mouselab_instructions_2_misaligned", "trial_type": "instructions", "trial_index": 5, "time_elapsed": 180450, "internal_node_id": "0.0-2.0-3.0"}}, {"uniqueid": "w70440515:a13143526", "current_trial": 6, "dateTime": 1693486135130, "trialdata": {"rt": 13516, "response": {"Q0": "The cost for clicking on nodes may vary between nodes.", "Q1": "The better I perform the higher my bonus will be.", "Q2": "No, the amount of cash at each node of the web may be different each time.", "Q3": "To get the highest total score.", "Q4": "Only before moving the spider.", "Q5": "3 seconds"}, "question_order": [0, 1, 2, 3, 4, 5], "correct": {"Q0": "The cost for clicking on nodes may vary between nodes.", "Q1": "The better I perform the higher my bonus will be.", "Q2": "No, the amount of cash at each node of the web may be different each time.", "Q3": "To get the highest total score.", "Q4": "Only before moving the spider.", "Q5": "3 seconds"}, "trial_id": "mouselab_quiz_misaligned", "trial_type": "survey-multi-choice", "trial_index": 6, "time_elapsed": 193969, "internal_node_id": "0.0-2.0-4.0"}}, {"uniqueid": "w70440515:a13143526", "current_trial": 7, "dateTime": 1693486161103, "trialdata": {"rt": 25969, "response": {"Q0": "No"}, "question_order": [0], "trial_id": "repeat_check", "trial_type": "survey-multi-choice", "trial_index": 7, "time_elapsed": 219942, "internal_node_id": "0.0-4.0-0.0"}}, {"uniqueid": "w70440515:a13143526", "current_trial": 8, "dateTime": 1693486173065, "trialdata": {"rt": 11959, "stimulus": "\n<h1> Get ready to start the game! </h1>\n\nThank you for reading the instructions. Get ready start with the 40 rounds of this game.\n<br><br>\nIf you need to take a break, feel free to take one after the end of a round, before continuing to the next one.\n<br><br>\nRemember, the more money the spider gets, the bigger your bonus will be!\n<br><br>\n<div style='text-align: center;'>Press <code>space</code> to begin.</div>\n\n<br><br>\n(If, at any point, the <code>space</code> key does not take you to the next page, click once on the text and try again.)", "response": " ", "trial_id": "mdp_ready", "trial_type": "html-keyboard-response", "trial_index": 8, "time_elapsed": 231904, "internal_node_id": "0.0-6.0-0.0"}}, {"uniqueid": "w70440515:a13143526", "current_trial": 9, "dateTime": 1693486191793, "trialdata": {"revealed_states": [], "clicked_states": ["9", "5", "6"], "num_clicks_accrued": [0, 0, 0, 0, 0, 0, 0, 0, 0, 0, 0, 0, 0], "stateRewards": ["", 2, -3, -2, 14, -4, 85, 46, 15, -28, 41, 31, -1, -1, -1, 5, 62, 79, 57, 12, -73, -64, 86, -1, 1, -3, -5, 68, 11, -32, 8, -80, -21, -56], "withholdReward": false, "trial_id": "mdp_trial_1", "block": "test", "trialIndex": 2, "score": 89.55, "costs": -6.449999999999999, "simulationMode": [null, null, null, null, null], "rewards": [2, -3, -2, 14, 85], "path": ["0", "0", "1", "2", "3", "4", "6"], "rt": [11354, 73, 106, 18, 22], "actions": ["up", "up", "up", "right", "right"], "actionTimes": [12914, 13489, 14089, 14617, 15137], "queries": {"click": {"state": {"target": ["9", "5", "6"], "time": [2589, 6231, 9356]}, "edge": {"target": [], "time": []}}, "mouseover": {"state": {"target": ["9", "3", "4", "5", "6"], "time": [2457, 3348, 5998, 6131, 6648]}, "edge": {"target": [], "time": []}}, "mouseout": {"state": {"target": ["2", "1", "9", "3", "4", "5", "6", "16", "15"], "time": [1114, 1247, 3148, 3731, 6031, 6564, 10182, 16365, 17249]}, "edge": {"target": [], "time": []}}}, "displayed_time": "15.63", "trialTime": 18609, "trial_type": "mouselab-mdp", "trial_index": 9, "time_elapsed": 250632, "internal_node_id": "0.0-6.0-1.0-0.0"}}, {"uniqueid": "w70440515:a13143526", "current_trial": 10, "dateTime": 1693486224273, "trialdata": {"revealed_states": [], "clicked_states": ["27", "28", "29", "33", "31", "32", "17"], "num_clicks_accrued": [0, 0, 0, 0, 0, 0, 0, 0, 0, 0, 0, 0, 0], "stateRewards": ["", -1, -2, 4, 9, 10, -75, 39, 16, -43, 88, -19, -1, 1, 2, 4, -31, 10, 73, 12, 41, -64, -81, -2, 2, -6, 1, -81, -1, -26, 3, -59, -3, -20], "withholdReward": false, "trial_id": "mdp_trial_2", "block": "test", "trialIndex": 3, "score": 0.9499999999999993, "costs": -15.05, "simulationMode": [null, null, null, null, null], "rewards": [-1, 1, 2, 4, 10], "path": ["0", "0", "12", "13", "14", "15", "17"], "rt": [26540, 107, 19, 118, 30], "actions": ["right", "right", "right", "up", "right"], "actionTimes": [28465, 29065, 29577, 30209, 30737], "queries": {"click": {"state": {"target": ["27", "28", "29", "33", "31", "32", "17"], "time": [4176, 7683, 11261, 14370, 17497, 21199, 24952]}, "edge": {"target": [], "time": []}}, "mouseover": {"state": {"target": ["23", "24", "26", "27", "26", "28", "28", "26", "29", "25", "30", "33", "30", "31", "32", "12", "13", "14", "17", "16"], "time": [2638, 2671, 3738, 4021, 5538, 5871, 7589, 8855, 11181, 12222, 12455, 12689, 14674, 14972, 21056, 21923, 21990, 24389, 24891, 25989]}, "edge": {"target": [], "time": []}}, "mouseout": {"state": {"target": ["14", "22", "0", "23", "24", "26", "27", "26", "28", "28", "28", "26", "29", "29", "25", "30", "33", "30", "31", "32", "12", "13", "14", "17"], "time": [771, 821, 2621, 2655, 2704, 3771, 5471, 5555, 7372, 7778, 8772, 8922, 11356, 12172, 12339, 12572, 14673, 14705, 21006, 21839, 21940, 22190, 24439, 25856]}, "edge": {"target": [], "time": []}}}, "displayed_time": "31.24", "trialTime": 32345, "trial_type": "mouselab-mdp", "trial_index": 10, "time_elapsed": 283111, "internal_node_id": "0.0-6.0-1.0-1.0"}}, {"uniqueid": "w70440515:a13143526", "current_trial": 11, "dateTime": 1693486241200, "trialdata": {"revealed_states": [], "clicked_states": ["9"], "num_clicks_accrued": [0, 0, 0, 0, 0, 0, 0, 0, 0, 0, 0, 0, 0], "stateRewards": ["", -2, -3, 8, -4, -30, 31, 69, 9, 66, 87, 64, -2, 2, 8, 5, 47, 16, -39, -8, -54, 51, -19, 1, -2, -2, -11, -25, -26, 43, -9, 19, -84, 86], "withholdReward": false, "trial_id": "mdp_trial_3", "block": "test", "trialIndex": 4, "score": 75.85, "costs": -2.15, "simulationMode": [null, null, null, null, null], "rewards": [-2, -3, 8, 9, 66], "path": ["0", "0", "1", "2", "3", "8", "9"], "rt": [4288, 52, 29, 136, 71], "actions": ["up", "up", "up", "left", "up"], "actionTimes": [5570, 6113, 6673, 7296, 7881], "queries": {"click": {"state": {"target": ["9"], "time": [1940]}, "edge": {"target": [], "time": []}}, "mouseover": {"state": {"target": ["1", "2", "3", "9", "5"], "time": [1525, 1559, 1609, 1876, 2309]}, "edge": {"target": [], "time": []}}, "mouseout": {"state": {"target": ["16", "1", "0", "1", "2", "3", "9", "5", "4", "7", "21", "20", "18"], "time": [708, 975, 1476, 1542, 1592, 1659, 2177, 8555, 8592, 8609, 10959, 10976, 16210]}, "edge": {"target": [], "time": []}}}, "displayed_time": "15.28", "trialTime": 16809, "trial_type": "mouselab-mdp", "trial_index": 11, "time_elapsed": 300039, "internal_node_id": "0.0-6.0-1.0-2.0"}}, {"uniqueid": "w70440515:a13143526", "current_trial": 12, "dateTime": 1693486257328, "trialdata": {"revealed_states": [], "clicked_states": ["9", "5"], "num_clicks_accrued": [0, 0, 0, 0, 0, 0, 0, 0, 0, 0, 0, 0, 0], "stateRewards": ["", -2, -3, 1, -14, 48, -49, 67, -1, -35, -48, 3, -2, 1, -4, -5, 86, -84, 39, 1, 48, 41, -42, -1, -4, 2, -7, 18, -86, 17, 7, -9, 57, -69], "withholdReward": false, "trial_id": "mdp_trial_4", "block": "test", "trialIndex": 5, "score": 25.7, "costs": -4.3, "simulationMode": [null, null, null, null, null], "rewards": [-2, -3, 1, -14, 48], "path": ["0", "0", "1", "2", "3", "4", "5"], "rt": [7676, 42, 69, 46, 40], "actions": ["up", "up", "up", "right", "up"], "actionTimes": [8416, 8967, 9543, 10087, 10631], "queries": {"click": {"state": {"target": ["9", "5"], "time": [1464, 4740]}, "edge": {"target": [], "time": []}}, "mouseover": {"state": {"target": ["1", "2", "8", "9", "15", "18", "7", "4", "5", "6"], "time": [1041, 1074, 1257, 1357, 2392, 2410, 3457, 4476, 4607, 7307]}, "edge": {"target": [], "time": []}}, "mouseout": {"state": {"target": ["12", "1", "2", "8", "9", "15", "18", "7", "4", "5", "6", "22"], "time": [440, 1057, 1124, 1308, 1674, 2409, 2476, 4423, 4557, 6507, 7941, 15159]}, "edge": {"target": [], "time": []}}}, "displayed_time": "14.74", "trialTime": 15984, "trial_type": "mouselab-mdp", "trial_index": 12, "time_elapsed": 316167, "internal_node_id": "0.0-6.0-1.0-3.0"}}, {"uniqueid": "w70440515:a13143526", "current_trial": 13, "dateTime": 1693486278664, "trialdata": {"revealed_states": [], "clicked_states": ["9", "5", "6", "16", "17"], "num_clicks_accrued": [0, 0, 0, 0, 0, 0, 0, 0, 0, 0, 0, 0, 0], "stateRewards": ["", 1, -2, 4, 7, -43, -83, -60, -5, -86, -80, 83, -1, -2, 6, 11, -15, 21, 13, 9, 29, -49, 11, -1, 4, -6, -11, 87, 40, 63, -8, -39, -11, 62], "withholdReward": false, "trial_id": "mdp_trial_5", "block": "test", "trialIndex": 6, "score": 24.25, "costs": -10.75, "simulationMode": [null, null, null, null, null], "rewards": [-1, -2, 6, 11, 21], "path": ["0", "0", "12", "13", "14", "15", "17"], "rt": [16911, 22, 34, 116, 43], "actions": ["right", "right", "right", "up", "right"], "actionTimes": [18146, 18681, 19209, 19841, 20385], "queries": {"click": {"state": {"target": ["9", "5", "6", "16", "17"], "time": [1906, 5008, 8139, 11245, 14351]}, "edge": {"target": [], "time": []}}, "mouseover": {"state": {"target": ["1", "2", "3", "9", "5", "6", "16", "17", "20", "20", "20", "14", "18"], "time": [1424, 1457, 1540, 1757, 3324, 7024, 8374, 11757, 14874, 15092, 15842, 17774, 17807]}, "edge": {"target": [], "time": []}}, "mouseout": {"state": {"target": ["19", "0", "1", "2", "3", "9", "5", "5", "6", "16", "17", "20", "20", "20", "14", "18"], "time": [723, 1090, 1440, 1474, 1690, 3158, 5097, 5357, 8324, 11457, 14608, 14907, 15324, 17757, 17791, 17841]}, "edge": {"target": [], "time": []}}}, "displayed_time": "20.91", "trialTime": 21201, "trial_type": "mouselab-mdp", "trial_index": 13, "time_elapsed": 337503, "internal_node_id": "0.0-6.0-1.0-4.0"}}, {"uniqueid": "w70440515:a13143526", "current_trial": 14, "dateTime": 1693486298744, "trialdata": {"revealed_states": [], "clicked_states": ["29", "27", "28", "31"], "num_clicks_accrued": [0, 0, 0, 0, 0, 0, 0, 0, 0, 0, 0, 0, 0], "stateRewards": ["", 2, -1, -1, -9, -81, -30, 55, -6, 78, 25, 62, 2, 4, -1, 9, -85, 1, -19, 1, -60, 12, -34, 1, 4, -1, -13, -24, -16, -83, -8, 16, 43, 9], "withholdReward": false, "trial_id": "mdp_trial_6", "block": "test", "trialIndex": 7, "score": 3.4000000000000004, "costs": -8.6, "simulationMode": [null, null, null, null, null], "rewards": [1, 4, -1, -8, 16], "path": ["0", "0", "23", "24", "25", "30", "31"], "rt": [14801, 30, 31, 50, 28], "actions": ["left", "left", "left", "down", "right"], "actionTimes": [16225, 16760, 17296, 17864, 18392], "queries": {"click": {"state": {"target": ["29", "27", "28", "31"], "time": [2129, 5559, 8692, 12183]}, "edge": {"target": [], "time": []}}, "mouseover": {"state": {"target": ["28", "26", "26", "29", "27", "27", "28", "12", "13", "14", "20", "19", "22", "12", "23", "24", "24", "31", "31", "32"], "time": [1664, 1713, 1831, 1947, 3413, 5463, 7764, 10014, 10031, 10048, 10398, 10415, 10431, 10464, 11014, 11330, 11763, 11897, 12179, 14781]}, "edge": {"target": [], "time": []}}, "mouseout": {"state": {"target": ["7", "2", "10", "23", "0", "28", "26", "26", "29", "27", "27", "28", "12", "13", "14", "20", "19", "22", "12", "23", "24", "24", "31", "31", "32"], "time": [762, 779, 796, 1030, 1567, 1680, 1747, 1930, 3080, 5064, 7380, 8881, 10030, 10047, 10063, 10414, 10430, 10447, 10797, 11314, 11547, 11863, 11914, 12814, 15602]}, "edge": {"target": [], "time": []}}}, "displayed_time": "18.88", "trialTime": 19953, "trial_type": "mouselab-mdp", "trial_index": 14, "time_elapsed": 357582, "internal_node_id": "0.0-6.0-1.0-5.0"}}, {"uniqueid": "w70440515:a13143526", "current_trial": 15, "dateTime": 1693486314791, "trialdata": {"revealed_states": [], "clicked_states": ["9", "5", "6"], "num_clicks_accrued": [0, 0, 0, 0, 0, 0, 0, 0, 0, 0, 0, 0, 0], "stateRewards": ["", 1, -4, -6, 11, -20, 8, -30, 1, -38, 88, 42, 2, 3, 5, -12, -8, -74, 30, -8, 67, -19, 42, 2, -1, 4, 13, 50, -68, 2, -8, -15, 87, -46], "withholdReward": false, "trial_id": "mdp_trial_7", "block": "test", "trialIndex": 8, "score": 3.5500000000000007, "costs": -6.449999999999999, "simulationMode": [null, null, null, null, null], "rewards": [1, -4, -6, 11, 8], "path": ["0", "0", "1", "2", "3", "4", "6"], "rt": [11976, 44, 22, 9, 21], "actions": ["up", "up", "up", "right", "right"], "actionTimes": [12967, 13518, 14046, 14550, 15078], "queries": {"click": {"state": {"target": ["9", "5", "6"], "time": [2262, 5886, 9084]}, "edge": {"target": [], "time": []}}, "mouseover": {"state": {"target": ["1", "9", "14", "0", "7", "4", "5", "6", "6", "16"], "time": [1289, 2106, 3910, 5473, 5539, 5673, 5806, 6240, 6556, 11391]}, "edge": {"target": [], "time": []}}, "mouseout": {"state": {"target": ["0", "1", "9", "14", "0", "7", "4", "5", "5", "6", "6"], "time": [1256, 1306, 2506, 3926, 5490, 5574, 5756, 5985, 6223, 6289, 9273]}, "edge": {"target": [], "time": []}}}, "displayed_time": "15.59", "trialTime": 15926, "trial_type": "mouselab-mdp", "trial_index": 15, "time_elapsed": 373629, "internal_node_id": "0.0-6.0-1.0-6.0"}}, {"uniqueid": "w70440515:a13143526", "current_trial": 16, "dateTime": 1693486332967, "trialdata": {"revealed_states": [], "clicked_states": ["32"], "num_clicks_accrued": [0, 0, 0, 0, 0, 0, 0, 0, 0, 0, 0, 0, 0], "stateRewards": ["", -2, 3, 3, -14, 62, 36, 49, 16, 11, 17, -84, 2, -1, 6, 2, -82, -73, 49, -6, -87, 48, 50, -1, -2, -1, -16, -11, 37, -44, 4, 55, 73, -10], "withholdReward": false, "trial_id": "mdp_trial_8", "block": "test", "trialIndex": 9, "score": 70.85, "costs": -2.15, "simulationMode": [null, null, null, null, null], "rewards": [-1, -2, -1, 4, 73], "path": ["0", "0", "23", "24", "25", "30", "32"], "rt": [4600, 114, 40, 10, 5], "actions": ["left", "left", "left", "down", "down"], "actionTimes": [6156, 6772, 7348, 7868, 8380], "queries": {"click": {"state": {"target": ["32"], "time": [2613]}, "edge": {"target": [], "time": []}}, "mouseover": {"state": {"target": ["0", "23", "30", "32", "31", "0"], "time": [1858, 1907, 2140, 2507, 4891, 5840]}, "edge": {"target": [], "time": []}}, "mouseout": {"state": {"target": ["16", "15", "12", "0", "23", "30", "32", "31", "0", "22", "21"], "time": [990, 1023, 1123, 1874, 1924, 2158, 3040, 5774, 9126, 9174, 16742]}, "edge": {"target": [], "time": []}}}, "displayed_time": "15.56", "trialTime": 18052, "trial_type": "mouselab-mdp", "trial_index": 16, "time_elapsed": 391805, "internal_node_id": "0.0-6.0-1.0-7.0"}}, {"uniqueid": "w70440515:a13143526", "current_trial": 17, "dateTime": 1693486355776, "trialdata": {"revealed_states": [], "clicked_states": ["16"], "num_clicks_accrued": [0, 0, 0, 0, 0, 0, 0, 0, 0, 0, 0, 0, 0], "stateRewards": ["", 2, -3, 5, 11, -79, 54, 11, -9, -78, 33, 22, -2, -1, 2, 14, 43, 34, 1, 10, 49, -65, 39, -1, 1, -1, 3, -16, -2, 11, 2, 12, 48, -65], "withholdReward": false, "trial_id": "mdp_trial_9", "block": "test", "trialIndex": 10, "score": 53.85, "costs": -2.15, "simulationMode": [null, null, null, null, null], "rewards": [-2, -1, 2, 14, 43], "path": ["0", "0", "12", "13", "14", "15", "16"], "rt": [4413, 8, 180, 56, 98], "actions": ["right", "right", "right", "up", "up"], "actionTimes": [12103, 12614, 13302, 13846, 14454], "queries": {"click": {"state": {"target": ["16"], "time": [8554]}, "edge": {"target": [], "time": []}}, "mouseover": {"state": {"target": ["15", "16", "17"], "time": [8237, 8471, 9704]}, "edge": {"target": [], "time": []}}, "mouseout": {"state": {"target": ["19", "22", "22", "17", "18", "0", "15", "16", "17"], "time": [21, 1287, 1703, 7087, 7154, 7771, 8371, 9287, 11771]}, "edge": {"target": [], "time": []}}}, "displayed_time": "21.69", "trialTime": 22623, "trial_type": "mouselab-mdp", "trial_index": 17, "time_elapsed": 414615, "internal_node_id": "0.0-6.0-1.0-8.0"}}, {"uniqueid": "w70440515:a13143526", "current_trial": 18, "dateTime": 1693486371847, "trialdata": {"revealed_states": [], "clicked_states": ["32", "31"], "num_clicks_accrued": [0, 0, 0, 0, 0, 0, 0, 0, 0, 0, 0, 0, 0], "stateRewards": ["", -2, 2, 3, -7, 76, 63, 21, 15, 35, -8, -44, 1, 1, -2, -12, 23, 24, 76, -9, 46, 66, -49, -2, -1, 7, 12, 40, -71, -45, -6, 38, -49, 46], "withholdReward": false, "trial_id": "mdp_trial_10", "block": "test", "trialIndex": 11, "score": 31.7, "costs": -4.3, "simulationMode": [null, null, null, null, null], "rewards": [-2, -1, 7, -6, 38], "path": ["0", "0", "23", "24", "25", "30", "31"], "rt": [7525, 21, 25, 19, 2], "actions": ["left", "left", "left", "down", "right"], "actionTimes": [9173, 9708, 10229, 10740, 11240], "queries": {"click": {"state": {"target": ["32", "31"], "time": [2362, 5499]}, "edge": {"target": [], "time": []}}, "mouseover": {"state": {"target": ["23", "24", "30", "32", "31"], "time": [1969, 2042, 2120, 2219, 3486]}, "edge": {"target": [], "time": []}}, "mouseout": {"state": {"target": ["16", "18", "0", "23", "24", "30", "32", "32", "31"], "time": [1069, 1169, 1919, 1986, 2069, 2169, 2450, 2936, 8519]}, "edge": {"target": [], "time": []}}}, "displayed_time": "15.65", "trialTime": 15924, "trial_type": "mouselab-mdp", "trial_index": 18, "time_elapsed": 430686, "internal_node_id": "0.0-6.0-1.0-9.0"}}, {"uniqueid": "w70440515:a13143526", "current_trial": 19, "dateTime": 1693486399839, "trialdata": {"revealed_states": [], "clicked_states": ["33"], "num_clicks_accrued": [0, 0, 0, 0, 0, 0, 0, 0, 0, 0, 0, 0, 0], "stateRewards": ["", -1, 4, -5, 9, 29, -75, -42, -16, 24, -28, -41, 2, -3, 1, 10, 60, 47, 55, -1, -53, 22, -40, 2, -3, -6, 4, -26, 44, 54, 15, -76, 42, 14], "withholdReward": false, "trial_id": "mdp_trial_11", "block": "test", "trialIndex": 12, "score": 19.85, "costs": -2.15, "simulationMode": [null, null, null, null, null], "rewards": [2, -3, -6, 15, 14], "path": ["0", "0", "23", "24", "25", "30", "33"], "rt": [4584, 288, 113, 16, 476], "actions": ["left", "left", "left", "down", "left"], "actionTimes": [5816, 6607, 7215, 7719, 8711], "queries": {"click": {"state": {"target": ["33"], "time": [2187]}, "edge": {"target": [], "time": []}}, "mouseover": {"state": {"target": ["0", "33", "33", "30", "31", "31"], "time": [1384, 1768, 2134, 2501, 2817, 4484]}, "edge": {"target": [], "time": []}}, "mouseout": {"state": {"target": ["0", "0", "33", "33", "30", "31", "31", "23", "16", "19"], "time": [1050, 1417, 1801, 2484, 2535, 3884, 9318, 9351, 9451, 27020]}, "edge": {"target": [], "time": []}}}, "displayed_time": "15.23", "trialTime": 27847, "trial_type": "mouselab-mdp", "trial_index": 19, "time_elapsed": 458677, "internal_node_id": "0.0-6.0-1.0-10.0"}}, {"uniqueid": "w70440515:a13143526", "current_trial": 20, "dateTime": 1693486420246, "trialdata": {"revealed_states": [], "clicked_states": ["17"], "num_clicks_accrued": [0, 0, 0, 0, 0, 0, 0, 0, 0, 0, 0, 0, 0], "stateRewards": ["", -2, 1, 6, -2, -10, -78, -69, 14, -15, 7, -1, 1, -1, -2, 13, 77, 32, 87, 5, -74, 30, -26, 1, 3, 4, 12, 39, 54, -43, 2, 10, 23, 13], "withholdReward": false, "trial_id": "mdp_trial_12", "block": "test", "trialIndex": 13, "score": 40.85, "costs": -2.15, "simulationMode": [null, null, null, null, null], "rewards": [1, -1, -2, 13, 32], "path": ["0", "0", "12", "13", "14", "15", "17"], "rt": [4620, 114, 73, 60, 29], "actions": ["right", "right", "right", "up", "right"], "actionTimes": [7716, 8332, 8908, 9460, 9980], "queries": {"click": {"state": {"target": ["17"], "time": [4176]}, "edge": {"target": [], "time": []}}, "mouseover": {"state": {"target": ["12", "13", "14", "15", "17", "16"], "time": [3299, 3550, 3583, 3816, 4116, 5716]}, "edge": {"target": [], "time": []}}, "mouseout": {"state": {"target": ["12", "0", "12", "13", "14", "15", "17", "16"], "time": [2782, 2932, 3399, 3566, 3800, 3833, 4200, 11866]}, "edge": {"target": [], "time": []}}}, "displayed_time": "17.11", "trialTime": 20252, "trial_type": "mouselab-mdp", "trial_index": 20, "time_elapsed": 479085, "internal_node_id": "0.0-6.0-1.0-11.0"}}, {"uniqueid": "w70440515:a13143526", "current_trial": 21, "dateTime": 1693486453174, "trialdata": {"revealed_states": [], "clicked_states": ["32", "33", "29", "27", "28", "31", "13", "18", "16"], "num_clicks_accrued": [0, 0, 0, 0, 0, 0, 0, 0, 0, 0, 0, 0, 0], "stateRewards": ["", 1, 2, -3, -6, 50, -7, 7, -7, -80, 21, -1, 2, 2, 4, -1, 33, 84, 1, 14, -53, 81, 6, -2, -2, -3, -9, -87, -38, -59, -5, -74, -3, -71], "withholdReward": false, "trial_id": "mdp_trial_13", "block": "test", "trialIndex": 14, "score": 22.45, "costs": -17.55, "simulationMode": [null, null, null, null, null], "rewards": [2, 2, 4, -1, 33], "path": ["0", "0", "12", "13", "14", "15", "16"], "rt": [27806, 1, 84, 117, 28], "actions": ["right", "right", "right", "up", "up"], "actionTimes": [29676, 30172, 30771, 31387, 31915], "queries": {"click": {"state": {"target": ["32", "33", "29", "27", "28", "31", "13", "18", "16"], "time": [2537, 5975, 9111, 12286, 15427, 18589, 22271, 22924, 26195]}, "edge": {"target": [], "time": []}}, "mouseover": {"state": {"target": ["31", "32", "30", "33", "29", "29", "26", "27", "28", "28", "24", "31", "23", "0", "12", "13", "18", "15", "16", "17"], "time": [2135, 2452, 5735, 5935, 6385, 6701, 9503, 9902, 12619, 14569, 15735, 15935, 21769, 21819, 21886, 21937, 22819, 24686, 25403, 26586]}, "edge": {"target": [], "time": []}}, "mouseout": {"state": {"target": ["12", "0", "0", "31", "32", "30", "33", "29", "29", "26", "27", "28", "28", "24", "31", "23", "0", "12", "13", "18", "18", "15", "16"], "time": [1468, 1501, 2087, 2151, 2619, 5751, 6335, 6403, 9469, 9553, 12519, 14269, 15702, 15902, 18852, 21786, 21852, 21919, 22686, 22985, 23386, 24736, 26536]}, "edge": {"target": [], "time": []}}}, "displayed_time": "32.41", "trialTime": 32763, "trial_type": "mouselab-mdp", "trial_index": 21, "time_elapsed": 512013, "internal_node_id": "0.0-6.0-1.0-12.0"}}, {"uniqueid": "w70440515:a13143526", "current_trial": 22, "dateTime": 1693486474910, "trialdata": {"revealed_states": [], "clicked_states": ["21"], "num_clicks_accrued": [0, 0, 0, 0, 0, 0, 0, 0, 0, 0, 0, 0, 0], "stateRewards": ["", -1, -4, -1, -11, 43, 69, 39, 4, 17, -20, -82, -2, -1, 4, 8, -79, 24, -79, 11, 36, 64, 41, 2, 4, -1, 11, -79, -47, 75, -3, 63, -36, -19], "withholdReward": false, "trial_id": "mdp_trial_14", "block": "test", "trialIndex": 15, "score": 73.85, "costs": -2.15, "simulationMode": [null, null, null, null, null], "rewards": [-2, -1, 4, 11, 64], "path": ["0", "0", "12", "13", "14", "19", "21"], "rt": [4037, 137, 56, 57, 15], "actions": ["right", "right", "right", "down", "down"], "actionTimes": [5880, 6551, 7103, 7655, 8162], "queries": {"click": {"state": {"target": ["21"], "time": [2421]}, "edge": {"target": [], "time": []}}, "mouseover": {"state": {"target": ["21", "19", "14", "15", "16"], "time": [2295, 3863, 3912, 3962, 4729]}, "edge": {"target": [], "time": []}}, "mouseout": {"state": {"target": ["17", "15", "12", "0", "21", "19", "14", "15", "16"], "time": [1179, 1245, 1429, 1929, 2495, 3896, 3946, 4012, 9646]}, "edge": {"target": [], "time": []}}}, "displayed_time": "15.84", "trialTime": 21575, "trial_type": "mouselab-mdp", "trial_index": 22, "time_elapsed": 533749, "internal_node_id": "0.0-6.0-1.0-13.0"}}, {"uniqueid": "w70440515:a13143526", "current_trial": 23, "dateTime": 1693486502701, "trialdata": {"revealed_states": [], "clicked_states": ["9", "5", "6", "7", "10", "11"], "num_clicks_accrued": [0, 0, 0, 0, 0, 0, 0, 0, 0, 0, 0, 0, 0], "stateRewards": ["", -1, -3, 1, -4, -48, -63, -49, -2, -84, -19, 65, 2, -2, -2, -12, -4, 59, 9, 6, 75, 69, -13, -1, -3, -3, -2, -37, -68, -36, 13, 32, 18, -14], "withholdReward": false, "trial_id": "mdp_trial_15", "block": "test", "trialIndex": 16, "score": 47.1, "costs": -12.9, "simulationMode": [null, null, null, null, null], "rewards": [-1, -3, 1, -2, 65], "path": ["0", "0", "1", "2", "3", "8", "11"], "rt": [21863, 2, 42, 61, 31], "actions": ["up", "up", "up", "left", "left"], "actionTimes": [23961, 24451, 25025, 25577, 26113], "queries": {"click": {"state": {"target": ["9", "5", "6", "7", "10", "11"], "time": [2999, 7239, 10369, 13493, 17115, 20241]}, "edge": {"target": [], "time": []}}, "mouseover": {"state": {"target": ["1", "2", "9", "5", "6", "7", "7", "2", "10", "10", "11", "28", "26", "27"], "time": [2313, 2363, 2896, 7113, 8180, 12297, 12613, 16632, 16664, 17015, 18064, 20497, 20731, 21014]}, "edge": {"target": [], "time": []}}, "mouseout": {"state": {"target": ["12", "0", "0", "1", "2", "9", "5", "6", "7", "7", "7", "2", "10", "10", "11", "28", "26", "27"], "time": [1380, 1496, 2280, 2346, 2380, 6880, 7897, 12264, 12313, 16114, 16631, 16648, 16698, 17830, 20431, 20514, 20981, 23481]}, "edge": {"target": [], "time": []}}}, "displayed_time": "26.63", "trialTime": 27633, "trial_type": "mouselab-mdp", "trial_index": 23, "time_elapsed": 561540, "internal_node_id": "0.0-6.0-1.0-14.0"}}, {"uniqueid": "w70440515:a13143526", "current_trial": 24, "dateTime": 1693486519381, "trialdata": {"revealed_states": [], "clicked_states": ["32", "33"], "num_clicks_accrued": [0, 0, 0, 0, 0, 0, 0, 0, 0, 0, 0, 0, 0], "stateRewards": ["", -1, -1, 7, -15, -43, -21, -84, -9, -45, -66, 2, 1, -2, 2, 8, -27, 44, -52, -5, -84, 11, 53, 1, 4, -4, 16, 83, -82, -15, -16, 68, -43, 81], "withholdReward": false, "trial_id": "mdp_trial_16", "block": "test", "trialIndex": 17, "score": 61.7, "costs": -4.3, "simulationMode": [null, null, null, null, null], "rewards": [1, 4, -4, -16, 81], "path": ["0", "0", "23", "24", "25", "30", "33"], "rt": [7656, 2, 12, 415, 2], "actions": ["left", "left", "left", "down", "left"], "actionTimes": [9529, 10034, 10561, 11497, 12001], "queries": {"click": {"state": {"target": ["32", "33"], "time": [2687, 5866]}, "edge": {"target": [], "time": []}}, "mouseover": {"state": {"target": ["31", "32", "32", "33", "29", "26"], "time": [2114, 2314, 2614, 5448, 6265, 9099]}, "edge": {"target": [], "time": []}}, "mouseout": {"state": {"target": ["8", "10", "1", "0", "31", "32", "32", "33", "29", "26"], "time": [881, 1138, 1348, 1980, 2147, 2331, 2784, 6214, 9098, 9114]}, "edge": {"target": [], "time": []}}}, "displayed_time": "15.88", "trialTime": 16529, "trial_type": "mouselab-mdp", "trial_index": 24, "time_elapsed": 578220, "internal_node_id": "0.0-6.0-1.0-15.0"}}, {"uniqueid": "w70440515:a13143526", "current_trial": 25, "dateTime": 1693486538158, "trialdata": {"revealed_states": [], "clicked_states": ["9", "5", "16", "17"], "num_clicks_accrued": [0, 0, 0, 0, 0, 0, 0, 0, 0, 0, 0, 0, 0], "stateRewards": ["", -1, -1, 4, -16, -75, 81, -51, -7, -84, 73, -30, -2, 1, -3, -16, -77, 33, 14, 1, 45, 87, -66, 2, 2, -5, -7, -19, -17, 79, -3, 8, 49, 47], "withholdReward": false, "trial_id": "mdp_trial_17", "block": "test", "trialIndex": 18, "score": 4.399999999999999, "costs": -8.6, "simulationMode": [null, null, null, null, null], "rewards": [-2, 1, -3, -16, 33], "path": ["0", "0", "12", "13", "14", "15", "17"], "rt": [13857, 21, 32, 66, 11], "actions": ["right", "right", "right", "up", "right"], "actionTimes": [15114, 15625, 16169, 16753, 17265], "queries": {"click": {"state": {"target": ["9", "5", "16", "17"], "time": [2041, 5217, 8374, 11521]}, "edge": {"target": [], "time": []}}, "mouseover": {"state": {"target": ["3", "9", "5", "6", "16", "17", "20"], "time": [1636, 1819, 2836, 6036, 6503, 9019, 12287]}, "edge": {"target": [], "time": []}}, "mouseout": {"state": {"target": ["23", "0", "3", "9", "5", "6", "16", "17"], "time": [885, 1521, 1652, 2419, 5619, 6119, 8970, 11970]}, "edge": {"target": [], "time": []}}}, "displayed_time": "17.77", "trialTime": 18626, "trial_type": "mouselab-mdp", "trial_index": 25, "time_elapsed": 596997, "internal_node_id": "0.0-6.0-1.0-16.0"}}, {"uniqueid": "w70440515:a13143526", "current_trial": 26, "dateTime": 1693486555621, "trialdata": {"revealed_states": [], "clicked_states": ["11"], "num_clicks_accrued": [0, 0, 0, 0, 0, 0, 0, 0, 0, 0, 0, 0, 0], "stateRewards": ["", 1, 2, 2, -15, -84, 28, -26, 13, 31, 86, 30, -2, 1, -1, -8, 66, -40, -1, -10, -32, 57, -17, 1, 2, -2, 9, -23, 77, 85, 12, -32, -62, -35], "withholdReward": false, "trial_id": "mdp_trial_18", "block": "test", "trialIndex": 19, "score": 45.85, "costs": -2.15, "simulationMode": [null, null, null, null, null], "rewards": [1, 2, 2, 13, 30], "path": ["0", "0", "1", "2", "3", "8", "11"], "rt": [5276, 2, 115, 10, 68], "actions": ["up", "up", "up", "left", "left"], "actionTimes": [8257, 8755, 9401, 9913, 10504], "queries": {"click": {"state": {"target": ["11"], "time": [4352]}, "edge": {"target": [], "time": []}}, "mouseover": {"state": {"target": ["3", "8", "11"], "time": [3718, 4035, 4151]}, "edge": {"target": [], "time": []}}, "mouseout": {"state": {"target": ["20", "19", "22", "12", "0", "3", "8", "11", "8", "3", "5"], "time": [1951, 2001, 2101, 2385, 3418, 3751, 4118, 4385, 11402, 11418, 15335]}, "edge": {"target": [], "time": []}}}, "displayed_time": "16.98", "trialTime": 17320, "trial_type": "mouselab-mdp", "trial_index": 26, "time_elapsed": 614460, "internal_node_id": "0.0-6.0-1.0-17.0"}}, {"uniqueid": "w70440515:a13143526", "current_trial": 27, "dateTime": 1693486573773, "trialdata": {"revealed_states": [], "clicked_states": ["29", "27", "11"], "num_clicks_accrued": [0, 0, 0, 0, 0, 0, 0, 0, 0, 0, 0, 0, 0], "stateRewards": ["", 2, -4, 1, -12, -59, -53, -74, 16, -88, -66, 66, 1, -2, 8, -9, -14, 22, 25, -1, -39, 47, -14, -1, -1, -2, 1, -4, 52, -26, 15, -7, 46, 43], "withholdReward": false, "trial_id": "mdp_trial_19", "block": "test", "trialIndex": 20, "score": 74.55, "costs": -6.449999999999999, "simulationMode": [null, null, null, null, null], "rewards": [2, -4, 1, 16, 66], "path": ["0", "0", "1", "2", "3", "8", "11"], "rt": [12386, 119, 6, 40, 458], "actions": ["up", "up", "up", "left", "left"], "actionTimes": [14371, 14987, 15491, 16043, 17027], "queries": {"click": {"state": {"target": ["29", "27", "11"], "time": [2945, 6656, 10697]}, "edge": {"target": [], "time": []}}, "mouseover": {"state": {"target": ["23", "26", "29", "27", "28", "27", "10", "8", "11", "3", "8", "10"], "time": [2149, 2249, 2716, 4100, 4183, 6516, 9884, 10117, 10384, 12869, 12886, 13003]}, "edge": {"target": [], "time": []}}, "mouseout": {"state": {"target": ["3", "2", "1", "0", "0", "23", "26", "29", "27", "28", "27", "10", "8", "11", "3", "8", "10"], "time": [1366, 1400, 1433, 1599, 2118, 2183, 2333, 3061, 4116, 4233, 6749, 10067, 10167, 10817, 12885, 12905, 13019]}, "edge": {"target": [], "time": []}}}, "displayed_time": "17.52", "trialTime": 18003, "trial_type": "mouselab-mdp", "trial_index": 27, "time_elapsed": 632611, "internal_node_id": "0.0-6.0-1.0-18.0"}}, {"uniqueid": "w70440515:a13143526", "current_trial": 28, "dateTime": 1693486590389, "trialdata": {"revealed_states": [], "clicked_states": ["32"], "num_clicks_accrued": [0, 0, 0, 0, 0, 0, 0, 0, 0, 0, 0, 0, 0], "stateRewards": ["", 1, 1, -3, 7, 49, 78, 26, -5, 26, 48, -43, -1, -3, 2, -5, 4, -1, -60, 10, -35, 51, 81, -2, 1, -7, -5, -39, -86, -54, 4, -3, 74, 77], "withholdReward": false, "trial_id": "mdp_trial_20", "block": "test", "trialIndex": 21, "score": 67.85, "costs": -2.15, "simulationMode": [null, null, null, null, null], "rewards": [-2, 1, -7, 4, 74], "path": ["0", "0", "23", "24", "25", "30", "32"], "rt": [4653, 123, 114, 57, 83], "actions": ["left", "left", "left", "down", "down"], "actionTimes": [6329, 6944, 7552, 8112, 8688], "queries": {"click": {"state": {"target": ["32"], "time": [3200]}, "edge": {"target": [], "time": []}}, "mouseover": {"state": {"target": ["1", "28", "24", "31", "32", "32"], "time": [2104, 2237, 2370, 2404, 2787, 3120]}, "edge": {"target": [], "time": []}}, "mouseout": {"state": {"target": ["23", "0", "1", "28", "24", "31", "32", "32", "1", "4", "6", "2", "23"], "time": [1170, 1852, 2120, 2338, 2387, 2437, 2837, 3554, 10387, 10404, 14854, 14954, 15071]}, "edge": {"target": [], "time": []}}}, "displayed_time": "15.68", "trialTime": 16473, "trial_type": "mouselab-mdp", "trial_index": 28, "time_elapsed": 649228, "internal_node_id": "0.0-6.0-1.0-19.0"}}, {"uniqueid": "w70440515:a13143526", "current_trial": 29, "dateTime": 1693486606916, "trialdata": {"revealed_states": [], "clicked_states": ["9"], "num_clicks_accrued": [0, 0, 0, 0, 0, 0, 0, 0, 0, 0, 0, 0, 0], "stateRewards": ["", -1, 2, -7, -12, -62, 12, -13, 5, 77, -71, 83, 1, -4, 7, 15, -42, -87, -4, 5, -25, 44, 88, -1, 4, -5, -8, 14, 51, 8, -5, 83, -24, -19], "withholdReward": false, "trial_id": "mdp_trial_21", "block": "test", "trialIndex": 22, "score": 73.85, "costs": -2.15, "simulationMode": [null, null, null, null, null], "rewards": [-1, 2, -7, 5, 77], "path": ["0", "0", "1", "2", "3", "8", "9"], "rt": [4209, 138, 17, 20, 79], "actions": ["up", "up", "up", "left", "up"], "actionTimes": [6272, 6928, 7440, 7960, 8536], "queries": {"click": {"state": {"target": ["9"], "time": [2736]}, "edge": {"target": [], "time": []}}, "mouseover": {"state": {"target": ["1", "9", "5"], "time": [2341, 2540, 3706]}, "edge": {"target": [], "time": []}}, "mouseout": {"state": {"target": ["0", "1", "9", "5", "14"], "time": [2306, 2356, 3639, 10473, 14273]}, "edge": {"target": [], "time": []}}}, "displayed_time": "16.07", "trialTime": 16384, "trial_type": "mouselab-mdp", "trial_index": 29, "time_elapsed": 665755, "internal_node_id": "0.0-6.0-1.0-20.0"}}, {"uniqueid": "w70440515:a13143526", "current_trial": 30, "dateTime": 1693486623620, "trialdata": {"revealed_states": [], "clicked_states": ["5", "6"], "num_clicks_accrued": [0, 0, 0, 0, 0, 0, 0, 0, 0, 0, 0, 0, 0], "stateRewards": ["", 1, -3, -6, -5, 47, 80, -29, 11, -71, 10, -29, -2, 3, -6, 12, 2, -78, -6, 8, 34, -16, -5, -1, 3, 3, -13, 84, -36, -62, -3, -27, 66, 15], "withholdReward": false, "trial_id": "mdp_trial_22", "block": "test", "trialIndex": 23, "score": 62.7, "costs": -4.3, "simulationMode": [null, null, null, null, null, null], "rewards": [1, -3, -6, -5, 80], "path": ["0", "0", "1", "2", "3", "4", "6"], "rt": [4848, 336, 100, 67, 33, 44], "actions": ["up", "up", "up", "up", "right", "right"], "actionTimes": [6337, 6674, 7291, 7891, 8457, 9000], "queries": {"click": {"state": {"target": ["5", "6"], "time": [2411, 5548]}, "edge": {"target": [], "time": []}}, "mouseover": {"state": {"target": ["18", "16", "4", "5", "4", "6", "7"], "time": [1723, 2040, 2123, 2239, 2705, 3222, 5889]}, "edge": {"target": [], "time": []}}, "mouseout": {"state": {"target": ["0", "18", "16", "4", "5", "4", "6", "7", "7", "16", "21"], "time": [1695, 1739, 2059, 2189, 2672, 2756, 5856, 5923, 11056, 11139, 14256]}, "edge": {"target": [], "time": []}}}, "displayed_time": "15.49", "trialTime": 16536, "trial_type": "mouselab-mdp", "trial_index": 30, "time_elapsed": 682459, "internal_node_id": "0.0-6.0-1.0-21.0"}}, {"uniqueid": "w70440515:a13143526", "current_trial": 31, "dateTime": 1693486639804, "trialdata": {"revealed_states": [], "clicked_states": ["29", "27"], "num_clicks_accrued": [0, 0, 0, 0, 0, 0, 0, 0, 0, 0, 0, 0, 0], "stateRewards": ["", -2, -4, -2, -13, -15, 87, -19, -6, -80, 30, 12, 1, 1, -8, 2, 55, 56, 15, 11, -68, -7, 55, -2, 3, -3, -3, 48, 62, 4, 1, -3, 69, -33], "withholdReward": false, "trial_id": "mdp_trial_23", "block": "test", "trialIndex": 24, "score": 38.7, "costs": -4.3, "simulationMode": [null, null, null, null, null], "rewards": [-2, 3, -3, -3, 48], "path": ["0", "0", "23", "24", "25", "26", "27"], "rt": [7450, 25, 37, 134, 109], "actions": ["left", "left", "left", "up", "up"], "actionTimes": [8586, 9105, 9633, 10281, 10889], "queries": {"click": {"state": {"target": ["29", "27"], "time": [1699, 4931]}, "edge": {"target": [], "time": []}}, "mouseover": {"state": {"target": ["23", "28", "26", "29", "27", "28"], "time": [1329, 1395, 1445, 1579, 2729, 5596]}, "edge": {"target": [], "time": []}}, "mouseout": {"state": {"target": ["0", "23", "28", "26", "29", "27", "28", "24", "22", "0"], "time": [1295, 1345, 1412, 1529, 2095, 5329, 11863, 11896, 12063, 14514]}, "edge": {"target": [], "time": []}}}, "displayed_time": "15.14", "trialTime": 16009, "trial_type": "mouselab-mdp", "trial_index": 31, "time_elapsed": 698643, "internal_node_id": "0.0-6.0-1.0-22.0"}}, {"uniqueid": "w70440515:a13143526", "current_trial": 32, "dateTime": 1693486659492, "trialdata": {"revealed_states": [], "clicked_states": ["33", "31"], "num_clicks_accrued": [0, 0, 0, 0, 0, 0, 0, 0, 0, 0, 0, 0, 0], "stateRewards": ["", -1, 1, -5, -6, -78, 47, -13, 12, 48, -88, 20, 2, -3, -2, 13, -20, 37, -57, 14, -38, 30, 31, -2, -2, 8, 2, -23, 78, 28, 12, -74, -88, 8], "withholdReward": false, "trial_id": "mdp_trial_24", "block": "test", "trialIndex": 25, "score": 19.7, "costs": -4.3, "simulationMode": [null, null, null, null, null], "rewards": [-2, -2, 8, 12, 8], "path": ["0", "0", "23", "24", "25", "30", "33"], "rt": [7857, 81, 25, 109, 124], "actions": ["left", "left", "left", "down", "left"], "actionTimes": [8989, 9573, 10100, 10700, 11316], "queries": {"click": {"state": {"target": ["33", "31"], "time": [1736, 5516]}, "edge": {"target": [], "time": []}}, "mouseover": {"state": {"target": ["31", "30", "33", "30", "31", "31"], "time": [1273, 1307, 1673, 4090, 4857, 5457]}, "edge": {"target": [], "time": []}}, "mouseout": {"state": {"target": ["0", "31", "30", "33", "30", "31", "31", "21"], "time": [1208, 1290, 1356, 1816, 4641, 5140, 8275, 15524]}, "edge": {"target": [], "time": []}}}, "displayed_time": "15.13", "trialTime": 19525, "trial_type": "mouselab-mdp", "trial_index": 32, "time_elapsed": 718331, "internal_node_id": "0.0-6.0-1.0-23.0"}}, {"uniqueid": "w70440515:a13143526", "current_trial": 33, "dateTime": 1693486682237, "trialdata": {"revealed_states": [], "clicked_states": ["9", "5", "6", "16", "20"], "num_clicks_accrued": [0, 0, 0, 0, 0, 0, 0, 0, 0, 0, 0, 0, 0], "stateRewards": ["", 2, 4, 7, -6, -76, -81, 2, 5, -66, -3, 36, -2, -4, 6, -2, -69, 4, -49, -6, 67, 38, -67, 2, 1, 1, 6, -68, -21, 52, -16, -16, 6, -70], "withholdReward": false, "trial_id": "mdp_trial_25", "block": "test", "trialIndex": 26, "score": 50.25, "costs": -10.75, "simulationMode": [null, null, null, null, null], "rewards": [-2, -4, 6, -6, 67], "path": ["0", "0", "12", "13", "14", "19", "20"], "rt": [17046, 121, 17, 92, 13], "actions": ["right", "right", "right", "down", "right"], "actionTimes": [18626, 19249, 19761, 20353, 20874], "queries": {"click": {"state": {"target": ["9", "5", "6", "16", "20"], "time": [2325, 5495, 8797, 11952, 15113]}, "edge": {"target": [], "time": []}}, "mouseover": {"state": {"target": ["1", "2", "3", "9", "9", "5", "6", "16", "16", "20", "19", "22", "0"], "time": [1659, 1709, 1759, 1909, 2221, 2726, 8726, 9126, 9426, 13426, 17460, 17479, 17594]}, "edge": {"target": [], "time": []}}, "mouseout": {"state": {"target": ["0", "1", "2", "3", "9", "9", "5", "6", "16", "16", "20", "19", "22", "0"], "time": [1408, 1692, 1742, 1792, 2009, 2659, 7993, 9093, 9176, 12326, 17443, 17478, 17510, 17844]}, "edge": {"target": [], "time": []}}}, "displayed_time": "21.38", "trialTime": 22570, "trial_type": "mouselab-mdp", "trial_index": 33, "time_elapsed": 741075, "internal_node_id": "0.0-6.0-1.0-24.0"}}, {"uniqueid": "w70440515:a13143526", "current_trial": 34, "dateTime": 1693486698524, "trialdata": {"revealed_states": [], "clicked_states": ["33", "29", "27"], "num_clicks_accrued": [0, 0, 0, 0, 0, 0, 0, 0, 0, 0, 0, 0, 0], "stateRewards": ["", 1, 1, -3, 2, 22, -25, -11, -5, 50, 49, 3, 1, -1, 8, 14, -85, -30, 57, -6, -39, -16, 59, -2, -1, 5, 5, 59, -16, 8, 4, 67, 56, -9], "withholdReward": false, "trial_id": "mdp_trial_26", "block": "test", "trialIndex": 27, "score": 59.55, "costs": -6.449999999999999, "simulationMode": [null, null, null, null, null], "rewards": [-2, -1, 5, 5, 59], "path": ["0", "0", "23", "24", "25", "26", "27"], "rt": [10763, 52, 54, 128, 52], "actions": ["left", "left", "left", "up", "up"], "actionTimes": [11992, 12543, 13095, 13719, 14263], "queries": {"click": {"state": {"target": ["33", "29", "27"], "time": [1852, 5046, 8451]}, "edge": {"target": [], "time": []}}, "mouseover": {"state": {"target": ["23", "33", "29", "27", "28"], "time": [1389, 1739, 4106, 7489, 8773]}, "edge": {"target": [], "time": []}}, "mouseout": {"state": {"target": ["12", "0", "23", "33", "29", "27", "28"], "time": [871, 1372, 1405, 2373, 6989, 8640, 15573]}, "edge": {"target": [], "time": []}}}, "displayed_time": "15.24", "trialTime": 16119, "trial_type": "mouselab-mdp", "trial_index": 34, "time_elapsed": 757362, "internal_node_id": "0.0-6.0-1.0-25.0"}}, {"uniqueid": "w70440515:a13143526", "current_trial": 35, "dateTime": 1693486714443, "trialdata": {"revealed_states": [], "clicked_states": ["33", "31"], "num_clicks_accrued": [0, 0, 0, 0, 0, 0, 0, 0, 0, 0, 0, 0, 0], "stateRewards": ["", 2, 3, -3, 12, -43, 81, -82, -15, 58, -7, -75, -1, -1, 3, -5, 50, -25, -8, 4, 66, 65, -66, 2, -4, 2, -1, -10, 10, 37, 11, 88, -37, 8], "withholdReward": false, "trial_id": "mdp_trial_27", "block": "test", "trialIndex": 28, "score": 94.7, "costs": -4.3, "simulationMode": [null, null, null, null, null], "rewards": [2, -4, 2, 11, 88], "path": ["0", "0", "23", "24", "25", "30", "31"], "rt": [7461, 5, 56, 51, 5], "actions": ["left", "left", "left", "down", "right"], "actionTimes": [8445, 8964, 9532, 10076, 10580], "queries": {"click": {"state": {"target": ["33", "31"], "time": [1638, 4887]}, "edge": {"target": [], "time": []}}, "mouseover": {"state": {"target": ["0", "23", "30", "33", "30", "31"], "time": [1040, 1073, 1207, 1507, 3440, 4057]}, "edge": {"target": [], "time": []}}, "mouseout": {"state": {"target": ["23", "0", "23", "30", "33", "30", "31", "12"], "time": [673, 1057, 1090, 1473, 3307, 3474, 5140, 13174]}, "edge": {"target": [], "time": []}}}, "displayed_time": "14.98", "trialTime": 15755, "trial_type": "mouselab-mdp", "trial_index": 35, "time_elapsed": 773282, "internal_node_id": "0.0-6.0-1.0-26.0"}}, {"uniqueid": "w70440515:a13143526", "current_trial": 36, "dateTime": 1693486730411, "trialdata": {"revealed_states": [], "clicked_states": ["27", "28"], "num_clicks_accrued": [0, 0, 0, 0, 0, 0, 0, 0, 0, 0, 0, 0, 0], "stateRewards": ["", 2, 4, -5, 7, 81, 35, 6, 11, 14, -72, 42, -1, 2, 3, -7, -77, -44, -40, -15, -85, 51, -32, -2, -1, -5, 7, -74, 47, 52, 16, -49, 48, -46], "withholdReward": false, "trial_id": "mdp_trial_28", "block": "test", "trialIndex": 29, "score": 41.7, "costs": -4.3, "simulationMode": [null, null, null, null, null], "rewards": [-2, -1, -5, 7, 47], "path": ["0", "0", "23", "24", "25", "26", "28"], "rt": [7686, 113, 55, 75, 44], "actions": ["left", "left", "left", "up", "right"], "actionTimes": [8610, 9218, 9777, 10345, 10881], "queries": {"click": {"state": {"target": ["27", "28"], "time": [1585, 4742]}, "edge": {"target": [], "time": []}}, "mouseover": {"state": {"target": ["23", "27", "28", "10", "8", "9", "10", "0"], "time": [1102, 1485, 2920, 6903, 6954, 7386, 7937, 8003]}, "edge": {"target": [], "time": []}}, "mouseout": {"state": {"target": ["0", "23", "27", "27", "28", "10", "8", "9", "10", "0", "12", "15", "1", "24"], "time": [1069, 1119, 1685, 2153, 5086, 6936, 7019, 7903, 7953, 8020, 12919, 14603, 14637, 14853]}, "edge": {"target": [], "time": []}}}, "displayed_time": "14.93", "trialTime": 15801, "trial_type": "mouselab-mdp", "trial_index": 36, "time_elapsed": 789250, "internal_node_id": "0.0-6.0-1.0-27.0"}}, {"uniqueid": "w70440515:a13143526", "current_trial": 37, "dateTime": 1693486746244, "trialdata": {"revealed_states": [], "clicked_states": ["31"], "num_clicks_accrued": [0, 0, 0, 0, 0, 0, 0, 0, 0, 0, 0, 0, 0], "stateRewards": ["", -1, 4, -6, -5, -22, -38, -38, -2, -56, 88, 14, -1, -1, -7, -6, 61, -60, 21, 11, 57, 31, -30, -2, -2, 6, -9, -44, -70, -44, -15, 34, 16, -78], "withholdReward": false, "trial_id": "mdp_trial_29", "block": "test", "trialIndex": 30, "score": 18.85, "costs": -2.15, "simulationMode": [null, null, null, null, null], "rewards": [-2, -2, 6, -15, 34], "path": ["0", "0", "23", "24", "25", "30", "31"], "rt": [4318, 87, 95, 62, 72], "actions": ["left", "left", "left", "down", "right"], "actionTimes": [5267, 5866, 6458, 7026, 7618], "queries": {"click": {"state": {"target": ["31"], "time": [1726]}, "edge": {"target": [], "time": []}}, "mouseover": {"state": {"target": ["23", "24", "30", "31"], "time": [1211, 1261, 1462, 1698]}, "edge": {"target": [], "time": []}}, "mouseout": {"state": {"target": ["0", "23", "24", "30", "31", "19"], "time": [1195, 1245, 1345, 1578, 4578, 9579]}, "edge": {"target": [], "time": []}}}, "displayed_time": "14.95", "trialTime": 15659, "trial_type": "mouselab-mdp", "trial_index": 37, "time_elapsed": 805083, "internal_node_id": "0.0-6.0-1.0-28.0"}}, {"uniqueid": "w70440515:a13143526", "current_trial": 38, "dateTime": 1693486762203, "trialdata": {"revealed_states": [], "clicked_states": ["9", "11"], "num_clicks_accrued": [0, 0, 0, 0, 0, 0, 0, 0, 0, 0, 0, 0, 0], "stateRewards": ["", -2, -3, -7, 7, -54, -69, -4, -14, -77, 22, 40, -2, -1, 5, 6, -35, 50, -60, 10, -28, 75, 57, 1, -4, -2, 2, 68, 34, -18, 12, 3, -21, -43], "withholdReward": false, "trial_id": "mdp_trial_30", "block": "test", "trialIndex": 31, "score": 9.7, "costs": -4.3, "simulationMode": [null, null, null, null, null], "rewards": [-2, -3, -7, -14, 40], "path": ["0", "0", "1", "2", "3", "8", "11"], "rt": [8657, 59, 20, 79, 73], "actions": ["up", "up", "up", "left", "left"], "actionTimes": [10109, 10660, 11188, 11764, 12324], "queries": {"click": {"state": {"target": ["9", "11"], "time": [2620, 6578]}, "edge": {"target": [], "time": []}}, "mouseover": {"state": {"target": ["1", "10", "8", "9", "11", "10"], "time": [1766, 1816, 1850, 2550, 6484, 7201]}, "edge": {"target": [], "time": []}}, "mouseout": {"state": {"target": ["12", "0", "0", "1", "10", "8", "9", "11", "11"], "time": [933, 1016, 1650, 1783, 1833, 2033, 6317, 6676, 6917]}, "edge": {"target": [], "time": []}}}, "displayed_time": "15.45", "trialTime": 15772, "trial_type": "mouselab-mdp", "trial_index": 38, "time_elapsed": 821042, "internal_node_id": "0.0-6.0-1.0-29.0"}}, {"uniqueid": "w70440515:a13143526", "current_trial": 39, "dateTime": 1693486783163, "trialdata": {"revealed_states": [], "clicked_states": ["5"], "num_clicks_accrued": [0, 0, 0, 0, 0, 0, 0, 0, 0, 0, 0, 0, 0], "stateRewards": ["", 1, 1, 7, -11, 80, -20, -53, -14, 3, 31, 27, 2, -1, -8, -10, 33, 41, 86, 9, 78, -37, -13, -1, -2, -6, -8, -80, 75, 4, -16, -49, -74, 24], "withholdReward": false, "trial_id": "mdp_trial_31", "block": "test", "trialIndex": 32, "score": 75.85, "costs": -2.15, "simulationMode": [null, null, null, null, null], "rewards": [1, 1, 7, -11, 80], "path": ["0", "0", "1", "2", "3", "4", "5"], "rt": [4014, 121, 104, 48, 17], "actions": ["up", "up", "up", "right", "up"], "actionTimes": [5569, 6192, 6792, 7336, 7872], "queries": {"click": {"state": {"target": ["5"], "time": [2102]}, "edge": {"target": [], "time": []}}, "mouseover": {"state": {"target": ["7", "5", "4"], "time": [1753, 2020, 2470]}, "edge": {"target": [], "time": []}}, "mouseout": {"state": {"target": ["10", "7", "5", "5", "4", "6", "16", "18"], "time": [720, 1770, 2202, 2437, 2486, 8737, 20121, 20188]}, "edge": {"target": [], "time": []}}}, "displayed_time": "15.56", "trialTime": 20768, "trial_type": "mouselab-mdp", "trial_index": 39, "time_elapsed": 842001, "internal_node_id": "0.0-6.0-1.0-30.0"}}, {"uniqueid": "w70440515:a13143526", "current_trial": 40, "dateTime": 1693486965841, "trialdata": {"revealed_states": [], "clicked_states": ["17"], "num_clicks_accrued": [0, 0, 0, 0, 0, 0, 0, 0, 0, 0, 0, 0, 0], "stateRewards": ["", -2, 1, -8, 12, -65, -79, 16, 7, -80, -17, -45, -2, 2, -5, -2, -85, 23, -4, -7, 48, 27, -76, 2, 3, 5, 2, 43, 71, -13, 7, -49, 59, -31], "withholdReward": false, "trial_id": "mdp_trial_32", "block": "test", "trialIndex": 33, "score": 13.85, "costs": -2.15, "simulationMode": [null, null, null, null, null], "rewards": [-2, 2, -5, -2, 23], "path": ["0", "0", "12", "13", "14", "15", "17"], "rt": [4051, 20, 23, 50, 20], "actions": ["right", "right", "right", "up", "right"], "actionTimes": [5319, 5839, 6359, 6903, 7439], "queries": {"click": {"state": {"target": ["17"], "time": [1788]}, "edge": {"target": [], "time": []}}, "mouseover": {"state": {"target": ["18", "15", "17"], "time": [1418, 1452, 1668]}, "edge": {"target": [], "time": []}}, "mouseout": {"state": {"target": ["13", "12", "0", "18", "15", "17", "14", "22", "20"], "time": [584, 902, 1340, 1451, 1568, 2218, 12973, 13052, 13310]}, "edge": {"target": [], "time": []}}}, "displayed_time": "15.27", "trialTime": 182493, "trial_type": "mouselab-mdp", "trial_index": 40, "time_elapsed": 1024679, "internal_node_id": "0.0-6.0-1.0-31.0"}}, {"uniqueid": "w70440515:a13143526", "current_trial": 41, "dateTime": 1693486981865, "trialdata": {"revealed_states": [], "clicked_states": ["11"], "num_clicks_accrued": [0, 0, 0, 0, 0, 0, 0, 0, 0, 0, 0, 0, 0], "stateRewards": ["", 2, -2, 7, -11, -76, -65, -23, 16, -58, 30, 81, 1, 2, 7, 14, 9, 55, -2, 6, 11, -15, 31, -1, -1, -3, 2, 15, 2, 46, 15, 18, 45, -34], "withholdReward": false, "trial_id": "mdp_trial_33", "block": "test", "trialIndex": 34, "score": 101.85, "costs": -2.15, "simulationMode": [null, null, null, null, null], "rewards": [2, -2, 7, 16, 81], "path": ["0", "0", "1", "2", "3", "8", "11"], "rt": [4326, 57, 124, 43, 4], "actions": ["up", "up", "up", "left", "left"], "actionTimes": [5322, 5882, 6514, 7050, 7578], "queries": {"click": {"state": {"target": ["11"], "time": [1640]}, "edge": {"target": [], "time": []}}, "mouseover": {"state": {"target": ["10", "8", "11", "10", "2"], "time": [1322, 1472, 1539, 3973, 4006]}, "edge": {"target": [], "time": []}}, "mouseout": {"state": {"target": ["0", "10", "8", "11", "10", "2", "12"], "time": [822, 1406, 1489, 3439, 3989, 4022, 14923]}, "edge": {"target": [], "time": []}}}, "displayed_time": "15.00", "trialTime": 15794, "trial_type": "mouselab-mdp", "trial_index": 41, "time_elapsed": 1040704, "internal_node_id": "0.0-6.0-1.0-32.0"}}, {"uniqueid": "w70440515:a13143526", "current_trial": 42, "dateTime": 1693487075143, "trialdata": {"revealed_states": [], "clicked_states": ["5", "6", "16", "17"], "num_clicks_accrued": [0, 0, 0, 0, 0, 0, 0, 0, 0, 0, 0, 0, 0], "stateRewards": ["", 2, -3, 5, -14, -63, -9, -24, -11, -54, -43, 68, 2, -2, -4, 7, -64, 30, 47, 12, -74, 11, 86, 1, -3, 3, 10, -71, -42, -52, -1, -29, -16, 69], "withholdReward": false, "trial_id": "mdp_trial_34", "block": "test", "trialIndex": 35, "score": 24.4, "costs": -8.6, "simulationMode": [null, null, null, null, null], "rewards": [2, -2, -4, 7, 30], "path": ["0", "0", "12", "13", "14", "15", "17"], "rt": [14415, 88, 33, 91, 19], "actions": ["right", "right", "right", "up", "right"], "actionTimes": [15548, 16132, 16660, 17267, 17796], "queries": {"click": {"state": {"target": ["5", "6", "16", "17"], "time": [2122, 5610, 8810, 11970]}, "edge": {"target": [], "time": []}}, "mouseover": {"state": {"target": ["1", "2", "3", "5", "4", "6", "16", "17", "20", "20"], "time": [1275, 1308, 1358, 1990, 3708, 5491, 7441, 9592, 12459, 14325]}, "edge": {"target": [], "time": []}}, "mouseout": {"state": {"target": ["0", "1", "2", "3", "5", "4", "6", "6", "16", "16", "17", "20", "20"], "time": [1238, 1291, 1341, 1458, 3625, 5341, 5717, 7008, 8884, 9258, 12325, 12476, 18459]}, "edge": {"target": [], "time": []}}}, "displayed_time": "18.29", "trialTime": 93091, "trial_type": "mouselab-mdp", "trial_index": 42, "time_elapsed": 1133982, "internal_node_id": "0.0-6.0-1.0-33.0"}}, {"uniqueid": "w70440515:a13143526", "current_trial": 43, "dateTime": 1693487095511, "trialdata": {"revealed_states": [], "clicked_states": ["9", "5", "6", "16"], "num_clicks_accrued": [0, 0, 0, 0, 0, 0, 0, 0, 0, 0, 0, 0, 0], "stateRewards": ["", -2, -4, -2, 10, -8, -15, -47, 7, -84, 53, 5, -1, 2, -7, 3, 83, 31, 47, -1, 30, -8, 69, 2, -4, -1, 8, -7, 12, -8, -8, -13, 30, -84], "withholdReward": false, "trial_id": "mdp_trial_35", "block": "test", "trialIndex": 36, "score": 71.4, "costs": -8.6, "simulationMode": [null, null, null, null, null], "rewards": [-1, 2, -7, 3, 83], "path": ["0", "0", "12", "13", "14", "15", "16"], "rt": [15008, 68, 134, 20, 39], "actions": ["right", "right", "right", "up", "up"], "actionTimes": [16406, 16989, 17622, 18157, 18694], "queries": {"click": {"state": {"target": ["9", "5", "6", "16"], "time": [2272, 5733, 9494, 12628]}, "edge": {"target": [], "time": []}}, "mouseover": {"state": {"target": ["1", "2", "3", "9", "5", "6", "16", "17", "17"], "time": [1836, 1854, 1886, 2153, 5620, 9271, 12203, 14520, 14704]}, "edge": {"target": [], "time": []}}, "mouseout": {"state": {"target": ["12", "0", "1", "2", "3", "9", "5", "5", "6", "16", "17", "17", "13"], "time": [1035, 1436, 1853, 1869, 1952, 5387, 5833, 9203, 11553, 14087, 14553, 19637, 19705]}, "edge": {"target": [], "time": []}}}, "displayed_time": "19.20", "trialTime": 20181, "trial_type": "mouselab-mdp", "trial_index": 43, "time_elapsed": 1154350, "internal_node_id": "0.0-6.0-1.0-34.0"}}, {"uniqueid": "w70440515:a13143526", "current_trial": 44, "dateTime": 1693487112615, "trialdata": {"revealed_states": [], "clicked_states": ["29", "27"], "num_clicks_accrued": [0, 0, 0, 0, 0, 0, 0, 0, 0, 0, 0, 0, 0], "stateRewards": ["", -1, 3, 8, 9, -53, 20, -84, 2, -28, -62, -31, -1, -2, -7, 2, 51, 58, 45, -4, -17, -41, 36, 2, -2, -7, -15, 29, -54, -37, -16, -43, 65, -17], "withholdReward": false, "trial_id": "mdp_trial_36", "block": "test", "trialIndex": 37, "score": 2.6999999999999993, "costs": -4.3, "simulationMode": [null, null, null, null, null], "rewards": [2, -2, -7, -15, 29], "path": ["0", "0", "23", "24", "25", "26", "27"], "rt": [7693, 120, 72, 16, 92], "actions": ["left", "left", "left", "up", "up"], "actionTimes": [9067, 9690, 10274, 10802, 11394], "queries": {"click": {"state": {"target": ["29", "27"], "time": [2330, 5458]}, "edge": {"target": [], "time": []}}, "mouseover": {"state": {"target": ["0", "23", "26", "29", "27", "28"], "time": [1584, 1984, 2051, 2235, 4534, 5734]}, "edge": {"target": [], "time": []}}, "mouseout": {"state": {"target": ["19", "13", "12", "0", "23", "26", "29", "27", "28", "1", "14"], "time": [334, 901, 935, 1956, 2001, 2218, 4451, 5718, 13302, 13352, 13385]}, "edge": {"target": [], "time": []}}}, "displayed_time": "15.38", "trialTime": 16882, "trial_type": "mouselab-mdp", "trial_index": 44, "time_elapsed": 1171454, "internal_node_id": "0.0-6.0-1.0-35.0"}}, {"uniqueid": "w70440515:a13143526", "current_trial": 45, "dateTime": 1693487138751, "trialdata": {"revealed_states": [], "clicked_states": ["33", "31", "32", "27", "28", "29"], "num_clicks_accrued": [0, 0, 0, 0, 0, 0, 0, 0, 0, 0, 0, 0, 0], "stateRewards": ["", 2, 2, 3, -15, 23, -14, 73, -7, -32, -20, -6, 1, 1, -5, -12, 73, 6, -84, 11, -81, -57, 13, -2, -1, -4, -8, -52, -58, 49, 13, 5, -41, -41], "withholdReward": false, "trial_id": "mdp_trial_37", "block": "test", "trialIndex": 38, "score": 21.1, "costs": -12.9, "simulationMode": [null, null, null, null, null], "rewards": [-2, -1, -4, -8, 49], "path": ["0", "0", "23", "24", "25", "26", "29"], "rt": [20377, 96, 81, 160, 46], "actions": ["left", "left", "left", "up", "left"], "actionTimes": [21354, 21953, 22521, 23201, 23753], "queries": {"click": {"state": {"target": ["33", "31", "32", "27", "28", "29"], "time": [1855, 5215, 8379, 11513, 14629, 17786]}, "edge": {"target": [], "time": []}}, "mouseover": {"state": {"target": ["25", "30", "33", "30", "31", "32", "32", "25", "26", "27", "28", "28", "26", "29", "29", "26", "16"], "time": [1505, 1572, 1788, 4572, 5141, 6839, 7106, 9489, 9555, 9823, 13072, 13389, 15989, 16024, 16389, 18989, 19889]}, "edge": {"target": [], "time": []}}, "mouseout": {"state": {"target": ["23", "0", "25", "30", "33", "30", "31", "32", "32", "25", "26", "27", "28", "28", "26", "29", "29", "26", "16", "15", "15", "12", "0"], "time": [722, 1188, 1538, 1605, 4556, 4605, 6772, 6939, 8460, 9522, 9672, 12739, 13172, 15973, 16023, 16039, 18973, 19006, 24956, 25079, 25257, 25307, 25340]}, "edge": {"target": [], "time": []}}}, "displayed_time": "24.26", "trialTime": 25921, "trial_type": "mouselab-mdp", "trial_index": 45, "time_elapsed": 1197590, "internal_node_id": "0.0-6.0-1.0-36.0"}}, {"uniqueid": "w70440515:a13143526", "current_trial": 46, "dateTime": 1693487155599, "trialdata": {"revealed_states": [], "clicked_states": ["5", "6"], "num_clicks_accrued": [0, 0, 0, 0, 0, 0, 0, 0, 0, 0, 0, 0, 0], "stateRewards": ["", -2, 2, -4, -4, -59, 88, 62, -3, 69, -15, -34, 1, -2, -5, 7, -54, -20, 78, -16, -74, -53, -21, 2, -4, 2, 13, -8, -44, 26, 9, 72, 4, 17], "withholdReward": false, "trial_id": "mdp_trial_38", "block": "test", "trialIndex": 39, "score": 75.7, "costs": -4.3, "simulationMode": [null, null, null, null, null], "rewards": [-2, 2, -4, -4, 88], "path": ["0", "0", "1", "2", "3", "4", "6"], "rt": [7357, 99, 27, 38, 64], "actions": ["up", "up", "up", "right", "right"], "actionTimes": [8748, 9347, 9875, 10403, 10979], "queries": {"click": {"state": {"target": ["5", "6"], "time": [2048, 5172]}, "edge": {"target": [], "time": []}}, "mouseover": {"state": {"target": ["1", "4", "5", "6", "7"], "time": [1613, 1680, 1930, 4964, 7247]}, "edge": {"target": [], "time": []}}, "mouseout": {"state": {"target": ["0", "1", "4", "5", "6", "6", "7", "1", "0"], "time": [1246, 1630, 1713, 4613, 5247, 6997, 14147, 14197, 14247]}, "edge": {"target": [], "time": []}}}, "displayed_time": "15.39", "trialTime": 16659, "trial_type": "mouselab-mdp", "trial_index": 46, "time_elapsed": 1214438, "internal_node_id": "0.0-6.0-1.0-37.0"}}, {"uniqueid": "w70440515:a13143526", "current_trial": 47, "dateTime": 1693487171407, "trialdata": {"revealed_states": [], "clicked_states": ["16"], "num_clicks_accrued": [0, 0, 0, 0, 0, 0, 0, 0, 0, 0, 0, 0, 0], "stateRewards": ["", 1, 4, 5, 8, -55, -11, 8, 16, -37, 77, -22, -2, 3, -8, -10, 45, 87, -67, 4, 17, -33, -22, -1, -3, 7, 6, -39, -85, 75, -1, 7, -48, 45], "withholdReward": false, "trial_id": "mdp_trial_39", "block": "test", "trialIndex": 40, "score": 25.85, "costs": -2.15, "simulationMode": [null, null, null, null, null], "rewards": [-2, 3, -8, -10, 45], "path": ["0", "0", "12", "13", "14", "15", "16"], "rt": [4394, 18, 157, 3, 46], "actions": ["right", "right", "right", "up", "up"], "actionTimes": [5491, 6026, 6699, 7194, 7754], "queries": {"click": {"state": {"target": ["16"], "time": [1995]}, "edge": {"target": [], "time": []}}, "mouseover": {"state": {"target": ["0", "15", "16", "17"], "time": [1373, 1623, 1856, 3256]}, "edge": {"target": [], "time": []}}, "mouseout": {"state": {"target": ["0", "0", "15", "16", "17", "20", "19"], "time": [906, 1506, 1656, 2740, 9625, 12974, 13041]}, "edge": {"target": [], "time": []}}}, "displayed_time": "15.10", "trialTime": 15626, "trial_type": "mouselab-mdp", "trial_index": 47, "time_elapsed": 1230245, "internal_node_id": "0.0-6.0-1.0-38.0"}}, {"uniqueid": "w70440515:a13143526", "current_trial": 48, "dateTime": 1693487189430, "trialdata": {"revealed_states": [], "clicked_states": ["33", "31", "32"], "num_clicks_accrued": [0, 0, 0, 0, 0, 0, 0, 0, 0, 0, 0, 0, 0], "stateRewards": ["", -1, -3, -7, -4, -85, -70, 79, 8, 84, -66, 42, 2, -2, -3, -16, -54, -66, 68, -3, 21, -14, 7, -2, -1, -3, -8, 75, 80, 86, -7, -84, 73, -16], "withholdReward": false, "trial_id": "mdp_trial_40", "block": "test", "trialIndex": 41, "score": 53.55, "costs": -6.449999999999999, "simulationMode": [null, null, null, null, null], "rewards": [-2, -1, -3, -7, 73], "path": ["0", "0", "23", "24", "25", "30", "32"], "rt": [10828, 335, 141, 20, 36], "actions": ["left", "left", "left", "down", "down"], "actionTimes": [12081, 12936, 13576, 14088, 14640], "queries": {"click": {"state": {"target": ["33", "31", "32"], "time": [2203, 5355, 8514]}, "edge": {"target": [], "time": []}}, "mouseover": {"state": {"target": ["23", "24", "25", "33", "30", "31", "32", "25", "27"], "time": [1582, 1615, 1649, 2015, 4300, 4583, 6816, 8899, 9216]}, "edge": {"target": [], "time": []}}, "mouseout": {"state": {"target": ["0", "23", "24", "25", "33", "30", "31", "32", "25", "27", "11", "9", "3", "2", "1"], "time": [1549, 1598, 1632, 1665, 3867, 4533, 6282, 8866, 8916, 16316, 16416, 16666, 17233, 17316, 17366]}, "edge": {"target": [], "time": []}}}, "displayed_time": "15.25", "trialTime": 17807, "trial_type": "mouselab-mdp", "trial_index": 48, "time_elapsed": 1248269, "internal_node_id": "0.0-6.0-1.0-39.0"}}, {"uniqueid": "w70440515:a13143526", "current_trial": 49, "dateTime": 1693487207771, "trialdata": {"rt": 18336, "response": {"Q0": "$-2 to $2", "Q1": "$-32 to $32", "Q2": "$-88 to $88", "Q3": "The cost for clicking on nodes varied between nodes.", "Q4": "Very motivated"}, "question_order": [0, 1, 2, 3, 4], "trial_id": "final_quiz_control", "trial_type": "survey-multi-choice", "trial_index": 49, "time_elapsed": 1266609, "internal_node_id": "0.0-6.0-2.0"}}, {"uniqueid": "w70440515:a13143526", "current_trial": 50, "dateTime": 1693487260234, "trialdata": {"rt": 52454, "response": {"Q0": "I didn't bother with the closer nodes so I only looked for the farthest away ones. They can reach such a high amount that I felt it was worth it to spend more money to look for them", "Q1": "My strategy didn't change from beginning to end", "Q2": "It wasn't difficult."}, "trial_id": "self_report_control", "trial_type": "survey-text", "trial_index": 50, "time_elapsed": 1319073, "internal_node_id": "0.0-6.0-3.0"}}, {"uniqueid": "w70440515:a13143526", "current_trial": 51, "dateTime": 1693487281004, "trialdata": {"rt": 20767, "response": {"Q0": "Strongly disagree", "Q1": "Strongly disagree", "Q2": "Neither disagree nor agree", "Q3": "Strongly disagree", "Q4": "Neither disagree nor agree", "Q5": "Neither disagree nor agree", "Q6": "Neither disagree nor agree"}, "question_order": [0, 1, 2, 3, 4, 5, 6], "trial_id": "self_report_2", "trial_type": "survey-multi-choice", "trial_index": 51, "time_elapsed": 1339843, "internal_node_id": "0.0-6.0-4.0"}}, {"uniqueid": "w70440515:a13143526", "current_trial": 52, "dateTime": 1693487294838, "trialdata": {"rt": 13830, "response": {"gender": "female", "age": "29", "colorblind": "0", "effort": "0"}, "trial_type": "survey-html-form", "trial_index": 52, "time_elapsed": 1353677, "internal_node_id": "0.0-6.0-5.0"}}, {"uniqueid": "w70440515:a13143526", "current_trial": 53, "dateTime": 1693487316209, "trialdata": {"rt": 21368, "response": {"Q0": "Nothing was confusing or hard to understand", "Q1": "I did not", "Q2": "The experiment ran smoothly"}, "trial_type": "survey-text", "trial_index": 53, "time_elapsed": 1375048, "internal_node_id": "0.0-6.0-6.0"}}, {"uniqueid": "w70440515:a13143526", "current_trial": 54, "dateTime": 1693487325948, "trialdata": {"rt": 9735, "stimulus": "<h1>Completion Code Instructions (1/2)</h1>\n<br><br><br><br>\nYou have reached the end of the experiment! The completion code consists of two parts: (1) a code with 2 characters (2) a code with 6 characters. On this page, you will receive the second part of the code. The first part of the completion code will be on the next page.\n<br><br>\nThe second part of your completion code is: <b>EWEK22</b>\n<br><br>\nPlease note this down. Then, press 'Finish HIT' in order to find the first part of your completion code. Once the data has been saved, you will receive this code either in this window or in the original browser window where you started the experiment.\n", "response": 0, "trial_type": "html-button-response", "trial_index": 54, "time_elapsed": 1384787, "internal_node_id": "0.0-6.0-7.0"}}, {"uniqueid": "w70440515:a13143526", "current_trial": 55, "dateTime": 1693487326950, "trialdata": {"success": true, "trial_type": "fullscreen", "trial_index": 55, "time_elapsed": 1385789, "internal_node_id": "0.0-7.0"}}], "questiondata": {"params": {"CODE": "C6DMOQA6", "MIN_TIME": 14, "inspectCost": 1, "startTime": "Thu Aug 31 2023 13:45:40 GMT+0100 (British Summer Time)", "bonusRate": 0.002, "variance": "1_2_4_8_44", "branching": "31123"}, "final_score": 1774.05}, "eventdata": [{"eventtype": "initialized", "value": null, "timestamp": 1693485940040, "interval": 0}, {"eventtype": "window_resize", "value": [1025, 770], "timestamp": 1693485940040, "interval": 0}, {"eventtype": "window_resize", "value": [1025, 770], "timestamp": 1693485940365, "interval": 325}, {"eventtype": "focus", "value": "off", "timestamp": 1693485941037, "interval": 672}, {"eventtype": "focus", "value": "on", "timestamp": 1693485942012, "interval": 975}, {"eventtype": "window_resize", "value": [1025, 770], "timestamp": 1693485944625, "interval": 2613}, {"eventtype": "focus", "value": "off", "timestamp": 1693485946928, "interval": 2303}, {"eventtype": "focus", "value": "on", "timestamp": 1693485963161, "interval": 16233}, {"eventtype": "focus", "value": "off", "timestamp": 1693485975919, "interval": 12758}, {"eventtype": "focus", "value": "on", "timestamp": 1693486020848, "interval": 44929}, {"eventtype": "focus", "value": "off", "timestamp": 1693486031225, "interval": 10377}, {"eventtype": "focus", "value": "on", "timestamp": 1693486032435, "interval": 1210}, {"eventtype": "focus", "value": "off", "timestamp": 1693486048986, "interval": 16551}, {"eventtype": "focus", "value": "on", "timestamp": 1693486056263, "interval": 7277}, {"eventtype": "focus", "value": "off", "timestamp": 1693486058531, "interval": 2268}, {"eventtype": "focus", "value": "on", "timestamp": 1693486119459, "interval": 60928}, {"eventtype": "focus", "value": "off", "timestamp": 1693486142535, "interval": 23076}, {"eventtype": "focus", "value": "on", "timestamp": 1693486147300, "interval": 4765}, {"eventtype": "focus", "value": "off", "timestamp": 1693486150852, "interval": 3552}, {"eventtype": "focus", "value": "on", "timestamp": 1693486159453, "interval": 8601}, {"eventtype": "focus", "value": "off", "timestamp": 1693486165990, "interval": 6537}, {"eventtype": "focus", "value": "on", "timestamp": 1693486168884, "interval": 2894}, {"eventtype": "window_resize", "value": [1025, 882], "timestamp": 1693486235000, "interval": 66116}, {"eventtype": "focus", "value": "off", "timestamp": 1693486238466, "interval": 3466}, {"eventtype": "focus", "value": "on", "timestamp": 1693486240635, "interval": 2169}, {"eventtype": "focus", "value": "off", "timestamp": 1693486243404, "interval": 2769}, {"eventtype": "focus", "value": "on", "timestamp": 1693486244404, "interval": 1000}, {"eventtype": "focus", "value": "off", "timestamp": 1693486255270, "interval": 10866}, {"eventtype": "focus", "value": "on", "timestamp": 1693486256643, "interval": 1373}, {"eventtype": "focus", "value": "off", "timestamp": 1693486292142, "interval": 35499}, {"eventtype": "focus", "value": "on", "timestamp": 1693486293248, "interval": 1106}, {"eventtype": "focus", "value": "off", "timestamp": 1693486302330, "interval": 9082}, {"eventtype": "focus", "value": "on", "timestamp": 1693486303308, "interval": 978}, {"eventtype": "focus", "value": "off", "timestamp": 1693486329174, "interval": 25866}, {"eventtype": "focus", "value": "on", "timestamp": 1693486332360, "interval": 3186}, {"eventtype": "focus", "value": "off", "timestamp": 1693486333704, "interval": 1344}, {"eventtype": "focus", "value": "on", "timestamp": 1693486334527, "interval": 823}, {"eventtype": "focus", "value": "off", "timestamp": 1693486334978, "interval": 451}, {"eventtype": "focus", "value": "on", "timestamp": 1693486340701, "interval": 5723}, {"eventtype": "focus", "value": "off", "timestamp": 1693486381654, "interval": 40953}, {"eventtype": "focus", "value": "on", "timestamp": 1693486399244, "interval": 17590}, {"eventtype": "focus", "value": "off", "timestamp": 1693486412614, "interval": 13370}, {"eventtype": "focus", "value": "on", "timestamp": 1693486419607, "interval": 6993}, {"eventtype": "focus", "value": "off", "timestamp": 1693486463662, "interval": 44055}, {"eventtype": "focus", "value": "on", "timestamp": 1693486470317, "interval": 6655}, {"eventtype": "focus", "value": "off", "timestamp": 1693486550549, "interval": 80232}, {"eventtype": "focus", "value": "on", "timestamp": 1693486550705, "interval": 156}, {"eventtype": "focus", "value": "off", "timestamp": 1693486552342, "interval": 1637}, {"eventtype": "focus", "value": "on", "timestamp": 1693486553942, "interval": 1600}, {"eventtype": "focus", "value": "off", "timestamp": 1693486567868, "interval": 13926}, {"eventtype": "focus", "value": "on", "timestamp": 1693486569412, "interval": 1544}, {"eventtype": "focus", "value": "off", "timestamp": 1693486601969, "interval": 32557}, {"eventtype": "focus", "value": "on", "timestamp": 1693486605027, "interval": 3058}, {"eventtype": "focus", "value": "off", "timestamp": 1693486608905, "interval": 3878}, {"eventtype": "focus", "value": "on", "timestamp": 1693486609488, "interval": 583}, {"eventtype": "focus", "value": "off", "timestamp": 1693486636057, "interval": 26569}, {"eventtype": "focus", "value": "on", "timestamp": 1693486639255, "interval": 3198}, {"eventtype": "focus", "value": "off", "timestamp": 1693486653449, "interval": 14194}, {"eventtype": "focus", "value": "on", "timestamp": 1693486658764, "interval": 5315}, {"eventtype": "focus", "value": "off", "timestamp": 1693486728861, "interval": 70097}, {"eventtype": "focus", "value": "on", "timestamp": 1693486729663, "interval": 802}, {"eventtype": "focus", "value": "off", "timestamp": 1693486773443, "interval": 43780}, {"eventtype": "focus", "value": "on", "timestamp": 1693486782698, "interval": 9255}, {"eventtype": "focus", "value": "off", "timestamp": 1693486795788, "interval": 13090}, {"eventtype": "focus", "value": "on", "timestamp": 1693486965332, "interval": 169544}, {"eventtype": "focus", "value": "off", "timestamp": 1693487000796, "interval": 35464}, {"eventtype": "focus", "value": "on", "timestamp": 1693487074157, "interval": 73361}, {"eventtype": "focus", "value": "off", "timestamp": 1693487096179, "interval": 22022}, {"eventtype": "focus", "value": "on", "timestamp": 1693487096973, "interval": 794}, {"eventtype": "focus", "value": "off", "timestamp": 1693487110124, "interval": 13151}, {"eventtype": "focus", "value": "on", "timestamp": 1693487112173, "interval": 2049}, {"eventtype": "focus", "value": "off", "timestamp": 1693487166164, "interval": 53991}, {"eventtype": "focus", "value": "on", "timestamp": 1693487169306, "interval": 3142}, {"eventtype": "focus", "value": "off", "timestamp": 1693487190708, "interval": 21402}, {"eventtype": "focus", "value": "on", "timestamp": 1693487191828, "interval": 1120}, {"eventtype": "focus", "value": "off", "timestamp": 1693487320708, "interval": 128880}, {"eventtype": "focus", "value": "on", "timestamp": 1693487324203, "interval": 3495}], "useragent": "Mozilla/5.0 (Windows NT 10.0; Win64; x64) AppleWebKit/537.36 (KHTML, like Gecko) Chrome/116.0.0.0 Safari/537.36 Edg/116.0.1938.62", "mode": "live", "id": "w70440515:a13143526", "status": "user data saved", "Beginhit": "2023-08-31 12:45:38.983878", "Beginexp": "2023-08-31 12:45:45.512675", "Endhit": "2023-08-31 13:08:47.563613", "psiturkStatus": 3, "browser": "<redacted>", "platform": "windows", "language": "en-GB"}