{"condition": 1, "counterbalance": 0, "assignmentId": "a13127502", "workerId": "w88754560", "hitId": "h39154095", "currenttrial": 56, "bonus": 0, "data": [{"uniqueid": "w88754560:a13127502", "current_trial": 0, "dateTime": 1693660372565, "trialdata": {"success": true, "trial_type": "fullscreen", "trial_index": 0, "time_elapsed": 3033, "internal_node_id": "0.0-0.0"}}, {"uniqueid": "w88754560:a13127502", "current_trial": 1, "dateTime": 1693660377731, "trialdata": {"view_history": [{"page_index": 0, "viewing_time": 5163}], "rt": 5164, "trial_id": "exp_instructions_misaligned", "trial_type": "instructions", "trial_index": 1, "time_elapsed": 8199, "internal_node_id": "0.0-1.0"}}, {"uniqueid": "w88754560:a13127502", "current_trial": 2, "dateTime": 1693660522916, "trialdata": {"view_history": [{"page_index": 0, "viewing_time": 34230}, {"page_index": 1, "viewing_time": 66444}, {"page_index": 2, "viewing_time": 15777}, {"page_index": 3, "viewing_time": 28734}], "rt": 145184, "trial_id": "mouselab_instructions_1_misaligned", "trial_type": "instructions", "trial_index": 2, "time_elapsed": 153384, "internal_node_id": "0.0-2.0-1.0"}}, {"uniqueid": "w88754560:a13127502", "current_trial": 3, "dateTime": 1693660558184, "trialdata": {"revealed_states": [], "clicked_states": ["23", "12", "24", "25", "30", "32", "13", "14", "15", "1", "2", "3"], "num_clicks_accrued": [0, 0, 0, 0, 0, 0, 0, 0, 0, 0, 0, 0, 0], "stateRewards": ["", -10, 10, -10, 10, -10, -10, -10, 10, 10, 10, -10, -10, -10, 10, 10, -10, -10, -10, 10, 10, 10, -10, 10, -10, -10, 10, 10, 10, 10, -10, -10, 10, -10], "withholdReward": false, "trial_id": "practice_1", "block": "test", "trialIndex": 0, "score": -12.5, "costs": -6, "simulationMode": [null, null, null, null, null], "rewards": [-10, -10, 10, 10, -10], "path": ["0", "0", "12", "13", "14", "15", "16"], "rt": [22441, 449, 347, 414, 761], "actions": ["right", "right", "right", "up", "up"], "actionTimes": [24428, 25378, 26226, 27128, 28392], "queries": {"click": {"state": {"target": ["23", "12", "24", "25", "30", "32", "13", "14", "15", "1", "2", "3"], "time": [4305, 5755, 8524, 10614, 12236, 13581, 14640, 15785, 16935, 18410, 19887, 21538]}, "edge": {"target": [], "time": []}}, "mouseover": {"state": {"target": ["23", "12", "13", "0", "24", "25", "25", "30", "32", "13", "14", "13", "13", "14", "15", "18", "1", "1", "2", "3", "7", "15", "14", "13"], "time": [3843, 5661, 6478, 8096, 8413, 8980, 10048, 11883, 12817, 14035, 14168, 14302, 14502, 15053, 16270, 17204, 17321, 17688, 18889, 21324, 21875, 23309, 23493, 23576]}, "edge": {"target": [], "time": []}}, "mouseout": {"state": {"target": ["12", "12", "0", "23", "12", "12", "13", "12", "0", "23", "24", "25", "24", "25", "30", "32", "13", "14", "13", "13", "14", "15", "18", "1", "1", "2", "3", "7", "15", "14", "13"], "time": [590, 823, 2141, 5127, 5777, 5978, 8046, 8080, 8146, 8330, 8864, 9564, 9931, 11199, 12733, 13785, 14102, 14252, 14385, 15002, 16153, 17171, 17238, 17404, 18672, 20674, 21775, 23109, 23410, 23560, 23610]}, "edge": {"target": [], "time": []}}}, "displayed_time": "28.88", "trialTime": 34967, "trial_type": "mouselab-mdp", "trial_index": 3, "time_elapsed": 188652, "internal_node_id": "0.0-2.0-2.0-0.0"}}, {"uniqueid": "w88754560:a13127502", "current_trial": 4, "dateTime": 1693660572725, "trialdata": {"revealed_states": [], "clicked_states": [], "num_clicks_accrued": [0, 0, 0, 0, 0, 0, 0, 0, 0, 0, 0, 0, 0], "stateRewards": ["", -10, -10, 10, 10, -10, -10, 10, 10, 10, 10, 10, 10, -10, -10, 10, -10, -10, -10, 10, 10, -10, 10, 10, 10, -10, 10, -10, 10, -10, 10, -10, 10, 10], "withholdReward": false, "trial_id": "practice_2", "block": "test", "trialIndex": 1, "score": -6.5, "costs": 0, "simulationMode": [null, null, null, null, null], "rewards": [-10, -10, 10, 10, -10], "path": ["0", "0", "1", "2", "3", "4", "6"], "rt": [4500, 328, 301, 352, 773], "actions": ["up", "up", "up", "right", "right"], "actionTimes": [7278, 8098, 8888, 9740, 11012], "queries": {"click": {"state": {"target": [], "time": []}, "edge": {"target": [], "time": []}}, "mouseover": {"state": {"target": [], "time": []}, "edge": {"target": [], "time": []}}, "mouseout": {"state": {"target": ["0"], "time": [2814]}, "edge": {"target": [], "time": []}}}, "displayed_time": "11.51", "trialTime": 14384, "trial_type": "mouselab-mdp", "trial_index": 4, "time_elapsed": 203193, "internal_node_id": "0.0-2.0-2.0-1.0"}}, {"uniqueid": "w88754560:a13127502", "current_trial": 5, "dateTime": 1693660716613, "trialdata": {"view_history": [{"page_index": 0, "viewing_time": 141925}, {"page_index": 1, "viewing_time": 1962}], "rt": 143887, "trial_id": "mouselab_instructions_2_misaligned", "trial_type": "instructions", "trial_index": 5, "time_elapsed": 347081, "internal_node_id": "0.0-2.0-3.0"}}, {"uniqueid": "w88754560:a13127502", "current_trial": 6, "dateTime": 1693660741952, "trialdata": {"rt": 25337, "response": {"Q0": "The cost for clicking on nodes may vary between nodes.", "Q1": "The better I perform the higher my bonus will be.", "Q2": "No, the amount of cash at each node of the web may be different each time.", "Q3": "To get the highest total score.", "Q4": "Only before moving the spider.", "Q5": "3 seconds"}, "question_order": [0, 1, 2, 3, 4, 5], "correct": {"Q0": "The cost for clicking on nodes may vary between nodes.", "Q1": "The better I perform the higher my bonus will be.", "Q2": "No, the amount of cash at each node of the web may be different each time.", "Q3": "To get the highest total score.", "Q4": "Only before moving the spider.", "Q5": "3 seconds"}, "trial_id": "mouselab_quiz_misaligned", "trial_type": "survey-multi-choice", "trial_index": 6, "time_elapsed": 372420, "internal_node_id": "0.0-2.0-4.0"}}, {"uniqueid": "w88754560:a13127502", "current_trial": 7, "dateTime": 1693660746546, "trialdata": {"rt": 4590, "response": {"Q0": "No"}, "question_order": [0], "trial_id": "repeat_check", "trial_type": "survey-multi-choice", "trial_index": 7, "time_elapsed": 377014, "internal_node_id": "0.0-4.0-0.0"}}, {"uniqueid": "w88754560:a13127502", "current_trial": 8, "dateTime": 1693660751285, "trialdata": {"rt": 4736, "stimulus": "\n<h1> Get ready to start the game! </h1>\n\nThank you for reading the instructions. Get ready start with the 40 rounds of this game.\n<br><br>\nIf you need to take a break, feel free to take one after the end of a round, before continuing to the next one.\n<br><br>\nRemember, the more money the spider gets, the bigger your bonus will be!\n<br><br>\n<div style='text-align: center;'>Press <code>space</code> to begin.</div>\n\n<br><br>\n(If, at any point, the <code>space</code> key does not take you to the next page, click once on the text and try again.)", "response": " ", "trial_id": "mdp_ready", "trial_type": "html-keyboard-response", "trial_index": 8, "time_elapsed": 381753, "internal_node_id": "0.0-6.0-0.0"}}, {"uniqueid": "w88754560:a13127502", "current_trial": 9, "dateTime": 1693660773223, "trialdata": {"revealed_states": [], "clicked_states": ["12", "16", "27", "5"], "num_clicks_accrued": [0, 0, 0, 0, 0, 0, 0, 0, 0, 0, 0, 0, 0], "stateRewards": ["", -2, 4, -3, -13, 63, -36, 62, 11, 78, 34, -51, 2, -2, 8, -6, -40, -18, 31, 9, 64, 39, 79, 1, 4, -4, 15, -12, 76, 73, -10, -77, 86, -4], "withholdReward": false, "trial_id": "mdp_trial_1", "block": "test", "trialIndex": 2, "score": 81.8, "costs": -6.199999999999999, "simulationMode": [null, null, null, null, null, null], "rewards": [-2, 4, -3, 11, 78], "path": ["0", "0", "1", "2", "3", "8", "9"], "rt": [9552, 2448, 68, 46, 15, 236], "actions": ["up", "up", "up", "up", "left", "up"], "actionTimes": [11304, 13754, 14323, 14868, 15387, 16125], "queries": {"click": {"state": {"target": ["12", "16", "27", "5"], "time": [2879, 3816, 6673, 9676]}, "edge": {"target": [], "time": []}}, "mouseover": {"state": {"target": ["12", "13", "15", "16", "15", "18", "23", "24", "26", "27", "28", "1", "2", "7", "6", "4", "3", "8", "11", "27", "27", "10", "2", "7", "4", "5", "18", "19"], "time": [2493, 3228, 3294, 3528, 4045, 4278, 4512, 4629, 4896, 5096, 5363, 5646, 5696, 5746, 6063, 6263, 6297, 6330, 6363, 6447, 6613, 6914, 6964, 7047, 7431, 7582, 10250, 11952]}, "edge": {"target": [], "time": []}}, "mouseout": {"state": {"target": ["0", "12", "13", "15", "16", "15", "18", "23", "24", "26", "27", "28", "1", "2", "7", "6", "4", "3", "8", "11", "27", "27", "10", "2", "7", "4", "5", "18", "19"], "time": [1826, 3011, 3261, 3311, 3995, 4111, 4328, 4579, 4762, 4979, 5313, 5413, 5663, 5713, 5780, 6130, 6280, 6313, 6347, 6380, 6497, 6847, 6947, 7014, 7398, 7498, 9983, 10284, 12068]}, "edge": {"target": [], "time": []}}}, "displayed_time": "16.62", "trialTime": 21781, "trial_type": "mouselab-mdp", "trial_index": 9, "time_elapsed": 403691, "internal_node_id": "0.0-6.0-1.0-0.0"}}, {"uniqueid": "w88754560:a13127502", "current_trial": 10, "dateTime": 1693660802280, "trialdata": {"revealed_states": [], "clicked_states": ["23", "12", "16", "21", "32", "27"], "num_clicks_accrued": [0, 0, 0, 0, 0, 0, 0, 0, 0, 0, 0, 0, 0], "stateRewards": ["", -1, -2, 4, 9, 10, -75, 39, 16, -43, 88, -19, -1, 1, 2, 4, -31, 10, 73, 12, 41, -64, -81, -2, 2, -6, 1, -81, -1, -26, 3, -59, -3, -20], "withholdReward": false, "trial_id": "mdp_trial_2", "block": "test", "trialIndex": 3, "score": -73.1, "costs": -8.1, "simulationMode": [null, null, null, null, null], "rewards": [-1, -2, 4, 9, -75], "path": ["0", "0", "1", "2", "3", "4", "6"], "rt": [18170, 11, 46, 77, 262], "actions": ["up", "up", "up", "right", "right"], "actionTimes": [23123, 23625, 24177, 24759, 25511], "queries": {"click": {"state": {"target": ["23", "12", "16", "21", "32", "27"], "time": [6297, 7900, 10048, 13133, 16363, 19492]}, "edge": {"target": [], "time": []}}, "mouseover": {"state": {"target": ["12", "13", "12", "0", "23", "23", "12", "22", "14", "15", "16", "16", "15", "14", "19", "21", "32", "32", "31", "25", "26", "27", "18", "0", "0"], "time": [5281, 5331, 5414, 5464, 5697, 6128, 7365, 8934, 8984, 9017, 9100, 9450, 11269, 11419, 11502, 11669, 14005, 14405, 17141, 17224, 17424, 17624, 20594, 21911, 22495]}, "edge": {"target": [], "time": []}}, "mouseout": {"state": {"target": ["12", "0", "12", "13", "12", "0", "23", "23", "12", "22", "14", "15", "16", "16", "15", "14", "19", "21", "32", "32", "31", "25", "26", "27", "18", "0", "0"], "time": [4613, 5264, 5314, 5347, 5447, 5514, 5781, 6599, 8050, 8951, 9000, 9050, 9251, 10869, 11369, 11452, 11586, 13387, 14171, 16807, 17174, 17374, 17508, 19759, 20610, 21978, 22529]}, "edge": {"target": [], "time": []}}}, "displayed_time": "26.00", "trialTime": 28904, "trial_type": "mouselab-mdp", "trial_index": 10, "time_elapsed": 432748, "internal_node_id": "0.0-6.0-1.0-1.0"}}, {"uniqueid": "w88754560:a13127502", "current_trial": 11, "dateTime": 1693660842458, "trialdata": {"revealed_states": [], "clicked_states": ["23", "12", "29", "33", "20", "17", "16", "5", "9", "3"], "num_clicks_accrued": [0, 0, 0, 0, 0, 0, 0, 0, 0, 0, 0, 0, 0], "stateRewards": ["", 1, 1, -5, 8, -6, 45, 16, -6, -7, -22, -38, -1, -4, 8, -11, -16, 21, -45, -15, -59, -32, 42, -1, 3, 6, 11, -7, 34, -27, -8, 85, 43, -9], "withholdReward": false, "trial_id": "mdp_trial_3", "block": "test", "trialIndex": 4, "score": -2.5, "costs": -15.5, "simulationMode": [null, null, null, null, null], "rewards": [-1, -4, 8, -11, 21], "path": ["0", "0", "12", "13", "14", "15", "17"], "rt": [30750, 271, 233, 341, 40], "actions": ["right", "right", "right", "up", "right"], "actionTimes": [32042, 32800, 33529, 34371, 34904], "queries": {"click": {"state": {"target": ["23", "12", "29", "33", "20", "17", "16", "5", "9", "3"], "time": [2534, 4847, 7258, 10582, 13410, 16455, 19288, 22731, 25657, 28625]}, "edge": {"target": [], "time": []}}, "mouseover": {"state": {"target": ["12", "12", "0", "23", "23", "23", "0", "12", "25", "29", "25", "33", "30", "31", "22", "19", "20", "17", "16", "6", "5", "9", "4", "3", "4", "6"], "time": [1534, 1935, 1985, 2068, 2218, 2402, 2736, 2869, 6772, 7022, 7873, 8023, 10893, 10943, 11160, 11193, 11510, 14079, 16731, 20101, 20484, 23937, 27190, 27741, 29008, 29092]}, "edge": {"target": [], "time": []}}, "mouseout": {"state": {"target": ["12", "0", "12", "12", "0", "23", "23", "23", "0", "12", "25", "29", "25", "33", "30", "31", "22", "19", "20", "17", "16", "6", "5", "9", "4", "3", "4", "6"], "time": [600, 1367, 1568, 1951, 2035, 2101, 2268, 2702, 2802, 5087, 6906, 7756, 7890, 10860, 10926, 10976, 11176, 11210, 13729, 16631, 19767, 20117, 23520, 26356, 27357, 28992, 29058, 29175]}, "edge": {"target": [], "time": []}}}, "displayed_time": "35.41", "trialTime": 40031, "trial_type": "mouselab-mdp", "trial_index": 11, "time_elapsed": 472926, "internal_node_id": "0.0-6.0-1.0-2.0"}}, {"uniqueid": "w88754560:a13127502", "current_trial": 12, "dateTime": 1693660870521, "trialdata": {"revealed_states": [], "clicked_states": ["17", "20", "33", "29", "9", "5"], "num_clicks_accrued": [0, 0, 0, 0, 0, 0, 0, 0, 0, 0, 0, 0, 0], "stateRewards": ["", -2, 2, -4, -4, -59, 88, 62, -3, 69, -15, -34, 1, -2, -5, 7, -54, -20, 78, -16, -74, -53, -21, 2, -4, 2, 13, -8, -44, 26, 9, 72, 4, 17], "withholdReward": false, "trial_id": "mdp_trial_4", "block": "test", "trialIndex": 5, "score": 49.1, "costs": -12.9, "simulationMode": [null, null, null, null, null], "rewards": [-2, 2, -4, -3, 69], "path": ["0", "0", "1", "2", "3", "8", "9"], "rt": [21781, 384, 47, 453, 97], "actions": ["up", "up", "up", "left", "up"], "actionTimes": [23426, 24298, 24845, 25801, 26413], "queries": {"click": {"state": {"target": ["17", "20", "33", "29", "9", "5"], "time": [3202, 6681, 10127, 13595, 17146, 20323]}, "edge": {"target": [], "time": []}}, "mouseover": {"state": {"target": ["12", "18", "15", "17", "17", "20", "20", "21", "32", "33", "33", "30", "25", "29", "8", "9", "5", "6"], "time": [1894, 2311, 2361, 2395, 2545, 3746, 6415, 7166, 8867, 9734, 10034, 10535, 10618, 10718, 13988, 14322, 17925, 21261]}, "edge": {"target": [], "time": []}}, "mouseout": {"state": {"target": ["6", "1", "0", "0", "12", "18", "15", "17", "17", "20", "20", "21", "32", "33", "33", "30", "25", "29", "8", "9", "5", "6"], "time": [843, 926, 993, 1777, 1911, 2345, 2378, 2411, 3396, 6148, 6932, 7183, 9634, 9768, 10502, 10585, 10669, 13838, 14021, 17775, 20627, 21277]}, "edge": {"target": [], "time": []}}}, "displayed_time": "26.92", "trialTime": 27920, "trial_type": "mouselab-mdp", "trial_index": 12, "time_elapsed": 500989, "internal_node_id": "0.0-6.0-1.0-3.0"}}, {"uniqueid": "w88754560:a13127502", "current_trial": 13, "dateTime": 1693660897921, "trialdata": {"revealed_states": [], "clicked_states": ["33", "29", "9"], "num_clicks_accrued": [0, 0, 0, 0, 0, 0, 0, 0, 0, 0, 0, 0, 0], "stateRewards": ["", 2, -1, -1, -9, -81, -30, 55, -6, 78, 25, 62, 2, 4, -1, 9, -85, 1, -19, 1, -60, 12, -34, 1, 4, -1, -13, -24, -16, -83, -8, 16, 43, 9], "withholdReward": false, "trial_id": "mdp_trial_5", "block": "test", "trialIndex": 6, "score": 65.55, "costs": -6.449999999999999, "simulationMode": [null, null, null, null, null], "rewards": [2, -1, -1, -6, 78], "path": ["0", "0", "1", "2", "3", "8", "9"], "rt": [12277, 482, 56, 12, 85], "actions": ["up", "up", "up", "left", "up"], "actionTimes": [18617, 19588, 20146, 20652, 21243], "queries": {"click": {"state": {"target": ["33", "29", "9"], "time": [7762, 10874, 14235]}, "edge": {"target": [], "time": []}}, "mouseover": {"state": {"target": ["23", "24", "33", "29", "26", "11", "9", "9", "5", "5", "6", "13"], "time": [7145, 7163, 7395, 8646, 11465, 12016, 13484, 13800, 14518, 14868, 18005, 18171]}, "edge": {"target": [], "time": []}}, "mouseout": {"state": {"target": ["7", "31", "21", "0", "23", "24", "33", "33", "29", "26", "11", "9", "9", "5", "5", "6"], "time": [3425, 3825, 4342, 6836, 7162, 7178, 7847, 8013, 11132, 11866, 12049, 13750, 14468, 14551, 17971, 18026]}, "edge": {"target": [], "time": []}}}, "displayed_time": "21.74", "trialTime": 27258, "trial_type": "mouselab-mdp", "trial_index": 13, "time_elapsed": 528389, "internal_node_id": "0.0-6.0-1.0-4.0"}}, {"uniqueid": "w88754560:a13127502", "current_trial": 14, "dateTime": 1693660925974, "trialdata": {"revealed_states": [], "clicked_states": ["20", "17", "6", "11", "27", "33"], "num_clicks_accrued": [0, 0, 0, 0, 0, 0, 0, 0, 0, 0, 0, 0, 0], "stateRewards": ["", 1, -2, -8, -13, 4, 34, -84, -4, -49, 88, -70, -1, 3, -4, 10, -77, 13, -34, 15, -21, -16, 27, 1, -2, 8, -8, -6, 38, -26, 6, -15, 66, -3], "withholdReward": false, "trial_id": "mdp_trial_6", "block": "test", "trialIndex": 7, "score": -0.8999999999999986, "costs": -12.9, "simulationMode": [null, null, null, null, null], "rewards": [1, -2, -8, -13, 34], "path": ["0", "0", "1", "2", "3", "4", "6"], "rt": [22130, 419, 47, 25, 110], "actions": ["up", "up", "up", "right", "right"], "actionTimes": [23545, 24459, 25004, 25532, 26135], "queries": {"click": {"state": {"target": ["20", "17", "6", "11", "27", "33"], "time": [2208, 5256, 8561, 12632, 16104, 19601]}, "edge": {"target": [], "time": []}}, "mouseover": {"state": {"target": ["12", "13", "14", "20", "17", "16", "6", "5", "6", "4", "3", "8", "11", "11", "9", "11", "8", "3", "3", "10", "27", "29", "33", "30"], "time": [1502, 1569, 1636, 1919, 2937, 5523, 5673, 6540, 7908, 8709, 8759, 8809, 8892, 9493, 12278, 12578, 12862, 12962, 13463, 13680, 15898, 17449, 19501, 19868]}, "edge": {"target": [], "time": []}}, "mouseout": {"state": {"target": ["13", "13", "12", "12", "13", "14", "20", "17", "16", "6", "5", "6", "4", "3", "8", "11", "11", "9", "11", "8", "3", "3", "10", "27", "27", "29", "33", "30"], "time": [651, 951, 1052, 1536, 1602, 1703, 2337, 5456, 5539, 6457, 7808, 8565, 8742, 8792, 8842, 9109, 11945, 12495, 12845, 12912, 13046, 13530, 13763, 16184, 17333, 19251, 19818, 20085]}, "edge": {"target": [], "time": []}}}, "displayed_time": "26.63", "trialTime": 27901, "trial_type": "mouselab-mdp", "trial_index": 14, "time_elapsed": 556442, "internal_node_id": "0.0-6.0-1.0-5.0"}}, {"uniqueid": "w88754560:a13127502", "current_trial": 15, "dateTime": 1693660946217, "trialdata": {"revealed_states": [], "clicked_states": ["32", "27"], "num_clicks_accrued": [0, 0, 0, 0, 0, 0, 0, 0, 0, 0, 0, 0, 0], "stateRewards": ["", -2, -3, -7, 7, -54, -69, -4, -14, -77, 22, 40, -2, -1, 5, 6, -35, 50, -60, 10, -28, 75, 57, 1, -4, -2, 2, 68, 34, -18, 12, 3, -21, -43], "withholdReward": false, "trial_id": "mdp_trial_7", "block": "test", "trialIndex": 8, "score": 60.7, "costs": -4.3, "simulationMode": [null, null, null, null, null], "rewards": [1, -4, -2, 2, 68], "path": ["0", "0", "23", "24", "25", "26", "27"], "rt": [8725, 516, 154, 97, 133], "actions": ["left", "left", "left", "up", "up"], "actionTimes": [13335, 14346, 15002, 15595, 16215], "queries": {"click": {"state": {"target": ["32", "27"], "time": [5667, 8930]}, "edge": {"target": [], "time": []}}, "mouseover": {"state": {"target": ["23", "30", "32", "33", "29", "29", "27", "10", "8"], "time": [4888, 5004, 5221, 5939, 7023, 7657, 7991, 9408, 9692]}, "edge": {"target": [], "time": []}}, "mouseout": {"state": {"target": ["32", "21", "22", "23", "30", "32", "33", "29", "29", "27", "10", "8"], "time": [3886, 4137, 4220, 4904, 5071, 5789, 6956, 7041, 7890, 9225, 9675, 9759]}, "edge": {"target": [], "time": []}}}, "displayed_time": "18.61", "trialTime": 20085, "trial_type": "mouselab-mdp", "trial_index": 15, "time_elapsed": 576685, "internal_node_id": "0.0-6.0-1.0-6.0"}}, {"uniqueid": "w88754560:a13127502", "current_trial": 16, "dateTime": 1693660965235, "trialdata": {"revealed_states": [], "clicked_states": ["21", "22"], "num_clicks_accrued": [0, 0, 0, 0, 0, 0, 0, 0, 0, 0, 0, 0, 0], "stateRewards": ["", -1, 2, -2, 5, 80, -61, -27, 12, 44, -26, -75, -2, -4, 1, -16, 42, -49, -50, 4, -44, 2, 80, -2, -2, 5, -2, 59, 10, 24, 7, -48, -86, -44], "withholdReward": false, "trial_id": "mdp_trial_8", "block": "test", "trialIndex": 9, "score": 74.7, "costs": -4.3, "simulationMode": [null, null, null, null, null], "rewards": [-2, -4, 1, 4, 80], "path": ["0", "0", "12", "13", "14", "19", "22"], "rt": [10214, 282, 2, 20, 33], "actions": ["right", "right", "right", "down", "left"], "actionTimes": [12463, 13237, 13739, 14275, 14805], "queries": {"click": {"state": {"target": ["21", "22"], "time": [4762, 8193]}, "edge": {"target": [], "time": []}}, "mouseover": {"state": {"target": ["0", "22", "19", "20", "20", "21", "21", "20", "21", "19", "20", "14", "22", "13", "22", "19", "0", "31", "30", "33", "30", "31"], "time": [2477, 2660, 2710, 2760, 3277, 3394, 3795, 4345, 4495, 4979, 5062, 5613, 5713, 6263, 6564, 8632, 9583, 9783, 9816, 10100, 11735, 11753]}, "edge": {"target": [], "time": []}}, "mouseout": {"state": {"target": ["3", "2", "1", "0", "22", "19", "20", "20", "21", "21", "20", "21", "19", "20", "14", "22", "13", "22", "19", "0", "31", "30", "33", "30", "31"], "time": [1792, 1859, 2026, 2543, 2694, 2744, 2777, 3311, 3678, 4278, 4462, 4879, 4996, 5179, 5663, 6247, 6497, 8582, 8799, 9683, 9800, 10017, 11718, 11751, 11770]}, "edge": {"target": [], "time": []}}}, "displayed_time": "16.25", "trialTime": 18860, "trial_type": "mouselab-mdp", "trial_index": 16, "time_elapsed": 595703, "internal_node_id": "0.0-6.0-1.0-7.0"}}, {"uniqueid": "w88754560:a13127502", "current_trial": 17, "dateTime": 1693660986426, "trialdata": {"revealed_states": [], "clicked_states": ["31"], "num_clicks_accrued": [0, 0, 0, 0, 0, 0, 0, 0, 0, 0, 0, 0, 0], "stateRewards": ["", 2, 4, 4, -8, -36, -33, 38, 16, -51, 57, 57, 1, 3, 4, -6, 45, 68, 87, 1, 63, 24, -55, -2, 2, -6, -13, -63, -50, 8, 2, 80, 6, 60], "withholdReward": false, "trial_id": "mdp_trial_9", "block": "test", "trialIndex": 10, "score": 73.85, "costs": -2.15, "simulationMode": [null, null, null, null, null], "rewards": [-2, 2, -6, 2, 80], "path": ["0", "0", "23", "24", "25", "30", "31"], "rt": [5053, 507, 76, 8, 4], "actions": ["left", "left", "left", "down", "right"], "actionTimes": [6942, 7948, 8518, 9018, 9530], "queries": {"click": {"state": {"target": ["31"], "time": [3062]}, "edge": {"target": [], "time": []}}, "mouseover": {"state": {"target": ["0", "31", "30", "31", "32"], "time": [1919, 2435, 2469, 2969, 3486]}, "edge": {"target": [], "time": []}}, "mouseout": {"state": {"target": ["22", "12", "0", "31", "30", "31", "32"], "time": [734, 1017, 2152, 2452, 2502, 3303, 6339]}, "edge": {"target": [], "time": []}}}, "displayed_time": "15.89", "trialTime": 21027, "trial_type": "mouselab-mdp", "trial_index": 17, "time_elapsed": 616894, "internal_node_id": "0.0-6.0-1.0-8.0"}}, {"uniqueid": "w88754560:a13127502", "current_trial": 18, "dateTime": 1693661007496, "trialdata": {"revealed_states": [], "clicked_states": ["32"], "num_clicks_accrued": [0, 0, 0, 0, 0, 0, 0, 0, 0, 0, 0, 0, 0], "stateRewards": ["", -2, 1, -8, 12, -65, -79, 16, 7, -80, -17, -45, -2, 2, -5, -2, -85, 23, -4, -7, 48, 27, -76, 2, 3, 5, 2, 43, 71, -13, 7, -49, 59, -31], "withholdReward": false, "trial_id": "mdp_trial_10", "block": "test", "trialIndex": 11, "score": 73.85, "costs": -2.15, "simulationMode": [null, null, null, null, null], "rewards": [2, 3, 5, 7, 59], "path": ["0", "0", "23", "24", "25", "30", "32"], "rt": [5263, 389, 65, 350, 4502], "actions": ["left", "left", "left", "down", "down"], "actionTimes": [8321, 9208, 9768, 10620, 15623], "queries": {"click": {"state": {"target": ["32"], "time": [3955]}, "edge": {"target": [], "time": []}}, "mouseover": {"state": {"target": ["32", "29"], "time": [3781, 4398]}, "edge": {"target": [], "time": []}}, "mouseout": {"state": {"target": ["0", "32", "29", "25", "33", "30", "31"], "time": [3281, 4019, 13372, 13472, 14056, 14122, 15090]}, "edge": {"target": [], "time": []}}}, "displayed_time": "17.06", "trialTime": 20890, "trial_type": "mouselab-mdp", "trial_index": 18, "time_elapsed": 637963, "internal_node_id": "0.0-6.0-1.0-9.0"}}, {"uniqueid": "w88754560:a13127502", "current_trial": 19, "dateTime": 1693661023885, "trialdata": {"revealed_states": [], "clicked_states": ["32", "27"], "num_clicks_accrued": [0, 0, 0, 0, 0, 0, 0, 0, 0, 0, 0, 0, 0], "stateRewards": ["", 2, -1, 5, 8, 75, -35, -77, 1, -9, -81, -58, 1, 2, -7, 5, 77, -16, 19, 16, -10, -18, 40, -2, 3, 7, -5, 64, 1, -62, 10, 27, 10, 65], "withholdReward": false, "trial_id": "mdp_trial_11", "block": "test", "trialIndex": 12, "score": 62.7, "costs": -4.3, "simulationMode": [null, null, null, null, null], "rewards": [-2, 3, 7, -5, 64], "path": ["0", "0", "23", "24", "25", "26", "27"], "rt": [10024, 502, 51, 407, 611], "actions": ["left", "left", "left", "up", "up"], "actionTimes": [11075, 12078, 12628, 13534, 14638], "queries": {"click": {"state": {"target": ["32", "27"], "time": [3356, 6552]}, "edge": {"target": [], "time": []}}, "mouseover": {"state": {"target": ["12", "23", "31", "32", "31", "25", "26", "27", "11"], "time": [1265, 1716, 1766, 2266, 3651, 3801, 3985, 4485, 7120]}, "edge": {"target": [], "time": []}}, "mouseout": {"state": {"target": ["0", "0", "12", "23", "31", "32", "31", "25", "26", "27"], "time": [498, 1199, 1432, 1733, 1783, 3567, 3718, 3851, 4285, 6703]}, "edge": {"target": [], "time": []}}}, "displayed_time": "15.13", "trialTime": 16215, "trial_type": "mouselab-mdp", "trial_index": 19, "time_elapsed": 654353, "internal_node_id": "0.0-6.0-1.0-10.0"}}, {"uniqueid": "w88754560:a13127502", "current_trial": 20, "dateTime": 1693661052845, "trialdata": {"revealed_states": [], "clicked_states": [], "num_clicks_accrued": [0, 0, 0, 0, 0, 0, 0, 0, 0, 0, 0, 0, 0], "stateRewards": ["", 1, -2, -8, -3, 31, -84, -55, -14, 15, -58, 17, -2, -3, 7, 7, -12, 48, 67, 4, -44, -68, 46, 2, 3, -5, -7, 76, 27, 5, 11, 57, 52, 59], "withholdReward": false, "trial_id": "mdp_trial_12", "block": "test", "trialIndex": 13, "score": -3, "costs": 0, "simulationMode": [null, null, null, null, null], "rewards": [-2, -3, 7, 7, -12], "path": ["0", "0", "12", "13", "14", "15", "16"], "rt": [1146, 105, 546, 348, 530], "actions": ["right", "right", "right", "up", "up"], "actionTimes": [13460, 14073, 15131, 15967, 16999], "queries": {"click": {"state": {"target": [], "time": []}, "edge": {"target": [], "time": []}}, "mouseover": {"state": {"target": [], "time": []}, "edge": {"target": [], "time": []}}, "mouseout": {"state": {"target": ["11", "10", "1", "0", "28"], "time": [11480, 11880, 12030, 12648, 13883]}, "edge": {"target": [], "time": []}}}, "displayed_time": "26.31", "trialTime": 28784, "trial_type": "mouselab-mdp", "trial_index": 20, "time_elapsed": 683313, "internal_node_id": "0.0-6.0-1.0-11.0"}}, {"uniqueid": "w88754560:a13127502", "current_trial": 21, "dateTime": 1693661072218, "trialdata": {"revealed_states": [], "clicked_states": ["9", "5"], "num_clicks_accrued": [0, 0, 0, 0, 0, 0, 0, 0, 0, 0, 0, 0, 0], "stateRewards": ["", -2, -1, 3, -3, 71, -58, -21, 7, -10, -75, -37, 2, 4, -1, -12, -79, -29, -48, 3, -41, -10, -30, -1, -2, 1, -15, 13, 66, 22, -1, -42, -86, -55], "withholdReward": false, "trial_id": "mdp_trial_13", "block": "test", "trialIndex": 14, "score": 63.7, "costs": -4.3, "simulationMode": [null, null, null, null, null], "rewards": [-2, -1, 3, -3, 71], "path": ["0", "0", "1", "2", "3", "4", "5"], "rt": [9761, 43, 109, 388, 104], "actions": ["up", "up", "up", "right", "up"], "actionTimes": [13779, 14318, 14934, 15814, 16414], "queries": {"click": {"state": {"target": ["9", "5"], "time": [5104, 8500]}, "edge": {"target": [], "time": []}}, "mouseover": {"state": {"target": ["2", "11", "9", "5", "5", "6", "16", "6", "6"], "time": [4482, 4582, 4832, 5399, 5833, 10637, 11121, 12856, 13156]}, "edge": {"target": [], "time": []}}, "mouseout": {"state": {"target": ["14", "14", "13", "14", "0", "0", "2", "11", "9", "5", "5", "6", "16", "6", "6", "6", "5", "6", "18", "13", "22", "22"], "time": [1762, 1846, 2263, 2329, 3664, 4165, 4515, 4665, 5333, 5483, 10470, 10654, 11840, 12872, 15458, 17126, 17326, 17393, 17459, 17509, 17643, 18344]}, "edge": {"target": [], "time": []}}}, "displayed_time": "18.02", "trialTime": 19189, "trial_type": "mouselab-mdp", "trial_index": 21, "time_elapsed": 702686, "internal_node_id": "0.0-6.0-1.0-12.0"}}, {"uniqueid": "w88754560:a13127502", "current_trial": 22, "dateTime": 1693661101324, "trialdata": {"revealed_states": [], "clicked_states": ["9", "5", "6", "11", "10", "2", "7"], "num_clicks_accrued": [0, 0, 0, 0, 0, 0, 0, 0, 0, 0, 0, 0, 0], "stateRewards": ["", 1, 2, -3, -6, 50, -7, 7, -7, -80, 21, -1, 2, 2, 4, -1, 33, 84, 1, 14, -53, 81, 6, -2, -2, -3, -9, -87, -38, -59, -5, -74, -3, -71], "withholdReward": false, "trial_id": "mdp_trial_14", "block": "test", "trialIndex": 15, "score": 30.75, "costs": -13.25, "simulationMode": [null, null, null, null, null], "rewards": [1, 2, -3, -6, 50], "path": ["0", "0", "1", "2", "3", "4", "5"], "rt": [23425, 52, 320, 320, 47], "actions": ["up", "up", "up", "right", "up"], "actionTimes": [24678, 25227, 26045, 26863, 27407], "queries": {"click": {"state": {"target": ["9", "5", "6", "11", "10", "2", "7"], "time": [3365, 6597, 9995, 13129, 16284, 19508, 21411]}, "edge": {"target": [], "time": []}}, "mouseover": {"state": {"target": ["0", "1", "2", "3", "9", "8", "9", "11", "5", "6", "4", "3", "8", "11", "11", "10", "2", "7", "12", "12"], "time": [1470, 1803, 1837, 1887, 2137, 2938, 3154, 3505, 4190, 7058, 10211, 10261, 10294, 10346, 10844, 13630, 16516, 19735, 22137, 22271]}, "edge": {"target": [], "time": []}}, "mouseout": {"state": {"target": ["0", "0", "1", "2", "3", "9", "8", "9", "11", "5", "6", "4", "3", "8", "11", "11", "10", "2", "7", "12", "12"], "time": [1403, 1753, 1820, 1870, 2037, 2904, 3104, 3472, 3855, 6774, 10194, 10244, 10277, 10327, 10461, 13263, 16449, 19669, 22021, 22204, 28159]}, "edge": {"target": [], "time": []}}}, "displayed_time": "27.91", "trialTime": 28919, "trial_type": "mouselab-mdp", "trial_index": 22, "time_elapsed": 731791, "internal_node_id": "0.0-6.0-1.0-13.0"}}, {"uniqueid": "w88754560:a13127502", "current_trial": 23, "dateTime": 1693661120760, "trialdata": {"revealed_states": [], "clicked_states": ["32", "27", "16"], "num_clicks_accrued": [0, 0, 0, 0, 0, 0, 0, 0, 0, 0, 0, 0, 0], "stateRewards": ["", -2, 2, 8, -6, -25, 3, 87, 2, -62, -2, 74, -2, -1, 2, -1, 79, 49, -37, -14, 5, 67, -9, -1, 2, -2, 5, 15, 38, 32, -14, -38, -38, 30], "withholdReward": false, "trial_id": "mdp_trial_15", "block": "test", "trialIndex": 16, "score": 70.55, "costs": -6.449999999999999, "simulationMode": [null, null, null, null, null], "rewards": [-2, -1, 2, -1, 79], "path": ["0", "0", "12", "13", "14", "15", "16"], "rt": [12078, 36, 544, 95, 197], "actions": ["right", "right", "right", "up", "up"], "actionTimes": [14352, 14904, 15962, 16548, 17234], "queries": {"click": {"state": {"target": ["32", "27", "16"], "time": [4081, 7315, 10554]}, "edge": {"target": [], "time": []}}, "mouseover": {"state": {"target": ["1", "7", "7", "7", "2", "10", "26", "25", "30", "32", "24", "28", "27", "10", "2", "16", "16", "15", "14", "19", "21"], "time": [3007, 3190, 3374, 3424, 3474, 3524, 3674, 3708, 3791, 3974, 4558, 4591, 4842, 7544, 7579, 7677, 8078, 10780, 10813, 10897, 11097]}, "edge": {"target": [], "time": []}}, "mouseout": {"state": {"target": ["0", "12", "1", "1", "7", "7", "7", "2", "10", "26", "25", "30", "32", "24", "28", "27", "10", "2", "16", "16", "15", "14", "19", "21", "22"], "time": [404, 554, 1822, 3140, 3240, 3391, 3441, 3508, 3557, 3691, 3757, 3891, 4208, 4575, 4642, 7494, 7577, 7594, 7728, 10747, 10797, 10847, 10947, 14378, 18370]}, "edge": {"target": [], "time": []}}}, "displayed_time": "17.74", "trialTime": 19266, "trial_type": "mouselab-mdp", "trial_index": 23, "time_elapsed": 751227, "internal_node_id": "0.0-6.0-1.0-14.0"}}, {"uniqueid": "w88754560:a13127502", "current_trial": 24, "dateTime": 1693661139377, "trialdata": {"revealed_states": [], "clicked_states": ["32"], "num_clicks_accrued": [0, 0, 0, 0, 0, 0, 0, 0, 0, 0, 0, 0, 0], "stateRewards": ["", 1, 1, -5, 10, -31, 73, 14, -8, -23, 63, -70, -1, 2, 8, 7, 25, -59, 27, -10, -40, -71, -15, -2, 3, -8, -5, -19, 77, -34, 7, 67, 63, 19], "withholdReward": false, "trial_id": "mdp_trial_16", "block": "test", "trialIndex": 17, "score": 60.85, "costs": -2.15, "simulationMode": [null, null, null, null, null], "rewards": [-2, 3, -8, 7, 63], "path": ["0", "0", "23", "24", "25", "30", "32"], "rt": [6208, 38, 543, 98, 710], "actions": ["left", "left", "left", "down", "down"], "actionTimes": [8770, 9298, 10336, 10926, 12138], "queries": {"click": {"state": {"target": ["32"], "time": [3309]}, "edge": {"target": [], "time": []}}, "mouseover": {"state": {"target": ["0", "24", "30", "32", "31", "26", "28", "26", "27", "24"], "time": [2736, 2903, 2986, 3119, 3687, 3737, 5739, 6506, 7023, 7890]}, "edge": {"target": [], "time": []}}, "mouseout": {"state": {"target": ["0", "0", "24", "30", "32", "31", "26", "28", "26", "27", "24", "22"], "time": [2435, 2786, 2953, 3053, 3487, 3703, 3754, 6356, 6606, 7790, 7924, 15597]}, "edge": {"target": [], "time": []}}}, "displayed_time": "16.56", "trialTime": 18446, "trial_type": "mouselab-mdp", "trial_index": 24, "time_elapsed": 769844, "internal_node_id": "0.0-6.0-1.0-15.0"}}, {"uniqueid": "w88754560:a13127502", "current_trial": 25, "dateTime": 1693661157260, "trialdata": {"revealed_states": [], "clicked_states": ["10"], "num_clicks_accrued": [0, 0, 0, 0, 0, 0, 0, 0, 0, 0, 0, 0, 0], "stateRewards": ["", -2, -3, 4, 1, 33, -53, 15, 9, -12, 61, -6, -2, 4, 6, -11, 47, -43, -7, -11, 46, 23, -28, -1, -1, 3, -10, 11, 76, -76, 10, 18, -38, 87], "withholdReward": false, "trial_id": "mdp_trial_17", "block": "test", "trialIndex": 18, "score": 66.85, "costs": -2.15, "simulationMode": [null, null, null, null, null], "rewards": [-2, -3, 4, 9, 61], "path": ["0", "0", "1", "2", "3", "8", "10"], "rt": [9348, 369, 391, 304, 307], "actions": ["up", "up", "up", "left", "down"], "actionTimes": [11099, 11966, 12856, 13653, 14456], "queries": {"click": {"state": {"target": ["10"], "time": [4004]}, "edge": {"target": [], "time": []}}, "mouseover": {"state": {"target": ["1", "2", "3", "8", "11", "10", "8", "4", "7", "18", "18"], "time": [2505, 2672, 2788, 2938, 3122, 3823, 4390, 4890, 5007, 9728, 10078]}, "edge": {"target": [], "time": []}}, "mouseout": {"state": {"target": ["21", "0", "1", "2", "3", "8", "11", "10", "8", "4", "7", "18", "18", "0"], "time": [786, 2021, 2622, 2722, 2888, 3039, 3723, 4087, 4411, 4940, 9694, 9764, 10462, 16617]}, "edge": {"target": [], "time": []}}}, "displayed_time": "15.75", "trialTime": 17700, "trial_type": "mouselab-mdp", "trial_index": 25, "time_elapsed": 787728, "internal_node_id": "0.0-6.0-1.0-16.0"}}, {"uniqueid": "w88754560:a13127502", "current_trial": 26, "dateTime": 1693661173706, "trialdata": {"revealed_states": [], "clicked_states": [], "num_clicks_accrued": [0, 0, 0, 0, 0, 0, 0, 0, 0, 0, 0, 0, 0], "stateRewards": ["", 2, 4, -3, 16, -58, 30, -35, 11, -60, 47, 27, -2, -1, -7, -16, 23, -70, 68, -10, -65, -43, -34, -2, 1, 7, 9, -63, 34, -31, -8, -12, -86, 59], "withholdReward": false, "trial_id": "mdp_trial_18", "block": "test", "trialIndex": 19, "score": -46, "costs": 0, "simulationMode": [null, null, null, null, null], "rewards": [2, 4, -3, 11, -60], "path": ["0", "0", "1", "2", "3", "8", "9"], "rt": [6907, 145, 267, 62, 325], "actions": ["up", "up", "up", "left", "up"], "actionTimes": [8145, 8787, 9543, 10105, 10919], "queries": {"click": {"state": {"target": [], "time": []}, "edge": {"target": [], "time": []}}, "mouseover": {"state": {"target": ["1", "10", "27", "9", "9", "11", "9", "8", "11"], "time": [1701, 2035, 2736, 2919, 3136, 4220, 4637, 4837, 4887]}, "edge": {"target": [], "time": []}}, "mouseout": {"state": {"target": ["0", "1", "10", "27", "9", "9", "11", "9", "8", "11", "2", "7"], "time": [1501, 1985, 2069, 2836, 2952, 3920, 4504, 4670, 4854, 7273, 12160, 12210]}, "edge": {"target": [], "time": []}}}, "displayed_time": "15.24", "trialTime": 16277, "trial_type": "mouselab-mdp", "trial_index": 26, "time_elapsed": 804174, "internal_node_id": "0.0-6.0-1.0-17.0"}}, {"uniqueid": "w88754560:a13127502", "current_trial": 27, "dateTime": 1693661207350, "trialdata": {"revealed_states": [], "clicked_states": ["33", "28", "18", "20", "5", "10", "9", "7"], "num_clicks_accrued": [0, 0, 0, 0, 0, 0, 0, 0, 0, 0, 0, 0, 0], "stateRewards": ["", -1, -3, -5, -14, -13, -47, 79, 8, -60, -64, 41, -1, 2, 3, 13, -46, 61, -79, -11, -64, -65, 23, 1, -2, 6, -14, 46, 32, 21, 7, 75, -66, 15], "withholdReward": false, "trial_id": "mdp_trial_19", "block": "test", "trialIndex": 20, "score": 38.8, "costs": -17.2, "simulationMode": [null, null, null, null, null], "rewards": [-1, -3, -5, -14, 79], "path": ["0", "0", "1", "2", "3", "4", "7"], "rt": [27902, 302, 39, 15, 110], "actions": ["up", "up", "up", "right", "down"], "actionTimes": [29073, 29875, 30413, 30939, 31551], "queries": {"click": {"state": {"target": ["33", "28", "18", "20", "5", "10", "9", "7"], "time": [2597, 5832, 9122, 12300, 16021, 19178, 22359, 25515]}, "edge": {"target": [], "time": []}}, "mouseover": {"state": {"target": ["2", "8", "11", "25", "33", "29", "26", "28", "7", "16", "16", "17", "15", "18", "14", "19", "20", "5", "3", "10", "8", "9", "3", "7"], "time": [1698, 1798, 1982, 2265, 2499, 3099, 4200, 4351, 6152, 6239, 6552, 7954, 8421, 8554, 9305, 9338, 9555, 15927, 16511, 16861, 19480, 19597, 22583, 22800]}, "edge": {"target": [], "time": []}}, "mouseout": {"state": {"target": ["4", "4", "2", "1", "2", "8", "11", "25", "33", "29", "26", "28", "7", "16", "16", "17", "15", "18", "14", "19", "20", "5", "3", "10", "8", "9", "3", "7", "2"], "time": [480, 547, 597, 780, 1765, 1832, 2032, 2315, 2866, 4167, 4267, 6035, 6169, 6252, 7854, 8371, 8504, 9255, 9321, 9355, 12491, 16311, 16661, 19413, 19547, 22533, 22616, 25786, 32458]}, "edge": {"target": [], "time": []}}}, "displayed_time": "32.04", "trialTime": 33471, "trial_type": "mouselab-mdp", "trial_index": 27, "time_elapsed": 837818, "internal_node_id": "0.0-6.0-1.0-18.0"}}, {"uniqueid": "w88754560:a13127502", "current_trial": 28, "dateTime": 1693661229035, "trialdata": {"revealed_states": [], "clicked_states": ["32", "27", "11", "6", "16"], "num_clicks_accrued": [0, 0, 0, 0, 0, 0, 0, 0, 0, 0, 0, 0, 0], "stateRewards": ["", -2, -3, 8, 14, -73, 73, 84, -12, -2, -50, -17, 2, 1, -2, -9, -44, -27, -33, 16, -63, -47, -66, -2, 1, 4, -5, -33, -11, 50, 9, 38, -79, 31], "withholdReward": false, "trial_id": "mdp_trial_20", "block": "test", "trialIndex": 21, "score": 79.25, "costs": -10.75, "simulationMode": [null, null, null, null, null], "rewards": [-2, -3, 8, 14, 73], "path": ["0", "0", "1", "2", "3", "4", "6"], "rt": [16378, 78, 85, 459, 42], "actions": ["up", "up", "up", "right", "right"], "actionTimes": [17428, 18003, 18577, 19535, 20069], "queries": {"click": {"state": {"target": ["32", "27", "11", "6", "16"], "time": [2047, 4821, 8315, 11313, 14307]}, "edge": {"target": [], "time": []}}, "mouseover": {"state": {"target": ["28", "25", "30", "32", "30", "25", "26", "27", "11", "8", "3", "4", "6", "16", "1", "0"], "time": [1460, 1543, 1844, 1927, 2211, 2261, 2294, 2361, 6047, 8700, 8750, 8800, 8983, 11702, 15022, 15138]}, "edge": {"target": [], "time": []}}, "mouseout": {"state": {"target": ["10", "2", "1", "0", "28", "25", "30", "32", "30", "25", "26", "27", "11", "8", "3", "4", "6", "16", "1", "0"], "time": [475, 659, 726, 1126, 1493, 1627, 1877, 2078, 2244, 2278, 2328, 5347, 8683, 8733, 8766, 8866, 11619, 14888, 15088, 15155]}, "edge": {"target": [], "time": []}}}, "displayed_time": "20.58", "trialTime": 21506, "trial_type": "mouselab-mdp", "trial_index": 28, "time_elapsed": 859502, "internal_node_id": "0.0-6.0-1.0-19.0"}}, {"uniqueid": "w88754560:a13127502", "current_trial": 29, "dateTime": 1693661245685, "trialdata": {"revealed_states": [], "clicked_states": ["32", "27"], "num_clicks_accrued": [0, 0, 0, 0, 0, 0, 0, 0, 0, 0, 0, 0, 0], "stateRewards": ["", -1, -2, 8, -6, -79, -6, 87, 9, -5, -66, -38, 2, 2, 5, -6, -82, 74, 85, -8, 67, -30, -15, 1, -2, -2, -2, 87, 64, 49, 7, 2, -38, -9], "withholdReward": false, "trial_id": "mdp_trial_21", "block": "test", "trialIndex": 22, "score": 77.7, "costs": -4.3, "simulationMode": [null, null, null, null, null], "rewards": [1, -2, -2, -2, 87], "path": ["0", "0", "23", "24", "25", "26", "27"], "rt": [8263, 111, 209, 182, 162], "actions": ["left", "left", "left", "up", "up"], "actionTimes": [9438, 10065, 10763, 11437, 12101], "queries": {"click": {"state": {"target": ["32", "27"], "time": [2020, 5276]}, "edge": {"target": [], "time": []}}, "mouseover": {"state": {"target": ["23", "31", "32", "30", "25", "27", "11"], "time": [1595, 1645, 1762, 2430, 2546, 3816, 6216]}, "edge": {"target": [], "time": []}}, "mouseout": {"state": {"target": ["0", "23", "31", "32", "30", "25", "27", "11", "0"], "time": [1429, 1612, 1662, 2129, 2496, 2696, 5499, 8701, 15891]}, "edge": {"target": [], "time": []}}}, "displayed_time": "15.18", "trialTime": 16473, "trial_type": "mouselab-mdp", "trial_index": 29, "time_elapsed": 876153, "internal_node_id": "0.0-6.0-1.0-20.0"}}, {"uniqueid": "w88754560:a13127502", "current_trial": 30, "dateTime": 1693661274416, "trialdata": {"revealed_states": [], "clicked_states": ["27", "32", "21", "16", "6", "11"], "num_clicks_accrued": [0, 0, 0, 0, 0, 0, 0, 0, 0, 0, 0, 0, 0], "stateRewards": ["", 1, 4, -8, -13, -13, -87, -77, -10, -44, 54, 42, 2, -3, -4, 12, -9, -80, 52, 9, 84, -2, -65, 1, -4, -5, -6, 8, 80, 32, 13, -59, -5, -13], "withholdReward": false, "trial_id": "mdp_trial_22", "block": "test", "trialIndex": 23, "score": 16.1, "costs": -12.9, "simulationMode": [null, null, null, null, null], "rewards": [1, 4, -8, -10, 42], "path": ["0", "0", "1", "2", "3", "8", "11"], "rt": [20742, 96, 328, 67, 76], "actions": ["up", "up", "up", "left", "left"], "actionTimes": [23873, 24471, 25287, 25843, 26419], "queries": {"click": {"state": {"target": ["27", "32", "21", "16", "6", "11"], "time": [4161, 7418, 10539, 13714, 16898, 19994]}, "edge": {"target": [], "time": []}}, "mouseover": {"state": {"target": ["12", "12", "1", "28", "27", "26", "25", "32", "21", "19", "14", "15", "16", "6", "4", "3", "8", "11", "11", "9", "9"], "time": [3272, 3506, 3606, 3739, 4023, 4490, 4974, 5308, 8260, 10695, 10729, 10762, 10946, 16350, 17135, 17168, 17186, 17218, 17752, 20320, 23723]}, "edge": {"target": [], "time": []}}, "mouseout": {"state": {"target": ["0", "12", "12", "1", "28", "27", "26", "25", "32", "21", "19", "14", "15", "16", "6", "4", "3", "8", "11", "11", "9", "9"], "time": [3239, 3322, 3539, 3623, 3806, 4390, 4940, 4991, 7676, 10662, 10712, 10745, 10829, 16250, 17118, 17151, 17184, 17201, 17234, 20137, 20387, 23757]}, "edge": {"target": [], "time": []}}}, "displayed_time": "26.91", "trialTime": 28550, "trial_type": "mouselab-mdp", "trial_index": 30, "time_elapsed": 904884, "internal_node_id": "0.0-6.0-1.0-21.0"}}, {"uniqueid": "w88754560:a13127502", "current_trial": 31, "dateTime": 1693661291737, "trialdata": {"revealed_states": [], "clicked_states": ["11", "6"], "num_clicks_accrued": [0, 0, 0, 0, 0, 0, 0, 0, 0, 0, 0, 0, 0], "stateRewards": ["", 1, -1, 1, -14, -10, 67, -28, -11, 72, 40, -65, -1, 1, 1, -2, 8, -55, 34, -10, 61, 33, -15, 2, -4, 7, 4, -75, 63, -21, -16, 61, 19, 21], "withholdReward": false, "trial_id": "mdp_trial_23", "block": "test", "trialIndex": 24, "score": 49.7, "costs": -4.3, "simulationMode": [null, null, null, null, null], "rewards": [1, -1, 1, -14, 67], "path": ["0", "0", "1", "2", "3", "4", "6"], "rt": [8872, 304, 42, 500, 825], "actions": ["up", "up", "up", "right", "right"], "actionTimes": [10442, 11248, 11786, 12794, 14120], "queries": {"click": {"state": {"target": ["11", "6"], "time": [3285, 6460]}, "edge": {"target": [], "time": []}}, "mouseover": {"state": {"target": ["1", "2", "3", "8", "10", "11", "8", "3", "4", "6", "15", "15", "16"], "time": [1984, 2068, 2118, 2251, 3085, 3135, 3536, 3603, 3653, 4220, 6772, 6889, 7022]}, "edge": {"target": [], "time": []}}, "mouseout": {"state": {"target": ["9", "2", "1", "1", "2", "3", "8", "10", "11", "11", "8", "3", "4", "6", "15", "15", "16", "6", "4", "10", "28", "23"], "time": [900, 1050, 1216, 2034, 2101, 2151, 2885, 3102, 3356, 3503, 3588, 3636, 3969, 6705, 6822, 6972, 10225, 16013, 16046, 16113, 16430, 16480]}, "edge": {"target": [], "time": []}}}, "displayed_time": "15.57", "trialTime": 17142, "trial_type": "mouselab-mdp", "trial_index": 31, "time_elapsed": 922205, "internal_node_id": "0.0-6.0-1.0-22.0"}}, {"uniqueid": "w88754560:a13127502", "current_trial": 32, "dateTime": 1693661340102, "trialdata": {"revealed_states": [], "clicked_states": ["27", "32", "21", "16", "6", "11", "9", "10", "7", "5", "28", "31", "33"], "num_clicks_accrued": [0, 0, 0, 0, 0, 0, 0, 0, 0, 0, 0, 0, 0], "stateRewards": ["", 2, -1, -2, -5, -47, -57, -33, -11, 31, -18, -72, -2, 1, -4, -8, -46, -53, -50, 15, -85, -9, 39, -2, -2, 1, 14, -1, -8, 53, -12, -41, -74, 62], "withholdReward": false, "trial_id": "mdp_trial_24", "block": "test", "trialIndex": 25, "score": 19.05000000000001, "costs": -27.949999999999992, "simulationMode": [null, null, null, null, null], "rewards": [-2, -2, 1, -12, 62], "path": ["0", "0", "23", "24", "25", "30", "33"], "rt": [42752, 99, 101, 90, 145], "actions": ["left", "left", "left", "down", "left"], "actionTimes": [43630, 44223, 44825, 45415, 46053], "queries": {"click": {"state": {"target": ["27", "32", "21", "16", "6", "11", "9", "10", "7", "5", "28", "31", "33"], "time": [1727, 4770, 7887, 10972, 14152, 17308, 20508, 23832, 27003, 30105, 33227, 36333, 39457]}, "edge": {"target": [], "time": []}}, "mouseover": {"state": {"target": ["28", "26", "27", "30", "32", "31", "22", "20", "21", "19", "14", "15", "16", "4", "6", "4", "3", "8", "11", "8", "9", "8", "10", "2", "7", "7", "4", "5", "4", "23", "24", "28", "31", "30", "33", "29"], "time": [1420, 1503, 1670, 2254, 2404, 5140, 5290, 5308, 5991, 8076, 8126, 8176, 8409, 11462, 11762, 14398, 14431, 14498, 14866, 17517, 17834, 20820, 21020, 24072, 24156, 25007, 27192, 27275, 30828, 31445, 31545, 31679, 33797, 36600, 36667, 39886]}, "edge": {"target": [], "time": []}}, "mouseout": {"state": {"target": ["0", "28", "26", "27", "30", "32", "32", "31", "22", "20", "21", "19", "14", "15", "16", "4", "6", "4", "3", "8", "11", "8", "9", "8", "10", "2", "7", "7", "4", "5", "4", "23", "24", "28", "31", "30", "33"], "time": [668, 1470, 1603, 1970, 2287, 4860, 4989, 5207, 5307, 5323, 8025, 8109, 8159, 8226, 11362, 11695, 14381, 14414, 14464, 14781, 17484, 17550, 20770, 20936, 24039, 24123, 24306, 27125, 27242, 30761, 30895, 31512, 31612, 33531, 36566, 36633, 39686]}, "edge": {"target": [], "time": []}}}, "displayed_time": "46.54", "trialTime": 48178, "trial_type": "mouselab-mdp", "trial_index": 32, "time_elapsed": 970570, "internal_node_id": "0.0-6.0-1.0-23.0"}}, {"uniqueid": "w88754560:a13127502", "current_trial": 33, "dateTime": 1693661375525, "trialdata": {"revealed_states": [], "clicked_states": ["6", "11", "32", "27"], "num_clicks_accrued": [0, 0, 0, 0, 0, 0, 0, 0, 0, 0, 0, 0, 0], "stateRewards": ["", -1, 4, 3, 12, -27, 34, -33, 3, -63, 1, 6, 2, 2, -6, -11, -77, -85, 68, -6, 51, 81, -60, -2, -2, 1, 15, 20, 15, 68, -10, -14, 6, -4], "withholdReward": false, "trial_id": "mdp_trial_25", "block": "test", "trialIndex": 26, "score": 43.4, "costs": -8.6, "simulationMode": [null, null, null, null, null], "rewards": [-1, 4, 3, 12, 34], "path": ["0", "0", "1", "2", "3", "4", "6"], "rt": [15538, 338, 131, 57, 90], "actions": ["up", "up", "up", "right", "right"], "actionTimes": [30887, 31725, 32352, 32912, 33496], "queries": {"click": {"state": {"target": ["6", "11", "32", "27"], "time": [17844, 21389, 24562, 27671]}, "edge": {"target": [], "time": []}}, "mouseover": {"state": {"target": ["0", "12", "18", "6", "11", "8", "3", "16", "4", "3", "2", "24", "30", "32", "30", "25", "26", "27", "1", "18", "15", "16"], "time": [15622, 17140, 17174, 17724, 20410, 21794, 21895, 22145, 22945, 23229, 23279, 23379, 23579, 24288, 24880, 24947, 25047, 25581, 27900, 28016, 28266, 29968]}, "edge": {"target": [], "time": []}}, "mouseout": {"state": {"target": ["29", "26", "23", "0", "0", "0", "12", "18", "6", "11", "8", "3", "16", "4", "3", "2", "24", "30", "32", "30", "25", "26", "27", "1", "18", "15", "16", "18", "13"], "time": [14571, 14688, 14771, 14806, 15021, 15656, 17157, 17190, 18108, 21744, 21861, 21911, 22178, 22979, 23262, 23296, 23446, 23679, 24568, 24914, 24997, 25164, 27816, 27916, 28050, 28383, 34355, 34472, 34555]}, "edge": {"target": [], "time": []}}}, "displayed_time": "33.99", "trialTime": 35234, "trial_type": "mouselab-mdp", "trial_index": 33, "time_elapsed": 1005993, "internal_node_id": "0.0-6.0-1.0-24.0"}}, {"uniqueid": "w88754560:a13127502", "current_trial": 34, "dateTime": 1693661396524, "trialdata": {"revealed_states": [], "clicked_states": ["9", "11", "10"], "num_clicks_accrued": [0, 0, 0, 0, 0, 0, 0, 0, 0, 0, 0, 0, 0], "stateRewards": ["", 1, 2, -3, 6, -88, 74, -45, 7, -46, 40, -77, 1, -4, 4, 3, 22, -25, -59, 8, -83, 19, -60, -1, -1, -1, -8, 26, -29, 64, -7, -88, -51, -55], "withholdReward": false, "trial_id": "mdp_trial_26", "block": "test", "trialIndex": 27, "score": 40.55, "costs": -6.449999999999999, "simulationMode": [null, null, null, null, null], "rewards": [1, 2, -3, 7, 40], "path": ["0", "0", "1", "2", "3", "8", "10"], "rt": [12837, 452, 41, 361, 23], "actions": ["up", "up", "up", "left", "down"], "actionTimes": [16448, 17403, 17943, 18813, 19327], "queries": {"click": {"state": {"target": ["9", "11", "10"], "time": [4510, 7891, 10955]}, "edge": {"target": [], "time": []}}, "mouseover": {"state": {"target": ["1", "10", "8", "9", "8", "29", "25", "27", "8", "5", "5", "8", "11", "10", "2", "7"], "time": [3938, 3989, 4139, 4239, 4789, 5340, 5623, 6240, 6524, 6591, 6908, 7608, 7742, 8195, 11245, 11929]}, "edge": {"target": [], "time": []}}, "mouseout": {"state": {"target": ["12", "13", "0", "1", "10", "8", "9", "8", "29", "25", "27", "8", "5", "5", "8", "11", "10", "2", "7", "7", "2"], "time": [2454, 2920, 3905, 3955, 4055, 4189, 4706, 4856, 5473, 5807, 6474, 6543, 6641, 7525, 7642, 8092, 11215, 11328, 15915, 20136, 20269]}, "edge": {"target": [], "time": []}}}, "displayed_time": "19.84", "trialTime": 20779, "trial_type": "mouselab-mdp", "trial_index": 34, "time_elapsed": 1026992, "internal_node_id": "0.0-6.0-1.0-25.0"}}, {"uniqueid": "w88754560:a13127502", "current_trial": 35, "dateTime": 1693661432648, "trialdata": {"revealed_states": [], "clicked_states": ["20", "22", "18", "17", "16", "21", "6", "11"], "num_clicks_accrued": [0, 0, 0, 0, 0, 0, 0, 0, 0, 0, 0, 0, 0], "stateRewards": ["", -1, 1, -6, -1, 80, 23, 2, -11, 73, -81, 59, 1, 3, 5, -1, -26, 28, -3, 16, -59, -13, -50, -2, -2, 2, 15, -50, 86, 17, -4, 37, 35, 44], "withholdReward": false, "trial_id": "mdp_trial_27", "block": "test", "trialIndex": 28, "score": 24.799999999999997, "costs": -17.2, "simulationMode": [null, null, null, null, null], "rewards": [-1, 1, -6, -11, 59], "path": ["0", "0", "1", "2", "3", "8", "11"], "rt": [30257, 2, 78, 41, 73], "actions": ["up", "up", "up", "left", "left"], "actionTimes": [31385, 31886, 32478, 33008, 33574], "queries": {"click": {"state": {"target": ["20", "22", "18", "17", "16", "21", "6", "11"], "time": [2916, 6086, 9301, 12441, 16117, 19371, 22547, 27460]}, "edge": {"target": [], "time": []}}, "mouseover": {"state": {"target": ["12", "22", "19", "20", "19", "20", "19", "22", "14", "15", "18", "15", "17", "16", "16", "15", "14", "19", "21", "13", "18", "6", "4", "3", "8", "11", "11", "2", "7", "7"], "time": [1305, 1422, 1489, 1889, 2342, 2656, 3190, 3424, 6343, 6410, 6610, 9546, 9696, 15834, 16051, 16352, 16469, 17052, 17803, 19822, 19891, 20322, 22858, 23141, 23291, 23375, 23658, 29597, 29713, 29980]}, "edge": {"target": [], "time": []}}, "mouseout": {"state": {"target": ["2", "1", "0", "12", "22", "19", "20", "19", "20", "19", "22", "14", "15", "18", "15", "17", "16", "16", "15", "14", "19", "21", "13", "18", "6", "4", "3", "8", "11", "11", "2", "7", "7"], "time": [621, 704, 1255, 1339, 1459, 1806, 2306, 2373, 3157, 3274, 6260, 6360, 6560, 9496, 9629, 15768, 15868, 16318, 16418, 16986, 17452, 19755, 19855, 19922, 22808, 22974, 23258, 23341, 23508, 27729, 29647, 29880, 35118]}, "edge": {"target": [], "time": []}}}, "displayed_time": "34.07", "trialTime": 35921, "trial_type": "mouselab-mdp", "trial_index": 35, "time_elapsed": 1063116, "internal_node_id": "0.0-6.0-1.0-26.0"}}, {"uniqueid": "w88754560:a13127502", "current_trial": 36, "dateTime": 1693661450036, "trialdata": {"revealed_states": [], "clicked_states": ["9", "5", "11"], "num_clicks_accrued": [0, 0, 0, 0, 0, 0, 0, 0, 0, 0, 0, 0, 0], "stateRewards": ["", 1, -1, 4, -2, -75, -75, 84, -9, -60, -79, 59, 2, -4, 8, 9, -17, -82, 80, 14, -4, 49, 49, -1, 3, 6, -11, -33, 34, 55, 9, -57, 5, 59], "withholdReward": false, "trial_id": "mdp_trial_28", "block": "test", "trialIndex": 29, "score": 47.55, "costs": -6.449999999999999, "simulationMode": [null, null, null, null, null], "rewards": [1, -1, 4, -9, 59], "path": ["0", "0", "1", "2", "3", "8", "11"], "rt": [11133, 7, 28, 831, 256], "actions": ["up", "up", "up", "left", "left"], "actionTimes": [12114, 12617, 13155, 14475, 15236], "queries": {"click": {"state": {"target": ["9", "5", "11"], "time": [1995, 5005, 8218]}, "edge": {"target": [], "time": []}}, "mouseover": {"state": {"target": ["7", "3", "8", "9", "4", "6", "5", "4", "4", "10", "11", "8", "3", "4", "6"], "time": [1400, 1633, 1683, 1883, 2267, 2518, 2834, 5637, 5887, 6087, 6287, 8489, 8539, 8623, 9006]}, "edge": {"target": [], "time": []}}, "mouseout": {"state": {"target": ["7", "7", "3", "8", "9", "4", "6", "5", "4", "4", "10", "11", "8", "3", "4", "6", "12"], "time": [532, 1583, 1650, 1733, 2167, 2301, 2584, 5389, 5803, 5970, 6204, 8456, 8523, 8589, 8706, 11742, 16629]}, "edge": {"target": [], "time": []}}}, "displayed_time": "15.73", "trialTime": 17172, "trial_type": "mouselab-mdp", "trial_index": 36, "time_elapsed": 1080504, "internal_node_id": "0.0-6.0-1.0-27.0"}}, {"uniqueid": "w88754560:a13127502", "current_trial": 37, "dateTime": 1693661483740, "trialdata": {"revealed_states": [], "clicked_states": ["32", "31", "33", "29", "27", "28", "11", "10"], "num_clicks_accrued": [0, 0, 0, 0, 0, 0, 0, 0, 0, 0, 0, 0, 0], "stateRewards": ["", 2, 3, -1, 16, -78, -11, 46, 2, -20, 79, -67, 2, 3, 2, 11, -83, -42, -58, -11, -67, -22, 55, 2, -1, -1, -16, -83, -82, 23, -11, -29, 13, 13], "withholdReward": false, "trial_id": "mdp_trial_29", "block": "test", "trialIndex": 30, "score": 67.8, "costs": -17.2, "simulationMode": [null, null, null, null, null], "rewards": [2, 3, -1, 2, 79], "path": ["0", "0", "1", "2", "3", "8", "10"], "rt": [27538, 368, 70, 507, 134], "actions": ["up", "up", "up", "left", "down"], "actionTimes": [28615, 29476, 30046, 31050, 31678], "queries": {"click": {"state": {"target": ["32", "31", "33", "29", "27", "28", "11", "10"], "time": [2032, 5278, 8457, 11640, 15078, 18261, 21477, 24696]}, "edge": {"target": [], "time": []}}, "mouseover": {"state": {"target": ["1", "28", "25", "30", "32", "31", "30", "33", "26", "29", "27", "28", "11", "8", "10", "8", "9"], "time": [1517, 1651, 1734, 1784, 1917, 2368, 5571, 5687, 8857, 9257, 11926, 15346, 18849, 21785, 22151, 24887, 24987]}, "edge": {"target": [], "time": []}}, "mouseout": {"state": {"target": ["0", "1", "28", "25", "30", "32", "32", "31", "30", "33", "26", "29", "27", "28", "11", "8", "10", "8"], "time": [1367, 1567, 1684, 1751, 1867, 2069, 2185, 5554, 5621, 8707, 8907, 11793, 15279, 18415, 21735, 21801, 24854, 24937]}, "edge": {"target": [], "time": []}}}, "displayed_time": "32.18", "trialTime": 33512, "trial_type": "mouselab-mdp", "trial_index": 37, "time_elapsed": 1114208, "internal_node_id": "0.0-6.0-1.0-28.0"}}, {"uniqueid": "w88754560:a13127502", "current_trial": 38, "dateTime": 1693661500798, "trialdata": {"revealed_states": [], "clicked_states": ["9", "5"], "num_clicks_accrued": [0, 0, 0, 0, 0, 0, 0, 0, 0, 0, 0, 0, 0], "stateRewards": ["", 1, -1, 8, -3, 38, 85, -20, -4, 8, 23, 73, 2, -4, 6, -13, 44, 7, -28, -11, -77, 45, -69, 1, -1, -7, -11, 75, -51, -87, 7, 36, -53, -26], "withholdReward": false, "trial_id": "mdp_trial_30", "block": "test", "trialIndex": 31, "score": 38.7, "costs": -4.3, "simulationMode": [null, null, null, null, null], "rewards": [1, -1, 8, -3, 38], "path": ["0", "0", "1", "2", "3", "4", "5"], "rt": [8958, 41, 107, 80, 81], "actions": ["up", "up", "up", "right", "up"], "actionTimes": [10080, 10621, 11237, 11811, 12379], "queries": {"click": {"state": {"target": ["9", "5"], "time": [2534, 5765]}, "edge": {"target": [], "time": []}}, "mouseover": {"state": {"target": ["2", "8", "9", "5", "6"], "time": [1654, 1854, 1921, 2822, 6225]}, "edge": {"target": [], "time": []}}, "mouseout": {"state": {"target": ["9", "3", "2", "1", "2", "8", "9", "5", "5", "6", "5"], "time": [436, 653, 703, 753, 1721, 1888, 2706, 5871, 6008, 9644, 13481]}, "edge": {"target": [], "time": []}}}, "displayed_time": "15.12", "trialTime": 16862, "trial_type": "mouselab-mdp", "trial_index": 38, "time_elapsed": 1131266, "internal_node_id": "0.0-6.0-1.0-29.0"}}, {"uniqueid": "w88754560:a13127502", "current_trial": 39, "dateTime": 1693661517691, "trialdata": {"revealed_states": [], "clicked_states": ["9"], "num_clicks_accrued": [0, 0, 0, 0, 0, 0, 0, 0, 0, 0, 0, 0, 0], "stateRewards": ["", -1, -3, -7, -4, -85, -70, 79, 8, 84, -66, 42, 2, -2, -3, -16, -54, -66, 68, -3, 21, -14, 7, -2, -1, -3, -8, 75, 80, 86, -7, -84, 73, -16], "withholdReward": false, "trial_id": "mdp_trial_31", "block": "test", "trialIndex": 32, "score": 78.85, "costs": -2.15, "simulationMode": [null, null, null, null, null], "rewards": [-1, -3, -7, 8, 84], "path": ["0", "0", "1", "2", "3", "8", "9"], "rt": [5027, 484, 42, 22, 43], "actions": ["up", "up", "up", "left", "up"], "actionTimes": [6638, 7619, 8161, 8691, 9229], "queries": {"click": {"state": {"target": ["9"], "time": [2440]}, "edge": {"target": [], "time": []}}, "mouseover": {"state": {"target": ["1", "2", "8", "9", "5"], "time": [1929, 1995, 2062, 2112, 3182]}, "edge": {"target": [], "time": []}}, "mouseout": {"state": {"target": ["2", "1", "1", "2", "8", "9", "5"], "time": [644, 927, 1962, 2029, 2095, 3063, 10085]}, "edge": {"target": [], "time": []}}}, "displayed_time": "15.61", "trialTime": 16698, "trial_type": "mouselab-mdp", "trial_index": 39, "time_elapsed": 1148159, "internal_node_id": "0.0-6.0-1.0-30.0"}}, {"uniqueid": "w88754560:a13127502", "current_trial": 40, "dateTime": 1693661537670, "trialdata": {"revealed_states": [], "clicked_states": ["32", "33", "29"], "num_clicks_accrued": [0, 0, 0, 0, 0, 0, 0, 0, 0, 0, 0, 0, 0], "stateRewards": ["", 1, -4, -4, 8, 1, -79, 68, -10, -79, 8, -74, -1, -3, -6, 14, 43, 23, 9, 5, -51, 63, 61, -2, 4, 6, -10, 69, -32, 57, 15, -80, -80, -77], "withholdReward": false, "trial_id": "mdp_trial_32", "block": "test", "trialIndex": 33, "score": 48.55, "costs": -6.449999999999999, "simulationMode": [null, null, null, null, null], "rewards": [-2, 4, 6, -10, 57], "path": ["0", "0", "23", "24", "25", "26", "29"], "rt": [13531, 1067, 171, 54, 86], "actions": ["left", "left", "left", "up", "left"], "actionTimes": [14719, 16276, 16948, 17499, 18082], "queries": {"click": {"state": {"target": ["32", "33", "29"], "time": [3818, 7432, 10666]}, "edge": {"target": [], "time": []}}, "mouseover": {"state": {"target": ["1", "8", "11", "31", "32", "30", "33", "29", "27"], "time": [1530, 1663, 2097, 3431, 3715, 5016, 5350, 7902, 11004]}, "edge": {"target": [], "time": []}}, "mouseout": {"state": {"target": ["1", "0", "1", "8", "11", "31", "32", "30", "33", "29", "27"], "time": [912, 1480, 1563, 1780, 2180, 3615, 4916, 5233, 7506, 10734, 14190]}, "edge": {"target": [], "time": []}}}, "displayed_time": "18.58", "trialTime": 19764, "trial_type": "mouselab-mdp", "trial_index": 40, "time_elapsed": 1168137, "internal_node_id": "0.0-6.0-1.0-31.0"}}, {"uniqueid": "w88754560:a13127502", "current_trial": 41, "dateTime": 1693661553767, "trialdata": {"revealed_states": [], "clicked_states": ["32"], "num_clicks_accrued": [0, 0, 0, 0, 0, 0, 0, 0, 0, 0, 0, 0, 0], "stateRewards": ["", -2, 2, 5, -14, -56, 64, 84, -5, 52, 39, 85, -2, 1, 7, 8, 21, 29, -78, -9, -10, -69, 10, -2, -1, -7, 15, 72, 20, 41, -2, 52, 80, 22], "withholdReward": false, "trial_id": "mdp_trial_33", "block": "test", "trialIndex": 34, "score": 65.85, "costs": -2.15, "simulationMode": [null, null, null, null, null], "rewards": [-2, -1, -7, -2, 80], "path": ["0", "0", "23", "24", "25", "30", "32"], "rt": [5182, 204, 10, 84, 438], "actions": ["left", "left", "left", "down", "down"], "actionTimes": [6091, 6796, 7302, 7894, 8831], "queries": {"click": {"state": {"target": ["32"], "time": [2076]}, "edge": {"target": [], "time": []}}, "mouseover": {"state": {"target": ["1", "10", "26", "32", "31"], "time": [1302, 1386, 1619, 1920, 2453]}, "edge": {"target": [], "time": []}}, "mouseout": {"state": {"target": ["1", "1", "0", "1", "10", "26", "32", "31"], "time": [418, 618, 1204, 1352, 1419, 1653, 2320, 9743]}, "edge": {"target": [], "time": []}}}, "displayed_time": "14.91", "trialTime": 15883, "trial_type": "mouselab-mdp", "trial_index": 41, "time_elapsed": 1184235, "internal_node_id": "0.0-6.0-1.0-32.0"}}, {"uniqueid": "w88754560:a13127502", "current_trial": 42, "dateTime": 1693661597321, "trialdata": {"revealed_states": [], "clicked_states": ["21", "22", "18", "16", "17", "6", "7", "5", "20", "9", "10"], "num_clicks_accrued": [0, 0, 0, 0, 0, 0, 0, 0, 0, 0, 0, 0, 0], "stateRewards": ["", -1, 3, 1, -11, -22, -36, 19, -5, -70, -52, 50, -2, -4, 4, -2, -41, -83, 29, -2, 22, 10, -6, -2, 3, -2, 14, 54, 44, 77, -9, -65, -37, -40], "withholdReward": false, "trial_id": "mdp_trial_34", "block": "test", "trialIndex": 35, "score": -110.64999999999999, "costs": -23.649999999999995, "simulationMode": [null, null, null, null, null], "rewards": [-2, -4, 4, -2, -83], "path": ["0", "0", "12", "13", "14", "15", "17"], "rt": [37753, 342, 44, 74, 121], "actions": ["right", "right", "right", "up", "right"], "actionTimes": [38780, 39614, 40150, 40714, 41328], "queries": {"click": {"state": {"target": ["21", "22", "18", "16", "17", "6", "7", "5", "20", "9", "10"], "time": [1730, 4901, 8007, 11162, 14349, 17471, 20580, 23810, 26930, 30943, 34145]}, "edge": {"target": [], "time": []}}, "mouseover": {"state": {"target": ["22", "19", "21", "22", "13", "18", "15", "15", "16", "17", "6", "7", "4", "5", "5", "6", "15", "20", "7", "3", "9", "8", "10"], "time": [1338, 1455, 1655, 2072, 5309, 6643, 8245, 8461, 8912, 11514, 15034, 18003, 20738, 20839, 21158, 24058, 24125, 24742, 27361, 27411, 27711, 31414, 31798]}, "edge": {"target": [], "time": []}}, "mouseout": {"state": {"target": ["0", "22", "19", "21", "22", "13", "18", "15", "15", "16", "17", "16", "6", "7", "4", "5", "5", "5", "6", "15", "20", "7", "3", "9", "8", "10", "10"], "time": [1256, 1388, 1488, 1773, 5014, 6576, 8178, 8328, 8478, 11314, 14550, 14650, 17853, 20705, 20789, 20872, 23880, 24025, 24075, 24158, 27261, 27377, 27444, 31197, 31664, 34450, 38053]}, "edge": {"target": [], "time": []}}}, "displayed_time": "41.82", "trialTime": 43326, "trial_type": "mouselab-mdp", "trial_index": 42, "time_elapsed": 1227788, "internal_node_id": "0.0-6.0-1.0-33.0"}}, {"uniqueid": "w88754560:a13127502", "current_trial": 43, "dateTime": 1693661617147, "trialdata": {"revealed_states": [], "clicked_states": ["6", "5", "11", "10"], "num_clicks_accrued": [0, 0, 0, 0, 0, 0, 0, 0, 0, 0, 0, 0, 0], "stateRewards": ["", -2, -4, 6, 14, -34, 49, 36, -8, -3, 32, -4, 1, -2, 1, -8, -20, -71, -57, -7, -86, -62, -16, -2, -3, -5, 11, 23, -21, 53, 5, -5, 85, 73], "withholdReward": false, "trial_id": "mdp_trial_35", "block": "test", "trialIndex": 36, "score": 54.4, "costs": -8.6, "simulationMode": [null, null, null, null, null], "rewards": [-2, -4, 6, 14, 49], "path": ["0", "0", "1", "2", "3", "4", "6"], "rt": [14471, 53, 10, 339, 61], "actions": ["up", "up", "up", "right", "right"], "actionTimes": [15704, 16253, 16761, 17608, 18163], "queries": {"click": {"state": {"target": ["6", "5", "11", "10"], "time": [2015, 5842, 9256, 12445]}, "edge": {"target": [], "time": []}}, "mouseover": {"state": {"target": ["7", "4", "5", "6", "5", "9", "8", "11", "10", "2", "2"], "time": [1621, 1654, 1720, 1887, 2788, 6241, 8993, 9127, 9510, 12763, 14632]}, "edge": {"target": [], "time": []}}, "mouseout": {"state": {"target": ["9", "9", "1", "7", "4", "5", "6", "5", "9", "8", "11", "10", "2", "2"], "time": [686, 786, 1053, 1637, 1687, 1820, 2371, 6091, 8943, 9010, 9427, 12697, 14582, 15299]}, "edge": {"target": [], "time": []}}}, "displayed_time": "18.65", "trialTime": 19597, "trial_type": "mouselab-mdp", "trial_index": 43, "time_elapsed": 1247614, "internal_node_id": "0.0-6.0-1.0-34.0"}}, {"uniqueid": "w88754560:a13127502", "current_trial": 44, "dateTime": 1693661647176, "trialdata": {"revealed_states": [], "clicked_states": ["6", "7", "10", "28", "27", "29", "32"], "num_clicks_accrued": [0, 0, 0, 0, 0, 0, 0, 0, 0, 0, 0, 0, 0], "stateRewards": ["", -2, 2, -5, 1, 42, -63, -58, -6, 2, 16, 81, -2, 4, 7, -10, 33, 3, -33, -2, -52, -84, -27, 2, -3, -3, 15, -74, -14, -5, -5, -84, 79, -31], "withholdReward": false, "trial_id": "mdp_trial_36", "block": "test", "trialIndex": 37, "score": 54.95, "costs": -15.05, "simulationMode": [null, null, null, null, null], "rewards": [2, -3, -3, -5, 79], "path": ["0", "0", "23", "24", "25", "30", "32"], "rt": [24390, 11, 54, 6, 67], "actions": ["left", "left", "left", "down", "down"], "actionTimes": [25870, 26381, 26941, 27443, 28021], "queries": {"click": {"state": {"target": ["6", "7", "10", "28", "27", "29", "32"], "time": [2272, 5782, 8896, 12191, 15233, 18369, 21752]}, "edge": {"target": [], "time": []}}, "mouseover": {"state": {"target": ["1", "2", "3", "4", "6", "4", "11", "8", "3", "7", "2", "10", "11", "28", "27", "27", "10", "26", "29", "10", "28", "25", "30", "33", "32", "30", "24", "10", "24", "31"], "time": [1529, 1564, 1881, 1931, 2048, 2682, 3015, 3299, 3366, 4433, 6452, 6652, 9304, 10555, 12607, 14342, 15476, 16143, 16344, 18729, 20380, 20464, 20614, 20747, 21648, 22032, 22115, 22265, 23983, 24200]}, "edge": {"target": [], "time": []}}, "mouseout": {"state": {"target": ["0", "0", "1", "2", "3", "4", "6", "4", "11", "8", "3", "7", "2", "10", "11", "28", "27", "10", "27", "10", "26", "29", "10", "28", "25", "30", "33", "32", "30", "24", "10", "24", "31"], "time": [596, 830, 1548, 1581, 1898, 1998, 2632, 2699, 3249, 3349, 3416, 6185, 6552, 9104, 10288, 12261, 13024, 14108, 15376, 15943, 16210, 18479, 20297, 20414, 20564, 20664, 21581, 21982, 22065, 22132, 23917, 24033, 25234]}, "edge": {"target": [], "time": []}}}, "displayed_time": "28.52", "trialTime": 29803, "trial_type": "mouselab-mdp", "trial_index": 44, "time_elapsed": 1277644, "internal_node_id": "0.0-6.0-1.0-35.0"}}, {"uniqueid": "w88754560:a13127502", "current_trial": 45, "dateTime": 1693661664151, "trialdata": {"revealed_states": [], "clicked_states": ["5"], "num_clicks_accrued": [0, 0, 0, 0, 0, 0, 0, 0, 0, 0, 0, 0, 0], "stateRewards": ["", -2, 3, 8, -9, 59, 41, -50, -1, 82, 66, 33, 2, -2, 7, 8, 1, -38, 12, -16, 24, -37, 67, 1, 4, -2, 5, 35, -83, 28, 8, -27, 69, -64], "withholdReward": false, "trial_id": "mdp_trial_37", "block": "test", "trialIndex": 38, "score": 56.85, "costs": -2.15, "simulationMode": [null, null, null, null, null], "rewards": [-2, 3, 8, -9, 59], "path": ["0", "0", "1", "2", "3", "4", "5"], "rt": [5119, 85, 71, 76, 107], "actions": ["up", "up", "up", "right", "up"], "actionTimes": [6281, 6866, 7436, 8008, 8606], "queries": {"click": {"state": {"target": ["5"], "time": [2028]}, "edge": {"target": [], "time": []}}, "mouseover": {"state": {"target": ["1", "2", "3", "5", "6", "9"], "time": [1259, 1309, 1442, 1876, 2293, 3694]}, "edge": {"target": [], "time": []}}, "mouseout": {"state": {"target": ["22", "2", "10", "1", "0", "1", "2", "3", "5", "6", "9"], "time": [458, 541, 624, 774, 975, 1292, 1375, 1542, 2210, 3244, 5546]}, "edge": {"target": [], "time": []}}}, "displayed_time": "15.16", "trialTime": 16764, "trial_type": "mouselab-mdp", "trial_index": 45, "time_elapsed": 1294618, "internal_node_id": "0.0-6.0-1.0-36.0"}}, {"uniqueid": "w88754560:a13127502", "current_trial": 46, "dateTime": 1693661690378, "trialdata": {"revealed_states": [], "clicked_states": ["32", "29", "27", "5", "6", "16"], "num_clicks_accrued": [0, 0, 0, 0, 0, 0, 0, 0, 0, 0, 0, 0, 0], "stateRewards": ["", -1, 3, 2, 9, 41, 4, -46, -12, -54, -87, -25, 2, 3, -1, 11, -77, 12, -33, -9, -32, 35, 72, 1, 3, -7, 4, 37, 65, -73, 6, 77, -43, 8], "withholdReward": false, "trial_id": "mdp_trial_38", "block": "test", "trialIndex": 39, "score": 41.1, "costs": -12.9, "simulationMode": [null, null, null, null, null], "rewards": [-1, 3, 2, 9, 41], "path": ["0", "0", "1", "2", "3", "4", "5"], "rt": [21216, 345, 112, 11, 21], "actions": ["up", "up", "up", "right", "up"], "actionTimes": [22255, 23097, 23698, 24197, 24724], "queries": {"click": {"state": {"target": ["32", "29", "27", "5", "6", "16"], "time": [1697, 4949, 8079, 11468, 14872, 18299]}, "edge": {"target": [], "time": []}}, "mouseover": {"state": {"target": ["23", "31", "32", "33", "29", "27", "11", "8", "3", "4", "6", "5", "6", "16", "15", "17"], "time": [1198, 1382, 1649, 2516, 4568, 5485, 8355, 8471, 8555, 8605, 8672, 9139, 11774, 18146, 18563, 18697]}, "edge": {"target": [], "time": []}}, "mouseout": {"state": {"target": ["9", "11", "23", "31", "32", "33", "29", "27", "11", "8", "3", "4", "6", "5", "6", "16", "15"], "time": [414, 564, 1265, 1449, 1787, 4435, 5045, 8205, 8405, 8538, 8588, 8638, 8772, 11691, 15194, 18497, 18597]}, "edge": {"target": [], "time": []}}}, "displayed_time": "25.24", "trialTime": 26000, "trial_type": "mouselab-mdp", "trial_index": 46, "time_elapsed": 1320846, "internal_node_id": "0.0-6.0-1.0-37.0"}}, {"uniqueid": "w88754560:a13127502", "current_trial": 47, "dateTime": 1693661707352, "trialdata": {"revealed_states": [], "clicked_states": ["9", "11"], "num_clicks_accrued": [0, 0, 0, 0, 0, 0, 0, 0, 0, 0, 0, 0, 0], "stateRewards": ["", 2, -4, -8, -15, 71, -43, -41, 7, -17, 20, 67, -1, -1, -4, 6, 37, -24, -47, 9, 34, 57, 45, 1, 2, -4, -5, -23, 88, -5, 13, -40, 43, 44], "withholdReward": false, "trial_id": "mdp_trial_39", "block": "test", "trialIndex": 40, "score": 59.7, "costs": -4.3, "simulationMode": [null, null, null, null, null], "rewards": [2, -4, -8, 7, 67], "path": ["0", "0", "1", "2", "3", "8", "11"], "rt": [9110, 533, 47, 420, 89], "actions": ["up", "up", "up", "left", "left"], "actionTimes": [10413, 11438, 11986, 12910, 13496], "queries": {"click": {"state": {"target": ["9", "11"], "time": [2683, 5856]}, "edge": {"target": [], "time": []}}, "mouseover": {"state": {"target": ["2", "3", "8", "9", "26", "11", "2", "7", "18", "14", "21"], "time": [2097, 2163, 2297, 2597, 3515, 5016, 6033, 6067, 6100, 6167, 8969]}, "edge": {"target": [], "time": []}}, "mouseout": {"state": {"target": ["17", "13", "0", "2", "3", "8", "9", "26", "11", "2", "7", "18", "14", "21"], "time": [695, 761, 1529, 2130, 2180, 2347, 2931, 4932, 5968, 6050, 6083, 6117, 6184, 14257]}, "edge": {"target": [], "time": []}}}, "displayed_time": "15.30", "trialTime": 16748, "trial_type": "mouselab-mdp", "trial_index": 47, "time_elapsed": 1337819, "internal_node_id": "0.0-6.0-1.0-38.0"}}, {"uniqueid": "w88754560:a13127502", "current_trial": 48, "dateTime": 1693661725846, "trialdata": {"revealed_states": [], "clicked_states": ["23", "12", "25", "14", "29", "9"], "num_clicks_accrued": [0, 0, 0, 0, 0, 0, 0, 0, 0, 0, 0, 0, 0], "stateRewards": ["", 1, -2, 7, -14, 88, -56, -44, -14, 64, -51, -57, -2, 3, -4, -9, -11, 19, -77, -1, 68, 75, -67, -1, 1, -2, 5, -37, 70, -34, -10, -72, 63, -41], "withholdReward": false, "trial_id": "mdp_trial_40", "block": "test", "trialIndex": 41, "score": 50.3, "costs": -5.699999999999999, "simulationMode": [null, null, null, null, null], "rewards": [1, -2, 7, -14, 64], "path": ["0", "0", "1", "2", "3", "8", "9"], "rt": [13132, 356, 65, 36, 25], "actions": ["up", "up", "up", "left", "up"], "actionTimes": [14027, 14886, 15446, 15984, 16524], "queries": {"click": {"state": {"target": ["23", "12", "25", "14", "29", "9"], "time": [1655, 3030, 4442, 5561, 6528, 10023]}, "edge": {"target": [], "time": []}}, "mouseover": {"state": {"target": ["23", "12", "22", "24", "25", "24", "0", "13", "13", "14", "23", "24", "26", "29", "26", "11", "9", "5", "5"], "time": [1533, 2484, 3518, 3852, 4069, 4620, 4703, 4820, 5353, 5470, 6137, 6171, 6221, 6421, 9624, 9724, 9908, 10308, 10725]}, "edge": {"target": [], "time": []}}, "mouseout": {"state": {"target": ["0", "1", "1", "0", "23", "12", "22", "24", "25", "24", "23", "0", "12", "13", "13", "14", "23", "24", "26", "29", "25", "26", "11", "9", "5"], "time": [432, 565, 649, 983, 1867, 3268, 3652, 3902, 4570, 4636, 4686, 4720, 4786, 4953, 5403, 5720, 6154, 6187, 6238, 6738, 9591, 9641, 9741, 10208, 10341]}, "edge": {"target": [], "time": []}}}, "displayed_time": "17.02", "trialTime": 18266, "trial_type": "mouselab-mdp", "trial_index": 48, "time_elapsed": 1356314, "internal_node_id": "0.0-6.0-1.0-39.0"}}, {"uniqueid": "w88754560:a13127502", "current_trial": 49, "dateTime": 1693661775486, "trialdata": {"rt": 49637, "response": {"Q0": "$-2 to $2", "Q1": "$-16 to $16", "Q2": "$-88 to $88", "Q3": "The cost for clicking on nodes varied between nodes.", "Q4": "Very motivated"}, "question_order": [0, 1, 2, 3, 4], "trial_id": "final_quiz_control", "trial_type": "survey-multi-choice", "trial_index": 49, "time_elapsed": 1405953, "internal_node_id": "0.0-6.0-2.0"}}, {"uniqueid": "w88754560:a13127502", "current_trial": 50, "dateTime": 1693661935376, "trialdata": {"rt": 159885, "response": {"Q0": "I mainly focused on the end nodes. That seemed to be enough to make a profit. I would search until I found a high number. If I found a high number early then I would just head straight to it. If I was struggling to find a high number I would sometimes just take the largest I had found so far and move on to the next round.", "Q1": "I started to focus on the end nodes very early on so I didn't really have any room to improve.", "Q2": "Again, I was lucky that I decided to focus on the end nodes early on so there wasn't much variance in my strategy or learning process."}, "trial_id": "self_report_control", "trial_type": "survey-text", "trial_index": 50, "time_elapsed": 1565844, "internal_node_id": "0.0-6.0-3.0"}}, {"uniqueid": "w88754560:a13127502", "current_trial": 51, "dateTime": 1693661976448, "trialdata": {"rt": 41070, "response": {"Q0": "Strongly disagree", "Q1": "Neither disagree nor agree", "Q2": "Neither disagree nor agree", "Q3": "Neither disagree nor agree", "Q4": "Neither disagree nor agree", "Q5": "Strongly agree", "Q6": "Strongly disagree"}, "question_order": [0, 1, 2, 3, 4, 5, 6], "trial_id": "self_report_2", "trial_type": "survey-multi-choice", "trial_index": 51, "time_elapsed": 1606916, "internal_node_id": "0.0-6.0-4.0"}}, {"uniqueid": "w88754560:a13127502", "current_trial": 52, "dateTime": 1693661990312, "trialdata": {"rt": 13859, "response": {"gender": "male", "age": "32", "colorblind": "0", "effort": "0"}, "trial_type": "survey-html-form", "trial_index": 52, "time_elapsed": 1620780, "internal_node_id": "0.0-6.0-5.0"}}, {"uniqueid": "w88754560:a13127502", "current_trial": 53, "dateTime": 1693662013500, "trialdata": {"rt": 23185, "response": {"Q0": "All good.", "Q1": "No", "Q2": "Engaging study. Thanks."}, "trial_type": "survey-text", "trial_index": 53, "time_elapsed": 1643968, "internal_node_id": "0.0-6.0-6.0"}}, {"uniqueid": "w88754560:a13127502", "current_trial": 54, "dateTime": 1693662030417, "trialdata": {"rt": 16914, "stimulus": "<h1>Completion Code Instructions (1/2)</h1>\n<br><br><br><br>\nYou have reached the end of the experiment! The completion code consists of two parts: (1) a code with 2 characters (2) a code with 6 characters. On this page, you will receive the second part of the code. The first part of the completion code will be on the next page.\n<br><br>\nThe second part of your completion code is: <b>EWEK22</b>\n<br><br>\nPlease note this down. Then, press 'Next' in order to find the first part of your completion code. Once the data has been saved, you will receive this code either in this window or in the original browser window where you started the experiment.\n <br><br>\n<h2 style='color: red;'>Note: this is <strong>NOT</strong> the full completion code. Copy this down and click 'Next' to get the full completion code on the next page.</h2>", "response": 0, "trial_type": "html-button-response", "trial_index": 54, "time_elapsed": 1660885, "internal_node_id": "0.0-6.0-7.0"}}, {"uniqueid": "w88754560:a13127502", "current_trial": 55, "dateTime": 1693662031419, "trialdata": {"success": true, "trial_type": "fullscreen", "trial_index": 55, "time_elapsed": 1661887, "internal_node_id": "0.0-7.0"}}], "questiondata": {"params": {"CODE": "C6DMOQA6", "MIN_TIME": 14, "inspectCost": 1, "startTime": "Sat Sep 02 2023 14:12:48 GMT+0100 (British Summer Time)", "bonusRate": 0.002, "variance": "1_2_4_8_44", "branching": "31123"}, "final_score": 1652.75}, "eventdata": [{"eventtype": "initialized", "value": null, "timestamp": 1693660368387, "interval": 0}, {"eventtype": "window_resize", "value": [1024, 767], "timestamp": 1693660368387, "interval": 0}, {"eventtype": "window_resize", "value": [1024, 767], "timestamp": 1693660368706, "interval": 319}, {"eventtype": "window_resize", "value": [2560, 1440], "timestamp": 1693660371789, "interval": 3083}, {"eventtype": "focus", "value": "off", "timestamp": 1693662026879, "interval": 1655090}, {"eventtype": "focus", "value": "on", "timestamp": 1693662030325, "interval": 3446}, {"eventtype": "window_resize", "value": [1024, 767], "timestamp": 1693662030635, "interval": 310}], "useragent": "Mozilla/5.0 (Windows NT 10.0; Win64; x64) AppleWebKit/537.36 (KHTML, like Gecko) Chrome/116.0.0.0 Safari/537.36", "mode": "live", "id": "w88754560:a13127502", "status": "user data saved", "Beginhit": "2023-09-02 13:12:45.670584", "Beginexp": "2023-09-02 13:12:50.951201", "Endhit": "2023-09-02 13:40:30.210787", "psiturkStatus": 3, "browser": "<redacted>", "platform": "windows", "language": "en-GB"}