{"condition": 0, "counterbalance": 0, "assignmentId": "a31716032", "workerId": "w69391007", "hitId": "h75029352", "currenttrial": 61, "bonus": 0, "data": [{"uniqueid": "w69391007:a31716032", "current_trial": 0, "dateTime": 1693564815932, "trialdata": {"success": true, "trial_type": "fullscreen", "trial_index": 0, "time_elapsed": 19289, "internal_node_id": "0.0-0.0"}}, {"uniqueid": "w69391007:a31716032", "current_trial": 1, "dateTime": 1693564858981, "trialdata": {"view_history": [{"page_index": 0, "viewing_time": 43006}], "rt": 43010, "trial_id": "exp_instructions_control", "trial_type": "instructions", "trial_index": 1, "time_elapsed": 62340, "internal_node_id": "0.0-1.0"}}, {"uniqueid": "w69391007:a31716032", "current_trial": 2, "dateTime": 1693565369141, "trialdata": {"view_history": [{"page_index": 0, "viewing_time": 143482}, {"page_index": 1, "viewing_time": 171684}, {"page_index": 2, "viewing_time": 56415}, {"page_index": 3, "viewing_time": 138552}], "rt": 510135, "trial_id": "mouselab_instructions_1_control", "trial_type": "instructions", "trial_index": 2, "time_elapsed": 572499, "internal_node_id": "0.0-2.0-1.0"}}, {"uniqueid": "w69391007:a31716032", "current_trial": 3, "dateTime": 1693565398654, "trialdata": {"revealed_states": [], "clicked_states": ["2", "25", "16"], "num_clicks_accrued": [0, 0, 0, 0, 0, 0, 0, 0, 0, 0, 0, 0, 0], "stateRewards": ["", -10, -10, 10, 10, -10, 10, -10, -10, 10, 10, -10, -10, -10, 10, 10, 10, -10, -10, 10, 10, -10, 10, -10, 10, -10, -10, -10, -10, 10, 10, 10, -10, 10], "withholdReward": false, "trial_id": "practice_1", "block": "test", "trialIndex": 0, "score": -8, "costs": -1.5, "simulationMode": [null, null, null, null, null], "rewards": [-10, -10, 10, 10, -10], "path": ["0", "0", "12", "13", "14", "19", "21"], "rt": [9379, 163, 496, 195, 508], "actions": ["right", "right", "right", "down", "down"], "actionTimes": [11840, 12553, 13594, 14318, 15364], "queries": {"click": {"state": {"target": ["2", "25", "16"], "time": [4927, 7735, 10147]}, "edge": {"target": [], "time": []}}, "mouseover": {"state": {"target": ["1", "2", "28", "25", "15", "17", "16"], "time": [3974, 4081, 6803, 7236, 9165, 9220, 9731]}, "edge": {"target": [], "time": []}}, "mouseout": {"state": {"target": ["0", "0", "1", "2", "28", "25", "15", "17", "16"], "time": [630, 3892, 4040, 6705, 6832, 9070, 9205, 9266, 19839]}, "edge": {"target": [], "time": []}}}, "displayed_time": "15.88", "trialTime": 27071, "trial_type": "mouselab-mdp", "trial_index": 3, "time_elapsed": 602011, "internal_node_id": "0.0-2.0-2.0-0.0"}}, {"uniqueid": "w69391007:a31716032", "current_trial": 4, "dateTime": 1693565439418, "trialdata": {"revealed_states": [], "clicked_states": ["25", "2", "15"], "num_clicks_accrued": [0, 0, 0, 0, 0, 0, 0, 0, 0, 0, 0, 0, 0], "stateRewards": ["", 10, 10, -10, -10, 10, 10, 10, -10, 10, 10, 10, -10, 10, 10, -10, 10, -10, 10, -10, 10, 10, 10, 10, -10, -10, -10, -10, -10, -10, -10, 10, 10, 10], "withholdReward": false, "trial_id": "practice_2", "block": "test", "trialIndex": 1, "score": 12, "costs": -1.5, "simulationMode": [null, null, null, null, null], "rewards": [10, 10, -10, -10, 10], "path": ["0", "0", "1", "2", "3", "4", "5"], "rt": [8404, 45, 73, 650, 117], "actions": ["up", "up", "up", "right", "up"], "actionTimes": [10934, 11499, 12143, 13347, 13986], "queries": {"click": {"state": {"target": ["25", "2", "15"], "time": [5887, 7999, 9504]}, "edge": {"target": [], "time": []}}, "mouseover": {"state": {"target": ["23", "25", "24", "23", "1", "2", "7", "15"], "time": [3989, 4422, 7070, 7130, 7325, 7572, 8588, 9023]}, "edge": {"target": [], "time": []}}, "mouseout": {"state": {"target": ["0", "0", "23", "25", "24", "23", "1", "2", "2", "7", "15"], "time": [739, 3559, 4044, 7043, 7100, 7163, 7456, 8204, 8575, 8633, 17963]}, "edge": {"target": [], "time": []}}}, "displayed_time": "14.52", "trialTime": 39074, "trial_type": "mouselab-mdp", "trial_index": 4, "time_elapsed": 642774, "internal_node_id": "0.0-2.0-2.0-1.0"}}, {"uniqueid": "w69391007:a31716032", "current_trial": 5, "dateTime": 1693565628793, "trialdata": {"view_history": [{"page_index": 0, "viewing_time": 139694}, {"page_index": 1, "viewing_time": 49661}], "rt": 189359, "trial_id": "mouselab_instructions_2_control", "trial_type": "instructions", "trial_index": 5, "time_elapsed": 832151, "internal_node_id": "0.0-2.0-3.0"}}, {"uniqueid": "w69391007:a31716032", "current_trial": 6, "dateTime": 1693565698068, "trialdata": {"rt": 69246, "response": {"Q0": "The cost for clicking on nodes may vary between nodes.", "Q1": "The better I perform the higher my bonus will be.", "Q2": "No, the amount of cash at each node of the web may be different each time.", "Q3": "To get the highest total score.", "Q4": "Any time during the round.", "Q5": "3 seconds"}, "question_order": [0, 1, 2, 3, 4, 5], "correct": {"Q0": "The cost for clicking on nodes may vary between nodes.", "Q1": "The better I perform the higher my bonus will be.", "Q2": "No, the amount of cash at each node of the web may be different each time.", "Q3": "To get the highest total score.", "Q4": "Only before moving the spider.", "Q5": "3 seconds"}, "trial_id": "mouselab_quiz_control", "trial_type": "survey-multi-choice", "trial_index": 6, "time_elapsed": 901427, "internal_node_id": "0.0-2.0-4.0"}}, {"uniqueid": "w69391007:a31716032", "current_trial": 7, "dateTime": 1693565711672, "trialdata": {"success": true, "trial_type": "fullscreen", "trial_index": 7, "time_elapsed": 915031, "internal_node_id": "0.0-2.1-0.1-0.1"}}, {"uniqueid": "w69391007:a31716032", "current_trial": 8, "dateTime": 1693566031539, "trialdata": {"view_history": [{"page_index": 0, "viewing_time": 76197}, {"page_index": 1, "viewing_time": 56724}, {"page_index": 2, "viewing_time": 83231}, {"page_index": 3, "viewing_time": 103679}], "rt": 319840, "trial_id": "mouselab_instructions_1_control", "trial_type": "instructions", "trial_index": 8, "time_elapsed": 1234898, "internal_node_id": "0.0-2.1-1.1"}}, {"uniqueid": "w69391007:a31716032", "current_trial": 9, "dateTime": 1693566057821, "trialdata": {"revealed_states": [], "clicked_states": ["2", "8", "13"], "num_clicks_accrued": [0, 0, 0, 0, 0, 0, 0, 0, 0, 0, 0, 0, 0], "stateRewards": ["", -10, -10, 10, 10, -10, 10, -10, -10, 10, 10, -10, -10, -10, 10, 10, 10, -10, -10, 10, 10, -10, 10, -10, 10, -10, -10, -10, -10, 10, 10, 10, -10, 10], "withholdReward": false, "trial_id": "practice_1", "block": "test", "trialIndex": 2, "score": 12, "costs": -1.5, "simulationMode": [null, null, null, null, null, null], "rewards": [-10, 10, -10, 10, 10], "path": ["0", "0", "23", "24", "25", "30", "33"], "rt": [6025, 1156, 220, 125, 265, 446], "actions": ["left", "left", "left", "left", "down", "left"], "actionTimes": [11563, 12731, 13502, 14175, 14967, 15949], "queries": {"click": {"state": {"target": ["2", "8", "13"], "time": [7469, 8766, 10521]}, "edge": {"target": [], "time": []}}, "mouseover": {"state": {"target": ["1", "2", "8", "8", "1", "12", "13"], "time": [6127, 6864, 8063, 8342, 9627, 9817, 10059]}, "edge": {"target": [], "time": []}}, "mouseout": {"state": {"target": ["0", "1", "2", "8", "8", "2", "1", "12", "13", "21", "21"], "time": [5585, 6799, 7985, 8139, 9517, 9615, 9684, 9894, 10707, 23459, 23665]}, "edge": {"target": [], "time": []}}}, "displayed_time": "16.48", "trialTime": 24941, "trial_type": "mouselab-mdp", "trial_index": 9, "time_elapsed": 1261177, "internal_node_id": "0.0-2.1-2.1-0.1"}}, {"uniqueid": "w69391007:a31716032", "current_trial": 10, "dateTime": 1693566082521, "trialdata": {"revealed_states": [], "clicked_states": ["14", "24"], "num_clicks_accrued": [0, 0, 0, 0, 0, 0, 0, 0, 0, 0, 0, 0, 0], "stateRewards": ["", 10, 10, -10, -10, 10, 10, 10, -10, 10, 10, 10, -10, 10, 10, -10, 10, -10, 10, -10, 10, 10, 10, 10, -10, -10, -10, -10, -10, -10, -10, 10, 10, 10], "withholdReward": false, "trial_id": "practice_2", "block": "test", "trialIndex": 3, "score": 12.5, "costs": -1, "simulationMode": [null, null, null, null, null], "rewards": [-10, 10, 10, -10, 10], "path": ["0", "0", "12", "13", "14", "19", "20"], "rt": [4848, 15, 268, 343, 99], "actions": ["right", "right", "right", "down", "right"], "actionTimes": [7930, 8479, 9298, 10181, 10861], "queries": {"click": {"state": {"target": ["14", "24"], "time": [4447, 6043]}, "edge": {"target": [], "time": []}}, "mouseover": {"state": {"target": ["20", "19", "13", "14", "0", "24", "24", "23"], "time": [3143, 3294, 3587, 3720, 5164, 5260, 5552, 6867]}, "edge": {"target": [], "time": []}}, "mouseout": {"state": {"target": ["14", "22", "0", "0", "20", "19", "13", "14", "0", "24", "24", "23", "14", "17", "16", "1"], "time": [185, 682, 966, 3131, 3237, 3342, 3618, 5118, 5211, 5305, 6764, 6917, 14587, 14686, 15829, 16453]}, "edge": {"target": [], "time": []}}}, "displayed_time": "11.38", "trialTime": 23174, "trial_type": "mouselab-mdp", "trial_index": 10, "time_elapsed": 1285878, "internal_node_id": "0.0-2.1-2.1-1.1"}}, {"uniqueid": "w69391007:a31716032", "current_trial": 11, "dateTime": 1693566116394, "trialdata": {"view_history": [{"page_index": 0, "viewing_time": 30463}, {"page_index": 1, "viewing_time": 3386}], "rt": 33853, "trial_id": "mouselab_instructions_2_control", "trial_type": "instructions", "trial_index": 11, "time_elapsed": 1319753, "internal_node_id": "0.0-2.1-3.1"}}, {"uniqueid": "w69391007:a31716032", "current_trial": 12, "dateTime": 1693566210314, "trialdata": {"rt": 93907, "response": {"Q0": "The cost for clicking on nodes may vary between nodes.", "Q1": "The better I perform the higher my bonus will be.", "Q2": "No, the amount of cash at each node of the web may be different each time.", "Q3": "To get the highest total score.", "Q4": "Only before moving the spider.", "Q5": "3 seconds"}, "question_order": [0, 1, 2, 3, 4, 5], "correct": {"Q0": "The cost for clicking on nodes may vary between nodes.", "Q1": "The better I perform the higher my bonus will be.", "Q2": "No, the amount of cash at each node of the web may be different each time.", "Q3": "To get the highest total score.", "Q4": "Only before moving the spider.", "Q5": "3 seconds"}, "trial_id": "mouselab_quiz_control", "trial_type": "survey-multi-choice", "trial_index": 12, "time_elapsed": 1413673, "internal_node_id": "0.0-2.1-4.1"}}, {"uniqueid": "w69391007:a31716032", "current_trial": 13, "dateTime": 1693566252561, "trialdata": {"rt": 42204, "response": {"Q0": "No"}, "question_order": [0], "trial_id": "repeat_check", "trial_type": "survey-multi-choice", "trial_index": 13, "time_elapsed": 1455918, "internal_node_id": "0.0-4.0-0.0"}}, {"uniqueid": "w69391007:a31716032", "current_trial": 14, "dateTime": 1693566424770, "trialdata": {"rt": 172178, "stimulus": "\n<h1> Get ready to start the game! </h1>\n\nThank you for reading the instructions. Get ready start with the 40 rounds of this game.\n<br><br>\nIf you need to take a break, feel free to take one after the end of a round, before continuing to the next one.\n<br><br>\nRemember, the more money the spider gets, the bigger your bonus will be!\n<br><br>\n<div style='text-align: center;'>Press <code>space</code> to begin.</div>\n\n<br><br>\n(If, at any point, the <code>space</code> key does not take you to the next page, click once on the text and try again.)", "response": " ", "trial_id": "mdp_ready", "trial_type": "html-keyboard-response", "trial_index": 14, "time_elapsed": 1628128, "internal_node_id": "0.0-6.0-0.0"}}, {"uniqueid": "w69391007:a31716032", "current_trial": 15, "dateTime": 1693566448321, "trialdata": {"revealed_states": [], "clicked_states": ["26", "15"], "num_clicks_accrued": [0, 0, 0, 0, 0, 0, 0, 0, 0, 0, 0, 0, 0], "stateRewards": ["", -2, -1, -2, -15, 87, 57, 29, -10, 77, -80, -7, 1, -3, 6, 14, -11, 87, -59, 4, -71, 16, -11, 2, 2, -7, 2, -47, 61, 50, 14, -20, 17, 81], "withholdReward": false, "trial_id": "mdp_trial_1", "block": "test", "trialIndex": 4, "score": 59.2, "costs": -2.8, "simulationMode": [null, null, null, null, null], "rewards": [-2, -1, -2, -10, 77], "path": ["0", "0", "1", "2", "3", "8", "9"], "rt": [4993, 727, 540, 453, 1758], "actions": ["up", "up", "up", "left", "up"], "actionTimes": [8523, 9790, 10882, 11873, 14176], "queries": {"click": {"state": {"target": ["26", "15"], "time": [4925, 7001]}, "edge": {"target": [], "time": []}}, "mouseover": {"state": {"target": ["30", "30", "26", "26", "1", "18", "14", "15"], "time": [3680, 3933, 4105, 4490, 5864, 5927, 6255, 6518]}, "edge": {"target": [], "time": []}}, "mouseout": {"state": {"target": ["0", "23", "23", "0", "30", "30", "26", "26", "1", "18", "14", "15"], "time": [1046, 1097, 1248, 3590, 3735, 4019, 4146, 5781, 5912, 6017, 6327, 17647]}, "edge": {"target": [], "time": []}}}, "displayed_time": "17.55", "trialTime": 22072, "trial_type": "mouselab-mdp", "trial_index": 15, "time_elapsed": 1651678, "internal_node_id": "0.0-6.0-1.0-0.0"}}, {"uniqueid": "w69391007:a31716032", "current_trial": 16, "dateTime": 1693566469947, "trialdata": {"revealed_states": [], "clicked_states": [], "num_clicks_accrued": [0, 0, 0, 0, 0, 0, 0, 0, 0, 0, 0, 0, 0], "stateRewards": ["", 1, 1, 7, -11, 80, -20, -53, -14, 3, 31, 27, 2, -1, -8, -10, 33, 41, 86, 9, 78, -37, -13, -1, -2, -6, -8, -80, 75, 4, -16, -49, -74, 24], "withholdReward": false, "trial_id": "mdp_trial_2", "block": "test", "trialIndex": 5, "score": -11, "costs": 0, "simulationMode": [null, null, null, null, null], "rewards": [2, -1, -8, 9, -13], "path": ["0", "0", "12", "13", "14", "19", "22"], "rt": [1817, 42, 90, 92, 180], "actions": ["right", "right", "right", "down", "left"], "actionTimes": [4917, 5508, 6164, 6778, 7478], "queries": {"click": {"state": {"target": [], "time": []}, "edge": {"target": [], "time": []}}, "mouseover": {"state": {"target": [], "time": []}, "edge": {"target": [], "time": []}}, "mouseout": {"state": {"target": ["16", "15", "13", "12", "0", "18"], "time": [79, 366, 866, 933, 12171, 12349]}, "edge": {"target": [], "time": []}}}, "displayed_time": "17.11", "trialTime": 19553, "trial_type": "mouselab-mdp", "trial_index": 16, "time_elapsed": 1673304, "internal_node_id": "0.0-6.0-1.0-1.0"}}, {"uniqueid": "w69391007:a31716032", "current_trial": 17, "dateTime": 1693566491989, "trialdata": {"revealed_states": [], "clicked_states": ["26", "4"], "num_clicks_accrued": [0, 0, 0, 0, 0, 0, 0, 0, 0, 0, 0, 0, 0], "stateRewards": ["", -1, 3, -4, -14, 78, 67, 2, 13, -32, 28, 39, -2, 1, -4, -4, -4, -42, -86, 11, 64, -29, -32, -1, -4, 2, -7, 5, 68, -61, 2, -21, 85, 50], "withholdReward": false, "trial_id": "mdp_trial_3", "block": "test", "trialIndex": 6, "score": 46.2, "costs": -2.8, "simulationMode": [null, null, null, null, null], "rewards": [-1, -4, 2, 2, 50], "path": ["0", "0", "23", "24", "25", "30", "33"], "rt": [6859, 106, 495, 28, 85], "actions": ["left", "left", "left", "down", "left"], "actionTimes": [10063, 10705, 11726, 12296, 12901], "queries": {"click": {"state": {"target": ["26", "4"], "time": [4371, 8523]}, "edge": {"target": [], "time": []}}, "mouseover": {"state": {"target": ["23", "24", "28", "26", "28", "9", "6", "4"], "time": [3610, 3682, 3745, 3855, 4788, 5277, 7405, 7904]}, "edge": {"target": [], "time": []}}, "mouseout": {"state": {"target": ["10", "23", "24", "28", "26", "28", "9", "6", "4", "3"], "time": [998, 3642, 3715, 3788, 4776, 4945, 7289, 7605, 15264, 15313]}, "edge": {"target": [], "time": []}}}, "displayed_time": "17.23", "trialTime": 20267, "trial_type": "mouselab-mdp", "trial_index": 17, "time_elapsed": 1695344, "internal_node_id": "0.0-6.0-1.0-2.0"}}, {"uniqueid": "w69391007:a31716032", "current_trial": 18, "dateTime": 1693566520817, "trialdata": {"revealed_states": [], "clicked_states": ["25", "3", "15"], "num_clicks_accrued": [0, 0, 0, 0, 0, 0, 0, 0, 0, 0, 0, 0, 0], "stateRewards": ["", -2, -1, -5, 10, -36, -70, 68, -9, 86, 71, -10, 2, -4, 7, -7, 66, 44, -66, -13, -69, 43, 15, -2, 2, 6, -13, 62, 57, 50, -10, -69, 42, -72], "withholdReward": false, "trial_id": "mdp_trial_4", "block": "test", "trialIndex": 7, "score": -81.2, "costs": -4.199999999999999, "simulationMode": [null, null, null, null, null], "rewards": [2, -4, 7, -13, -69], "path": ["0", "0", "12", "13", "14", "19", "20"], "rt": [8203, 261, 127, 356, 121], "actions": ["right", "right", "right", "down", "right"], "actionTimes": [12657, 13486, 14146, 15042, 15703], "queries": {"click": {"state": {"target": ["25", "3", "15"], "time": [5660, 7303, 9471]}, "edge": {"target": [], "time": []}}, "mouseover": {"state": {"target": ["33", "32", "31", "25", "25", "16", "6", "4", "3", "18", "14", "14", "15"], "time": [4606, 4691, 4888, 4957, 5272, 6139, 6290, 6380, 6718, 7947, 8038, 8363, 9027]}, "edge": {"target": [], "time": []}}, "mouseout": {"state": {"target": ["27", "1", "0", "0", "33", "32", "31", "25", "25", "16", "6", "4", "3", "18", "14", "14", "15"], "time": [1453, 1636, 2286, 4507, 4643, 4722, 4924, 4990, 6022, 6214, 6336, 6672, 7900, 7995, 8083, 8973, 23746]}, "edge": {"target": [], "time": []}}}, "displayed_time": "18.48", "trialTime": 27135, "trial_type": "mouselab-mdp", "trial_index": 18, "time_elapsed": 1724175, "internal_node_id": "0.0-6.0-1.0-3.0"}}, {"uniqueid": "w69391007:a31716032", "current_trial": 19, "dateTime": 1693566540292, "trialdata": {"revealed_states": [], "clicked_states": ["2", "25"], "num_clicks_accrued": [0, 0, 0, 0, 0, 0, 0, 0, 0, 0, 0, 0, 0], "stateRewards": ["", 2, 4, -3, 16, -58, 30, -35, 11, -60, 47, 27, -2, -1, -7, -16, 23, -70, 68, -10, -65, -43, -34, -2, 1, 7, 9, -63, 34, -31, -8, -12, -86, 59], "withholdReward": false, "trial_id": "mdp_trial_5", "block": "test", "trialIndex": 8, "score": -18.8, "costs": -2.8, "simulationMode": [null, null, null, null, null], "rewards": [-2, 1, 7, 9, -31], "path": ["0", "0", "23", "24", "25", "26", "29"], "rt": [7037, 16, 91, 428, 948], "actions": ["left", "left", "left", "up", "left"], "actionTimes": [9101, 9710, 10328, 11291, 12795], "queries": {"click": {"state": {"target": ["2", "25"], "time": [3568, 5619]}, "edge": {"target": [], "time": []}}, "mouseover": {"state": {"target": ["3", "2", "33", "25"], "time": [2924, 3057, 4586, 4885]}, "edge": {"target": [], "time": []}}, "mouseout": {"state": {"target": ["15", "18", "1", "0", "3", "2", "33", "25", "25", "12"], "time": [106, 141, 271, 2650, 2991, 4330, 4869, 14259, 16570, 16846]}, "edge": {"target": [], "time": []}}}, "displayed_time": "16.07", "trialTime": 17642, "trial_type": "mouselab-mdp", "trial_index": 19, "time_elapsed": 1743648, "internal_node_id": "0.0-6.0-1.0-4.0"}}, {"uniqueid": "w69391007:a31716032", "current_trial": 20, "dateTime": 1693566568388, "trialdata": {"revealed_states": [], "clicked_states": ["2", "9"], "num_clicks_accrued": [0, 0, 0, 0, 0, 0, 0, 0, 0, 0, 0, 0, 0], "stateRewards": ["", -2, 2, 3, -7, 76, 63, 21, 15, 35, -8, -44, 1, 1, -2, -12, 23, 24, 76, -9, 46, 66, -49, -2, -1, 7, 12, 40, -71, -45, -6, 38, -49, 46], "withholdReward": false, "trial_id": "mdp_trial_6", "block": "test", "trialIndex": 9, "score": 50.2, "costs": -2.8, "simulationMode": [null, null, null, null, null], "rewards": [-2, 2, 3, 15, 35], "path": ["0", "0", "1", "2", "3", "8", "9"], "rt": [8723, 98, 205, 399, 203], "actions": ["up", "up", "up", "left", "up"], "actionTimes": [15540, 16190, 16931, 17865, 18598], "queries": {"click": {"state": {"target": ["2", "9"], "time": [8288, 12547]}, "edge": {"target": [], "time": []}}, "mouseover": {"state": {"target": ["12", "1", "2", "4", "4", "9"], "time": [7408, 7599, 7755, 11235, 11508, 12118]}, "edge": {"target": [], "time": []}}, "mouseout": {"state": {"target": ["15", "17", "12", "0", "0", "12", "1", "2", "4", "4", "9", "25"], "time": [3197, 3239, 4550, 5004, 7376, 7440, 7718, 10731, 11317, 11833, 14410, 25127]}, "edge": {"target": [], "time": []}}}, "displayed_time": "20.83", "trialTime": 26367, "trial_type": "mouselab-mdp", "trial_index": 20, "time_elapsed": 1771744, "internal_node_id": "0.0-6.0-1.0-5.0"}}, {"uniqueid": "w69391007:a31716032", "current_trial": 21, "dateTime": 1693566589150, "trialdata": {"revealed_states": [], "clicked_states": [], "num_clicks_accrued": [0, 0, 0, 0, 0, 0, 0, 0, 0, 0, 0, 0, 0], "stateRewards": ["", 1, -2, -3, 14, -42, -87, -37, -11, -50, 33, -44, -2, 4, -7, 13, 48, -75, -66, 12, 23, -2, 82, 1, -4, 3, 12, 51, -15, -26, -11, -52, -29, 82], "withholdReward": false, "trial_id": "mdp_trial_7", "block": "test", "trialIndex": 10, "score": -32, "costs": 0, "simulationMode": [null, null, null, null, null], "rewards": [1, -2, -3, 14, -42], "path": ["0", "0", "1", "2", "3", "4", "5"], "rt": [9626, 21, 650, 173, 324], "actions": ["up", "up", "up", "right", "up"], "actionTimes": [12070, 12613, 13801, 14505, 15361], "queries": {"click": {"state": {"target": [], "time": []}, "edge": {"target": [], "time": []}}, "mouseover": {"state": {"target": ["13", "14", "13", "12", "12", "0", "0", "0"], "time": [3249, 3319, 3825, 5745, 6038, 7532, 8254, 8819]}, "edge": {"target": [], "time": []}}, "mouseout": {"state": {"target": ["0", "13", "14", "13", "12", "12", "0", "0", "0"], "time": [3203, 3280, 3683, 5731, 5804, 7519, 7571, 8453, 9815]}, "edge": {"target": [], "time": []}}}, "displayed_time": "16.46", "trialTime": 18595, "trial_type": "mouselab-mdp", "trial_index": 21, "time_elapsed": 1792507, "internal_node_id": "0.0-6.0-1.0-6.0"}}, {"uniqueid": "w69391007:a31716032", "current_trial": 22, "dateTime": 1693566608417, "trialdata": {"revealed_states": [], "clicked_states": ["23"], "num_clicks_accrued": [0, 0, 0, 0, 0, 0, 0, 0, 0, 0, 0, 0, 0], "stateRewards": ["", -2, -4, -2, 10, -8, -15, -47, 7, -84, 53, 5, -1, 2, -7, 3, 83, 31, 47, -1, 30, -8, 69, 2, -4, -1, 8, -7, 12, -8, -8, -13, 30, -84], "withholdReward": false, "trial_id": "mdp_trial_8", "block": "test", "trialIndex": 11, "score": -86.4, "costs": -1.4, "simulationMode": [null, null, null, null, null], "rewards": [-2, -4, -2, 7, -84], "path": ["0", "0", "1", "2", "3", "8", "9"], "rt": [4876, 73, 23, 1662, 204], "actions": ["up", "up", "up", "left", "up"], "actionTimes": [7101, 7720, 8304, 10513, 11238], "queries": {"click": {"state": {"target": ["23"], "time": [3126]}, "edge": {"target": [], "time": []}}, "mouseover": {"state": {"target": ["23", "23", "24", "25", "25"], "time": [2274, 2780, 3889, 3982, 4189]}, "edge": {"target": [], "time": []}}, "mouseout": {"state": {"target": ["0", "23", "23", "24", "25", "25"], "time": [661, 2571, 3770, 3934, 4056, 14912]}, "edge": {"target": [], "time": []}}}, "displayed_time": "16.24", "trialTime": 17290, "trial_type": "mouselab-mdp", "trial_index": 22, "time_elapsed": 1811774, "internal_node_id": "0.0-6.0-1.0-7.0"}}, {"uniqueid": "w69391007:a31716032", "current_trial": 23, "dateTime": 1693566629297, "trialdata": {"revealed_states": [], "clicked_states": ["1"], "num_clicks_accrued": [0, 0, 0, 0, 0, 0, 0, 0, 0, 0, 0, 0, 0], "stateRewards": ["", -1, 3, 8, 9, -53, 20, -84, 2, -28, -62, -31, -1, -2, -7, 2, 51, 58, 45, -4, -17, -41, 36, 2, -2, -7, -15, 29, -54, -37, -16, -43, 65, -17], "withholdReward": false, "trial_id": "mdp_trial_9", "block": "test", "trialIndex": 12, "score": 35.6, "costs": -1.4, "simulationMode": [null, null, null, null, null], "rewards": [-1, -2, -7, 2, 45], "path": ["0", "0", "12", "13", "14", "15", "18"], "rt": [4141, 54, 135, 103, 158], "actions": ["right", "right", "right", "up", "left"], "actionTimes": [6378, 6985, 7668, 8311, 9005], "queries": {"click": {"state": {"target": ["1"], "time": [3536]}, "edge": {"target": [], "time": []}}, "mouseover": {"state": {"target": ["1", "23"], "time": [3007, 3934]}, "edge": {"target": [], "time": []}}, "mouseout": {"state": {"target": ["0", "0", "1", "23"], "time": [251, 2825, 3921, 14660]}, "edge": {"target": [], "time": []}}}, "displayed_time": "16.26", "trialTime": 18742, "trial_type": "mouselab-mdp", "trial_index": 23, "time_elapsed": 1832653, "internal_node_id": "0.0-6.0-1.0-8.0"}}, {"uniqueid": "w69391007:a31716032", "current_trial": 24, "dateTime": 1693566652216, "trialdata": {"revealed_states": [], "clicked_states": ["12"], "num_clicks_accrued": [0, 0, 0, 0, 0, 0, 0, 0, 0, 0, 0, 0, 0], "stateRewards": ["", 1, -4, 6, -3, 40, 76, -51, 5, -24, -63, 44, -2, -2, 8, 1, 76, -85, -58, 10, 59, 20, 11, -2, 3, -3, 3, -82, -10, 54, -7, -57, -6, -32], "withholdReward": false, "trial_id": "mdp_trial_10", "block": "test", "trialIndex": 13, "score": 53.6, "costs": -1.4, "simulationMode": [null, null, null, null, null], "rewards": [-2, 3, -3, 3, 54], "path": ["0", "0", "23", "24", "25", "26", "29"], "rt": [3910, 102, 148, 30, 104], "actions": ["left", "left", "left", "up", "left"], "actionTimes": [5946, 6603, 7270, 7827, 8495], "queries": {"click": {"state": {"target": ["12"], "time": [3051]}, "edge": {"target": [], "time": []}}, "mouseover": {"state": {"target": ["12", "1", "1"], "time": [2205, 3634, 3980]}, "edge": {"target": [], "time": []}}, "mouseout": {"state": {"target": ["13", "0", "12", "1", "1"], "time": [41, 2162, 3581, 3684, 12508]}, "edge": {"target": [], "time": []}}}, "displayed_time": "16.08", "trialTime": 20579, "trial_type": "mouselab-mdp", "trial_index": 24, "time_elapsed": 1855572, "internal_node_id": "0.0-6.0-1.0-9.0"}}, {"uniqueid": "w69391007:a31716032", "current_trial": 25, "dateTime": 1693566678295, "trialdata": {"revealed_states": [], "clicked_states": ["12"], "num_clicks_accrued": [0, 0, 0, 0, 0, 0, 0, 0, 0, 0, 0, 0, 0], "stateRewards": ["", 1, -1, 1, 13, 31, -56, 72, 2, 41, 5, 63, -2, -3, -2, 3, -71, -26, 52, 13, -31, 24, -67, 2, -2, 5, 4, 66, 43, 72, 9, 86, -26, 44], "withholdReward": false, "trial_id": "mdp_trial_11", "block": "test", "trialIndex": 14, "score": 98.6, "costs": -1.4, "simulationMode": [null, null, null, null, null, null], "rewards": [2, -2, 5, 9, 86], "path": ["0", "0", "23", "24", "25", "30", "31"], "rt": [2468, 1314, 178, 117, 128, 177], "actions": ["left", "left", "left", "left", "down", "right"], "actionTimes": [4341, 5669, 6378, 7025, 7678, 8388], "queries": {"click": {"state": {"target": ["12"], "time": [3251]}, "edge": {"target": [], "time": []}}, "mouseover": {"state": {"target": ["12"], "time": [2759]}, "edge": {"target": [], "time": []}}, "mouseout": {"state": {"target": ["0", "12"], "time": [2722, 13701]}, "edge": {"target": [], "time": []}}}, "displayed_time": "15.89", "trialTime": 23799, "trial_type": "mouselab-mdp", "trial_index": 25, "time_elapsed": 1881652, "internal_node_id": "0.0-6.0-1.0-10.0"}}, {"uniqueid": "w69391007:a31716032", "current_trial": 26, "dateTime": 1693566700473, "trialdata": {"revealed_states": [], "clicked_states": ["1"], "num_clicks_accrued": [0, 0, 0, 0, 0, 0, 0, 0, 0, 0, 0, 0, 0], "stateRewards": ["", 1, 1, 1, 15, -76, 52, -32, 14, -57, 37, 49, 1, -4, -3, 6, 83, -76, 25, 9, 36, -1, -17, -1, 4, 4, -2, -22, -21, 58, -15, -57, 49, -24], "withholdReward": false, "trial_id": "mdp_trial_12", "block": "test", "trialIndex": 15, "score": 23.6, "costs": -1.4, "simulationMode": [null, null, null, null, null, null], "rewards": [1, -4, -3, 6, 25], "path": ["0", "0", "12", "13", "14", "15", "18"], "rt": [2240, 1063, 179, 171, 519, 108], "actions": ["left", "right", "right", "right", "up", "left"], "actionTimes": [6037, 7116, 7825, 8534, 9568, 10241], "queries": {"click": {"state": {"target": ["1"], "time": [4970]}, "edge": {"target": [], "time": []}}, "mouseover": {"state": {"target": ["1"], "time": [4537]}, "edge": {"target": [], "time": []}}, "mouseout": {"state": {"target": ["0", "0", "1"], "time": [1326, 3882, 5124]}, "edge": {"target": [], "time": []}}}, "displayed_time": "17.85", "trialTime": 19838, "trial_type": "mouselab-mdp", "trial_index": 26, "time_elapsed": 1903829, "internal_node_id": "0.0-6.0-1.0-11.0"}}, {"uniqueid": "w69391007:a31716032", "current_trial": 27, "dateTime": 1693566720735, "trialdata": {"revealed_states": [], "clicked_states": ["2"], "num_clicks_accrued": [0, 0, 0, 0, 0, 0, 0, 0, 0, 0, 0, 0, 0], "stateRewards": ["", -2, -2, -7, -13, -10, 49, -68, -1, 84, 70, 88, 1, 4, 4, 12, -57, 25, 30, 8, -1, -77, 57, 2, 3, 2, 3, -18, -80, 23, -15, -41, 70, 11], "withholdReward": false, "trial_id": "mdp_trial_13", "block": "test", "trialIndex": 16, "score": -9.4, "costs": -1.4, "simulationMode": [null, null, null, null, null, null], "rewards": [2, 3, 2, 3, -18], "path": ["0", "0", "23", "24", "25", "26", "27"], "rt": [2493, 687, 155, 288, 138, 491], "actions": ["left", "left", "left", "left", "up", "up"], "actionTimes": [4732, 5432, 6113, 6937, 7621, 8635], "queries": {"click": {"state": {"target": ["2"], "time": [3454]}, "edge": {"target": [], "time": []}}, "mouseover": {"state": {"target": ["2"], "time": [3013]}, "edge": {"target": [], "time": []}}, "mouseout": {"state": {"target": ["0", "2"], "time": [29, 10726]}, "edge": {"target": [], "time": []}}}, "displayed_time": "16.27", "trialTime": 18003, "trial_type": "mouselab-mdp", "trial_index": 27, "time_elapsed": 1924092, "internal_node_id": "0.0-6.0-1.0-12.0"}}, {"uniqueid": "w69391007:a31716032", "current_trial": 28, "dateTime": 1693566740689, "trialdata": {"revealed_states": [], "clicked_states": [], "num_clicks_accrued": [0, 0, 0, 0, 0, 0, 0, 0, 0, 0, 0, 0, 0], "stateRewards": ["", -2, 4, -5, -12, 85, -24, -18, -15, -78, -22, 26, -1, -1, 2, 14, -45, 52, -23, 7, -33, 24, -6, -2, -4, 5, -7, -16, 36, -39, 5, 71, -87, -23], "withholdReward": false, "trial_id": "mdp_trial_14", "block": "test", "trialIndex": 17, "score": -96, "costs": 0, "simulationMode": [null, null, null, null, null], "rewards": [-2, 4, -5, -15, -78], "path": ["0", "0", "1", "2", "3", "8", "9"], "rt": [570, 77, 139, 156, 750], "actions": ["up", "up", "up", "left", "up"], "actionTimes": [2901, 3519, 4195, 4879, 6146], "queries": {"click": {"state": {"target": [], "time": []}, "edge": {"target": [], "time": []}}, "mouseover": {"state": {"target": [], "time": []}, "edge": {"target": [], "time": []}}, "mouseout": {"state": {"target": ["0"], "time": [7627]}, "edge": {"target": [], "time": []}}}, "displayed_time": "16.34", "trialTime": 17583, "trial_type": "mouselab-mdp", "trial_index": 28, "time_elapsed": 1944046, "internal_node_id": "0.0-6.0-1.0-13.0"}}, {"uniqueid": "w69391007:a31716032", "current_trial": 29, "dateTime": 1693566760790, "trialdata": {"revealed_states": [], "clicked_states": ["23"], "num_clicks_accrued": [0, 0, 0, 0, 0, 0, 0, 0, 0, 0, 0, 0, 0], "stateRewards": ["", -2, -1, -6, -14, -55, 78, -13, 11, 14, -71, 59, 2, 2, 6, -6, 9, 38, 14, 7, 85, 11, 68, 1, -4, -1, -3, -63, -85, 9, -2, 63, -86, -10], "withholdReward": false, "trial_id": "mdp_trial_15", "block": "test", "trialIndex": 18, "score": -71.4, "costs": -1.4, "simulationMode": [null, null, null, null, null], "rewards": [1, -4, -1, -3, -63], "path": ["0", "0", "23", "24", "25", "26", "27"], "rt": [4391, 192, 224, 97, 197], "actions": ["left", "left", "left", "up", "up"], "actionTimes": [6730, 7464, 8223, 8854, 9589], "queries": {"click": {"state": {"target": ["23"], "time": [3373]}, "edge": {"target": [], "time": []}}, "mouseover": {"state": {"target": ["23", "26"], "time": [2391, 4024]}, "edge": {"target": [], "time": []}}, "mouseout": {"state": {"target": ["0", "23", "26", "29"], "time": [48, 3797, 12476, 12535]}, "edge": {"target": [], "time": []}}}, "displayed_time": "16.36", "trialTime": 17654, "trial_type": "mouselab-mdp", "trial_index": 29, "time_elapsed": 1964146, "internal_node_id": "0.0-6.0-1.0-14.0"}}, {"uniqueid": "w69391007:a31716032", "current_trial": 30, "dateTime": 1693566781485, "trialdata": {"revealed_states": [], "clicked_states": ["12"], "num_clicks_accrued": [0, 0, 0, 0, 0, 0, 0, 0, 0, 0, 0, 0, 0], "stateRewards": ["", 1, 1, -5, 8, -6, 45, 16, -6, -7, -22, -38, -1, -4, 8, -11, -16, 21, -45, -15, -59, -32, 42, -1, 3, 6, 11, -7, 34, -27, -8, 85, 43, -9], "withholdReward": false, "trial_id": "mdp_trial_16", "block": "test", "trialIndex": 19, "score": 83.6, "costs": -1.4, "simulationMode": [null, null, null, null, null], "rewards": [-1, 3, 6, -8, 85], "path": ["0", "0", "23", "24", "25", "30", "31"], "rt": [3972, 182, 200, 82, 203], "actions": ["left", "left", "left", "down", "right"], "actionTimes": [6624, 7352, 8075, 8696, 9426], "queries": {"click": {"state": {"target": ["12"], "time": [3713]}, "edge": {"target": [], "time": []}}, "mouseover": {"state": {"target": ["12", "1", "1"], "time": [2905, 4402, 4652]}, "edge": {"target": [], "time": []}}, "mouseout": {"state": {"target": ["0", "12", "1"], "time": [1054, 4132, 4444]}, "edge": {"target": [], "time": []}}}, "displayed_time": "16.68", "trialTime": 18156, "trial_type": "mouselab-mdp", "trial_index": 30, "time_elapsed": 1984842, "internal_node_id": "0.0-6.0-1.0-15.0"}}, {"uniqueid": "w69391007:a31716032", "current_trial": 31, "dateTime": 1693566802151, "trialdata": {"revealed_states": [], "clicked_states": ["2"], "num_clicks_accrued": [0, 0, 0, 0, 0, 0, 0, 0, 0, 0, 0, 0, 0], "stateRewards": ["", -1, -1, 7, -15, -43, -21, -84, -9, -45, -66, 2, 1, -2, 2, 8, -27, 44, -52, -5, -84, 11, 53, 1, 4, -4, 16, 83, -82, -15, -16, 68, -43, 81], "withholdReward": false, "trial_id": "mdp_trial_17", "block": "test", "trialIndex": 20, "score": -95.4, "costs": -1.4, "simulationMode": [null, null, null, null, null], "rewards": [-1, -1, 7, -15, -84], "path": ["0", "0", "1", "2", "3", "4", "7"], "rt": [3298, 59, 150, 80, 167], "actions": ["up", "up", "up", "right", "down"], "actionTimes": [6058, 6648, 7334, 7956, 8651], "queries": {"click": {"state": {"target": ["2"], "time": [4044]}, "edge": {"target": [], "time": []}}, "mouseover": {"state": {"target": ["1", "1", "2"], "time": [2826, 3441, 3542]}, "edge": {"target": [], "time": []}}, "mouseout": {"state": {"target": ["0", "1", "1", "2"], "time": [2815, 3044, 3504, 16193]}, "edge": {"target": [], "time": []}}}, "displayed_time": "16.78", "trialTime": 17840, "trial_type": "mouselab-mdp", "trial_index": 31, "time_elapsed": 2005506, "internal_node_id": "0.0-6.0-1.0-16.0"}}, {"uniqueid": "w69391007:a31716032", "current_trial": 32, "dateTime": 1693566829835, "trialdata": {"revealed_states": [], "clicked_states": ["23"], "num_clicks_accrued": [0, 0, 0, 0, 0, 0, 0, 0, 0, 0, 0, 0, 0], "stateRewards": ["", -1, 4, -8, 12, 14, 69, -8, 5, -72, -14, 56, -1, -1, -1, 9, 67, 19, 11, -9, -88, -58, 3, 2, -4, -8, 4, 62, 77, -74, 5, -31, 65, 88], "withholdReward": false, "trial_id": "mdp_trial_18", "block": "test", "trialIndex": 21, "score": 81.6, "costs": -1.4, "simulationMode": [null, null, null, null, null], "rewards": [2, -4, -8, 5, 88], "path": ["0", "0", "23", "24", "25", "30", "33"], "rt": [3327, 297, 237, 112, 216], "actions": ["left", "left", "left", "down", "left"], "actionTimes": [6218, 7063, 7831, 8471, 9184], "queries": {"click": {"state": {"target": ["23"], "time": [3878]}, "edge": {"target": [], "time": []}}, "mouseover": {"state": {"target": ["23", "28"], "time": [2958, 4335]}, "edge": {"target": [], "time": []}}, "mouseout": {"state": {"target": ["23", "0", "23", "28"], "time": [376, 2946, 4247, 12540]}, "edge": {"target": [], "time": []}}}, "displayed_time": "16.91", "trialTime": 25159, "trial_type": "mouselab-mdp", "trial_index": 32, "time_elapsed": 2033191, "internal_node_id": "0.0-6.0-1.0-17.0"}}, {"uniqueid": "w69391007:a31716032", "current_trial": 33, "dateTime": 1693566849676, "trialdata": {"revealed_states": [], "clicked_states": ["1"], "num_clicks_accrued": [0, 0, 0, 0, 0, 0, 0, 0, 0, 0, 0, 0, 0], "stateRewards": ["", -1, -3, -7, -4, -85, -70, 79, 8, 84, -66, 42, 2, -2, -3, -16, -54, -66, 68, -3, 21, -14, 7, -2, -1, -3, -8, 75, 80, 86, -7, -84, 73, -16], "withholdReward": false, "trial_id": "mdp_trial_19", "block": "test", "trialIndex": 22, "score": -101.4, "costs": -1.4, "simulationMode": [null, null, null, null, null, null], "rewards": [-1, -3, -7, -4, -85], "path": ["0", "0", "1", "2", "3", "4", "5"], "rt": [2425, 569, 128, 131, 143, 11], "actions": ["up", "up", "up", "up", "right", "up"], "actionTimes": [4994, 5577, 6237, 6891, 7583, 8118], "queries": {"click": {"state": {"target": ["1"], "time": [3566]}, "edge": {"target": [], "time": []}}, "mouseover": {"state": {"target": ["12", "1", "1"], "time": [2642, 2907, 3070]}, "edge": {"target": [], "time": []}}, "mouseout": {"state": {"target": ["0", "0", "12", "1", "1", "15"], "time": [724, 2629, 2773, 2944, 11485, 11624]}, "edge": {"target": [], "time": []}}}, "displayed_time": "16.59", "trialTime": 17319, "trial_type": "mouselab-mdp", "trial_index": 33, "time_elapsed": 2053033, "internal_node_id": "0.0-6.0-1.0-18.0"}}, {"uniqueid": "w69391007:a31716032", "current_trial": 34, "dateTime": 1693566871599, "trialdata": {"revealed_states": [], "clicked_states": [], "num_clicks_accrued": [0, 0, 0, 0, 0, 0, 0, 0, 0, 0, 0, 0, 0], "stateRewards": ["", 2, -3, -4, -1, 25, -16, 16, 10, -71, -20, -55, 1, 3, -4, -9, 1, 32, 11, -6, 32, -50, -41, -1, 4, 4, -8, 7, -81, 70, 2, -52, 45, -10], "withholdReward": false, "trial_id": "mdp_trial_20", "block": "test", "trialIndex": 23, "score": 69, "costs": 0, "simulationMode": [null, null, null, null, null], "rewards": [-1, 4, 4, -8, 70], "path": ["0", "0", "23", "24", "25", "26", "29"], "rt": [533, 16, 105, 141, 150], "actions": ["left", "left", "left", "up", "left"], "actionTimes": [3148, 3683, 4347, 5024, 5713], "queries": {"click": {"state": {"target": [], "time": []}, "edge": {"target": [], "time": []}}, "mouseover": {"state": {"target": [], "time": []}, "edge": {"target": [], "time": []}}, "mouseout": {"state": {"target": ["0", "23", "31", "22", "19"], "time": [10391, 10453, 10563, 10713, 10752]}, "edge": {"target": [], "time": []}}}, "displayed_time": "16.67", "trialTime": 17863, "trial_type": "mouselab-mdp", "trial_index": 34, "time_elapsed": 2074955, "internal_node_id": "0.0-6.0-1.0-19.0"}}, {"uniqueid": "w69391007:a31716032", "current_trial": 35, "dateTime": 1693566893194, "trialdata": {"revealed_states": [], "clicked_states": [], "num_clicks_accrued": [0, 0, 0, 0, 0, 0, 0, 0, 0, 0, 0, 0, 0], "stateRewards": ["", -1, 1, -6, -1, 80, 23, 2, -11, 73, -81, 59, 1, 3, 5, -1, -26, 28, -3, 16, -59, -13, -50, -2, -2, 2, 15, -50, 86, 17, -4, 37, 35, 44], "withholdReward": false, "trial_id": "mdp_trial_21", "block": "test", "trialIndex": 24, "score": 42, "costs": 0, "simulationMode": [null, null, null, null, null], "rewards": [-1, 1, -6, -11, 59], "path": ["0", "0", "1", "2", "3", "8", "11"], "rt": [679, 49, 28, 55, 40], "actions": ["up", "up", "up", "left", "left"], "actionTimes": [3841, 4416, 4988, 5566, 6166], "queries": {"click": {"state": {"target": [], "time": []}, "edge": {"target": [], "time": []}}, "mouseover": {"state": {"target": [], "time": []}, "edge": {"target": [], "time": []}}, "mouseout": {"state": {"target": ["22", "0"], "time": [346, 8377]}, "edge": {"target": [], "time": []}}}, "displayed_time": "17.18", "trialTime": 19210, "trial_type": "mouselab-mdp", "trial_index": 35, "time_elapsed": 2096550, "internal_node_id": "0.0-6.0-1.0-20.0"}}, {"uniqueid": "w69391007:a31716032", "current_trial": 36, "dateTime": 1693566913429, "trialdata": {"revealed_states": [], "clicked_states": ["1"], "num_clicks_accrued": [0, 0, 0, 0, 0, 0, 0, 0, 0, 0, 0, 0, 0], "stateRewards": ["", -1, -3, -5, -14, -13, -47, 79, 8, -60, -64, 41, -1, 2, 3, 13, -46, 61, -79, -11, -64, -65, 23, 1, -2, 6, -14, 46, 32, 21, 7, 75, -66, 15], "withholdReward": false, "trial_id": "mdp_trial_22", "block": "test", "trialIndex": 25, "score": 76.6, "costs": -1.4, "simulationMode": [null, null, null, null, null], "rewards": [-1, 2, 3, 13, 61], "path": ["0", "0", "12", "13", "14", "15", "17"], "rt": [2786, 23, 124, 14, 127], "actions": ["right", "right", "right", "up", "right"], "actionTimes": [5067, 5639, 6307, 6848, 7533], "queries": {"click": {"state": {"target": ["1"], "time": [3215]}, "edge": {"target": [], "time": []}}, "mouseover": {"state": {"target": ["1"], "time": [2440]}, "edge": {"target": [], "time": []}}, "mouseout": {"state": {"target": ["0", "1", "6"], "time": [2429, 9815, 9925]}, "edge": {"target": [], "time": []}}}, "displayed_time": "16.32", "trialTime": 17406, "trial_type": "mouselab-mdp", "trial_index": 36, "time_elapsed": 2116785, "internal_node_id": "0.0-6.0-1.0-21.0"}}, {"uniqueid": "w69391007:a31716032", "current_trial": 37, "dateTime": 1693566934007, "trialdata": {"revealed_states": [], "clicked_states": [], "num_clicks_accrued": [0, 0, 0, 0, 0, 0, 0, 0, 0, 0, 0, 0, 0], "stateRewards": ["", 1, -4, -6, 11, -20, 8, -30, 1, -38, 88, 42, 2, 3, 5, -12, -8, -74, 30, -8, 67, -19, 42, 2, -1, 4, 13, 50, -68, 2, -8, -15, 87, -46], "withholdReward": false, "trial_id": "mdp_trial_23", "block": "test", "trialIndex": 26, "score": 44, "costs": 0, "simulationMode": [null, null, null, null, null], "rewards": [2, 3, 5, -8, 42], "path": ["0", "0", "12", "13", "14", "19", "22"], "rt": [608, 84, 98, 106, 237], "actions": ["right", "right", "right", "down", "left"], "actionTimes": [3092, 3709, 4332, 4976, 5752], "queries": {"click": {"state": {"target": [], "time": []}, "edge": {"target": [], "time": []}}, "mouseover": {"state": {"target": [], "time": []}, "edge": {"target": [], "time": []}}, "mouseout": {"state": {"target": ["0"], "time": [7365]}, "edge": {"target": [], "time": []}}}, "displayed_time": "16.50", "trialTime": 17699, "trial_type": "mouselab-mdp", "trial_index": 37, "time_elapsed": 2137363, "internal_node_id": "0.0-6.0-1.0-22.0"}}, {"uniqueid": "w69391007:a31716032", "current_trial": 38, "dateTime": 1693566956385, "trialdata": {"revealed_states": [], "clicked_states": [], "num_clicks_accrued": [0, 0, 0, 0, 0, 0, 0, 0, 0, 0, 0, 0, 0], "stateRewards": ["", 1, 1, -6, -2, 7, 77, 3, 16, -16, 66, 31, -1, 3, -8, -6, 33, -50, -48, 7, -60, -66, 36, 2, -3, 3, -7, -12, -61, -79, -4, 8, 74, -70], "withholdReward": false, "trial_id": "mdp_trial_24", "block": "test", "trialIndex": 27, "score": -72, "costs": 0, "simulationMode": [null, null, null, null, null], "rewards": [2, -3, 3, -4, -70], "path": ["0", "0", "23", "24", "25", "30", "33"], "rt": [563, 247, 126, 97, 229], "actions": ["left", "left", "left", "down", "left"], "actionTimes": [5478, 6266, 6905, 7541, 8312], "queries": {"click": {"state": {"target": [], "time": []}, "edge": {"target": [], "time": []}}, "mouseover": {"state": {"target": [], "time": []}, "edge": {"target": [], "time": []}}, "mouseout": {"state": {"target": ["1", "23", "0", "26", "29"], "time": [1646, 1762, 14989, 15105, 15203]}, "edge": {"target": [], "time": []}}}, "displayed_time": "18.96", "trialTime": 19977, "trial_type": "mouselab-mdp", "trial_index": 38, "time_elapsed": 2159742, "internal_node_id": "0.0-6.0-1.0-23.0"}}, {"uniqueid": "w69391007:a31716032", "current_trial": 39, "dateTime": 1693566980543, "trialdata": {"revealed_states": [], "clicked_states": [], "num_clicks_accrued": [0, 0, 0, 0, 0, 0, 0, 0, 0, 0, 0, 0, 0], "stateRewards": ["", 1, -4, -6, -1, -21, 17, -72, 10, 77, 67, -46, -1, 4, -2, 14, -66, -49, -45, -15, -52, 23, -67, 2, -2, -2, 15, -3, 45, -64, 5, -44, 83, 61], "withholdReward": false, "trial_id": "mdp_trial_25", "block": "test", "trialIndex": 28, "score": 9, "costs": 0, "simulationMode": [null, null, null, null, null], "rewards": [-1, 4, -2, -15, 23], "path": ["0", "0", "12", "13", "14", "19", "21"], "rt": [636, 131, 178, 91, 137], "actions": ["right", "right", "right", "down", "down"], "actionTimes": [2974, 3710, 4435, 5060, 5739], "queries": {"click": {"state": {"target": [], "time": []}, "edge": {"target": [], "time": []}}, "mouseover": {"state": {"target": [], "time": []}, "edge": {"target": [], "time": []}}, "mouseout": {"state": {"target": ["0", "12", "17"], "time": [18592, 18642, 18894]}, "edge": {"target": [], "time": []}}}, "displayed_time": "16.37", "trialTime": 20883, "trial_type": "mouselab-mdp", "trial_index": 39, "time_elapsed": 2183899, "internal_node_id": "0.0-6.0-1.0-24.0"}}, {"uniqueid": "w69391007:a31716032", "current_trial": 40, "dateTime": 1693567001838, "trialdata": {"revealed_states": [], "clicked_states": ["2"], "num_clicks_accrued": [0, 0, 0, 0, 0, 0, 0, 0, 0, 0, 0, 0, 0], "stateRewards": ["", 1, 2, 2, -15, -84, 28, -26, 13, 31, 86, 30, -2, 1, -1, -8, 66, -40, -1, -10, -32, 57, -17, 1, 2, -2, 9, -23, 77, 85, 12, -32, -62, -35], "withholdReward": false, "trial_id": "mdp_trial_26", "block": "test", "trialIndex": 29, "score": -95.4, "costs": -1.4, "simulationMode": [null, null, null, null, null], "rewards": [1, 2, 2, -15, -84], "path": ["0", "0", "1", "2", "3", "4", "5"], "rt": [2772, 321, 238, 377, 1268], "actions": ["up", "up", "up", "right", "up"], "actionTimes": [5171, 6030, 6807, 7706, 9531], "queries": {"click": {"state": {"target": ["2"], "time": [3632]}, "edge": {"target": [], "time": []}}, "mouseover": {"state": {"target": ["1", "2"], "time": [2902, 3139]}, "edge": {"target": [], "time": []}}, "mouseout": {"state": {"target": ["1"], "time": [2940]}, "edge": {"target": [], "time": []}}}, "displayed_time": "16.43", "trialTime": 18023, "trial_type": "mouselab-mdp", "trial_index": 40, "time_elapsed": 2205193, "internal_node_id": "0.0-6.0-1.0-25.0"}}, {"uniqueid": "w69391007:a31716032", "current_trial": 41, "dateTime": 1693567023217, "trialdata": {"revealed_states": [], "clicked_states": [], "num_clicks_accrued": [0, 0, 0, 0, 0, 0, 0, 0, 0, 0, 0, 0, 0], "stateRewards": ["", -1, -3, -7, -7, -76, 30, -49, 11, -70, 56, 2, 1, 4, -3, -14, -59, -83, -25, -9, -21, -67, -73, -2, 4, 4, -9, -11, -32, 60, 9, -87, 22, -64], "withholdReward": false, "trial_id": "mdp_trial_27", "block": "test", "trialIndex": 30, "score": -71, "costs": 0, "simulationMode": [null, null, null, null, null], "rewards": [1, 4, -3, -14, -59], "path": ["0", "0", "12", "13", "14", "15", "16"], "rt": [795, 161, 492, 127, 272], "actions": ["right", "right", "right", "up", "up"], "actionTimes": [3526, 4226, 5264, 5909, 6709], "queries": {"click": {"state": {"target": [], "time": []}, "edge": {"target": [], "time": []}}, "mouseover": {"state": {"target": [], "time": []}, "edge": {"target": [], "time": []}}, "mouseout": {"state": {"target": ["0", "0", "13"], "time": [881, 2781, 8398]}, "edge": {"target": [], "time": []}}}, "displayed_time": "16.76", "trialTime": 18396, "trial_type": "mouselab-mdp", "trial_index": 41, "time_elapsed": 2226573, "internal_node_id": "0.0-6.0-1.0-26.0"}}, {"uniqueid": "w69391007:a31716032", "current_trial": 42, "dateTime": 1693567048570, "trialdata": {"revealed_states": [], "clicked_states": ["23"], "num_clicks_accrued": [0, 0, 0, 0, 0, 0, 0, 0, 0, 0, 0, 0, 0], "stateRewards": ["", -1, 3, 1, -7, 56, 76, 57, 3, 11, -9, 14, 1, -2, 2, 8, -77, -3, 79, -5, 88, 24, -66, -2, -1, 7, -7, -30, 14, -76, 11, -36, 28, -6], "withholdReward": false, "trial_id": "mdp_trial_28", "block": "test", "trialIndex": 31, "score": 15.6, "costs": -1.4, "simulationMode": [null, null, null, null, null], "rewards": [-1, 3, 1, 3, 11], "path": ["0", "0", "1", "2", "3", "8", "9"], "rt": [3208, 478, 200, 105, 324], "actions": ["up", "up", "up", "left", "up"], "actionTimes": [5560, 6600, 7327, 7989, 8833], "queries": {"click": {"state": {"target": ["23"], "time": [3550]}, "edge": {"target": [], "time": []}}, "mouseover": {"state": {"target": ["0", "23"], "time": [2418, 3094]}, "edge": {"target": [], "time": []}}, "mouseout": {"state": {"target": ["0", "23", "14"], "time": [3049, 20584, 20643]}, "edge": {"target": [], "time": []}}}, "displayed_time": "16.39", "trialTime": 22317, "trial_type": "mouselab-mdp", "trial_index": 42, "time_elapsed": 2251925, "internal_node_id": "0.0-6.0-1.0-27.0"}}, {"uniqueid": "w69391007:a31716032", "current_trial": 43, "dateTime": 1693567070446, "trialdata": {"revealed_states": [], "clicked_states": ["25"], "num_clicks_accrued": [0, 0, 0, 0, 0, 0, 0, 0, 0, 0, 0, 0, 0], "stateRewards": ["", -1, -2, 8, -6, -79, -6, 87, 9, -5, -66, -38, 2, 2, 5, -6, -82, 74, 85, -8, 67, -30, -15, 1, -2, -2, -2, 87, 64, 49, 7, 2, -38, -9], "withholdReward": false, "trial_id": "mdp_trial_29", "block": "test", "trialIndex": 32, "score": 75.6, "costs": -1.4, "simulationMode": [null, null, null, null, null], "rewards": [2, 2, 5, -6, 74], "path": ["0", "0", "12", "13", "14", "15", "17"], "rt": [3417, 644, 352, 252, 112], "actions": ["right", "right", "right", "up", "right"], "actionTimes": [7287, 8485, 9373, 10161, 10788], "queries": {"click": {"state": {"target": ["25"], "time": [4915]}, "edge": {"target": [], "time": []}}, "mouseover": {"state": {"target": ["25"], "time": [4350]}, "edge": {"target": [], "time": []}}, "mouseout": {"state": {"target": ["20", "19", "22", "0", "25", "23", "1", "2", "4"], "time": [582, 617, 693, 1572, 15443, 15511, 15727, 15797, 15972]}, "edge": {"target": [], "time": []}}}, "displayed_time": "17.89", "trialTime": 18969, "trial_type": "mouselab-mdp", "trial_index": 43, "time_elapsed": 2273803, "internal_node_id": "0.0-6.0-1.0-28.0"}}, {"uniqueid": "w69391007:a31716032", "current_trial": 44, "dateTime": 1693567092850, "trialdata": {"revealed_states": [], "clicked_states": ["1"], "num_clicks_accrued": [0, 0, 0, 0, 0, 0, 0, 0, 0, 0, 0, 0, 0], "stateRewards": ["", 2, 4, 4, 9, -88, -10, 44, 16, -54, 64, 78, 1, 2, 5, 16, 80, 36, 7, -4, 9, -47, -70, -1, -3, 6, -16, 11, 80, 28, 8, -1, 34, -17], "withholdReward": false, "trial_id": "mdp_trial_30", "block": "test", "trialIndex": 33, "score": 29.6, "costs": -1.4, "simulationMode": [null, null, null, null, null], "rewards": [1, 2, 5, 16, 7], "path": ["0", "0", "12", "13", "14", "15", "18"], "rt": [2779, 235, 285, 519, 175], "actions": ["right", "right", "right", "up", "left"], "actionTimes": [6949, 7735, 8587, 9692, 10436], "queries": {"click": {"state": {"target": ["1"], "time": [5112]}, "edge": {"target": [], "time": []}}, "mouseover": {"state": {"target": ["1"], "time": [4306]}, "edge": {"target": [], "time": []}}, "mouseout": {"state": {"target": ["5", "8", "10", "1", "0", "1", "16"], "time": [1481, 1520, 1707, 1807, 4235, 5260, 14234]}, "edge": {"target": [], "time": []}}}, "displayed_time": "18.20", "trialTime": 19610, "trial_type": "mouselab-mdp", "trial_index": 44, "time_elapsed": 2296208, "internal_node_id": "0.0-6.0-1.0-29.0"}}, {"uniqueid": "w69391007:a31716032", "current_trial": 45, "dateTime": 1693567115048, "trialdata": {"revealed_states": [], "clicked_states": ["2"], "num_clicks_accrued": [0, 0, 0, 0, 0, 0, 0, 0, 0, 0, 0, 0, 0], "stateRewards": ["", -2, -1, -3, -1, -78, -6, 2, -1, 22, -88, 32, 2, 2, -7, -8, -51, -17, 54, 2, -44, 54, 75, 2, -2, -8, -15, -29, 12, -67, 15, -1, -47, -47], "withholdReward": false, "trial_id": "mdp_trial_31", "block": "test", "trialIndex": 34, "score": -6.4, "costs": -1.4, "simulationMode": [null, null, null, null, null], "rewards": [-2, -1, -3, -1, 2], "path": ["0", "0", "1", "2", "3", "4", "7"], "rt": [3779, 182, 224, 122, 242], "actions": ["up", "up", "up", "right", "down"], "actionTimes": [6869, 7584, 8345, 9012, 9800], "queries": {"click": {"state": {"target": ["2"], "time": [4655]}, "edge": {"target": [], "time": []}}, "mouseover": {"state": {"target": ["1", "2", "2", "7"], "time": [3803, 3904, 4131, 5552]}, "edge": {"target": [], "time": []}}, "mouseout": {"state": {"target": ["3", "2", "1", "0", "1", "2", "2", "2", "7"], "time": [805, 883, 987, 3738, 3845, 3955, 4806, 5538, 5608]}, "edge": {"target": [], "time": []}}}, "displayed_time": "17.16", "trialTime": 19262, "trial_type": "mouselab-mdp", "trial_index": 45, "time_elapsed": 2318404, "internal_node_id": "0.0-6.0-1.0-30.0"}}, {"uniqueid": "w69391007:a31716032", "current_trial": 46, "dateTime": 1693567135662, "trialdata": {"revealed_states": [], "clicked_states": ["25"], "num_clicks_accrued": [0, 0, 0, 0, 0, 0, 0, 0, 0, 0, 0, 0, 0], "stateRewards": ["", -2, 4, -3, -13, 63, -36, 62, 11, 78, 34, -51, 2, -2, 8, -6, -40, -18, 31, 9, 64, 39, 79, 1, 4, -4, 15, -12, 76, 73, -10, -77, 86, -4], "withholdReward": false, "trial_id": "mdp_trial_32", "block": "test", "trialIndex": 35, "score": 75.6, "costs": -1.4, "simulationMode": [null, null, null, null, null], "rewards": [1, 4, -4, -10, 86], "path": ["0", "0", "23", "24", "25", "30", "32"], "rt": [3007, 154, 190, 158, 81], "actions": ["left", "left", "left", "down", "down"], "actionTimes": [5345, 6057, 6787, 7494, 8113], "queries": {"click": {"state": {"target": ["25"], "time": [3695]}, "edge": {"target": [], "time": []}}, "mouseover": {"state": {"target": ["25", "25"], "time": [2947, 3273]}, "edge": {"target": [], "time": []}}, "mouseout": {"state": {"target": ["0", "0", "25"], "time": [170, 2424, 2992]}, "edge": {"target": [], "time": []}}}, "displayed_time": "16.38", "trialTime": 17225, "trial_type": "mouselab-mdp", "trial_index": 46, "time_elapsed": 2339016, "internal_node_id": "0.0-6.0-1.0-31.0"}}, {"uniqueid": "w69391007:a31716032", "current_trial": 47, "dateTime": 1693567160206, "trialdata": {"revealed_states": [], "clicked_states": [], "num_clicks_accrued": [0, 0, 0, 0, 0, 0, 0, 0, 0, 0, 0, 0, 0], "stateRewards": ["", 2, -1, -1, 7, 11, -40, -22, -2, 69, 37, 8, -2, 4, -8, -12, -2, -72, -3, -12, 17, 63, 12, 1, 3, -7, 6, 25, 61, 61, -9, 28, -17, 27], "withholdReward": false, "trial_id": "mdp_trial_33", "block": "test", "trialIndex": 36, "score": 45, "costs": 0, "simulationMode": [null, null, null, null, null], "rewards": [-2, 4, -8, -12, 63], "path": ["0", "0", "12", "13", "14", "19", "21"], "rt": [1046, 90, 102, 1834, 450], "actions": ["right", "right", "right", "down", "down"], "actionTimes": [4489, 5136, 5774, 8140, 9128], "queries": {"click": {"state": {"target": [], "time": []}, "edge": {"target": [], "time": []}}, "mouseover": {"state": {"target": [], "time": []}, "edge": {"target": [], "time": []}}, "mouseout": {"state": {"target": ["0"], "time": [14288]}, "edge": {"target": [], "time": []}}}, "displayed_time": "17.48", "trialTime": 20697, "trial_type": "mouselab-mdp", "trial_index": 47, "time_elapsed": 2363562, "internal_node_id": "0.0-6.0-1.0-32.0"}}, {"uniqueid": "w69391007:a31716032", "current_trial": 48, "dateTime": 1693567185289, "trialdata": {"revealed_states": [], "clicked_states": [], "num_clicks_accrued": [0, 0, 0, 0, 0, 0, 0, 0, 0, 0, 0, 0, 0], "stateRewards": ["", 1, -3, 4, 13, -72, 52, 5, 5, -58, 5, 14, 2, 1, 3, -14, -86, -4, 73, 6, -58, -50, 49, 2, -3, -4, 2, 33, -41, 42, -11, 81, 45, 53], "withholdReward": false, "trial_id": "mdp_trial_34", "block": "test", "trialIndex": 37, "score": -51, "costs": 0, "simulationMode": [null, null, null, null, null], "rewards": [1, -3, 4, 5, -58], "path": ["0", "0", "1", "2", "3", "8", "9"], "rt": [760, 726, 606, 553, 332], "actions": ["up", "up", "up", "left", "up"], "actionTimes": [3378, 4655, 5799, 6890, 7767], "queries": {"click": {"state": {"target": [], "time": []}, "edge": {"target": [], "time": []}}, "mouseover": {"state": {"target": [], "time": []}, "edge": {"target": [], "time": []}}, "mouseout": {"state": {"target": ["0"], "time": [107]}, "edge": {"target": [], "time": []}}}, "displayed_time": "16.64", "trialTime": 22316, "trial_type": "mouselab-mdp", "trial_index": 48, "time_elapsed": 2388645, "internal_node_id": "0.0-6.0-1.0-33.0"}}, {"uniqueid": "w69391007:a31716032", "current_trial": 49, "dateTime": 1693567207489, "trialdata": {"revealed_states": [], "clicked_states": ["25"], "num_clicks_accrued": [0, 0, 0, 0, 0, 0, 0, 0, 0, 0, 0, 0, 0], "stateRewards": ["", -2, 2, -4, -4, -59, 88, 62, -3, 69, -15, -34, 1, -2, -5, 7, -54, -20, 78, -16, -74, -53, -21, 2, -4, 2, 13, -8, -44, 26, 9, 72, 4, 17], "withholdReward": false, "trial_id": "mdp_trial_35", "block": "test", "trialIndex": 38, "score": 3.5999999999999996, "costs": -1.4, "simulationMode": [null, null, null, null, null], "rewards": [2, -4, 2, 13, -8], "path": ["0", "0", "23", "24", "25", "26", "27"], "rt": [3372, 149, 145, 455, 270], "actions": ["left", "left", "left", "up", "up"], "actionTimes": [6647, 7325, 7992, 8970, 9779], "queries": {"click": {"state": {"target": ["25"], "time": [4689]}, "edge": {"target": [], "time": []}}, "mouseover": {"state": {"target": ["24", "25", "25"], "time": [3340, 3858, 4135]}, "edge": {"target": [], "time": []}}, "mouseout": {"state": {"target": ["0", "24", "25", "25"], "time": [3328, 3809, 3929, 4841]}, "edge": {"target": [], "time": []}}}, "displayed_time": "17.31", "trialTime": 18936, "trial_type": "mouselab-mdp", "trial_index": 49, "time_elapsed": 2410845, "internal_node_id": "0.0-6.0-1.0-34.0"}}, {"uniqueid": "w69391007:a31716032", "current_trial": 50, "dateTime": 1693567228618, "trialdata": {"revealed_states": [], "clicked_states": ["1"], "num_clicks_accrued": [0, 0, 0, 0, 0, 0, 0, 0, 0, 0, 0, 0, 0], "stateRewards": ["", 2, -3, -2, 14, -4, 85, 46, 15, -28, 41, 31, -1, -1, -1, 5, 62, 79, 57, 12, -73, -64, 86, -1, 1, -3, -5, 68, 11, -32, 8, -80, -21, -56], "withholdReward": false, "trial_id": "mdp_trial_36", "block": "test", "trialIndex": 39, "score": 51.6, "costs": -1.4, "simulationMode": [null, null, null, null, null], "rewards": [2, -3, -2, 15, 41], "path": ["0", "0", "1", "2", "3", "8", "10"], "rt": [3314, 16, 148, 166, 52], "actions": ["up", "up", "up", "left", "down"], "actionTimes": [6033, 6579, 7285, 7983, 8560], "queries": {"click": {"state": {"target": ["1"], "time": [3763]}, "edge": {"target": [], "time": []}}, "mouseover": {"state": {"target": ["1"], "time": [3122]}, "edge": {"target": [], "time": []}}, "mouseout": {"state": {"target": ["0", "1"], "time": [1154, 16582]}, "edge": {"target": [], "time": []}}}, "displayed_time": "16.73", "trialTime": 17991, "trial_type": "mouselab-mdp", "trial_index": 50, "time_elapsed": 2431975, "internal_node_id": "0.0-6.0-1.0-35.0"}}, {"uniqueid": "w69391007:a31716032", "current_trial": 51, "dateTime": 1693567251972, "trialdata": {"revealed_states": [], "clicked_states": ["13"], "num_clicks_accrued": [0, 0, 0, 0, 0, 0, 0, 0, 0, 0, 0, 0, 0], "stateRewards": ["", -2, -4, -6, 12, -58, -70, -80, 2, 16, -88, -62, 1, 2, -5, 11, 77, -35, -44, -5, 18, -83, 87, 1, -3, -5, 13, -44, -21, -86, 10, -52, 8, 29], "withholdReward": false, "trial_id": "mdp_trial_37", "block": "test", "trialIndex": 40, "score": 84.6, "costs": -1.4, "simulationMode": [null, null, null, null, null], "rewards": [1, 2, -5, 11, 77], "path": ["0", "0", "12", "13", "14", "15", "16"], "rt": [3448, 238, 326, 433, 501], "actions": ["right", "right", "right", "up", "up"], "actionTimes": [7080, 7869, 8713, 9691, 10754], "queries": {"click": {"state": {"target": ["13"], "time": [4673]}, "edge": {"target": [], "time": []}}, "mouseover": {"state": {"target": ["12", "13", "13"], "time": [3715, 3784, 4254]}, "edge": {"target": [], "time": []}}, "mouseout": {"state": {"target": ["0", "0", "0", "12", "13", "13", "14"], "time": [1034, 1250, 3701, 3769, 3986, 16297, 16355]}, "edge": {"target": [], "time": []}}}, "displayed_time": "17.66", "trialTime": 20294, "trial_type": "mouselab-mdp", "trial_index": 51, "time_elapsed": 2455328, "internal_node_id": "0.0-6.0-1.0-36.0"}}, {"uniqueid": "w69391007:a31716032", "current_trial": 52, "dateTime": 1693567274654, "trialdata": {"revealed_states": [], "clicked_states": ["23"], "num_clicks_accrued": [0, 0, 0, 0, 0, 0, 0, 0, 0, 0, 0, 0, 0], "stateRewards": ["", 2, 3, 6, -5, -74, -53, 17, -12, 46, 44, 18, -2, 4, 1, -8, 22, -23, -49, 9, -45, 55, 81, 1, -1, -7, -16, -83, -71, -45, 2, 51, 82, 61], "withholdReward": false, "trial_id": "mdp_trial_38", "block": "test", "trialIndex": 41, "score": -95.4, "costs": -1.4, "simulationMode": [null, null, null, null, null], "rewards": [1, -1, -7, -16, -71], "path": ["0", "0", "23", "24", "25", "26", "28"], "rt": [3188, 193, 157, 201, 44], "actions": ["left", "left", "left", "up", "right"], "actionTimes": [5738, 6463, 7230, 7971, 8569], "queries": {"click": {"state": {"target": ["23"], "time": [3699]}, "edge": {"target": [], "time": []}}, "mouseover": {"state": {"target": ["25", "24", "23"], "time": [2616, 2695, 3218]}, "edge": {"target": [], "time": []}}, "mouseout": {"state": {"target": ["28", "0", "0", "25", "24", "23"], "time": [41, 265, 2605, 2679, 3173, 17845]}, "edge": {"target": [], "time": []}}}, "displayed_time": "16.58", "trialTime": 19559, "trial_type": "mouselab-mdp", "trial_index": 52, "time_elapsed": 2478010, "internal_node_id": "0.0-6.0-1.0-37.0"}}, {"uniqueid": "w69391007:a31716032", "current_trial": 53, "dateTime": 1693567295781, "trialdata": {"revealed_states": [], "clicked_states": [], "num_clicks_accrued": [0, 0, 0, 0, 0, 0, 0, 0, 0, 0, 0, 0, 0], "stateRewards": ["", 2, -1, -2, -5, -47, -57, -33, -11, 31, -18, -72, -2, 1, -4, -8, -46, -53, -50, 15, -85, -9, 39, -2, -2, 1, 14, -1, -8, 53, -12, -41, -74, 62], "withholdReward": false, "trial_id": "mdp_trial_39", "block": "test", "trialIndex": 42, "score": -30, "costs": 0, "simulationMode": [null, null, null, null, null], "rewards": [2, -1, -2, -11, -18], "path": ["0", "0", "1", "2", "3", "8", "10"], "rt": [803, 58, 17, 368, 227], "actions": ["up", "up", "up", "left", "down"], "actionTimes": [3156, 3749, 4334, 5265, 6021], "queries": {"click": {"state": {"target": [], "time": []}, "edge": {"target": [], "time": []}}, "mouseover": {"state": {"target": [], "time": []}, "edge": {"target": [], "time": []}}, "mouseout": {"state": {"target": ["0"], "time": [2406]}, "edge": {"target": [], "time": []}}}, "displayed_time": "16.39", "trialTime": 17630, "trial_type": "mouselab-mdp", "trial_index": 53, "time_elapsed": 2499137, "internal_node_id": "0.0-6.0-1.0-38.0"}}, {"uniqueid": "w69391007:a31716032", "current_trial": 54, "dateTime": 1693567316958, "trialdata": {"revealed_states": [], "clicked_states": ["24"], "num_clicks_accrued": [0, 0, 0, 0, 0, 0, 0, 0, 0, 0, 0, 0, 0], "stateRewards": ["", 2, -1, 1, 10, -52, 86, -22, -2, -14, -63, 38, 1, 3, 7, -8, 11, -32, -27, 9, -71, 40, -87, -2, -1, 5, -7, 12, 31, -57, 13, 86, -58, 29], "withholdReward": false, "trial_id": "mdp_trial_40", "block": "test", "trialIndex": 43, "score": -30.4, "costs": -1.4, "simulationMode": [null, null, null, null, null], "rewards": [1, 3, 7, -8, -32], "path": ["0", "0", "12", "13", "14", "15", "17"], "rt": [3813, 17, 254, 515, 259], "actions": ["right", "right", "right", "up", "right"], "actionTimes": [6859, 7417, 8241, 9287, 10097], "queries": {"click": {"state": {"target": ["24"], "time": [4456]}, "edge": {"target": [], "time": []}}, "mouseover": {"state": {"target": ["23", "24", "24"], "time": [3544, 3781, 4102]}, "edge": {"target": [], "time": []}}, "mouseout": {"state": {"target": ["0", "0", "23", "24", "24", "21"], "time": [435, 3499, 3740, 3826, 12355, 12456]}, "edge": {"target": [], "time": []}}}, "displayed_time": "17.08", "trialTime": 18071, "trial_type": "mouselab-mdp", "trial_index": 54, "time_elapsed": 2520314, "internal_node_id": "0.0-6.0-1.0-39.0"}}, {"uniqueid": "w69391007:a31716032", "current_trial": 55, "dateTime": 1693567367755, "trialdata": {"rt": 50688, "response": {"Q0": "$-2 to $2", "Q1": "$-16 to $16", "Q2": "$-88 to $88", "Q3": "The cost was always $1.4.", "Q4": "Very motivated"}, "question_order": [0, 1, 2, 3, 4], "trial_id": "final_quiz_control", "trial_type": "survey-multi-choice", "trial_index": 55, "time_elapsed": 2571112, "internal_node_id": "0.0-6.0-2.0"}}, {"uniqueid": "w69391007:a31716032", "current_trial": 56, "dateTime": 1693567547392, "trialdata": {"rt": 179504, "response": {"Q0": "At first, I used two node inspectors per round, then I started changing it by using it less or not at all.", "Q1": "No I did not.", "Q2": "Slightly difficult. What made it difficult was the unpredictability of the node value."}, "trial_id": "self_report_control", "trial_type": "survey-text", "trial_index": 56, "time_elapsed": 2750751, "internal_node_id": "0.0-6.0-3.0"}}, {"uniqueid": "w69391007:a31716032", "current_trial": 57, "dateTime": 1693567581954, "trialdata": {"rt": 34534, "response": {"gender": "male", "age": "25", "colorblind": "0", "effort": "0"}, "trial_type": "survey-html-form", "trial_index": 57, "time_elapsed": 2785312, "internal_node_id": "0.0-6.0-4.0"}}, {"uniqueid": "w69391007:a31716032", "current_trial": 58, "dateTime": 1693567626623, "trialdata": {"rt": 44617, "response": {"Q0": "No", "Q1": "No, I did not.", "Q2": "None"}, "trial_type": "survey-text", "trial_index": 58, "time_elapsed": 2829981, "internal_node_id": "0.0-6.0-5.0"}}, {"uniqueid": "w69391007:a31716032", "current_trial": 59, "dateTime": 1693567683229, "trialdata": {"rt": 56566, "stimulus": "<h1>Completion Code Instructions (1/2)</h1>\n<br><br><br><br>\nYou have reached the end of the experiment! The completion code consists of two parts: (1) a code with 2 characters (2) a code with 6 characters. On this page, you will receive the second part of the code. The first part of the completion code will be on the next page.\n<br><br>\nThe second part of your completion code is: <b>EWEK22</b>\n<br><br>\nPlease note this down. Then, press 'Finish HIT' in order to find the first part of your completion code. Once the data has been saved, you will receive this code either in this window or in the original browser window where you started the experiment.\n", "response": 0, "trial_type": "html-button-response", "trial_index": 59, "time_elapsed": 2886588, "internal_node_id": "0.0-6.0-6.0"}}, {"uniqueid": "w69391007:a31716032", "current_trial": 60, "dateTime": 1693567684271, "trialdata": {"success": true, "trial_type": "fullscreen", "trial_index": 60, "time_elapsed": 2887630, "internal_node_id": "0.0-7.0"}}], "questiondata": {"params": {"CODE": "C6DMOQA6", "MIN_TIME": 14, "inspectCost": 1, "startTime": "Fri Sep 01 2023 12:39:54 GMT+0200 (South Africa Standard Time)", "bonusRate": 0.002, "variance": "1_2_4_8_44", "branching": "31123"}, "final_score": 99.4}, "eventdata": [{"eventtype": "initialized", "value": null, "timestamp": 1693564793451, "interval": 0}, {"eventtype": "window_resize", "value": [1024, 698], "timestamp": 1693564793451, "interval": 0}, {"eventtype": "window_resize", "value": [1024, 698], "timestamp": 1693564793986, "interval": 535}, {"eventtype": "window_resize", "value": [1366, 712], "timestamp": 1693564796767, "interval": 2781}, {"eventtype": "window_resize", "value": [1366, 768], "timestamp": 1693564815268, "interval": 18501}, {"eventtype": "focus", "value": "off", "timestamp": 1693565705799, "interval": 890531}, {"eventtype": "focus", "value": "on", "timestamp": 1693565705800, "interval": 1}, {"eventtype": "window_resize", "value": [1366, 712], "timestamp": 1693565706059, "interval": 259}, {"eventtype": "window_resize", "value": [1366, 768], "timestamp": 1693565711029, "interval": 4970}, {"eventtype": "window_resize", "value": [1366, 712], "timestamp": 1693567683661, "interval": 1972632}], "useragent": "Mozilla/5.0 (Windows NT 10.0; Win64; x64) AppleWebKit/537.36 (KHTML, like Gecko) Chrome/116.0.0.0 Safari/537.36 Edg/116.0.1938.62", "mode": "live", "id": "w69391007:a31716032", "status": "user data saved", "Beginhit": "2023-09-01 10:39:45.586474", "Beginexp": "2023-09-01 10:40:12.907542", "Endhit": "2023-09-01 11:28:02.895277", "psiturkStatus": 3, "browser": "<redacted>", "platform": "windows", "language": "en-US"}