{"condition": 1, "counterbalance": 0, "assignmentId": "a63892592", "workerId": "w52769913", "hitId": "h51710360", "currenttrial": 74, "bonus": 0, "data": [{"uniqueid": "w52769913:a63892592", "current_trial": 0, "dateTime": 1691159333686, "trialdata": {"success": true, "trial_type": "fullscreen", "trial_index": 0, "time_elapsed": 12115, "internal_node_id": "0.0-0.0"}}, {"uniqueid": "w52769913:a63892592", "current_trial": 1, "dateTime": 1691159408761, "trialdata": {"view_history": [{"page_index": 0, "viewing_time": 75068}], "rt": 75069, "trial_id": "exp_instructions_misaligned", "trial_type": "instructions", "trial_index": 1, "time_elapsed": 87191, "internal_node_id": "0.0-1.0"}}, {"uniqueid": "w52769913:a63892592", "current_trial": 2, "dateTime": 1691159421621, "trialdata": {"success": true, "trial_type": "fullscreen", "trial_index": 2, "time_elapsed": 100051, "internal_node_id": "0.0-2.0-0.0"}}, {"uniqueid": "w52769913:a63892592", "current_trial": 3, "dateTime": 1691159992585, "trialdata": {"view_history": [{"page_index": 0, "viewing_time": 254000}, {"page_index": 1, "viewing_time": 192060}, {"page_index": 2, "viewing_time": 40694}, {"page_index": 3, "viewing_time": 2012}, {"page_index": 2, "viewing_time": 2763}, {"page_index": 3, "viewing_time": 79321}], "rt": 570851, "trial_id": "mouselab_instructions_1_misaligned", "trial_type": "instructions", "trial_index": 3, "time_elapsed": 671015, "internal_node_id": "0.0-2.0-1.0"}}, {"uniqueid": "w52769913:a63892592", "current_trial": 4, "dateTime": 1691160097073, "trialdata": {"revealed_states": [], "clicked_states": ["26", "13", "8", "2", "3", "12", "23", "25"], "num_clicks_accrued": [0, 0, 0, 0, 0, 0, 0, 0, 0, 0, 0, 0, 0], "stateRewards": ["", -10, 10, 10, -10, 10, 10, -10, 10, -10, 10, 10, 10, 10, -10, 10, 10, -10, 10, -10, 10, -10, 10, 10, 10, 10, 10, 10, -10, 10, 10, 10, -10, 10], "withholdReward": false, "trial_id": "practice_1", "block": "test", "trialIndex": 0, "score": 29.5, "costs": -4, "simulationMode": [null, null, null, null, null], "rewards": [10, 10, -10, 10, 10], "path": ["0", "0", "12", "13", "14", "15", "16"], "rt": [57787, 1735, 352, 889, 190], "actions": ["right", "right", "right", "up", "up"], "actionTimes": [62966, 65210, 66080, 67483, 68186], "queries": {"click": {"state": {"target": ["26", "13", "8", "2", "3", "12", "23", "25"], "time": [14080, 18420, 26209, 30855, 33332, 42207, 46453, 54161]}, "edge": {"target": [], "time": []}}, "mouseover": {"state": {"target": ["23", "24", "31", "31", "25", "26", "25", "24", "24", "23", "0", "12", "13", "14", "15", "13", "1", "2", "3", "8", "9", "2", "1", "0", "1", "2", "3", "8", "8", "10", "1", "23", "12", "13", "12", "0", "0", "23", "1", "23", "25", "2", "3"], "time": [6642, 6778, 10610, 13440, 13740, 13808, 14709, 15424, 16206, 17058, 17424, 17506, 17740, 20157, 20724, 23293, 25194, 25341, 25608, 26091, 26878, 28060, 28527, 28974, 30358, 30693, 32792, 35463, 36710, 37129, 38092, 38708, 39330, 39792, 42010, 44676, 45278, 46258, 50460, 52976, 53775, 56458, 57128]}, "edge": {"target": [], "time": []}}, "mouseout": {"state": {"target": ["22", "0", "23", "24", "31", "31", "25", "26", "25", "24", "24", "23", "0", "12", "13", "14", "15", "13", "13", "1", "2", "3", "8", "9", "2", "1", "0", "1", "2", "3", "8", "8", "10", "1", "23", "12", "13", "12", "0", "0", "23", "1", "23", "25", "2", "3", "8", "10", "23", "0", "0", "12", "13", "14", "15", "18", "0", "1", "2", "3", "4", "6", "4", "2", "0", "23", "24", "25", "30", "32", "30", "30", "31", "12"], "time": [3929, 4725, 6729, 8412, 10660, 13510, 13758, 14643, 15391, 15474, 16973, 17108, 17441, 17623, 20006, 20539, 22094, 22743, 24160, 25228, 25526, 25960, 26607, 27529, 28125, 28762, 29542, 30576, 32493, 34174, 35474, 36911, 37193, 38529, 39242, 39394, 41944, 42775, 44809, 46192, 49575, 51242, 53028, 54312, 56876, 75444, 75610, 76977, 77075, 79457, 83277, 83809, 84145, 84424, 84827, 85241, 85890, 86227, 86325, 86592, 87126, 87741, 88441, 88591, 90676, 91560, 92179, 92876, 93178, 93478, 93625, 94261, 95695, 101844]}, "edge": {"target": [], "time": []}}}, "displayed_time": "68.71", "trialTime": 103080, "trial_type": "mouselab-mdp", "trial_index": 4, "time_elapsed": 775503, "internal_node_id": "0.0-2.0-2.0-0.0"}}, {"uniqueid": "w52769913:a63892592", "current_trial": 5, "dateTime": 1691160120080, "trialdata": {"revealed_states": [], "clicked_states": ["3"], "num_clicks_accrued": [0, 0, 0, 0, 0, 0, 0, 0, 0, 0, 0, 0, 0], "stateRewards": ["", -10, 10, 10, 10, -10, 10, 10, 10, -10, 10, 10, 10, -10, 10, -10, 10, 10, -10, -10, 10, 10, 10, 10, 10, -10, -10, 10, -10, 10, 10, -10, 10, 10], "withholdReward": false, "trial_id": "practice_2", "block": "test", "trialIndex": 1, "score": 33, "costs": -0.5, "simulationMode": [null, null, null, null, null], "rewards": [-10, 10, 10, 10, 10], "path": ["0", "0", "1", "2", "3", "4", "7"], "rt": [3147, 1161, 91, 631, 758], "actions": ["up", "up", "up", "right", "down"], "actionTimes": [8252, 9916, 10516, 11669, 12947], "queries": {"click": {"state": {"target": ["3"], "time": [6878]}, "edge": {"target": [], "time": []}}, "mouseover": {"state": {"target": ["1", "2", "3", "4"], "time": [6410, 6473, 6654, 7587]}, "edge": {"target": [], "time": []}}, "mouseout": {"state": {"target": ["0", "1", "2", "3", "4", "4", "7", "0"], "time": [6333, 6437, 6524, 7570, 7688, 20173, 20305, 21122]}, "edge": {"target": [], "time": []}}}, "displayed_time": "13.46", "trialTime": 22701, "trial_type": "mouselab-mdp", "trial_index": 5, "time_elapsed": 798510, "internal_node_id": "0.0-2.0-2.0-1.0"}}, {"uniqueid": "w52769913:a63892592", "current_trial": 6, "dateTime": 1691160249218, "trialdata": {"view_history": [{"page_index": 0, "viewing_time": 108567}, {"page_index": 1, "viewing_time": 20567}], "rt": 129134, "trial_id": "mouselab_instructions_2_misaligned", "trial_type": "instructions", "trial_index": 6, "time_elapsed": 927648, "internal_node_id": "0.0-2.0-3.0"}}, {"uniqueid": "w52769913:a63892592", "current_trial": 7, "dateTime": 1691160325372, "trialdata": {"rt": 76146, "response": {"Q0": "The cost for clicking on nodes may vary between nodes.", "Q1": "The better I perform the higher my bonus will be.", "Q2": "No, the structure of the web will be different each time.", "Q3": "To get the highest total score.", "Q4": "Only before moving the spider.", "Q5": "3 seconds"}, "question_order": [0, 1, 2, 3, 4, 5], "correct": {"Q0": "The cost for clicking on nodes may vary between nodes.", "Q1": "The better I perform the higher my bonus will be.", "Q2": "No, the amount of cash at each node of the web may be different each time.", "Q3": "To get the highest total score.", "Q4": "Only before moving the spider.", "Q5": "3 seconds"}, "trial_id": "mouselab_quiz_misaligned", "trial_type": "survey-multi-choice", "trial_index": 7, "time_elapsed": 1003802, "internal_node_id": "0.0-2.0-4.0"}}, {"uniqueid": "w52769913:a63892592", "current_trial": 8, "dateTime": 1691160331951, "trialdata": {"success": true, "trial_type": "fullscreen", "trial_index": 8, "time_elapsed": 1010381, "internal_node_id": "0.0-2.1-0.1"}}, {"uniqueid": "w52769913:a63892592", "current_trial": 9, "dateTime": 1691160340523, "trialdata": {"view_history": [{"page_index": 0, "viewing_time": 3113}, {"page_index": 1, "viewing_time": 2662}, {"page_index": 2, "viewing_time": 1687}, {"page_index": 3, "viewing_time": 1107}], "rt": 8570, "trial_id": "mouselab_instructions_1_misaligned", "trial_type": "instructions", "trial_index": 9, "time_elapsed": 1018953, "internal_node_id": "0.0-2.1-1.1"}}, {"uniqueid": "w52769913:a63892592", "current_trial": 10, "dateTime": 1691160362275, "trialdata": {"revealed_states": [], "clicked_states": ["6"], "num_clicks_accrued": [0, 0, 0, 0, 0, 0, 0, 0, 0, 0, 0, 0, 0], "stateRewards": ["", -10, 10, 10, -10, 10, 10, -10, 10, -10, 10, 10, 10, 10, -10, 10, 10, -10, 10, -10, 10, -10, 10, 10, 10, 10, 10, 10, -10, 10, 10, 10, -10, 10], "withholdReward": false, "trial_id": "practice_1", "block": "test", "trialIndex": 2, "score": 13, "costs": -0.5, "simulationMode": [null, null, null, null, null], "rewards": [-10, 10, 10, -10, 10], "path": ["0", "0", "1", "2", "3", "4", "6"], "rt": [5752, 478, 37, 654, 577], "actions": ["up", "up", "up", "right", "right"], "actionTimes": [10749, 11749, 12308, 13492, 14580], "queries": {"click": {"state": {"target": ["6"], "time": [7190]}, "edge": {"target": [], "time": []}}, "mouseover": {"state": {"target": ["1", "7", "6", "7", "3"], "time": [6489, 6722, 7002, 8168, 10022]}, "edge": {"target": [], "time": []}}, "mouseout": {"state": {"target": ["0", "1", "7", "6", "7", "3"], "time": [4334, 6537, 6853, 8086, 9952, 10136]}, "edge": {"target": [], "time": []}}}, "displayed_time": "15.09", "trialTime": 21443, "trial_type": "mouselab-mdp", "trial_index": 10, "time_elapsed": 1040704, "internal_node_id": "0.0-2.1-2.1-0.1"}}, {"uniqueid": "w52769913:a63892592", "current_trial": 11, "dateTime": 1691160382108, "trialdata": {"revealed_states": [], "clicked_states": ["2", "1", "10", "8", "9", "5", "11"], "num_clicks_accrued": [0, 0, 0, 0, 0, 0, 0, 0, 0, 0, 0, 0, 0], "stateRewards": ["", -10, 10, 10, 10, -10, 10, 10, 10, -10, 10, 10, 10, -10, 10, -10, 10, 10, -10, -10, 10, 10, 10, 10, 10, -10, -10, 10, -10, 10, 10, -10, 10, 10], "withholdReward": false, "trial_id": "practice_2", "block": "test", "trialIndex": 3, "score": 30, "costs": -3.5, "simulationMode": [null, null, null, null, null], "rewards": [-10, 10, 10, 10, 10], "path": ["0", "0", "1", "2", "3", "8", "11"], "rt": [11624, 738, 17, 107, 400], "actions": ["up", "up", "up", "left", "left"], "actionTimes": [13531, 14791, 15326, 15959, 16871], "queries": {"click": {"state": {"target": ["2", "1", "10", "8", "9", "5", "11"], "time": [3278, 4298, 5564, 6634, 8156, 9275, 10946]}, "edge": {"target": [], "time": []}}, "mouseover": {"state": {"target": ["1", "2", "1", "10", "8", "3", "9", "5", "4", "3", "8", "11", "8", "3", "4", "6", "4"], "time": [2402, 2636, 4068, 4787, 6219, 7287, 7936, 8919, 9852, 10620, 10669, 10736, 11351, 11434, 11656, 12054, 12502]}, "edge": {"target": [], "time": []}}, "mouseout": {"state": {"target": ["4", "2", "1", "0", "0", "1", "2", "1", "10", "8", "3", "9", "5", "4", "3", "8", "11", "8", "3", "4", "6", "4"], "time": [419, 501, 870, 953, 2151, 2571, 3571, 4617, 6017, 7101, 7821, 8652, 9750, 10588, 10653, 10702, 11336, 11403, 11555, 11868, 12386, 12517]}, "edge": {"target": [], "time": []}}}, "displayed_time": "17.39", "trialTime": 19493, "trial_type": "mouselab-mdp", "trial_index": 11, "time_elapsed": 1060537, "internal_node_id": "0.0-2.1-2.1-1.1"}}, {"uniqueid": "w52769913:a63892592", "current_trial": 12, "dateTime": 1691160387116, "trialdata": {"view_history": [{"page_index": 0, "viewing_time": 3075}, {"page_index": 1, "viewing_time": 1930}], "rt": 5005, "trial_id": "mouselab_instructions_2_misaligned", "trial_type": "instructions", "trial_index": 12, "time_elapsed": 1065546, "internal_node_id": "0.0-2.1-3.1"}}, {"uniqueid": "w52769913:a63892592", "current_trial": 13, "dateTime": 1691160431273, "trialdata": {"rt": 44151, "response": {"Q0": "The cost for clicking on nodes may vary between nodes.", "Q1": "The better I perform the higher my bonus will be.", "Q2": "No, the structure of the web will be different each time.", "Q3": "To get the highest total score.", "Q4": "Only before moving the spider.", "Q5": "3 seconds"}, "question_order": [0, 1, 2, 3, 4, 5], "correct": {"Q0": "The cost for clicking on nodes may vary between nodes.", "Q1": "The better I perform the higher my bonus will be.", "Q2": "No, the amount of cash at each node of the web may be different each time.", "Q3": "To get the highest total score.", "Q4": "Only before moving the spider.", "Q5": "3 seconds"}, "trial_id": "mouselab_quiz_misaligned", "trial_type": "survey-multi-choice", "trial_index": 13, "time_elapsed": 1109702, "internal_node_id": "0.0-2.1-4.1"}}, {"uniqueid": "w52769913:a63892592", "current_trial": 14, "dateTime": 1691160440543, "trialdata": {"success": true, "trial_type": "fullscreen", "trial_index": 14, "time_elapsed": 1118973, "internal_node_id": "0.0-2.2-0.2"}}, {"uniqueid": "w52769913:a63892592", "current_trial": 15, "dateTime": 1691160460594, "trialdata": {"view_history": [{"page_index": 0, "viewing_time": 4556}, {"page_index": 1, "viewing_time": 4325}, {"page_index": 2, "viewing_time": 5851}, {"page_index": 3, "viewing_time": 5315}], "rt": 20047, "trial_id": "mouselab_instructions_1_misaligned", "trial_type": "instructions", "trial_index": 15, "time_elapsed": 1139023, "internal_node_id": "0.0-2.2-1.2"}}, {"uniqueid": "w52769913:a63892592", "current_trial": 16, "dateTime": 1691160482038, "trialdata": {"revealed_states": [], "clicked_states": ["12", "13", "19", "22", "21"], "num_clicks_accrued": [0, 0, 0, 0, 0, 0, 0, 0, 0, 0, 0, 0, 0], "stateRewards": ["", -10, 10, 10, -10, 10, 10, -10, 10, -10, 10, 10, 10, 10, -10, 10, 10, -10, 10, -10, 10, -10, 10, 10, 10, 10, 10, 10, -10, 10, 10, 10, -10, 10], "withholdReward": false, "trial_id": "practice_1", "block": "test", "trialIndex": 4, "score": -9, "costs": -2.5, "simulationMode": [null, null, null, null, null], "rewards": [10, 10, -10, -10, -10], "path": ["0", "0", "12", "13", "14", "19", "21"], "rt": [11866, 512, 354, 353, 19], "actions": ["right", "right", "right", "down", "down"], "actionTimes": [14306, 15323, 16181, 17053, 17581], "queries": {"click": {"state": {"target": ["12", "13", "19", "22", "21"], "time": [5011, 7048, 9115, 11566, 12961]}, "edge": {"target": [], "time": []}}, "mouseover": {"state": {"target": ["12", "13", "13", "12", "13", "14", "13", "14", "19", "22", "21"], "time": [4330, 4425, 4693, 4795, 5325, 6227, 6809, 7509, 8929, 11346, 12215]}, "edge": {"target": [], "time": []}}, "mouseout": {"state": {"target": ["0", "12", "13", "13", "12", "13", "14", "13", "14", "19", "22", "21", "21"], "time": [2109, 4379, 4463, 4746, 5275, 6096, 6777, 7442, 8645, 9127, 12027, 19972, 20043]}, "edge": {"target": [], "time": []}}}, "displayed_time": "18.11", "trialTime": 21031, "trial_type": "mouselab-mdp", "trial_index": 16, "time_elapsed": 1160467, "internal_node_id": "0.0-2.2-2.2-0.2"}}, {"uniqueid": "w52769913:a63892592", "current_trial": 17, "dateTime": 1691160515087, "trialdata": {"revealed_states": [], "clicked_states": ["23", "25", "30", "1", "2", "12", "13", "22", "18", "24"], "num_clicks_accrued": [0, 0, 0, 0, 0, 0, 0, 0, 0, 0, 0, 0, 0], "stateRewards": ["", -10, 10, 10, 10, -10, 10, 10, 10, -10, 10, 10, 10, -10, 10, -10, 10, 10, -10, -10, 10, 10, 10, 10, 10, -10, -10, 10, -10, 10, 10, -10, 10, 10], "withholdReward": false, "trial_id": "practice_2", "block": "test", "trialIndex": 5, "score": -11.5, "costs": -5, "simulationMode": [null, null, null, null, null], "rewards": [10, 10, -10, -10, -10], "path": ["0", "0", "23", "24", "25", "26", "28"], "rt": [21063, 870, 3251, 264, 118], "actions": ["left", "left", "left", "up", "right"], "actionTimes": [23942, 25317, 29078, 29856, 30492], "queries": {"click": {"state": {"target": ["23", "25", "30", "1", "2", "12", "13", "22", "18", "24"], "time": [3999, 6378, 8000, 10081, 12191, 15014, 16419, 17839, 19794, 21589]}, "edge": {"target": [], "time": []}}, "mouseover": {"state": {"target": ["23", "24", "25", "30", "1", "2", "2", "7", "12", "12", "13", "22", "14", "18", "0", "23", "24", "28"], "time": [3773, 4539, 5941, 7809, 9944, 10906, 11939, 13828, 14460, 14841, 15956, 17432, 19175, 19525, 20341, 20523, 21257, 22140]}, "edge": {"target": [], "time": []}}, "mouseout": {"state": {"target": ["0", "23", "24", "25", "30", "25", "1", "2", "2", "7", "12", "12", "13", "22", "14", "18", "0", "23", "24"], "time": [2123, 4452, 5809, 7441, 8009, 9040, 10857, 11208, 13708, 14122, 14541, 15891, 17290, 18709, 19324, 20173, 20395, 21192, 21987]}, "edge": {"target": [], "time": []}}}, "displayed_time": "31.01", "trialTime": 32744, "trial_type": "mouselab-mdp", "trial_index": 17, "time_elapsed": 1193516, "internal_node_id": "0.0-2.2-2.2-1.2"}}, {"uniqueid": "w52769913:a63892592", "current_trial": 18, "dateTime": 1691160524681, "trialdata": {"view_history": [{"page_index": 0, "viewing_time": 6611}, {"page_index": 1, "viewing_time": 2979}], "rt": 9590, "trial_id": "mouselab_instructions_2_misaligned", "trial_type": "instructions", "trial_index": 18, "time_elapsed": 1203111, "internal_node_id": "0.0-2.2-3.2"}}, {"uniqueid": "w52769913:a63892592", "current_trial": 19, "dateTime": 1691160693453, "trialdata": {"rt": 168767, "response": {"Q0": "The cost for clicking on nodes may vary between nodes.", "Q1": "I will receive a $1 bonus regardless of my performance.", "Q2": "No, the amount of cash at each node of the web may be different each time.", "Q3": "To click on the least number of nodes.", "Q4": "Only before moving the spider.", "Q5": "3 seconds"}, "question_order": [0, 1, 2, 3, 4, 5], "correct": {"Q0": "The cost for clicking on nodes may vary between nodes.", "Q1": "The better I perform the higher my bonus will be.", "Q2": "No, the amount of cash at each node of the web may be different each time.", "Q3": "To get the highest total score.", "Q4": "Only before moving the spider.", "Q5": "3 seconds"}, "trial_id": "mouselab_quiz_misaligned", "trial_type": "survey-multi-choice", "trial_index": 19, "time_elapsed": 1371883, "internal_node_id": "0.0-2.2-4.2"}}, {"uniqueid": "w52769913:a63892592", "current_trial": 20, "dateTime": 1691160703118, "trialdata": {"success": true, "trial_type": "fullscreen", "trial_index": 20, "time_elapsed": 1381548, "internal_node_id": "0.0-2.3-0.3"}}, {"uniqueid": "w52769913:a63892592", "current_trial": 21, "dateTime": 1691161076000, "trialdata": {"view_history": [{"page_index": 0, "viewing_time": 151170}, {"page_index": 1, "viewing_time": 180194}, {"page_index": 2, "viewing_time": 33086}, {"page_index": 3, "viewing_time": 8368}], "rt": 372817, "trial_id": "mouselab_instructions_1_misaligned", "trial_type": "instructions", "trial_index": 21, "time_elapsed": 1754429, "internal_node_id": "0.0-2.3-1.3"}}, {"uniqueid": "w52769913:a63892592", "current_trial": 22, "dateTime": 1691161105644, "trialdata": {"revealed_states": [], "clicked_states": ["1", "2", "12", "13", "18", "15", "14", "17", "20", "24", "25", "30", "31", "32"], "num_clicks_accrued": [0, 0, 0, 0, 0, 0, 0, 0, 0, 0, 0, 0, 0], "stateRewards": ["", -10, 10, 10, -10, 10, 10, -10, 10, -10, 10, 10, 10, 10, -10, 10, 10, -10, 10, -10, 10, -10, 10, 10, 10, 10, 10, 10, -10, 10, 10, 10, -10, 10], "withholdReward": false, "trial_id": "practice_1", "block": "test", "trialIndex": 6, "score": 46.5, "costs": -7, "simulationMode": [null, null, null, null, null], "rewards": [10, 10, 10, 10, 10], "path": ["0", "0", "23", "24", "25", "30", "31"], "rt": [22951, 155, 38, 437, 312], "actions": ["left", "left", "left", "down", "right"], "actionTimes": [24297, 24961, 25509, 26458, 27270], "queries": {"click": {"state": {"target": ["1", "2", "12", "13", "18", "15", "14", "17", "20", "24", "25", "30", "31", "32"], "time": [2326, 4013, 5534, 7493, 9045, 10362, 11670, 12906, 14346, 16279, 17640, 19064, 20516, 21951]}, "edge": {"target": [], "time": []}}, "mouseover": {"state": {"target": ["1", "2", "12", "0", "13", "18", "15", "14", "17", "20", "19", "13", "12", "23", "24", "25", "30", "31", "32"], "time": [1938, 3287, 5271, 6838, 7390, 8471, 9714, 11008, 12276, 13787, 14752, 14808, 14856, 14921, 15037, 17036, 18887, 20106, 21488]}, "edge": {"target": [], "time": []}}, "mouseout": {"state": {"target": ["0", "1", "2", "2", "1", "12", "0", "13", "18", "15", "14", "17", "20", "19", "13", "12", "23", "24", "25", "24", "30", "30", "31", "30", "32", "30", "31"], "time": [1021, 3170, 4180, 4752, 4952, 6103, 6937, 8120, 9505, 10852, 12035, 13337, 14735, 14769, 14823, 14873, 14953, 16787, 18203, 18469, 19163, 20024, 20986, 21184, 22104, 22569, 22655]}, "edge": {"target": [], "time": []}}}, "displayed_time": "27.79", "trialTime": 29273, "trial_type": "mouselab-mdp", "trial_index": 22, "time_elapsed": 1784073, "internal_node_id": "0.0-2.3-2.3-0.3"}}, {"uniqueid": "w52769913:a63892592", "current_trial": 23, "dateTime": 1691161132945, "trialdata": {"revealed_states": [], "clicked_states": ["12", "1", "23", "13", "24", "25", "26", "28", "30", "31", "33"], "num_clicks_accrued": [0, 0, 0, 0, 0, 0, 0, 0, 0, 0, 0, 0, 0], "stateRewards": ["", -10, 10, 10, 10, -10, 10, 10, 10, -10, 10, 10, 10, -10, 10, -10, 10, 10, -10, -10, 10, 10, 10, 10, 10, -10, -10, 10, -10, 10, 10, -10, 10, 10], "withholdReward": false, "trial_id": "practice_2", "block": "test", "trialIndex": 7, "score": 28, "costs": -5.5, "simulationMode": [null, null, null, null, null], "rewards": [10, 10, -10, 10, 10], "path": ["0", "0", "23", "24", "25", "30", "33"], "rt": [19506, 150, 26, 1221, 118], "actions": ["left", "left", "left", "down", "left"], "actionTimes": [21308, 21980, 22516, 24263, 24892], "queries": {"click": {"state": {"target": ["12", "1", "23", "13", "24", "25", "26", "28", "30", "31", "33"], "time": [2558, 3764, 6214, 7537, 9566, 11692, 12943, 14462, 16455, 17676, 19093]}, "edge": {"target": [], "time": []}}, "mouseover": {"state": {"target": ["12", "1", "23", "0", "23", "0", "13", "14", "12", "0", "24", "24", "25", "26", "28", "30", "30", "31", "33", "0"], "time": [2342, 3172, 4436, 5890, 5974, 6671, 7255, 8038, 8954, 9003, 9123, 9405, 11455, 12773, 14239, 15054, 16324, 17155, 19042, 20522]}, "edge": {"target": [], "time": []}}, "mouseout": {"state": {"target": ["0", "0", "12", "1", "23", "12", "0", "23", "0", "13", "14", "12", "0", "23", "24", "24", "25", "26", "28", "30", "30", "31", "30", "33", "30", "31"], "time": [772, 2224, 2974, 4137, 5322, 5839, 5925, 6621, 6741, 7972, 8922, 9001, 9016, 9057, 9256, 10371, 12156, 13405, 14741, 16123, 16988, 18255, 18792, 19705, 19821, 20373]}, "edge": {"target": [], "time": []}}}, "displayed_time": "25.41", "trialTime": 26910, "trial_type": "mouselab-mdp", "trial_index": 23, "time_elapsed": 1811374, "internal_node_id": "0.0-2.3-2.3-1.3"}}, {"uniqueid": "w52769913:a63892592", "current_trial": 24, "dateTime": 1691161177711, "trialdata": {"view_history": [{"page_index": 0, "viewing_time": 42762}, {"page_index": 1, "viewing_time": 2000}], "rt": 44762, "trial_id": "mouselab_instructions_2_misaligned", "trial_type": "instructions", "trial_index": 24, "time_elapsed": 1856141, "internal_node_id": "0.0-2.3-3.3"}}, {"uniqueid": "w52769913:a63892592", "current_trial": 25, "dateTime": 1691161252771, "trialdata": {"rt": 75054, "response": {"Q0": "The cost for clicking on nodes may vary between nodes.", "Q1": "The better I perform the higher my bonus will be.", "Q2": "No, the amount of cash at each node of the web may be different each time.", "Q3": "To get the highest total score.", "Q4": "Only before moving the spider.", "Q5": "3 seconds"}, "question_order": [0, 1, 2, 3, 4, 5], "correct": {"Q0": "The cost for clicking on nodes may vary between nodes.", "Q1": "The better I perform the higher my bonus will be.", "Q2": "No, the amount of cash at each node of the web may be different each time.", "Q3": "To get the highest total score.", "Q4": "Only before moving the spider.", "Q5": "3 seconds"}, "trial_id": "mouselab_quiz_misaligned", "trial_type": "survey-multi-choice", "trial_index": 25, "time_elapsed": 1931200, "internal_node_id": "0.0-2.3-4.3"}}, {"uniqueid": "w52769913:a63892592", "current_trial": 26, "dateTime": 1691161297859, "trialdata": {"rt": 45079, "stimulus": "\n<h1> Get ready to start the game! </h1>\n\nThank you for reading the instructions. Get ready start with the 40 rounds of this game.\n<br><br>\nIf you need to take a break, feel free to take one after the end of a round, before continuing to the next one.\n<br><br>\nRemember, the more money the spider gets, the bigger your bonus will be!\n<br><br>\n<div style='text-align: center;'>Press <code>space</code> to begin.</div>\n\n<br><br>\n(If, at any point, the <code>space</code> key does not take you to the next page, click once on the text and try again.)", "response": " ", "trial_id": "mdp_ready", "trial_type": "html-keyboard-response", "trial_index": 26, "time_elapsed": 1976289, "internal_node_id": "0.0-4.0-0.0"}}, {"uniqueid": "w52769913:a63892592", "current_trial": 27, "dateTime": 1691161328719, "trialdata": {"revealed_states": [], "clicked_states": ["1", "12", "23", "24", "25", "31", "30", "33", "32"], "num_clicks_accrued": [0, 0, 0, 0, 0, 0, 0, 0, 0, 0, 0, 0, 0], "stateRewards": ["", -1, 4, -8, 12, 14, 69, -8, 5, -72, -14, 56, -1, -1, -1, 9, 67, 19, 11, -9, -88, -58, 3, 2, -4, -8, 4, 62, 77, -74, 5, -31, 65, 88], "withholdReward": false, "trial_id": "mdp_trial_1", "block": "test", "trialIndex": 8, "score": 74.45, "costs": -8.55, "simulationMode": [null, null, null, null, null, null], "rewards": [2, -4, -8, 5, 88], "path": ["0", "0", "23", "24", "25", "30", "33"], "rt": [18058, 1413, 313, 84, 424, 298], "actions": ["left", "left", "left", "left", "down", "left"], "actionTimes": [22639, 24055, 24892, 25497, 26440, 27263], "queries": {"click": {"state": {"target": ["1", "12", "23", "24", "25", "31", "30", "33", "32"], "time": [5597, 6863, 8510, 9580, 10580, 12263, 17157, 18376, 21310]}, "edge": {"target": [], "time": []}}, "mouseover": {"state": {"target": ["1", "12", "23", "24", "25", "23", "31", "30", "30", "33", "32"], "time": [5415, 6194, 8363, 9395, 10246, 11661, 11979, 12780, 16879, 18149, 19194]}, "edge": {"target": [], "time": []}}, "mouseout": {"state": {"target": ["7", "0", "0", "0", "1", "1", "12", "23", "23", "24", "25", "24", "23", "31", "30", "30", "33", "32"], "time": [2746, 2844, 3345, 5245, 5609, 5961, 7213, 8981, 9162, 10029, 11162, 11628, 11745, 12644, 14213, 17827, 19078, 29312]}, "edge": {"target": [], "time": []}}}, "displayed_time": "27.78", "trialTime": 30456, "trial_type": "mouselab-mdp", "trial_index": 27, "time_elapsed": 2007149, "internal_node_id": "0.0-4.0-1.0-0.0"}}, {"uniqueid": "w52769913:a63892592", "current_trial": 28, "dateTime": 1691161355917, "trialdata": {"revealed_states": [], "clicked_states": ["1", "12", "23", "24", "25", "28"], "num_clicks_accrued": [0, 0, 0, 0, 0, 0, 0, 0, 0, 0, 0, 0, 0], "stateRewards": ["", -2, -4, 4, -11, -63, -60, -7, 2, -14, 81, -43, -1, -1, -5, 7, 10, 69, 40, 8, -83, 52, 60, 1, 2, 5, -5, 16, 64, 14, -3, 29, 7, -51], "withholdReward": false, "trial_id": "mdp_trial_2", "block": "test", "trialIndex": 9, "score": 64.3, "costs": -2.6999999999999997, "simulationMode": [null, null, null, null, null], "rewards": [1, 2, 5, -5, 64], "path": ["0", "0", "23", "24", "25", "26", "28"], "rt": [18062, 482, 23, 1648, 133], "actions": ["left", "left", "left", "up", "right"], "actionTimes": [19805, 20807, 21349, 23524, 24159], "queries": {"click": {"state": {"target": ["1", "12", "23", "24", "25", "28"], "time": [2665, 4366, 5738, 7070, 8223, 9362]}, "edge": {"target": [], "time": []}}, "mouseover": {"state": {"target": ["1", "12", "0", "23", "24", "25", "26", "28", "26", "12", "13", "12", "13"], "time": [2460, 3594, 4808, 5340, 6828, 7742, 9023, 9090, 10541, 13195, 14556, 15157, 15277]}, "edge": {"target": [], "time": []}}, "mouseout": {"state": {"target": ["0", "1", "12", "12", "0", "23", "23", "24", "25", "26", "28", "28", "26", "12", "13", "12", "13", "0"], "time": [824, 3095, 4450, 4776, 5023, 6223, 6708, 7689, 8860, 9040, 9940, 10113, 13076, 14458, 14807, 15212, 16525, 25994]}, "edge": {"target": [], "time": []}}}, "displayed_time": "24.68", "trialTime": 26800, "trial_type": "mouselab-mdp", "trial_index": 28, "time_elapsed": 2034347, "internal_node_id": "0.0-4.0-1.0-1.0"}}, {"uniqueid": "w52769913:a63892592", "current_trial": 29, "dateTime": 1691161426604, "trialdata": {"revealed_states": [], "clicked_states": ["12", "13", "23", "1", "24", "2", "25", "28", "3", "4", "6", "7", "5", "9", "11", "16", "17", "20", "22", "21", "32", "33"], "num_clicks_accrued": [0, 0, 0, 0, 0, 0, 0, 0, 0, 0, 0, 0, 0], "stateRewards": ["", -2, -3, -6, -7, 9, 16, 65, 5, -41, 20, -25, -1, -4, 1, -11, -49, -4, 71, 1, 39, -62, 52, -2, -3, 7, -9, -28, -70, 84, 8, 24, -58, 82], "withholdReward": false, "trial_id": "mdp_trial_3", "block": "test", "trialIndex": 10, "score": 60.30000000000001, "costs": -31.69999999999999, "simulationMode": [null, null, null, null, null], "rewards": [-2, -3, 7, 8, 82], "path": ["0", "0", "23", "24", "25", "30", "33"], "rt": [61380, 581, 172, 301, 765], "actions": ["left", "left", "left", "down", "left"], "actionTimes": [63312, 64415, 65105, 65917, 67198], "queries": {"click": {"state": {"target": ["12", "13", "23", "1", "24", "2", "25", "28", "3", "4", "6", "7", "5", "9", "11", "16", "17", "20", "22", "21", "32", "33"], "time": [2778, 4061, 5227, 6495, 7499, 8416, 9748, 10516, 14084, 15621, 17098, 21122, 24210, 28152, 32195, 35862, 39264, 42771, 46192, 49847, 53719, 57415]}, "edge": {"target": [], "time": []}}, "mouseover": {"state": {"target": ["12", "13", "13", "23", "1", "24", "2", "25", "28", "24", "2", "4", "4", "3", "4", "6", "7", "4", "5", "3", "9", "8", "11", "8", "2", "15", "16", "15", "17", "20", "20", "19", "22", "21", "32", "33", "30", "31"], "time": [2419, 3418, 3869, 4864, 6166, 7218, 8250, 9635, 10195, 11049, 11467, 11949, 12066, 12682, 14915, 16699, 18449, 22516, 22999, 25882, 26833, 29382, 30121, 33217, 33299, 34772, 35651, 37933, 38183, 42065, 42517, 44766, 45349, 49416, 53452, 57102, 57967, 58452]}, "edge": {"target": [], "time": []}}, "mouseout": {"state": {"target": ["0", "12", "13", "13", "23", "23", "23", "1", "23", "24", "1", "2", "25", "28", "24", "2", "4", "4", "3", "4", "6", "7", "4", "5", "3", "9", "8", "11", "8", "2", "15", "16", "15", "17", "20", "20", "19", "22", "21", "32", "32", "33", "33", "30", "31"], "time": [1499, 3383, 3709, 4436, 5242, 5817, 6051, 6966, 7165, 7915, 8001, 9151, 10099, 10966, 11284, 11515, 11967, 12232, 14716, 16450, 18015, 22319, 22633, 25258, 26517, 29302, 29666, 32981, 33250, 33332, 35249, 37866, 38066, 41708, 42231, 44733, 44999, 49285, 52784, 56520, 56966, 57484, 57866, 58082, 58534]}, "edge": {"target": [], "time": []}}}, "displayed_time": "67.71", "trialTime": 70329, "trial_type": "mouselab-mdp", "trial_index": 29, "time_elapsed": 2105033, "internal_node_id": "0.0-4.0-1.0-2.0"}}, {"uniqueid": "w52769913:a63892592", "current_trial": 30, "dateTime": 1691161507541, "trialdata": {"revealed_states": [], "clicked_states": ["16", "17", "20", "21", "22", "31", "32", "9", "29", "5", "6", "28", "33", "27", "7", "11", "10"], "num_clicks_accrued": [0, 0, 0, 0, 0, 0, 0, 0, 0, 0, 0, 0, 0], "stateRewards": ["", 1, 1, -7, -9, -44, 24, -83, -15, 44, -24, 72, -2, -3, 4, -5, 57, 55, 29, -11, 22, 12, -25, -1, 2, 7, 12, 33, -8, 47, -4, 8, 50, -4], "withholdReward": false, "trial_id": "mdp_trial_4", "block": "test", "trialIndex": 11, "score": 15.45000000000001, "costs": -36.54999999999999, "simulationMode": [null, null, null, null, null], "rewards": [1, 1, -7, -15, 72], "path": ["0", "0", "1", "2", "3", "8", "11"], "rt": [66771, 579, 307, 743, 445], "actions": ["up", "up", "up", "left", "left"], "actionTimes": [70891, 71993, 72824, 74090, 75043], "queries": {"click": {"state": {"target": ["16", "17", "20", "21", "22", "31", "32", "9", "29", "5", "6", "28", "33", "27", "7", "11", "10"], "time": [6758, 10844, 15659, 18593, 22095, 25577, 29600, 33124, 36547, 39950, 43487, 47611, 50869, 54542, 57932, 62003, 65687]}, "edge": {"target": [], "time": []}}, "mouseover": {"state": {"target": ["12", "13", "14", "16", "15", "14", "17", "20", "21", "22", "31", "32", "10", "8", "9", "8", "29", "26", "2", "4", "5", "6", "7", "28", "26", "33", "26", "27", "26", "28", "2", "7", "16", "17", "14", "18", "9", "11", "8", "3", "15", "17", "15", "18", "7", "2", "10", "2"], "time": [4716, 5930, 6099, 6595, 7145, 7312, 8713, 12213, 16662, 19979, 23928, 26513, 30229, 30617, 30889, 33547, 33896, 37831, 38284, 38414, 38796, 40546, 44079, 45328, 48430, 48729, 54165, 54296, 55112, 55563, 55779, 55945, 58396, 58481, 59262, 61261, 61430, 61780, 62362, 62397, 62512, 63031, 64031, 64112, 64197, 64547, 65013, 70012]}, "edge": {"target": [], "time": []}}, "mouseout": {"state": {"target": ["0", "12", "13", "14", "16", "15", "14", "17", "20", "21", "22", "31", "32", "31", "10", "8", "9", "8", "29", "26", "2", "4", "5", "6", "7", "28", "26", "33", "26", "27", "27", "26", "28", "2", "7", "16", "17", "14", "18", "9", "11", "8", "3", "15", "17", "15", "18", "7", "2", "10", "2"], "time": [3016, 5882, 6013, 6111, 7112, 7178, 7811, 11412, 16428, 19728, 23361, 26146, 30013, 30096, 30248, 30766, 33528, 33579, 37714, 37862, 38332, 38563, 40395, 43995, 44179, 47720, 48459, 53331, 54230, 54554, 55078, 55178, 55580, 55881, 58331, 58413, 59130, 60914, 61277, 61479, 62327, 62395, 62411, 62544, 63948, 64094, 64147, 64261, 64812, 66579, 77812]}, "edge": {"target": [], "time": []}}}, "displayed_time": "75.56", "trialTime": 80613, "trial_type": "mouselab-mdp", "trial_index": 30, "time_elapsed": 2185971, "internal_node_id": "0.0-4.0-1.0-3.0"}}, {"uniqueid": "w52769913:a63892592", "current_trial": 31, "dateTime": 1691161575538, "trialdata": {"revealed_states": [], "clicked_states": ["6", "11", "32", "21", "17", "29", "5", "9", "20", "27", "28", "31", "16"], "num_clicks_accrued": [0, 0, 0, 0, 0, 0, 0, 0, 0, 0, 0, 0, 0], "stateRewards": ["", -2, -4, -2, 10, -8, -15, -47, 7, -84, 53, 5, -1, 2, -7, 3, 83, 31, 47, -1, 30, -8, 69, 2, -4, -1, 8, -7, 12, -8, -8, -13, 30, -84], "withholdReward": false, "trial_id": "mdp_trial_5", "block": "test", "trialIndex": 12, "score": 52.05000000000001, "costs": -27.949999999999992, "simulationMode": [null, null, null, null, null], "rewards": [-1, 2, -7, 3, 83], "path": ["0", "0", "12", "13", "14", "15", "16"], "rt": [57495, 676, 418, 747, 582], "actions": ["right", "right", "right", "up", "up"], "actionTimes": [60262, 61462, 62399, 63663, 64762], "queries": {"click": {"state": {"target": ["6", "11", "32", "21", "17", "29", "5", "9", "20", "27", "28", "31", "16"], "time": [4028, 8093, 11332, 14601, 18679, 22789, 28455, 33293, 37894, 43151, 47257, 50746, 55626]}, "edge": {"target": [], "time": []}}, "mouseover": {"state": {"target": ["7", "6", "12", "1", "10", "11", "23", "31", "32", "21", "20", "17", "14", "26", "29", "26", "24", "7", "4", "5", "4", "7", "7", "9", "8", "9", "8", "1", "12", "22", "19", "20", "19", "22", "0", "23", "28", "27", "28", "24", "31", "12", "18", "16", "15", "14"], "time": [3298, 3795, 4563, 7479, 7528, 7895, 9091, 9496, 9731, 11796, 17597, 18114, 22063, 22380, 22512, 23161, 23212, 27781, 27865, 28050, 28863, 28898, 32029, 32450, 32512, 32933, 34697, 36730, 36761, 37166, 37197, 37563, 38931, 42297, 42347, 42430, 42615, 42914, 46963, 48446, 48863, 55061, 55297, 55414, 57279, 57406]}, "edge": {"target": [], "time": []}}, "mouseout": {"state": {"target": ["0", "0", "7", "6", "12", "1", "10", "11", "23", "31", "32", "21", "20", "17", "14", "26", "29", "26", "24", "7", "4", "5", "4", "7", "7", "9", "8", "9", "8", "1", "12", "22", "19", "20", "19", "22", "0", "23", "28", "27", "28", "24", "31", "12", "18", "16", "15", "14"], "time": [1146, 3129, 3313, 4471, 4579, 7496, 7581, 8580, 9446, 9514, 11680, 17314, 17664, 20145, 22078, 22412, 23144, 23178, 23228, 27830, 27913, 28847, 28881, 28916, 32045, 32478, 32648, 34529, 36648, 36746, 36815, 37180, 37512, 38870, 42197, 42313, 42379, 42446, 42696, 46763, 48046, 48575, 51614, 55114, 55312, 57180, 57329, 66581]}, "edge": {"target": [], "time": []}}}, "displayed_time": "65.28", "trialTime": 67509, "trial_type": "mouselab-mdp", "trial_index": 31, "time_elapsed": 2253967, "internal_node_id": "0.0-4.0-1.0-4.0"}}, {"uniqueid": "w52769913:a63892592", "current_trial": 32, "dateTime": 1691161614383, "trialdata": {"revealed_states": [], "clicked_states": ["17", "29", "27", "2", "7", "1", "11"], "num_clicks_accrued": [0, 0, 0, 0, 0, 0, 0, 0, 0, 0, 0, 0, 0], "stateRewards": ["", -2, 2, -5, 1, 42, -63, -58, -6, 2, 16, 81, -2, 4, 7, -10, 33, 3, -33, -2, -52, -84, -27, 2, -3, -3, 15, -74, -14, -5, -5, -84, 79, -31], "withholdReward": false, "trial_id": "mdp_trial_6", "block": "test", "trialIndex": 13, "score": 59.15, "costs": -10.85, "simulationMode": [null, null, null, null, null], "rewards": [-2, 2, -5, -6, 81], "path": ["0", "0", "1", "2", "3", "8", "11"], "rt": [26604, 356, 526, 724, 362], "actions": ["up", "up", "up", "left", "left"], "actionTimes": [30214, 31082, 32120, 33365, 34237], "queries": {"click": {"state": {"target": ["17", "29", "27", "2", "7", "1", "11"], "time": [5640, 8927, 12700, 16565, 17850, 21784, 24118]}, "edge": {"target": [], "time": []}}, "mouseover": {"state": {"target": ["12", "13", "14", "17", "23", "24", "26", "29", "29", "27", "11", "9", "3", "2", "2", "7", "3", "2", "1", "2", "10", "8", "11", "9", "8", "2"], "time": [4442, 4839, 4907, 5377, 6358, 6471, 6505, 6560, 6806, 9565, 13274, 13576, 15974, 16023, 16358, 17591, 21191, 21490, 21594, 22739, 22858, 23027, 23594, 25074, 28457, 28578]}, "edge": {"target": [], "time": []}}, "mouseout": {"state": {"target": ["0", "12", "13", "14", "17", "17", "23", "24", "26", "29", "29", "27", "11", "9", "3", "2", "2", "7", "3", "2", "1", "2", "10", "8", "11", "9", "8", "2"], "time": [2944, 4807, 4875, 5243, 5655, 5990, 6424, 6500, 6530, 6576, 9342, 13173, 13342, 15923, 16007, 16041, 17325, 18498, 21377, 21540, 22324, 22773, 22924, 23110, 24906, 28390, 28473, 28592]}, "edge": {"target": [], "time": []}}}, "displayed_time": "34.76", "trialTime": 38348, "trial_type": "mouselab-mdp", "trial_index": 32, "time_elapsed": 2292812, "internal_node_id": "0.0-4.0-1.0-5.0"}}, {"uniqueid": "w52769913:a63892592", "current_trial": 33, "dateTime": 1691161637888, "trialdata": {"revealed_states": [], "clicked_states": ["1", "12", "23", "24", "32"], "num_clicks_accrued": [0, 0, 0, 0, 0, 0, 0, 0, 0, 0, 0, 0, 0], "stateRewards": ["", 1, 1, 6, -14, -40, 37, 16, -13, 33, -68, 49, 2, 4, 3, 6, 55, 27, 32, 10, -65, 20, -87, 2, 1, -6, -5, -42, 12, 29, -8, 16, 76, -33], "withholdReward": false, "trial_id": "mdp_trial_7", "block": "test", "trialIndex": 14, "score": 63.25, "costs": -1.75, "simulationMode": [null, null, null, null, null], "rewards": [2, 1, -6, -8, 76], "path": ["0", "0", "23", "24", "25", "30", "32"], "rt": [10275, 2, 213, 204, 480], "actions": ["left", "left", "left", "down", "down"], "actionTimes": [13324, 13834, 14579, 15302, 16293], "queries": {"click": {"state": {"target": ["1", "12", "23", "24", "32"], "time": [3759, 4918, 5957, 7119, 8636]}, "edge": {"target": [], "time": []}}, "mouseover": {"state": {"target": ["1", "0", "12", "0", "23", "31", "24", "30", "32", "31", "31"], "time": [3544, 4177, 4713, 5408, 5448, 6796, 6911, 8079, 8497, 9445, 10230]}, "edge": {"target": [], "time": []}}, "mouseout": {"state": {"target": ["20", "20", "21", "0", "1", "1", "0", "12", "0", "23", "31", "24", "24", "23", "24", "30", "32", "31"], "time": [744, 1482, 1531, 3415, 3849, 4130, 4227, 5347, 5432, 6645, 6846, 7130, 7680, 7849, 7933, 8231, 9178, 9731]}, "edge": {"target": [], "time": []}}}, "displayed_time": "17.05", "trialTime": 23125, "trial_type": "mouselab-mdp", "trial_index": 33, "time_elapsed": 2316317, "internal_node_id": "0.0-4.0-1.0-6.0"}}, {"uniqueid": "w52769913:a63892592", "current_trial": 34, "dateTime": 1691161683038, "trialdata": {"revealed_states": [], "clicked_states": ["12", "23", "1", "20", "17", "18", "3", "9", "10", "24", "25", "32"], "num_clicks_accrued": [0, 0, 0, 0, 0, 0, 0, 0, 0, 0, 0, 0, 0], "stateRewards": ["", 2, -4, 7, 3, 23, -42, 4, 7, -81, -33, 7, -2, -4, 5, -1, 50, -57, -14, -13, -14, 44, 55, -2, -2, 5, -2, 33, 1, 57, -13, -7, 58, 87], "withholdReward": false, "trial_id": "mdp_trial_8", "block": "test", "trialIndex": 15, "score": 17.6, "costs": -14.399999999999999, "simulationMode": [null, null, null, null, null], "rewards": [-2, -2, 5, -2, 33], "path": ["0", "0", "23", "24", "25", "26", "27"], "rt": [35553, 451, 30, 215, 1320], "actions": ["left", "left", "left", "up", "up"], "actionTimes": [37124, 38100, 38646, 39380, 41202], "queries": {"click": {"state": {"target": ["12", "23", "1", "20", "17", "18", "3", "9", "10", "24", "25", "32"], "time": [3165, 4160, 5059, 7640, 10863, 14101, 17816, 19122, 23042, 26612, 27480, 29146]}, "edge": {"target": [], "time": []}}, "mouseover": {"state": {"target": ["12", "13", "13", "12", "0", "23", "1", "13", "14", "14", "20", "17", "16", "6", "18", "4", "9", "3", "2", "3", "9", "8", "10", "2", "24", "25", "30", "32", "31", "30", "33", "30", "30"], "time": [2215, 2282, 2882, 2929, 3597, 3680, 4612, 6432, 6681, 6965, 7296, 8463, 11298, 11473, 13242, 14598, 15277, 17299, 17430, 17664, 18530, 22331, 22801, 24620, 26363, 27229, 28147, 28998, 34099, 34333, 34466, 34815, 35964]}, "edge": {"target": [], "time": []}}, "mouseout": {"state": {"target": ["31", "0", "0", "12", "13", "13", "12", "0", "23", "1", "12", "13", "14", "14", "20", "17", "16", "6", "18", "4", "9", "3", "2", "3", "9", "8", "10", "2", "24", "25", "30", "32", "31", "30", "33", "30", "30"], "time": [230, 1017, 1265, 2247, 2313, 2896, 3563, 3647, 4563, 5496, 5865, 6566, 6798, 7031, 8312, 10978, 11328, 11669, 14479, 14915, 17231, 17348, 17514, 18247, 21712, 22663, 23530, 24797, 27131, 28029, 28863, 32515, 34298, 34400, 34684, 35397, 43898]}, "edge": {"target": [], "time": []}}}, "displayed_time": "41.72", "trialTime": 44675, "trial_type": "mouselab-mdp", "trial_index": 34, "time_elapsed": 2361467, "internal_node_id": "0.0-4.0-1.0-7.0"}}, {"uniqueid": "w52769913:a63892592", "current_trial": 35, "dateTime": 1691161725832, "trialdata": {"revealed_states": [], "clicked_states": ["1", "12", "23", "24", "28", "29", "2", "7", "13", "14", "19", "22", "20", "16"], "num_clicks_accrued": [0, 0, 0, 0, 0, 0, 0, 0, 0, 0, 0, 0, 0], "stateRewards": ["", -1, -3, -3, 1, -38, 2, -53, -2, -1, -81, 70, -1, 1, -5, -9, 46, 15, 35, -1, -22, 38, 59, -2, 4, -8, 13, 1, -83, -43, 4, 76, 13, 48], "withholdReward": false, "trial_id": "mdp_trial_9", "block": "test", "trialIndex": 16, "score": 37.3, "costs": -15.700000000000001, "simulationMode": [null, null, null, null, null], "rewards": [-1, 1, -5, -1, 59], "path": ["0", "0", "12", "13", "14", "19", "22"], "rt": [32203, 539, 474, 805, 1006], "actions": ["right", "right", "right", "down", "left"], "actionTimes": [35128, 36182, 37165, 38480, 40000], "queries": {"click": {"state": {"target": ["1", "12", "23", "24", "28", "29", "2", "7", "13", "14", "19", "22", "20", "16"], "time": [4091, 5116, 6084, 6862, 7864, 11665, 14924, 15884, 19816, 21453, 22143, 22766, 26341, 31091]}, "edge": {"target": [], "time": []}}, "mouseover": {"state": {"target": ["1", "12", "0", "23", "24", "28", "26", "29", "26", "2", "2", "7", "12", "13", "19", "22", "19", "14", "19", "22", "20", "21", "19", "17", "16", "15"], "time": [3868, 4833, 5518, 5739, 6602, 7666, 11150, 11467, 12096, 12504, 13105, 15628, 19398, 19649, 20464, 20731, 21050, 21300, 21866, 22548, 25786, 28202, 30419, 30506, 30691, 32107]}, "edge": {"target": [], "time": []}}, "mouseout": {"state": {"target": ["0", "1", "1", "12", "0", "23", "24", "28", "24", "28", "26", "29", "26", "28", "2", "2", "7", "12", "13", "19", "22", "19", "14", "19", "22", "19", "20", "21", "19", "17", "16", "16", "15", "15"], "time": [1818, 4194, 4533, 5485, 5584, 6518, 7483, 8352, 9351, 11119, 11337, 12072, 12109, 12187, 12611, 15227, 16443, 19528, 20230, 20497, 20979, 21180, 21748, 22499, 23367, 23517, 28039, 30404, 30436, 30605, 31102, 31971, 32221, 42108]}, "edge": {"target": [], "time": []}}}, "displayed_time": "40.51", "trialTime": 42257, "trial_type": "mouselab-mdp", "trial_index": 35, "time_elapsed": 2404261, "internal_node_id": "0.0-4.0-1.0-8.0"}}, {"uniqueid": "w52769913:a63892592", "current_trial": 36, "dateTime": 1691161772028, "trialdata": {"revealed_states": [], "clicked_states": ["23", "12", "1", "2", "24", "13", "14", "16", "29", "3", "8", "10", "4", "7", "25", "30", "31", "32", "33"], "num_clicks_accrued": [0, 0, 0, 0, 0, 0, 0, 0, 0, 0, 0, 0, 0], "stateRewards": ["", 1, -2, 7, -14, 88, -56, -44, -14, 64, -51, -57, -2, 3, -4, -9, -11, 19, -77, -1, 68, 75, -67, -1, 1, -2, 5, -37, 70, -34, -10, -72, 63, -41], "withholdReward": false, "trial_id": "mdp_trial_10", "block": "test", "trialIndex": 17, "score": 28.150000000000006, "costs": -22.849999999999998, "simulationMode": [null, null, null, null, null], "rewards": [-1, 1, -2, -10, 63], "path": ["0", "0", "23", "24", "25", "30", "32"], "rt": [38764, 482, 116, 221, 487], "actions": ["left", "left", "left", "down", "down"], "actionTimes": [40356, 41357, 41986, 42711, 43712], "queries": {"click": {"state": {"target": ["23", "12", "1", "2", "24", "13", "14", "16", "29", "3", "8", "10", "4", "7", "25", "30", "31", "32", "33"], "time": [2588, 3496, 5302, 6775, 8230, 9948, 10957, 12301, 15453, 18791, 19361, 20381, 23912, 24553, 27982, 28708, 29487, 32704, 36209]}, "edge": {"target": [], "time": []}}, "mouseover": {"state": {"target": ["0", "23", "0", "12", "1", "2", "23", "31", "24", "12", "13", "14", "15", "16", "18", "28", "26", "29", "26", "28", "28", "10", "8", "3", "8", "10", "4", "7", "1", "24", "25", "30", "31", "32", "33"], "time": [2069, 2420, 2920, 3003, 4351, 6555, 7702, 7937, 8085, 9453, 9769, 10574, 11835, 12153, 12753, 13486, 13804, 14033, 15954, 16088, 17287, 17956, 18085, 18636, 19168, 20119, 23669, 24320, 25654, 26203, 26306, 28470, 29287, 31735, 33192]}, "edge": {"target": [], "time": []}}, "mouseout": {"state": {"target": ["13", "0", "0", "23", "0", "12", "1", "2", "2", "1", "23", "31", "24", "12", "13", "14", "15", "16", "18", "28", "26", "29", "26", "28", "28", "10", "8", "3", "8", "10", "4", "7", "1", "24", "25", "30", "31", "32", "33", "32"], "time": [168, 801, 2218, 2885, 2970, 3917, 6469, 6910, 7419, 7553, 7736, 8003, 9034, 9536, 10536, 11669, 12071, 12703, 12786, 13504, 13887, 15902, 16037, 16452, 17374, 18052, 18384, 19053, 19834, 23140, 24269, 25553, 26086, 26238, 28402, 29202, 31469, 33037, 36953, 45187]}, "edge": {"target": [], "time": []}}}, "displayed_time": "44.23", "trialTime": 45779, "trial_type": "mouselab-mdp", "trial_index": 36, "time_elapsed": 2450457, "internal_node_id": "0.0-4.0-1.0-9.0"}}, {"uniqueid": "w52769913:a63892592", "current_trial": 37, "dateTime": 1691161797741, "trialdata": {"revealed_states": [], "clicked_states": ["1", "2", "3", "4", "7", "10", "17"], "num_clicks_accrued": [0, 0, 0, 0, 0, 0, 0, 0, 0, 0, 0, 0, 0], "stateRewards": ["", 1, 2, -3, -6, 50, -7, 7, -7, -80, 21, -1, 2, 2, 4, -1, 33, 84, 1, 14, -53, 81, 6, -2, -2, -3, -9, -87, -38, -59, -5, -74, -3, -71], "withholdReward": false, "trial_id": "mdp_trial_11", "block": "test", "trialIndex": 18, "score": 81.95, "costs": -9.05, "simulationMode": [null, null, null, null, null], "rewards": [2, 2, 4, -1, 84], "path": ["0", "0", "12", "13", "14", "15", "17"], "rt": [15726, 531, 113, 712, 45], "actions": ["right", "right", "right", "up", "right"], "actionTimes": [18180, 19228, 19866, 21093, 21661], "queries": {"click": {"state": {"target": ["1", "2", "3", "4", "7", "10", "17"], "time": [3158, 4263, 4865, 5582, 6257, 9617, 13790]}, "edge": {"target": [], "time": []}}, "mouseover": {"state": {"target": ["1", "12", "2", "3", "4", "7", "10", "3", "4", "22", "14", "17", "16"], "time": [3000, 3631, 3847, 4697, 5347, 6012, 7180, 10215, 12815, 12997, 13265, 13430, 15883]}, "edge": {"target": [], "time": []}}, "mouseout": {"state": {"target": ["0", "0", "1", "12", "1", "2", "3", "4", "7", "2", "10", "3", "4", "22", "14", "17", "16", "18", "0"], "time": [1830, 2597, 3413, 3738, 3812, 4612, 5297, 5963, 6830, 6898, 10129, 10246, 12831, 13213, 13301, 15630, 17450, 23512, 23932]}, "edge": {"target": [], "time": []}}}, "displayed_time": "22.20", "trialTime": 25317, "trial_type": "mouselab-mdp", "trial_index": 37, "time_elapsed": 2476170, "internal_node_id": "0.0-4.0-1.0-10.0"}}, {"uniqueid": "w52769913:a63892592", "current_trial": 38, "dateTime": 1691161844092, "trialdata": {"revealed_states": [], "clicked_states": ["1", "2", "12", "13", "20", "32", "29", "27", "23", "24", "28", "5", "11"], "num_clicks_accrued": [0, 0, 0, 0, 0, 0, 0, 0, 0, 0, 0, 0, 0], "stateRewards": ["", -1, -4, -6, -15, 21, -67, -63, 9, 51, 69, -14, -1, 3, 8, -8, 39, 72, 63, 15, 19, 47, 15, 1, 4, 5, 16, -18, 34, 35, -14, -80, 40, 1], "withholdReward": false, "trial_id": "mdp_trial_12", "block": "test", "trialIndex": 19, "score": 20.65, "costs": -15.350000000000001, "simulationMode": [null, null, null, null, null], "rewards": [1, 4, 5, -14, 40], "path": ["0", "0", "23", "24", "25", "30", "32"], "rt": [37781, 332, 229, 368, 492], "actions": ["left", "left", "left", "down", "down"], "actionTimes": [39767, 40612, 41354, 42226, 43235], "queries": {"click": {"state": {"target": ["1", "2", "12", "13", "20", "32", "29", "27", "23", "24", "28", "5", "11"], "time": [3252, 4351, 5230, 5908, 7682, 11636, 17143, 20479, 26134, 26704, 27384, 31624, 36151]}, "edge": {"target": [], "time": []}}, "mouseover": {"state": {"target": ["1", "12", "2", "12", "13", "22", "19", "20", "21", "32", "30", "33", "29", "27", "11", "9", "5", "4", "7", "1", "2", "7", "12", "0", "23", "24", "28", "24", "3", "5", "3", "10", "26", "29", "11"], "time": [3023, 3792, 4124, 4991, 5642, 7174, 7261, 7523, 10425, 11308, 14026, 14576, 16791, 18273, 21206, 21290, 21656, 23342, 23790, 24025, 24608, 24774, 25610, 25691, 25926, 26508, 27209, 30891, 31240, 31442, 32058, 32111, 32174, 35340, 35976]}, "edge": {"target": [], "time": []}}, "mouseout": {"state": {"target": ["0", "0", "1", "12", "2", "12", "13", "22", "19", "20", "21", "32", "30", "33", "29", "27", "11", "9", "5", "4", "7", "1", "2", "7", "12", "0", "23", "24", "28", "24", "3", "5", "3", "10", "26", "29", "11", "9", "8", "10"], "time": [1291, 2627, 3675, 3991, 4682, 5578, 6409, 7224, 7423, 9107, 10626, 13740, 14058, 16655, 18046, 21140, 21225, 21336, 23192, 23456, 23926, 24493, 24710, 25109, 25658, 25824, 26393, 27133, 30456, 31009, 31303, 32025, 32092, 32128, 32208, 35358, 37042, 45094, 45541, 45575]}, "edge": {"target": [], "time": []}}}, "displayed_time": "43.74", "trialTime": 45946, "trial_type": "mouselab-mdp", "trial_index": 38, "time_elapsed": 2522521, "internal_node_id": "0.0-4.0-1.0-11.0"}}, {"uniqueid": "w52769913:a63892592", "current_trial": 39, "dateTime": 1691161874181, "trialdata": {"revealed_states": [], "clicked_states": ["12", "23", "24", "13", "14", "21", "16", "11"], "num_clicks_accrued": [0, 0, 0, 0, 0, 0, 0, 0, 0, 0, 0, 0, 0], "stateRewards": ["", -2, -3, 8, -4, -30, 31, 69, 9, 66, 87, 64, -2, 2, 8, 5, 47, 16, -39, -8, -54, 51, -19, 1, -2, -2, -11, -25, -26, 43, -9, 19, -84, 86], "withholdReward": false, "trial_id": "mdp_trial_13", "block": "test", "trialIndex": 20, "score": 68.4, "costs": -7.6, "simulationMode": [null, null, null, null, null], "rewards": [-2, -3, 8, 9, 64], "path": ["0", "0", "1", "2", "3", "8", "11"], "rt": [22211, 269, 472, 247, 380], "actions": ["up", "up", "up", "left", "left"], "actionTimes": [24011, 24794, 25768, 26521, 27432], "queries": {"click": {"state": {"target": ["12", "23", "24", "13", "14", "21", "16", "11"], "time": [4359, 5551, 6818, 8485, 9525, 10891, 14749, 18894]}, "edge": {"target": [], "time": []}}, "mouseover": {"state": {"target": ["0", "12", "0", "12", "0", "23", "24", "13", "14", "19", "21", "15", "16", "18", "2", "8", "11", "26", "25"], "time": [2659, 2909, 3477, 4126, 5141, 5440, 6240, 8260, 9074, 10525, 10641, 14208, 14492, 17841, 17993, 18407, 18641, 22192, 22359]}, "edge": {"target": [], "time": []}}, "mouseout": {"state": {"target": ["0", "0", "0", "0", "0", "12", "0", "12", "12", "0", "23", "24", "13", "14", "19", "21", "15", "16", "18", "2", "8", "11", "26", "25", "30"], "time": [91, 808, 1258, 2425, 2743, 3073, 3658, 4945, 5124, 5160, 6150, 7308, 8620, 9840, 10557, 11859, 14361, 17773, 17901, 18325, 18574, 21859, 22240, 22475, 29307]}, "edge": {"target": [], "time": []}}}, "displayed_time": "27.96", "trialTime": 29685, "trial_type": "mouselab-mdp", "trial_index": 39, "time_elapsed": 2552610, "internal_node_id": "0.0-4.0-1.0-12.0"}}, {"uniqueid": "w52769913:a63892592", "current_trial": 40, "dateTime": 1691161904001, "trialdata": {"revealed_states": [], "clicked_states": ["23", "24", "25", "32", "31", "12", "13", "20", "16"], "num_clicks_accrued": [0, 0, 0, 0, 0, 0, 0, 0, 0, 0, 0, 0, 0], "stateRewards": ["", 1, 2, 2, -15, -84, 28, -26, 13, 31, 86, 30, -2, 1, -1, -8, 66, -40, -1, -10, -32, 57, -17, 1, 2, -2, 9, -23, 77, 85, 12, -32, -62, -35], "withholdReward": false, "trial_id": "mdp_trial_14", "block": "test", "trialIndex": 21, "score": 46.25, "costs": -9.75, "simulationMode": [null, null, null, null, null], "rewards": [-2, 1, -1, -8, 66], "path": ["0", "0", "12", "13", "14", "15", "16"], "rt": [21647, 570, 192, 547, 58], "actions": ["right", "right", "right", "up", "up"], "actionTimes": [24140, 25226, 25918, 26988, 27567], "queries": {"click": {"state": {"target": ["23", "24", "25", "32", "31", "12", "13", "20", "16"], "time": [4990, 5704, 6555, 7366, 10731, 14003, 14596, 15873, 19571]}, "edge": {"target": [], "time": []}}, "mouseover": {"state": {"target": ["23", "23", "24", "25", "30", "32", "31", "20", "20", "14", "13", "12", "13", "14", "20", "15", "16", "1", "2"], "time": [4190, 4402, 5444, 6271, 6965, 7132, 9425, 11171, 11604, 11837, 12172, 12421, 14403, 14991, 15639, 18406, 19388, 20673, 20915]}, "edge": {"target": [], "time": []}}, "mouseout": {"state": {"target": ["0", "1", "0", "23", "23", "24", "25", "30", "32", "31", "20", "20", "14", "13", "12", "13", "14", "20", "15", "16", "1", "2"], "time": [1304, 1689, 3879, 4339, 5372, 6189, 6925, 7039, 8040, 11056, 11204, 11754, 12154, 12223, 14305, 14948, 15406, 16742, 19206, 20131, 20763, 23405]}, "edge": {"target": [], "time": []}}}, "displayed_time": "28.09", "trialTime": 29353, "trial_type": "mouselab-mdp", "trial_index": 40, "time_elapsed": 2582430, "internal_node_id": "0.0-4.0-1.0-13.0"}}, {"uniqueid": "w52769913:a63892592", "current_trial": 41, "dateTime": 1691161936988, "trialdata": {"revealed_states": [], "clicked_states": ["1", "2", "3", "7", "29", "27", "32", "12", "13", "14", "21"], "num_clicks_accrued": [0, 0, 0, 0, 0, 0, 0, 0, 0, 0, 0, 0, 0], "stateRewards": ["", -1, 2, 7, 8, 75, 67, -11, 6, 52, -17, 38, -1, 4, -8, 14, 74, -37, -17, -12, 52, 55, 71, -2, -1, -5, 2, 21, 6, -88, -14, 64, -61, -47], "withholdReward": false, "trial_id": "mdp_trial_15", "block": "test", "trialIndex": 22, "score": 25.15, "costs": -12.85, "simulationMode": [null, null, null, null, null], "rewards": [-1, 4, -8, -12, 55], "path": ["0", "0", "12", "13", "14", "19", "21"], "rt": [23791, 539, 44, 473, 546], "actions": ["right", "right", "right", "down", "down"], "actionTimes": [25838, 26874, 27427, 28408, 29463], "queries": {"click": {"state": {"target": ["1", "2", "3", "7", "29", "27", "32", "12", "13", "14", "21"], "time": [3132, 3851, 4492, 5492, 10005, 13189, 16481, 19884, 20399, 20946, 21663]}, "edge": {"target": [], "time": []}}, "mouseover": {"state": {"target": ["1", "2", "3", "7", "7", "1", "28", "29", "27", "26", "25", "30", "32", "22", "12", "13", "14", "19", "21", "20"], "time": [2950, 3633, 4279, 4981, 5323, 9018, 9365, 9865, 10930, 13647, 13682, 13705, 14766, 18114, 19114, 20173, 20748, 21315, 21508, 24947]}, "edge": {"target": [], "time": []}}, "mouseout": {"state": {"target": ["1", "23", "31", "31", "23", "1", "2", "3", "7", "7", "1", "28", "29", "27", "26", "25", "30", "32", "22", "12", "13", "14", "19", "21", "20"], "time": [233, 281, 330, 766, 1298, 3480, 4199, 4899, 5184, 5946, 9116, 9382, 10581, 13632, 13665, 13701, 13738, 16954, 18130, 20099, 20682, 21281, 21388, 21771, 31114]}, "edge": {"target": [], "time": []}}}, "displayed_time": "29.98", "trialTime": 32515, "trial_type": "mouselab-mdp", "trial_index": 41, "time_elapsed": 2615417, "internal_node_id": "0.0-4.0-1.0-14.0"}}, {"uniqueid": "w52769913:a63892592", "current_trial": 42, "dateTime": 1691161955919, "trialdata": {"revealed_states": [], "clicked_states": [], "num_clicks_accrued": [0, 0, 0, 0, 0, 0, 0, 0, 0, 0, 0, 0, 0], "stateRewards": ["", 1, -1, 8, -3, 38, 85, -20, -4, 8, 23, 73, 2, -4, 6, -13, 44, 7, -28, -11, -77, 45, -69, 1, -1, -7, -11, 75, -51, -87, 7, 36, -53, -26], "withholdReward": false, "trial_id": "mdp_trial_16", "block": "test", "trialIndex": 23, "score": -37, "costs": 0, "simulationMode": [null, null, null, null, null], "rewards": [2, -4, 6, -13, -28], "path": ["0", "0", "12", "13", "14", "15", "18"], "rt": [6704, 808, 163, 774, 197], "actions": ["right", "right", "right", "up", "left"], "actionTimes": [8589, 9920, 10591, 11886, 12593], "queries": {"click": {"state": {"target": [], "time": []}, "edge": {"target": [], "time": []}}, "mouseover": {"state": {"target": ["23", "1"], "time": [4944, 6394]}, "edge": {"target": [], "time": []}}, "mouseout": {"state": {"target": ["0", "23", "1", "1", "18", "16", "15", "4"], "time": [4912, 6280, 14746, 15129, 16228, 17745, 18327, 18555]}, "edge": {"target": [], "time": []}}}, "displayed_time": "15.89", "trialTime": 18560, "trial_type": "mouselab-mdp", "trial_index": 42, "time_elapsed": 2634349, "internal_node_id": "0.0-4.0-1.0-15.0"}}, {"uniqueid": "w52769913:a63892592", "current_trial": 43, "dateTime": 1691162010184, "trialdata": {"revealed_states": [], "clicked_states": ["2", "1", "6", "11", "29", "33", "23", "13", "20", "21", "17", "12", "16", "18", "24", "32", "25", "27"], "num_clicks_accrued": [0, 0, 0, 0, 0, 0, 0, 0, 0, 0, 0, 0, 0], "stateRewards": ["", -1, 3, 2, 9, 41, 4, -46, -12, -54, -87, -25, 2, 3, -1, 11, -77, 12, -33, -9, -32, 35, 72, 1, 3, -7, 4, 37, 65, -73, 6, 77, -43, 8], "withholdReward": false, "trial_id": "mdp_trial_17", "block": "test", "trialIndex": 24, "score": 13.100000000000001, "costs": -24.9, "simulationMode": [null, null, null, null, null], "rewards": [1, 3, -7, 4, 37], "path": ["0", "0", "23", "24", "25", "26", "27"], "rt": [46895, 370, 202, 586, 281], "actions": ["left", "left", "left", "up", "up"], "actionTimes": [48476, 49358, 50073, 51175, 51971], "queries": {"click": {"state": {"target": ["2", "1", "6", "11", "29", "33", "23", "13", "20", "21", "17", "12", "16", "18", "24", "32", "25", "27"], "time": [2764, 3788, 4833, 8071, 11206, 14312, 17538, 18331, 19272, 22471, 26068, 30158, 31133, 34473, 38204, 39215, 43598, 44432]}, "edge": {"target": [], "time": []}}, "mouseover": {"state": {"target": ["1", "2", "7", "1", "7", "6", "4", "3", "8", "11", "26", "29", "33", "32", "31", "23", "0", "12", "13", "19", "20", "21", "21", "19", "14", "17", "16", "18", "13", "12", "15", "16", "18", "31", "31", "24", "32", "30", "25", "26", "27", "27", "10", "2", "7", "18"], "time": [2104, 2503, 3331, 3590, 4303, 4505, 5693, 5754, 6139, 6703, 9204, 9477, 12004, 14839, 15903, 16036, 17904, 17953, 18019, 18754, 18955, 20091, 21523, 23820, 24053, 25121, 27307, 29553, 29629, 29970, 30622, 31070, 31888, 35110, 35770, 36108, 38853, 42956, 43221, 43937, 43996, 44321, 45172, 45209, 45232, 45272]}, "edge": {"target": [], "time": []}}, "mouseout": {"state": {"target": ["3", "2", "1", "2", "7", "1", "7", "6", "6", "4", "3", "8", "11", "26", "29", "29", "33", "32", "31", "23", "0", "12", "13", "19", "20", "21", "21", "19", "14", "17", "16", "18", "13", "12", "15", "16", "18", "31", "31", "24", "32", "30", "25", "26", "27", "27", "10", "2", "7", "18", "19"], "time": [718, 770, 2423, 3223, 3454, 3806, 4374, 4846, 5575, 5708, 6105, 6387, 9037, 9238, 11344, 11836, 14706, 15853, 15936, 17871, 17920, 17987, 18689, 18820, 20005, 20117, 22485, 23885, 24636, 27025, 29485, 29626, 29654, 30453, 30891, 31739, 34919, 35305, 35923, 38574, 39719, 43022, 43613, 43954, 44156, 44447, 45205, 45230, 45254, 45335, 53687]}, "edge": {"target": [], "time": []}}}, "displayed_time": "52.49", "trialTime": 53833, "trial_type": "mouselab-mdp", "trial_index": 43, "time_elapsed": 2688613, "internal_node_id": "0.0-4.0-1.0-16.0"}}, {"uniqueid": "w52769913:a63892592", "current_trial": 44, "dateTime": 1691162050458, "trialdata": {"revealed_states": [], "clicked_states": ["1", "12", "13", "23", "24", "25", "31", "2", "7", "3", "11"], "num_clicks_accrued": [0, 0, 0, 0, 0, 0, 0, 0, 0, 0, 0, 0, 0], "stateRewards": ["", -2, -3, -7, 7, -54, -69, -4, -14, -77, 22, 40, -2, -1, 5, 6, -35, 50, -60, 10, -28, 75, 57, 1, -4, -2, 2, 68, 34, -18, 12, 3, -21, -43], "withholdReward": false, "trial_id": "mdp_trial_18", "block": "test", "trialIndex": 25, "score": 5.350000000000001, "costs": -8.65, "simulationMode": [null, null, null, null, null], "rewards": [-2, -3, -7, -14, 40], "path": ["0", "0", "1", "2", "3", "8", "11"], "rt": [19087, 380, 73, 51, 167], "actions": ["up", "up", "up", "left", "left"], "actionTimes": [20615, 21505, 22144, 22743, 23443], "queries": {"click": {"state": {"target": ["1", "12", "13", "23", "24", "25", "31", "2", "7", "3", "11"], "time": [2539, 3291, 3842, 4819, 6285, 7180, 7930, 11158, 11744, 15084, 15895]}, "edge": {"target": [], "time": []}}, "mouseover": {"state": {"target": ["1", "12", "13", "0", "23", "24", "25", "31", "12", "2", "7", "3", "8", "11", "10", "1", "12", "13", "22", "12"], "time": [1876, 2970, 3648, 4258, 4643, 5361, 6961, 7692, 9141, 10015, 11494, 14060, 15452, 15694, 16610, 17529, 17944, 18024, 19075, 19561]}, "edge": {"target": [], "time": []}}, "mouseout": {"state": {"target": ["21", "0", "1", "12", "13", "12", "0", "23", "24", "25", "31", "12", "2", "7", "7", "3", "8", "11", "10", "1", "12", "13", "22", "12", "12", "28", "11", "10", "8", "10"], "time": [246, 1144, 2878, 3585, 4183, 4254, 4359, 5243, 6886, 7612, 8459, 9210, 11445, 12479, 13674, 15184, 15496, 16460, 16709, 17560, 17968, 18527, 19092, 19626, 25941, 33144, 35060, 36859, 37680, 37729]}, "edge": {"target": [], "time": []}}}, "displayed_time": "23.96", "trialTime": 39780, "trial_type": "mouselab-mdp", "trial_index": 44, "time_elapsed": 2728888, "internal_node_id": "0.0-4.0-1.0-17.0"}}, {"uniqueid": "w52769913:a63892592", "current_trial": 45, "dateTime": 1691162087753, "trialdata": {"revealed_states": [], "clicked_states": ["1", "12", "13", "24", "32", "14", "20", "16", "9", "5"], "num_clicks_accrued": [0, 0, 0, 0, 0, 0, 0, 0, 0, 0, 0, 0, 0], "stateRewards": ["", -2, -3, 1, -7, 39, -67, 16, 5, -20, 73, 66, -1, 4, 5, -3, 23, -68, -87, -8, 3, -3, 17, 1, -4, -2, -13, -32, 34, 61, -5, -11, -18, 12], "withholdReward": false, "trial_id": "mdp_trial_19", "block": "test", "trialIndex": 26, "score": 16.1, "costs": -11.9, "simulationMode": [null, null, null, null, null], "rewards": [-2, -3, 1, -7, 39], "path": ["0", "0", "1", "2", "3", "4", "5"], "rt": [25703, 522, 157, 36, 68], "actions": ["up", "up", "up", "right", "up"], "actionTimes": [31264, 32299, 32954, 33528, 34139], "queries": {"click": {"state": {"target": ["1", "12", "13", "24", "32", "14", "20", "16", "9", "5"], "time": [6885, 7806, 8429, 9571, 10826, 14001, 14705, 18433, 22395, 25650]}, "edge": {"target": [], "time": []}}, "mouseover": {"state": {"target": ["1", "12", "13", "23", "24", "23", "24", "25", "30", "32", "31", "13", "14", "20", "16", "6", "5", "9", "5", "5", "4", "2"], "time": [6110, 7546, 8211, 8893, 8942, 9260, 9400, 10310, 10409, 10609, 11576, 11768, 12092, 14445, 18163, 18911, 18958, 19489, 22813, 23044, 26126, 26693]}, "edge": {"target": [], "time": []}}, "mouseout": {"state": {"target": ["6", "0", "0", "0", "1", "1", "12", "13", "12", "23", "24", "23", "24", "25", "30", "32", "31", "13", "14", "20", "16", "6", "5", "9", "5", "5", "4", "2", "30"], "time": [4074, 4711, 4910, 6024, 7002, 7444, 8176, 8830, 8862, 8927, 9194, 9344, 10278, 10325, 10495, 11541, 11628, 12042, 14362, 17945, 18889, 18956, 18996, 22728, 22922, 26093, 26278, 35710, 35825]}, "edge": {"target": [], "time": []}}}, "displayed_time": "34.66", "trialTime": 36625, "trial_type": "mouselab-mdp", "trial_index": 45, "time_elapsed": 2766182, "internal_node_id": "0.0-4.0-1.0-18.0"}}, {"uniqueid": "w52769913:a63892592", "current_trial": 46, "dateTime": 1691162112247, "trialdata": {"revealed_states": [], "clicked_states": ["23", "24", "26", "1", "28", "9", "5"], "num_clicks_accrued": [0, 0, 0, 0, 0, 0, 0, 0, 0, 0, 0, 0, 0], "stateRewards": ["", 2, -1, 5, 8, 75, -35, -77, 1, -9, -81, -58, 1, 2, -7, 5, 77, -16, 19, 16, -10, -18, 40, -2, 3, 7, -5, 64, 1, -62, 10, 27, 10, 65], "withholdReward": false, "trial_id": "mdp_trial_20", "block": "test", "trialIndex": 27, "score": 81.15, "costs": -7.85, "simulationMode": [null, null, null, null, null], "rewards": [2, -1, 5, 8, 75], "path": ["0", "0", "1", "2", "3", "4", "5"], "rt": [16429, 484, 124, 115, 115], "actions": ["up", "up", "up", "right", "up"], "actionTimes": [18094, 19090, 19730, 20355, 20989], "queries": {"click": {"state": {"target": ["23", "24", "26", "1", "28", "9", "5"], "time": [2414, 3007, 4009, 5866, 6887, 10169, 13409]}, "edge": {"target": [], "time": []}}, "mouseover": {"state": {"target": ["23", "24", "26", "1", "2", "2", "1", "28", "10", "9", "5", "6"], "time": [2155, 2807, 3806, 4666, 5104, 5391, 5705, 6423, 7541, 8608, 11456, 13855]}, "edge": {"target": [], "time": []}}, "mouseout": {"state": {"target": ["0", "23", "24", "26", "1", "2", "2", "1", "28", "10", "9", "5", "6", "5", "3", "10", "23"], "time": [2041, 2755, 3353, 4387, 4721, 5306, 5607, 5981, 7439, 7575, 10656, 13772, 16822, 22592, 22642, 22722, 23360]}, "edge": {"target": [], "time": []}}}, "displayed_time": "21.51", "trialTime": 23980, "trial_type": "mouselab-mdp", "trial_index": 46, "time_elapsed": 2790676, "internal_node_id": "0.0-4.0-1.0-19.0"}}, {"uniqueid": "w52769913:a63892592", "current_trial": 47, "dateTime": 1691162159980, "trialdata": {"revealed_states": [], "clicked_states": ["12", "13", "19", "20", "16", "23", "24", "29", "1", "6", "3", "11", "5", "9"], "num_clicks_accrued": [0, 0, 0, 0, 0, 0, 0, 0, 0, 0, 0, 0, 0], "stateRewards": ["", -2, -1, -3, -1, -78, -6, 2, -1, 22, -88, 32, 2, 2, -7, -8, -51, -17, 54, 2, -44, 54, 75, 2, -2, -8, -15, -29, 12, -67, 15, -1, -47, -47], "withholdReward": false, "trial_id": "mdp_trial_21", "block": "test", "trialIndex": 28, "score": -57.5, "costs": -17.5, "simulationMode": [null, null, null, null, null], "rewards": [2, -2, -8, 15, -47], "path": ["0", "0", "23", "24", "25", "30", "32"], "rt": [34171, 5850, 45, 3, 235], "actions": ["left", "left", "left", "down", "down"], "actionTimes": [35747, 42111, 42695, 43295, 44045], "queries": {"click": {"state": {"target": ["12", "13", "19", "20", "16", "23", "24", "29", "1", "6", "3", "11", "5", "9"], "time": [2597, 3206, 4348, 5092, 8969, 13224, 13859, 14728, 18293, 19259, 23304, 23910, 28700, 32420]}, "edge": {"target": [], "time": []}}, "mouseover": {"state": {"target": ["0", "12", "13", "14", "19", "20", "22", "16", "16", "18", "2", "28", "23", "24", "26", "29", "26", "28", "1", "2", "6", "7", "2", "8", "8", "3", "8", "11", "8", "7", "4", "5", "9", "9"], "time": [2193, 2410, 2977, 3773, 4127, 4825, 8475, 8590, 8825, 9700, 12260, 12758, 12961, 13635, 14261, 14591, 17557, 17591, 18108, 18680, 19042, 19800, 19992, 22478, 22875, 23159, 23542, 23854, 24646, 26458, 26944, 28491, 32040, 32292]}, "edge": {"target": [], "time": []}}, "mouseout": {"state": {"target": ["0", "0", "12", "13", "14", "19", "20", "22", "16", "16", "16", "18", "2", "28", "23", "24", "26", "29", "26", "28", "1", "2", "6", "7", "2", "8", "8", "3", "8", "11", "8", "3", "7", "4", "5", "9", "9"], "time": [1126, 2323, 2943, 3644, 4060, 4775, 5760, 8490, 8725, 8985, 9660, 12092, 12509, 12874, 13633, 14195, 14325, 17509, 17589, 17608, 18643, 18739, 19709, 19840, 22208, 22693, 23028, 23512, 23660, 24542, 24716, 25211, 26791, 27341, 29257, 32224, 32435]}, "edge": {"target": [], "time": []}}}, "displayed_time": "44.56", "trialTime": 47100, "trial_type": "mouselab-mdp", "trial_index": 47, "time_elapsed": 2838410, "internal_node_id": "0.0-4.0-1.0-20.0"}}, {"uniqueid": "w52769913:a63892592", "current_trial": 48, "dateTime": 1691162186765, "trialdata": {"revealed_states": [], "clicked_states": ["12", "13", "23", "24", "5", "6", "27"], "num_clicks_accrued": [0, 0, 0, 0, 0, 0, 0, 0, 0, 0, 0, 0, 0], "stateRewards": ["", 1, 2, -8, 9, 18, -83, -11, 6, -64, -48, 17, -2, -2, -5, -3, -24, -3, -86, -2, 48, -41, -22, -2, 4, 7, 8, 81, 13, -48, 10, 61, 19, 57], "withholdReward": false, "trial_id": "mdp_trial_22", "block": "test", "trialIndex": 29, "score": 91.35, "costs": -6.65, "simulationMode": [null, null, null, null, null], "rewards": [-2, 4, 7, 8, 81], "path": ["0", "0", "23", "24", "25", "26", "27"], "rt": [16317, 292, 66, 712, 212], "actions": ["left", "left", "left", "up", "up"], "actionTimes": [18144, 18958, 19538, 20780, 21512], "queries": {"click": {"state": {"target": ["12", "13", "23", "24", "5", "6", "27"], "time": [2972, 3951, 4767, 5696, 6619, 10396, 13690]}, "edge": {"target": [], "time": []}}, "mouseover": {"state": {"target": ["1", "12", "13", "23", "24", "2", "4", "5", "3", "10", "10", "3", "6", "10", "27", "26", "26", "25", "25", "30", "32"], "time": [2431, 2718, 3550, 4533, 5473, 6103, 6169, 6469, 7099, 7184, 9817, 9866, 10150, 10874, 11200, 14734, 14923, 15100, 15351, 15867, 16782]}, "edge": {"target": [], "time": []}}, "mouseout": {"state": {"target": ["2", "29", "26", "23", "0", "1", "12", "13", "12", "23", "23", "24", "2", "4", "5", "3", "10", "10", "3", "6", "6", "10", "27", "26", "26", "25", "25", "30", "32"], "time": [83, 203, 881, 898, 1983, 2567, 3519, 4299, 4367, 4783, 5351, 5825, 6135, 6300, 7049, 7133, 7201, 9834, 9915, 10412, 10768, 10913, 14672, 14753, 14968, 15216, 15767, 16617, 24785]}, "edge": {"target": [], "time": []}}}, "displayed_time": "22.03", "trialTime": 26058, "trial_type": "mouselab-mdp", "trial_index": 48, "time_elapsed": 2865194, "internal_node_id": "0.0-4.0-1.0-21.0"}}, {"uniqueid": "w52769913:a63892592", "current_trial": 49, "dateTime": 1691162210297, "trialdata": {"revealed_states": [], "clicked_states": ["12", "13", "20"], "num_clicks_accrued": [0, 0, 0, 0, 0, 0, 0, 0, 0, 0, 0, 0, 0], "stateRewards": ["", -2, -3, 7, -13, 60, 9, 37, -6, 37, 20, 1, 2, -2, -8, 6, -80, -31, -10, -7, 70, -65, -44, -1, 1, 7, 6, -11, 73, -85, 16, -21, 47, 34], "withholdReward": false, "trial_id": "mdp_trial_23", "block": "test", "trialIndex": 30, "score": 52.75, "costs": -2.25, "simulationMode": [null, null, null, null, null], "rewards": [2, -2, -8, -7, 70], "path": ["0", "0", "12", "13", "14", "19", "20"], "rt": [6214, 479, 157, 450, 127], "actions": ["right", "right", "right", "down", "right"], "actionTimes": [10223, 11213, 11890, 12852, 13494], "queries": {"click": {"state": {"target": ["12", "13", "20"], "time": [4780, 5390, 6166]}, "edge": {"target": [], "time": []}}, "mouseover": {"state": {"target": ["0", "12", "13", "20", "21", "19"], "time": [4167, 4533, 5116, 5874, 8218, 9601]}, "edge": {"target": [], "time": []}}, "mouseout": {"state": {"target": ["0", "0", "12", "13", "20", "21", "19", "21"], "time": [3766, 4366, 5066, 5737, 6900, 9565, 21466, 21650]}, "edge": {"target": [], "time": []}}}, "displayed_time": "18.02", "trialTime": 22957, "trial_type": "mouselab-mdp", "trial_index": 49, "time_elapsed": 2888726, "internal_node_id": "0.0-4.0-1.0-22.0"}}, {"uniqueid": "w52769913:a63892592", "current_trial": 50, "dateTime": 1691162240922, "trialdata": {"revealed_states": [], "clicked_states": ["1", "12", "13", "17", "5", "9", "23", "32", "31"], "num_clicks_accrued": [0, 0, 0, 0, 0, 0, 0, 0, 0, 0, 0, 0, 0], "stateRewards": ["", -1, 2, 5, -6, 13, -64, -47, 8, -79, -80, -33, 1, 2, -2, -16, 56, -71, -10, 3, 29, 44, 85, -1, 4, 5, 4, -36, -56, 19, 8, 52, -13, -2], "withholdReward": false, "trial_id": "mdp_trial_24", "block": "test", "trialIndex": 31, "score": 57.65, "costs": -10.350000000000001, "simulationMode": [null, null, null, null, null], "rewards": [-1, 4, 5, 8, 52], "path": ["0", "0", "23", "24", "25", "30", "31"], "rt": [22465, 158, 8, 287, 297], "actions": ["left", "left", "left", "down", "right"], "actionTimes": [24167, 24826, 25358, 26186, 26996], "queries": {"click": {"state": {"target": ["1", "12", "13", "17", "5", "9", "23", "32", "31"], "time": [2520, 3202, 3717, 4496, 7807, 11349, 14759, 15569, 19412]}, "edge": {"target": [], "time": []}}, "mouseover": {"state": {"target": ["1", "12", "13", "14", "17", "15", "4", "5", "9", "11", "27", "28", "23", "24", "32", "31", "31", "25"], "time": [2266, 2950, 3536, 4103, 4264, 4966, 5849, 6909, 8381, 11967, 12225, 13927, 14431, 15033, 15367, 16315, 19232, 20332]}, "edge": {"target": [], "time": []}}, "mouseout": {"state": {"target": ["0", "1", "12", "13", "14", "17", "15", "4", "5", "9", "11", "27", "28", "23", "24", "32", "31", "31", "25", "31"], "time": [1201, 2864, 3483, 4067, 4179, 4949, 5000, 6050, 8181, 11831, 12190, 13903, 13982, 14967, 15182, 16231, 16371, 20032, 28599, 28884]}, "edge": {"target": [], "time": []}}}, "displayed_time": "27.52", "trialTime": 29913, "trial_type": "mouselab-mdp", "trial_index": 50, "time_elapsed": 2919351, "internal_node_id": "0.0-4.0-1.0-23.0"}}, {"uniqueid": "w52769913:a63892592", "current_trial": 51, "dateTime": 1691162260427, "trialdata": {"revealed_states": [], "clicked_states": ["1", "2", "7"], "num_clicks_accrued": [0, 0, 0, 0, 0, 0, 0, 0, 0, 0, 0, 0, 0], "stateRewards": ["", 2, -1, 4, -9, -43, 7, 54, -13, 38, -40, -83, -1, 2, -8, -10, 34, -33, 11, -14, -79, 65, 26, 1, 2, 4, 10, 21, 1, 86, 4, -53, 28, -29], "withholdReward": false, "trial_id": "mdp_trial_25", "block": "test", "trialIndex": 32, "score": 47.75, "costs": -2.25, "simulationMode": [null, null, null, null, null], "rewards": [2, -1, 4, -9, 54], "path": ["0", "0", "1", "2", "3", "4", "7"], "rt": [6831, 39, 772, 11, 160], "actions": ["up", "up", "up", "right", "down"], "actionTimes": [10400, 10984, 12281, 12805, 13487], "queries": {"click": {"state": {"target": ["1", "2", "7"], "time": [4816, 5545, 6154]}, "edge": {"target": [], "time": []}}, "mouseover": {"state": {"target": ["1", "1", "2", "7", "23"], "time": [4094, 4660, 5361, 5961, 7303]}, "edge": {"target": [], "time": []}}, "mouseout": {"state": {"target": ["0", "1", "1", "2", "7", "1", "23"], "time": [3609, 4175, 4935, 5910, 6642, 6777, 18676]}, "edge": {"target": [], "time": []}}}, "displayed_time": "17.57", "trialTime": 18996, "trial_type": "mouselab-mdp", "trial_index": 51, "time_elapsed": 2938856, "internal_node_id": "0.0-4.0-1.0-24.0"}}, {"uniqueid": "w52769913:a63892592", "current_trial": 52, "dateTime": 1691162316568, "trialdata": {"revealed_states": [], "clicked_states": ["23", "1", "7", "3", "24", "29", "25", "31", "12", "14", "20", "21", "2", "22", "27"], "num_clicks_accrued": [0, 0, 0, 0, 0, 0, 0, 0, 0, 0, 0, 0, 0], "stateRewards": ["", 1, 4, -8, -5, -15, -7, 21, 13, -30, 40, -65, 1, 1, 5, -14, 35, 27, -38, -11, 36, -58, -47, -2, 4, -3, 13, -16, -49, 22, 15, -56, -44, -10], "withholdReward": false, "trial_id": "mdp_trial_26", "block": "test", "trialIndex": 33, "score": 2.150000000000002, "costs": -17.849999999999998, "simulationMode": [null, null, null, null, null], "rewards": [1, 1, 5, -14, 27], "path": ["0", "0", "12", "13", "14", "15", "17"], "rt": [37999, 475, 160, 257, 3947], "actions": ["right", "right", "right", "up", "right"], "actionTimes": [39694, 40684, 41353, 42138, 46607], "queries": {"click": {"state": {"target": ["23", "1", "7", "3", "24", "29", "25", "31", "12", "14", "20", "21", "2", "22", "27"], "time": [2679, 3503, 4598, 8704, 10598, 11424, 15549, 16344, 19539, 20263, 21149, 25365, 29543, 30866, 35397]}, "edge": {"target": [], "time": []}}, "mouseover": {"state": {"target": ["23", "1", "2", "7", "10", "3", "10", "26", "26", "24", "29", "30", "30", "25", "31", "0", "12", "13", "14", "20", "21", "21", "22", "12", "1", "2", "1", "12", "22", "24", "28", "27", "28"], "time": [2457, 3259, 4015, 4293, 5474, 7446, 9057, 9158, 9408, 10341, 11291, 13368, 15108, 15343, 16108, 17383, 17947, 19910, 20042, 20791, 22357, 23877, 25942, 28708, 29091, 29394, 29993, 30257, 30527, 34776, 34823, 35141, 35977]}, "edge": {"target": [], "time": []}}, "mouseout": {"state": {"target": ["0", "23", "1", "2", "7", "10", "3", "10", "26", "26", "24", "29", "30", "30", "25", "31", "31", "0", "12", "13", "14", "20", "21", "21", "22", "12", "1", "2", "1", "12", "22", "22", "24", "28", "27", "28"], "time": [1040, 2991, 3960, 4176, 5108, 6481, 9040, 9073, 9307, 10159, 10843, 12826, 14825, 15193, 15781, 16895, 17308, 17425, 19859, 19976, 20642, 22090, 22665, 25485, 28676, 28758, 29175, 29910, 30009, 30290, 31017, 32617, 34791, 34910, 35908, 35999]}, "edge": {"target": [], "time": []}}}, "displayed_time": "47.11", "trialTime": 55437, "trial_type": "mouselab-mdp", "trial_index": 52, "time_elapsed": 2994998, "internal_node_id": "0.0-4.0-1.0-25.0"}}, {"uniqueid": "w52769913:a63892592", "current_trial": 53, "dateTime": 1691162335475, "trialdata": {"revealed_states": [], "clicked_states": ["12", "13", "23", "31"], "num_clicks_accrued": [0, 0, 0, 0, 0, 0, 0, 0, 0, 0, 0, 0, 0], "stateRewards": ["", -2, -2, -3, -6, -15, -11, 41, -12, -63, -76, 2, -2, -3, 8, 9, -36, -2, -18, -16, -32, -85, -17, -2, 1, 5, -16, 82, 35, -88, -1, 80, -82, -20], "withholdReward": false, "trial_id": "mdp_trial_27", "block": "test", "trialIndex": 34, "score": 81, "costs": -2, "simulationMode": [null, null, null, null, null], "rewards": [-2, 1, 5, -1, 80], "path": ["0", "0", "23", "24", "25", "30", "31"], "rt": [10547, 41, 374, 525, 219], "actions": ["left", "left", "left", "down", "right"], "actionTimes": [12891, 13450, 14370, 15420, 16165], "queries": {"click": {"state": {"target": ["12", "13", "23", "31"], "time": [5094, 6247, 7173, 8353]}, "edge": {"target": [], "time": []}}, "mouseover": {"state": {"target": ["0", "0", "12", "13", "13", "23", "23", "31", "31", "0"], "time": [2659, 2993, 3928, 5776, 6109, 6750, 6993, 7838, 8136, 11425]}, "edge": {"target": [], "time": []}}, "mouseout": {"state": {"target": ["23", "0", "0", "12", "13", "13", "13", "23", "23", "31", "31", "0", "12", "22"], "time": [1576, 2812, 3143, 5724, 5880, 6351, 6608, 6859, 7514, 8015, 8808, 11443, 17976, 18029]}, "edge": {"target": [], "time": []}}}, "displayed_time": "16.70", "trialTime": 18360, "trial_type": "mouselab-mdp", "trial_index": 53, "time_elapsed": 3013905, "internal_node_id": "0.0-4.0-1.0-26.0"}}, {"uniqueid": "w52769913:a63892592", "current_trial": 54, "dateTime": 1691162354167, "trialdata": {"revealed_states": [], "clicked_states": ["1", "7"], "num_clicks_accrued": [0, 0, 0, 0, 0, 0, 0, 0, 0, 0, 0, 0, 0], "stateRewards": ["", 2, 3, -1, 16, -78, -11, 46, 2, -20, 79, -67, 2, 3, 2, 11, -83, -42, -58, -11, -67, -22, 55, 2, -1, -1, -16, -83, -82, 23, -11, -29, 13, 13], "withholdReward": false, "trial_id": "mdp_trial_28", "block": "test", "trialIndex": 35, "score": 7.100000000000001, "costs": -1.9, "simulationMode": [null, null, null, null, null], "rewards": [2, 3, -1, 16, -11], "path": ["0", "0", "1", "2", "3", "4", "6"], "rt": [6449, 80, 170, 43, 153], "actions": ["up", "up", "up", "right", "right"], "actionTimes": [7919, 8511, 9199, 9757, 10400], "queries": {"click": {"state": {"target": ["1", "7"], "time": [2691, 3534]}, "edge": {"target": [], "time": []}}, "mouseover": {"state": {"target": ["1", "7", "12"], "time": [2280, 3315, 4051]}, "edge": {"target": [], "time": []}}, "mouseout": {"state": {"target": ["0", "1", "7"], "time": [2033, 3067, 3932]}, "edge": {"target": [], "time": []}}}, "displayed_time": "15.48", "trialTime": 17957, "trial_type": "mouselab-mdp", "trial_index": 54, "time_elapsed": 3032596, "internal_node_id": "0.0-4.0-1.0-27.0"}}, {"uniqueid": "w52769913:a63892592", "current_trial": 55, "dateTime": 1691162383574, "trialdata": {"revealed_states": [], "clicked_states": ["12", "13", "23", "24", "4", "7", "16", "1", "27"], "num_clicks_accrued": [0, 0, 0, 0, 0, 0, 0, 0, 0, 0, 0, 0, 0], "stateRewards": ["", -1, 3, 1, -11, -22, -36, 19, -5, -70, -52, 50, -2, -4, 4, -2, -41, -83, 29, -2, 22, 10, -6, -2, 3, -2, 14, 54, 44, 77, -9, -65, -37, -40], "withholdReward": false, "trial_id": "mdp_trial_29", "block": "test", "trialIndex": 36, "score": 59.05, "costs": -7.949999999999999, "simulationMode": [null, null, null, null, null], "rewards": [-2, 3, -2, 14, 54], "path": ["0", "0", "23", "24", "25", "26", "27"], "rt": [18917, 186, 197, 635, 40], "actions": ["left", "left", "left", "up", "up"], "actionTimes": [22099, 22801, 23510, 24682, 25234], "queries": {"click": {"state": {"target": ["12", "13", "23", "24", "4", "7", "16", "1", "27"], "time": [4759, 5531, 6362, 7476, 8566, 9323, 13205, 16856, 17866]}, "edge": {"target": [], "time": []}}, "mouseover": {"state": {"target": ["12", "12", "13", "0", "23", "24", "24", "2", "4", "4", "7", "18", "16", "18", "13", "12", "0", "1", "28", "27", "26"], "time": [4362, 4530, 5235, 5979, 6235, 7128, 7294, 8010, 8279, 8550, 9035, 12629, 12994, 13795, 14864, 15009, 15102, 15813, 17330, 17623, 20728]}, "edge": {"target": [], "time": []}}, "mouseout": {"state": {"target": ["12", "0", "12", "12", "13", "12", "0", "23", "24", "24", "2", "4", "4", "7", "18", "16", "18", "13", "12", "0", "1", "28", "27", "26", "31"], "time": [2475, 4329, 4445, 5188, 5910, 5946, 6029, 6977, 7227, 7861, 8060, 8413, 8998, 9744, 12727, 13628, 13829, 14990, 15047, 15641, 16959, 17419, 20596, 21164, 27965]}, "edge": {"target": [], "time": []}}}, "displayed_time": "25.75", "trialTime": 28795, "trial_type": "mouselab-mdp", "trial_index": 55, "time_elapsed": 3062004, "internal_node_id": "0.0-4.0-1.0-28.0"}}, {"uniqueid": "w52769913:a63892592", "current_trial": 56, "dateTime": 1691162408202, "trialdata": {"revealed_states": [], "clicked_states": ["23", "24", "31", "30", "20", "21"], "num_clicks_accrued": [0, 0, 0, 0, 0, 0, 0, 0, 0, 0, 0, 0, 0], "stateRewards": ["", -2, -3, -5, 8, 27, 11, 43, -6, -24, -87, 69, -2, 1, 1, 9, 19, 48, -37, 9, -14, 45, 62, 1, 2, 1, 16, -81, -41, 22, 4, -6, -63, 47], "withholdReward": false, "trial_id": "mdp_trial_30", "block": "test", "trialIndex": 37, "score": 45.9, "costs": -8.1, "simulationMode": [null, null, null, null, null], "rewards": [-2, 1, 1, 9, 45], "path": ["0", "0", "12", "13", "14", "19", "21"], "rt": [16653, 180, 96, 669, 13], "actions": ["right", "right", "right", "down", "down"], "actionTimes": [18960, 19650, 20268, 21479, 22014], "queries": {"click": {"state": {"target": ["23", "24", "31", "30", "20", "21"], "time": [4261, 5414, 6135, 10088, 11254, 14530]}, "edge": {"target": [], "time": []}}, "mouseover": {"state": {"target": ["23", "24", "31", "30", "22", "19", "20", "21", "32", "30", "24", "1"], "time": [4017, 4985, 5906, 9834, 10657, 10747, 11086, 13701, 15072, 15367, 16219, 16694]}, "edge": {"target": [], "time": []}}, "mouseout": {"state": {"target": ["0", "23", "24", "31", "30", "31", "22", "19", "20", "21", "32", "30", "24", "1", "12"], "time": [3951, 4899, 5835, 8984, 10367, 10428, 10704, 10915, 12569, 14547, 15297, 15420, 16270, 17965, 23766]}, "edge": {"target": [], "time": []}}}, "displayed_time": "22.54", "trialTime": 24178, "trial_type": "mouselab-mdp", "trial_index": 56, "time_elapsed": 3086631, "internal_node_id": "0.0-4.0-1.0-29.0"}}, {"uniqueid": "w52769913:a63892592", "current_trial": 57, "dateTime": 1691162435725, "trialdata": {"revealed_states": [], "clicked_states": ["1", "2", "7", "12", "13", "20", "23", "32"], "num_clicks_accrued": [0, 0, 0, 0, 0, 0, 0, 0, 0, 0, 0, 0, 0], "stateRewards": ["", -1, 1, -1, 2, 19, 85, -18, 2, -3, -26, 36, 2, 4, 7, -9, -18, 70, 72, -5, 35, -20, -28, 1, -2, -4, -3, -59, -11, -63, -2, -72, 59, -69], "withholdReward": false, "trial_id": "mdp_trial_31", "block": "test", "trialIndex": 38, "score": 45.6, "costs": -6.4, "simulationMode": [null, null, null, null, null], "rewards": [1, -2, -4, -2, 59], "path": ["0", "0", "23", "24", "25", "30", "32"], "rt": [18009, 248, 435, 792, 674], "actions": ["left", "left", "left", "down", "down"], "actionTimes": [19442, 20209, 21165, 22469, 23665], "queries": {"click": {"state": {"target": ["1", "2", "7", "12", "13", "20", "23", "32"], "time": [2287, 2956, 3676, 7491, 8175, 9126, 13858, 14884]}, "edge": {"target": [], "time": []}}, "mouseover": {"state": {"target": ["1", "2", "7", "12", "13", "20", "14", "0", "23", "31", "32"], "time": [2044, 2746, 3395, 7181, 7892, 8776, 11911, 13380, 13646, 14342, 14634]}, "edge": {"target": [], "time": []}}, "mouseout": {"state": {"target": ["0", "1", "2", "7", "12", "13", "20", "14", "0", "23", "31", "32", "32", "32"], "time": [1096, 2625, 3344, 4762, 7827, 8542, 11462, 12060, 13478, 14277, 14426, 15042, 17194, 18428]}, "edge": {"target": [], "time": []}}}, "displayed_time": "24.19", "trialTime": 26994, "trial_type": "mouselab-mdp", "trial_index": 57, "time_elapsed": 3114155, "internal_node_id": "0.0-4.0-1.0-30.0"}}, {"uniqueid": "w52769913:a63892592", "current_trial": 58, "dateTime": 1691162459287, "trialdata": {"revealed_states": [], "clicked_states": ["1", "7", "23", "24", "31", "27"], "num_clicks_accrued": [0, 0, 0, 0, 0, 0, 0, 0, 0, 0, 0, 0, 0], "stateRewards": ["", 1, -2, -3, 14, -42, -87, -37, -11, -50, 33, -44, -2, 4, -7, 13, 48, -75, -66, 12, 23, -2, 82, 1, -4, 3, 12, 51, -15, -26, -11, -52, -29, 82], "withholdReward": false, "trial_id": "mdp_trial_32", "block": "test", "trialIndex": 39, "score": 56.7, "costs": -6.300000000000001, "simulationMode": [null, null, null, null, null], "rewards": [1, -4, 3, 12, 51], "path": ["0", "0", "23", "24", "25", "26", "27"], "rt": [15598, 493, 17, 497, 28], "actions": ["left", "left", "left", "up", "up"], "actionTimes": [17224, 18225, 18764, 19808, 20359], "queries": {"click": {"state": {"target": ["1", "7", "23", "24", "31", "27"], "time": [2511, 3548, 6920, 8371, 9184, 12409]}, "edge": {"target": [], "time": []}}, "mouseover": {"state": {"target": ["1", "2", "7", "23", "31", "24", "23", "24", "31", "26", "27", "28", "21", "20", "14", "13", "22"], "time": [2278, 3148, 3264, 4222, 4359, 4615, 4901, 7713, 8896, 11351, 11564, 12915, 13352, 13489, 13823, 15187, 16565]}, "edge": {"target": [], "time": []}}, "mouseout": {"state": {"target": ["0", "1", "2", "7", "1", "23", "31", "24", "23", "24", "31", "26", "27", "28", "21", "20", "14", "13"], "time": [982, 2963, 3186, 4063, 4186, 4293, 4477, 4781, 7578, 8830, 11066, 11399, 12879, 12933, 13391, 13514, 15053, 16479]}, "edge": {"target": [], "time": []}}}, "displayed_time": "20.90", "trialTime": 22992, "trial_type": "mouselab-mdp", "trial_index": 58, "time_elapsed": 3137717, "internal_node_id": "0.0-4.0-1.0-31.0"}}, {"uniqueid": "w52769913:a63892592", "current_trial": 59, "dateTime": 1691162499675, "trialdata": {"revealed_states": [], "clicked_states": ["12", "13", "17", "1", "2", "6", "3", "9", "23", "24", "28", "25", "32", "33"], "num_clicks_accrued": [0, 0, 0, 0, 0, 0, 0, 0, 0, 0, 0, 0, 0], "stateRewards": ["", -2, 2, 3, -7, -31, -33, 29, -8, -57, 50, -83, -1, -1, 5, 13, -23, -62, 25, 5, -66, -85, 14, 1, -2, -1, 16, 71, 33, -19, -14, 5, -43, 79], "withholdReward": false, "trial_id": "mdp_trial_33", "block": "test", "trialIndex": 40, "score": 47.9, "costs": -15.1, "simulationMode": [null, null, null, null, null], "rewards": [1, -2, -1, -14, 79], "path": ["0", "0", "23", "24", "25", "30", "33"], "rt": [31733, 194, 177, 954, 542], "actions": ["left", "left", "left", "down", "left"], "actionTimes": [33491, 34192, 34890, 36352, 37407], "queries": {"click": {"state": {"target": ["12", "13", "17", "1", "2", "6", "3", "9", "23", "24", "28", "25", "32", "33"], "time": [2825, 3509, 4500, 8432, 9398, 10234, 14736, 15565, 18773, 19500, 20176, 24560, 25669, 29219]}, "edge": {"target": [], "time": []}}, "mouseover": {"state": {"target": ["12", "13", "14", "15", "17", "15", "1", "2", "7", "6", "7", "4", "3", "8", "3", "9", "8", "10", "24", "23", "24", "28", "25", "30", "32", "33", "27"], "time": [2581, 3280, 3974, 4147, 4331, 5069, 5725, 8935, 9764, 9879, 13615, 13797, 13913, 14397, 14545, 15217, 16089, 16233, 16844, 17891, 19162, 19933, 23664, 25165, 25498, 28997, 29998]}, "edge": {"target": [], "time": []}}, "mouseout": {"state": {"target": ["22", "22", "0", "12", "13", "14", "15", "17", "15", "1", "2", "7", "6", "7", "4", "3", "8", "3", "3", "9", "9", "8", "10", "24", "23", "24", "28", "25", "30", "32", "32", "32", "33", "27", "28"], "time": [629, 881, 2412, 3229, 3864, 4068, 4230, 5049, 5087, 8864, 9723, 9781, 11180, 13647, 13814, 14280, 14497, 14753, 15135, 15675, 16037, 16192, 16274, 17426, 19119, 19798, 21048, 25130, 25297, 25848, 27319, 28913, 29236, 32764, 39248]}, "edge": {"target": [], "time": []}}}, "displayed_time": "37.92", "trialTime": 39830, "trial_type": "mouselab-mdp", "trial_index": 59, "time_elapsed": 3178104, "internal_node_id": "0.0-4.0-1.0-32.0"}}, {"uniqueid": "w52769913:a63892592", "current_trial": 60, "dateTime": 1691162524537, "trialdata": {"revealed_states": [], "clicked_states": ["12", "13", "21", "1", "2", "6", "23", "24", "28"], "num_clicks_accrued": [0, 0, 0, 0, 0, 0, 0, 0, 0, 0, 0, 0, 0], "stateRewards": ["", -1, 1, -6, -1, 80, 23, 2, -11, 73, -81, 59, 1, 3, 5, -1, -26, 28, -3, 16, -59, -13, -50, -2, -2, 2, 15, -50, 86, 17, -4, 37, 35, 44], "withholdReward": false, "trial_id": "mdp_trial_34", "block": "test", "trialIndex": 41, "score": 92.25, "costs": -6.75, "simulationMode": [null, null, null, null, null], "rewards": [-2, -2, 2, 15, 86], "path": ["0", "0", "23", "24", "25", "26", "28"], "rt": [17563, 99, 160, 718, 113], "actions": ["left", "left", "left", "up", "right"], "actionTimes": [18864, 19481, 20142, 21382, 22013], "queries": {"click": {"state": {"target": ["12", "13", "21", "1", "2", "6", "23", "24", "28"], "time": [2245, 2835, 3742, 8009, 8763, 9688, 13061, 13782, 14415]}, "edge": {"target": [], "time": []}}, "mouseover": {"state": {"target": ["0", "12", "13", "19", "21", "22", "12", "1", "2", "7", "6", "7", "23", "24", "28", "31"], "time": [1428, 1896, 2583, 3237, 3498, 7281, 7330, 7815, 8512, 9096, 9456, 10514, 11345, 13591, 14165, 15642]}, "edge": {"target": [], "time": []}}, "mouseout": {"state": {"target": ["0", "0", "12", "13", "19", "21", "21", "22", "12", "1", "2", "7", "6", "7", "2", "23", "24", "28", "24", "31"], "time": [882, 1532, 2527, 3182, 3352, 4598, 7246, 7315, 7347, 8382, 9070, 9155, 10396, 10601, 11146, 13482, 14080, 15282, 15485, 17929]}, "edge": {"target": [], "time": []}}}, "displayed_time": "22.54", "trialTime": 24242, "trial_type": "mouselab-mdp", "trial_index": 60, "time_elapsed": 3202967, "internal_node_id": "0.0-4.0-1.0-33.0"}}, {"uniqueid": "w52769913:a63892592", "current_trial": 61, "dateTime": 1691162542703, "trialdata": {"revealed_states": [], "clicked_states": ["1", "2", "7"], "num_clicks_accrued": [0, 0, 0, 0, 0, 0, 0, 0, 0, 0, 0, 0, 0], "stateRewards": ["", -2, -3, 8, 14, -73, 73, 84, -12, -2, -50, -17, 2, 1, -2, -9, -44, -27, -33, 16, -63, -47, -66, -2, 1, 4, -5, -33, -11, 50, 9, 38, -79, 31], "withholdReward": false, "trial_id": "mdp_trial_35", "block": "test", "trialIndex": 42, "score": 98.75, "costs": -2.25, "simulationMode": [null, null, null, null, null], "rewards": [-2, -3, 8, 14, 84], "path": ["0", "0", "1", "2", "3", "4", "7"], "rt": [7319, 117, 165, 36, 717], "actions": ["up", "up", "up", "right", "down"], "actionTimes": [8814, 9442, 10144, 10725, 11991], "queries": {"click": {"state": {"target": ["1", "2", "7"], "time": [2187, 2944, 3638]}, "edge": {"target": [], "time": []}}, "mouseover": {"state": {"target": ["1", "2", "7", "0", "23", "23"], "time": [2007, 2642, 3392, 5561, 5811, 7408]}, "edge": {"target": [], "time": []}}, "mouseout": {"state": {"target": ["0", "1", "2", "7", "1", "0", "23", "23"], "time": [1042, 2306, 3336, 4276, 4376, 5580, 7094, 7440]}, "edge": {"target": [], "time": []}}}, "displayed_time": "15.50", "trialTime": 17552, "trial_type": "mouselab-mdp", "trial_index": 61, "time_elapsed": 3221132, "internal_node_id": "0.0-4.0-1.0-34.0"}}, {"uniqueid": "w52769913:a63892592", "current_trial": 62, "dateTime": 1691162580969, "trialdata": {"revealed_states": [], "clicked_states": ["1", "23", "28", "2", "7", "13", "21", "12", "17", "14", "27", "24", "32"], "num_clicks_accrued": [0, 0, 0, 0, 0, 0, 0, 0, 0, 0, 0, 0, 0], "stateRewards": ["", 1, 1, 1, -3, -7, -1, -41, -10, 20, -72, -63, 1, -4, -2, 2, -66, 30, -84, -2, 49, 23, 71, -1, -4, 4, -12, 67, 5, 18, -16, 88, 56, -5], "withholdReward": false, "trial_id": "mdp_trial_36", "block": "test", "trialIndex": 43, "score": 39.85, "costs": -14.15, "simulationMode": [null, null, null, null, null], "rewards": [-1, -4, 4, -12, 67], "path": ["0", "0", "23", "24", "25", "26", "27"], "rt": [30032, 246, 43, 426, 695], "actions": ["left", "left", "left", "up", "up"], "actionTimes": [32022, 32810, 33372, 34305, 35524], "queries": {"click": {"state": {"target": ["1", "23", "28", "2", "7", "13", "21", "12", "17", "14", "27", "24", "32"], "time": [2921, 3715, 4531, 8578, 9178, 12566, 13463, 16741, 17680, 21312, 22536, 27036, 28016]}, "edge": {"target": [], "time": []}}, "mouseover": {"state": {"target": ["1", "23", "28", "7", "2", "7", "13", "12", "13", "21", "12", "17", "14", "14", "2", "10", "27", "26", "28", "24", "24", "31", "32"], "time": [2709, 3518, 4328, 8078, 8287, 8946, 9782, 10276, 12360, 13278, 14870, 17236, 18579, 18860, 21795, 22077, 22257, 23754, 24017, 24496, 26712, 27378, 27762]}, "edge": {"target": [], "time": []}}, "mouseout": {"state": {"target": ["0", "1", "23", "28", "1", "7", "2", "7", "13", "12", "13", "21", "21", "13", "12", "17", "14", "14", "2", "10", "27", "26", "28", "24", "24", "31", "32"], "time": [1093, 3344, 4149, 4960, 5525, 8222, 8843, 9685, 10196, 12295, 12907, 13484, 13927, 14313, 16947, 18364, 18639, 21330, 21838, 22128, 23567, 23977, 24042, 26293, 27362, 27396, 30927]}, "edge": {"target": [], "time": []}}}, "displayed_time": "36.05", "trialTime": 37687, "trial_type": "mouselab-mdp", "trial_index": 62, "time_elapsed": 3259399, "internal_node_id": "0.0-4.0-1.0-35.0"}}, {"uniqueid": "w52769913:a63892592", "current_trial": 63, "dateTime": 1691162599867, "trialdata": {"revealed_states": [], "clicked_states": ["1", "2", "7", "28"], "num_clicks_accrued": [0, 0, 0, 0, 0, 0, 0, 0, 0, 0, 0, 0, 0], "stateRewards": ["", 2, -4, 1, -12, -59, -53, -74, 16, -88, -66, 66, 1, -2, 8, -9, -14, 22, 25, -1, -39, 47, -14, -1, -1, -2, 1, -4, 52, -26, 15, -7, 46, 43], "withholdReward": false, "trial_id": "mdp_trial_37", "block": "test", "trialIndex": 44, "score": 44.6, "costs": -4.4, "simulationMode": [null, null, null, null, null], "rewards": [-1, -1, -2, 1, 52], "path": ["0", "0", "23", "24", "25", "26", "28"], "rt": [11547, 264, 414, 535, 112], "actions": ["left", "left", "left", "up", "right"], "actionTimes": [13306, 14087, 15021, 16077, 16709], "queries": {"click": {"state": {"target": ["1", "2", "7", "28"], "time": [2474, 3651, 4188, 8008]}, "edge": {"target": [], "time": []}}, "mouseover": {"state": {"target": ["1", "2", "7", "2", "7", "28", "10", "3"], "time": [2236, 2921, 3044, 3410, 3986, 7787, 8751, 10035]}, "edge": {"target": [], "time": []}}, "mouseout": {"state": {"target": ["0", "1", "2", "7", "2", "7", "1", "1", "28", "10", "3", "2"], "time": [1206, 2819, 2977, 3355, 3919, 4838, 4927, 5733, 8587, 9923, 12387, 18008]}, "edge": {"target": [], "time": []}}}, "displayed_time": "17.23", "trialTime": 18278, "trial_type": "mouselab-mdp", "trial_index": 63, "time_elapsed": 3278296, "internal_node_id": "0.0-4.0-1.0-36.0"}}, {"uniqueid": "w52769913:a63892592", "current_trial": 64, "dateTime": 1691162619570, "trialdata": {"revealed_states": [], "clicked_states": ["23", "31", "12", "20"], "num_clicks_accrued": [0, 0, 0, 0, 0, 0, 0, 0, 0, 0, 0, 0, 0], "stateRewards": ["", 1, -4, -6, 11, -20, 8, -30, 1, -38, 88, 42, 2, 3, 5, -12, -8, -74, 30, -8, 67, -19, 42, 2, -1, 4, 13, 50, -68, 2, -8, -15, 87, -46], "withholdReward": false, "trial_id": "mdp_trial_38", "block": "test", "trialIndex": 45, "score": 65.2, "costs": -3.8, "simulationMode": [null, null, null, null, null], "rewards": [2, 3, 5, -8, 67], "path": ["0", "0", "12", "13", "14", "19", "20"], "rt": [11978, 27, 54, 625, 304], "actions": ["right", "right", "right", "down", "right"], "actionTimes": [13174, 13723, 14292, 15438, 16252], "queries": {"click": {"state": {"target": ["23", "31", "12", "20"], "time": [2303, 3174, 7093, 8672]}, "edge": {"target": [], "time": []}}, "mouseover": {"state": {"target": ["0", "0", "23", "31", "13", "12", "13", "14", "20", "14", "13", "1", "2", "12"], "time": [1643, 1841, 2156, 2949, 6476, 6859, 7456, 7724, 8477, 9400, 9917, 10606, 10779, 12414]}, "edge": {"target": [], "time": []}}, "mouseout": {"state": {"target": ["1", "0", "0", "0", "0", "23", "31", "13", "12", "13", "14", "20", "14", "13", "1", "2", "12"], "time": [404, 473, 857, 1675, 1975, 2752, 3714, 6794, 7394, 7581, 8106, 9278, 9419, 9990, 10703, 12311, 12429]}, "edge": {"target": [], "time": []}}}, "displayed_time": "16.76", "trialTime": 19145, "trial_type": "mouselab-mdp", "trial_index": 64, "time_elapsed": 3297999, "internal_node_id": "0.0-4.0-1.0-37.0"}}, {"uniqueid": "w52769913:a63892592", "current_trial": 65, "dateTime": 1691162637501, "trialdata": {"revealed_states": [], "clicked_states": ["1", "2", "7"], "num_clicks_accrued": [0, 0, 0, 0, 0, 0, 0, 0, 0, 0, 0, 0, 0], "stateRewards": ["", 1, 3, 1, -13, 52, -28, 67, -14, 3, 63, -70, -1, -4, 7, -11, -10, 47, -18, 6, 69, -9, -61, 2, 3, -6, 10, 63, -34, 40, -6, -79, -35, -32], "withholdReward": false, "trial_id": "mdp_trial_39", "block": "test", "trialIndex": 46, "score": 56.75, "costs": -2.25, "simulationMode": [null, null, null, null, null], "rewards": [1, 3, 1, -13, 67], "path": ["0", "0", "1", "2", "3", "4", "7"], "rt": [6466, 48, 126, 15, 67], "actions": ["up", "up", "up", "right", "down"], "actionTimes": [8329, 8887, 9545, 10068, 10674], "queries": {"click": {"state": {"target": ["1", "2", "7"], "time": [2560, 3311, 3976]}, "edge": {"target": [], "time": []}}, "mouseover": {"state": {"target": ["1", "2", "7", "2", "2"], "time": [2351, 3111, 3626, 7238, 7419]}, "edge": {"target": [], "time": []}}, "mouseout": {"state": {"target": ["0", "1", "1", "2", "7", "2", "2"], "time": [1000, 1332, 2870, 3589, 4672, 7286, 7587]}, "edge": {"target": [], "time": []}}}, "displayed_time": "15.87", "trialTime": 17262, "trial_type": "mouselab-mdp", "trial_index": 65, "time_elapsed": 3315930, "internal_node_id": "0.0-4.0-1.0-38.0"}}, {"uniqueid": "w52769913:a63892592", "current_trial": 66, "dateTime": 1691162710579, "trialdata": {"revealed_states": [], "clicked_states": ["1", "23", "24", "31", "25", "5", "12", "13", "20", "21", "16", "27", "10", "2", "7", "9", "11", "30", "32", "33", "17", "6", "29"], "num_clicks_accrued": [0, 0, 0, 0, 0, 0, 0, 0, 0, 0, 0, 0, 0], "stateRewards": ["", 2, -3, -4, -1, 25, -16, 16, 10, -71, -20, -55, 1, 3, -4, -9, 1, 32, 11, -6, 32, -50, -41, -1, 4, 4, -8, 7, -81, 70, 2, -52, 45, -10], "withholdReward": false, "trial_id": "mdp_trial_40", "block": "test", "trialIndex": 47, "score": 33.95000000000001, "costs": -35.04999999999999, "simulationMode": [null, null, null, null, null], "rewards": [-1, 4, 4, -8, 70], "path": ["0", "0", "23", "24", "25", "26", "29"], "rt": [65885, 75, 150, 222, 133], "actions": ["left", "left", "left", "up", "left"], "actionTimes": [67145, 67738, 68398, 69135, 69781], "queries": {"click": {"state": {"target": ["1", "23", "24", "31", "25", "5", "12", "13", "20", "21", "16", "27", "10", "2", "7", "9", "11", "30", "32", "33", "17", "6", "29"], "time": [2808, 3642, 4334, 5046, 8862, 9808, 13102, 13764, 14855, 18748, 21987, 25812, 29801, 33242, 34341, 37768, 40934, 44109, 46776, 50516, 54157, 58224, 61581]}, "edge": {"target": [], "time": []}}, "mouseover": {"state": {"target": ["1", "23", "24", "31", "32", "32", "30", "25", "28", "10", "3", "5", "3", "12", "12", "13", "20", "21", "16", "17", "7", "2", "10", "27", "10", "2", "7", "7", "8", "9", "9", "11", "25", "30", "30", "31", "32", "33", "31", "17", "15", "16", "6", "2", "10", "26", "29", "26", "28", "28", "24", "31"], "time": [2631, 3292, 4145, 4855, 5802, 6703, 8465, 8611, 9202, 9242, 9283, 9664, 10388, 10996, 11279, 13531, 14582, 18430, 19976, 24384, 25130, 25361, 25412, 25564, 29381, 33064, 33751, 34248, 34999, 35480, 35793, 38525, 41386, 41434, 41782, 44628, 46563, 48394, 53188, 53946, 57481, 57516, 58030, 58713, 58733, 58785, 59131, 61995, 62061, 62506, 65515, 65716]}, "edge": {"target": [], "time": []}}, "mouseout": {"state": {"target": ["0", "0", "1", "23", "24", "31", "32", "32", "30", "25", "28", "10", "3", "5", "3", "12", "12", "13", "20", "21", "16", "17", "7", "2", "10", "27", "10", "10", "2", "7", "7", "8", "9", "9", "9", "11", "25", "30", "30", "30", "31", "32", "33", "31", "17", "15", "16", "6", "2", "10", "26", "29", "26", "28", "28", "24", "31"], "time": [676, 926, 3221, 4079, 4784