{"condition": 0, "counterbalance": 0, "assignmentId": "a23071343", "workerId": "w97200303", "hitId": "h52504965", "currenttrial": 55, "bonus": 0, "data": [{"uniqueid": "w97200303:a23071343", "current_trial": 0, "dateTime": 1693486867832, "trialdata": {"success": true, "trial_type": "fullscreen", "trial_index": 0, "time_elapsed": 2280, "internal_node_id": "0.0-0.0"}}, {"uniqueid": "w97200303:a23071343", "current_trial": 1, "dateTime": 1693486880251, "trialdata": {"view_history": [{"page_index": 0, "viewing_time": 12414}], "rt": 12414, "trial_id": "exp_instructions_control", "trial_type": "instructions", "trial_index": 1, "time_elapsed": 14699, "internal_node_id": "0.0-1.0"}}, {"uniqueid": "w97200303:a23071343", "current_trial": 2, "dateTime": 1693487010988, "trialdata": {"view_history": [{"page_index": 0, "viewing_time": 36781}, {"page_index": 1, "viewing_time": 50209}, {"page_index": 2, "viewing_time": 19511}, {"page_index": 3, "viewing_time": 24233}], "rt": 130734, "trial_id": "mouselab_instructions_1_control", "trial_type": "instructions", "trial_index": 2, "time_elapsed": 145436, "internal_node_id": "0.0-2.0-1.0"}}, {"uniqueid": "w97200303:a23071343", "current_trial": 3, "dateTime": 1693487047722, "trialdata": {"revealed_states": [], "clicked_states": ["1", "23", "24", "25", "26", "27", "12", "13", "14", "19", "21", "22"], "num_clicks_accrued": [0, 0, 0, 0, 0, 0, 0, 0, 0, 0, 0, 0, 0], "stateRewards": ["", -10, -10, -10, -10, 10, 10, 10, -10, -10, -10, 10, 10, 10, -10, 10, -10, -10, -10, 10, -10, -10, -10, 10, -10, 10, -10, -10, 10, 10, -10, -10, -10, 10], "withholdReward": false, "trial_id": "practice_1", "block": "test", "trialIndex": 0, "score": 7.5, "costs": -6, "simulationMode": [null, null, null, null, null], "rewards": [10, 10, -10, 10, -10], "path": ["0", "0", "12", "13", "14", "19", "21"], "rt": [20556, 1079, 769, 896, 1157], "actions": ["right", "right", "right", "down", "down"], "actionTimes": [26759, 28345, 29633, 31043, 32705], "queries": {"click": {"state": {"target": ["1", "23", "24", "25", "26", "27", "12", "13", "14", "19", "21", "22"], "time": [11000, 12113, 13269, 14306, 15387, 16563, 18169, 20057, 21289, 22649, 23767, 25414]}, "edge": {"target": [], "time": []}}, "mouseover": {"state": {"target": ["1", "23", "23", "24", "25", "26", "27", "29", "2", "7", "15", "15", "13", "12", "13", "14", "13", "14", "19", "21", "22", "12", "22", "22"], "time": [10565, 11846, 11996, 12529, 13711, 14877, 15863, 17197, 17427, 17449, 17497, 17731, 17816, 18064, 18648, 19832, 19999, 20444, 22263, 23698, 24297, 24412, 24912, 25130]}, "edge": {"target": [], "time": []}}, "mouseout": {"state": {"target": ["0", "1", "1", "23", "23", "24", "25", "26", "27", "29", "2", "7", "15", "15", "13", "12", "13", "14", "13", "14", "19", "21", "22", "12", "22"], "time": [5948, 11397, 11679, 11896, 12477, 13279, 14811, 15794, 16964, 17363, 17448, 17464, 17530, 17782, 17828, 18581, 19766, 19949, 20412, 22227, 23613, 23848, 24330, 24899, 24928]}, "edge": {"target": [], "time": []}}}, "displayed_time": "33.22", "trialTime": 36505, "trial_type": "mouselab-mdp", "trial_index": 3, "time_elapsed": 182169, "internal_node_id": "0.0-2.0-2.0-0.0"}}, {"uniqueid": "w97200303:a23071343", "current_trial": 4, "dateTime": 1693487065001, "trialdata": {"revealed_states": [], "clicked_states": ["12", "13", "14"], "num_clicks_accrued": [0, 0, 0, 0, 0, 0, 0, 0, 0, 0, 0, 0, 0], "stateRewards": ["", -10, -10, 10, -10, -10, -10, 10, 10, -10, -10, 10, 10, 10, -10, -10, -10, 10, 10, 10, -10, 10, 10, 10, 10, -10, 10, -10, -10, 10, -10, 10, 10, 10], "withholdReward": false, "trial_id": "practice_2", "block": "test", "trialIndex": 1, "score": 32, "costs": -1.5, "simulationMode": [null, null, null, null, null], "rewards": [10, 10, -10, 10, 10], "path": ["0", "0", "12", "13", "14", "19", "21"], "rt": [7907, 1406, 791, 370, 317], "actions": ["right", "right", "right", "down", "down"], "actionTimes": [9866, 11786, 13089, 13967, 14798], "queries": {"click": {"state": {"target": ["12", "13", "14"], "time": [2647, 4746, 6826]}, "edge": {"target": [], "time": []}}, "mouseover": {"state": {"target": ["12", "13", "14", "19"], "time": [2533, 3963, 6147, 9328]}, "edge": {"target": [], "time": []}}, "mouseout": {"state": {"target": ["22", "0", "12", "13", "14", "19", "14"], "time": [1280, 1561, 3911, 5745, 9262, 9494, 16183]}, "edge": {"target": [], "time": []}}}, "displayed_time": "15.30", "trialTime": 17198, "trial_type": "mouselab-mdp", "trial_index": 4, "time_elapsed": 199448, "internal_node_id": "0.0-2.0-2.0-1.0"}}, {"uniqueid": "w97200303:a23071343", "current_trial": 5, "dateTime": 1693487089682, "trialdata": {"view_history": [{"page_index": 0, "viewing_time": 19910}, {"page_index": 1, "viewing_time": 4768}], "rt": 24679, "trial_id": "mouselab_instructions_2_control", "trial_type": "instructions", "trial_index": 5, "time_elapsed": 224130, "internal_node_id": "0.0-2.0-3.0"}}, {"uniqueid": "w97200303:a23071343", "current_trial": 6, "dateTime": 1693487117122, "trialdata": {"rt": 27433, "response": {"Q0": "The cost for clicking on nodes may vary between nodes.", "Q1": "The better I perform the higher my bonus will be.", "Q2": "No, the amount of cash at each node of the web may be different each time.", "Q3": "To get the highest total score.", "Q4": "Only before moving the spider.", "Q5": "3 seconds"}, "question_order": [0, 1, 2, 3, 4, 5], "correct": {"Q0": "The cost for clicking on nodes may vary between nodes.", "Q1": "The better I perform the higher my bonus will be.", "Q2": "No, the amount of cash at each node of the web may be different each time.", "Q3": "To get the highest total score.", "Q4": "Only before moving the spider.", "Q5": "3 seconds"}, "trial_id": "mouselab_quiz_control", "trial_type": "survey-multi-choice", "trial_index": 6, "time_elapsed": 251570, "internal_node_id": "0.0-2.0-4.0"}}, {"uniqueid": "w97200303:a23071343", "current_trial": 7, "dateTime": 1693487121494, "trialdata": {"rt": 4364, "response": {"Q0": "No"}, "question_order": [0], "trial_id": "repeat_check", "trial_type": "survey-multi-choice", "trial_index": 7, "time_elapsed": 255942, "internal_node_id": "0.0-4.0-0.0"}}, {"uniqueid": "w97200303:a23071343", "current_trial": 8, "dateTime": 1693487127336, "trialdata": {"rt": 5835, "stimulus": "\n<h1> Get ready to start the game! </h1>\n\nThank you for reading the instructions. Get ready start with the 40 rounds of this game.\n<br><br>\nIf you need to take a break, feel free to take one after the end of a round, before continuing to the next one.\n<br><br>\nRemember, the more money the spider gets, the bigger your bonus will be!\n<br><br>\n<div style='text-align: center;'>Press <code>space</code> to begin.</div>\n\n<br><br>\n(If, at any point, the <code>space</code> key does not take you to the next page, click once on the text and try again.)", "response": " ", "trial_id": "mdp_ready", "trial_type": "html-keyboard-response", "trial_index": 8, "time_elapsed": 261784, "internal_node_id": "0.0-6.0-0.0"}}, {"uniqueid": "w97200303:a23071343", "current_trial": 9, "dateTime": 1693487146151, "trialdata": {"revealed_states": [], "clicked_states": ["1", "2", "3"], "num_clicks_accrued": [0, 0, 0, 0, 0, 0, 0, 0, 0, 0, 0, 0, 0], "stateRewards": ["", -1, -3, 1, 13, -64, -29, 12, -4, -33, 50, 56, 2, -3, 4, 11, -64, -58, -55, 12, 47, 38, -25, -2, 2, 5, -15, 85, 7, 84, 10, 8, 57, 26], "withholdReward": false, "trial_id": "mdp_trial_1", "block": "test", "trialIndex": 2, "score": 38.8, "costs": -4.199999999999999, "simulationMode": [null, null, null, null, null], "rewards": [-1, -3, 1, -4, 50], "path": ["0", "0", "1", "2", "3", "8", "10"], "rt": [8756, 800, 381, 784, 1749], "actions": ["up", "up", "up", "left", "down"], "actionTimes": [10877, 12185, 13083, 14385, 16650], "queries": {"click": {"state": {"target": ["1", "2", "3"], "time": [3259, 5270, 7951]}, "edge": {"target": [], "time": []}}, "mouseover": {"state": {"target": ["1", "2", "3", "3", "7"], "time": [2668, 3749, 5932, 7387, 8947]}, "edge": {"target": [], "time": []}}, "mouseout": {"state": {"target": ["1", "0", "0", "1", "2", "3", "3", "7"], "time": [1317, 1601, 1902, 3700, 5897, 5965, 8647, 8997]}, "edge": {"target": [], "time": []}}}, "displayed_time": "17.17", "trialTime": 18720, "trial_type": "mouselab-mdp", "trial_index": 9, "time_elapsed": 280598, "internal_node_id": "0.0-6.0-1.0-0.0"}}, {"uniqueid": "w97200303:a23071343", "current_trial": 10, "dateTime": 1693487163816, "trialdata": {"revealed_states": [], "clicked_states": [], "num_clicks_accrued": [0, 0, 0, 0, 0, 0, 0, 0, 0, 0, 0, 0, 0], "stateRewards": ["", -1, -3, -7, -7, -76, 30, -49, 11, -70, 56, 2, 1, 4, -3, -14, -59, -83, -25, -9, -21, -67, -73, -2, 4, 4, -9, -11, -32, 60, 9, -87, 22, -64], "withholdReward": false, "trial_id": "mdp_trial_2", "block": "test", "trialIndex": 3, "score": -74, "costs": 0, "simulationMode": [null, null, null, null, null], "rewards": [1, 4, -3, -9, -67], "path": ["0", "0", "12", "13", "14", "19", "21"], "rt": [2313, 788, 468, 772, 681], "actions": ["right", "right", "right", "down", "down"], "actionTimes": [3831, 5140, 6120, 7406, 8602], "queries": {"click": {"state": {"target": [], "time": []}, "edge": {"target": [], "time": []}}, "mouseover": {"state": {"target": ["1", "12"], "time": [1934, 2135]}, "edge": {"target": [], "time": []}}, "mouseout": {"state": {"target": ["0", "1"], "time": [1883, 1969]}, "edge": {"target": [], "time": []}}}, "displayed_time": "15.52", "trialTime": 17587, "trial_type": "mouselab-mdp", "trial_index": 10, "time_elapsed": 298263, "internal_node_id": "0.0-6.0-1.0-1.0"}}, {"uniqueid": "w97200303:a23071343", "current_trial": 11, "dateTime": 1693487181868, "trialdata": {"revealed_states": [], "clicked_states": ["1", "2", "3"], "num_clicks_accrued": [0, 0, 0, 0, 0, 0, 0, 0, 0, 0, 0, 0, 0], "stateRewards": ["", -2, -3, -5, 8, 27, 11, 43, -6, -24, -87, 69, -2, 1, 1, 9, 19, 48, -37, 9, -14, 45, 62, 1, 2, 1, 16, -81, -41, 22, 4, -6, -63, 47], "withholdReward": false, "trial_id": "mdp_trial_3", "block": "test", "trialIndex": 4, "score": 36.8, "costs": -4.199999999999999, "simulationMode": [null, null, null, null, null], "rewards": [-2, -3, -5, 8, 43], "path": ["0", "0", "1", "2", "3", "4", "7"], "rt": [7726, 322, 278, 254, 325], "actions": ["up", "up", "up", "right", "down"], "actionTimes": [9252, 10082, 10871, 11643, 12484], "queries": {"click": {"state": {"target": ["1", "2", "3"], "time": [2195, 4284, 7471]}, "edge": {"target": [], "time": []}}, "mouseover": {"state": {"target": ["1", "2", "3", "2", "3"], "time": [1860, 2638, 3623, 4175, 4622]}, "edge": {"target": [], "time": []}}, "mouseout": {"state": {"target": ["12", "0", "1", "2", "3", "2"], "time": [673, 894, 2303, 3588, 4128, 4392]}, "edge": {"target": [], "time": []}}}, "displayed_time": "15.53", "trialTime": 17963, "trial_type": "mouselab-mdp", "trial_index": 11, "time_elapsed": 316315, "internal_node_id": "0.0-6.0-1.0-2.0"}}, {"uniqueid": "w97200303:a23071343", "current_trial": 12, "dateTime": 1693487199184, "trialdata": {"revealed_states": [], "clicked_states": ["24", "32", "26"], "num_clicks_accrued": [0, 0, 0, 0, 0, 0, 0, 0, 0, 0, 0, 0, 0], "stateRewards": ["", -1, 1, -5, -6, -78, 47, -13, 12, 48, -88, 20, 2, -3, -2, 13, -20, 37, -57, 14, -38, 30, 31, -2, -2, 8, 2, -23, 78, 28, 12, -74, -88, 8], "withholdReward": false, "trial_id": "mdp_trial_4", "block": "test", "trialIndex": 5, "score": -21.2, "costs": -4.199999999999999, "simulationMode": [null, null, null, null, null], "rewards": [-2, -2, 8, 2, -23], "path": ["0", "0", "23", "24", "25", "26", "27"], "rt": [8649, 341, 387, 637, 671], "actions": ["left", "left", "left", "up", "up"], "actionTimes": [10457, 11317, 12212, 13361, 14546], "queries": {"click": {"state": {"target": ["24", "32", "26"], "time": [3116, 5130, 7563]}, "edge": {"target": [], "time": []}}, "mouseover": {"state": {"target": ["23", "24", "25", "32", "31", "28", "27", "26", "28"], "time": [2811, 2961, 3774, 4588, 5574, 6625, 7094, 7458, 8156]}, "edge": {"target": [], "time": []}}, "mouseout": {"state": {"target": ["3", "2", "23", "24", "25", "32", "31", "28", "27", "26", "28"], "time": [941, 992, 2893, 3123, 3855, 5222, 5608, 6689, 7176, 8141, 8175]}, "edge": {"target": [], "time": []}}}, "displayed_time": "15.82", "trialTime": 17229, "trial_type": "mouselab-mdp", "trial_index": 12, "time_elapsed": 333632, "internal_node_id": "0.0-6.0-1.0-3.0"}}, {"uniqueid": "w97200303:a23071343", "current_trial": 13, "dateTime": 1693487217585, "trialdata": {"revealed_states": [], "clicked_states": ["1", "23", "2", "24"], "num_clicks_accrued": [0, 0, 0, 0, 0, 0, 0, 0, 0, 0, 0, 0, 0], "stateRewards": ["", 1, -2, -8, -3, 31, -84, -55, -14, 15, -58, 17, -2, -3, 7, 7, -12, 48, 67, 4, -44, -68, 46, 2, 3, -5, -7, 76, 27, 5, 11, 57, 52, 59], "withholdReward": false, "trial_id": "mdp_trial_5", "block": "test", "trialIndex": 6, "score": 57.4, "costs": -5.6, "simulationMode": [null, null, null, null, null], "rewards": [2, 3, -5, 11, 52], "path": ["0", "0", "23", "24", "25", "30", "32"], "rt": [10443, 231, 536, 749, 890], "actions": ["left", "left", "left", "down", "down"], "actionTimes": [12239, 12986, 14039, 15304, 16712], "queries": {"click": {"state": {"target": ["1", "23", "2", "24"], "time": [3301, 5481, 7766, 10281]}, "edge": {"target": [], "time": []}}, "mouseover": {"state": {"target": ["1", "2", "1", "12", "12", "0", "23", "2", "2", "3", "10", "24"], "time": [2475, 3019, 3256, 3788, 4051, 4771, 4854, 6538, 7358, 8554, 9806, 9924]}, "edge": {"target": [], "time": []}}, "mouseout": {"state": {"target": ["0", "1", "2", "1", "12", "12", "0", "23", "1", "2", "2", "3", "10", "24"], "time": [2388, 2959, 3191, 3305, 3804, 4737, 4806, 5921, 6088, 7107, 8204, 9756, 9819, 10904]}, "edge": {"target": [], "time": []}}}, "displayed_time": "17.22", "trialTime": 18309, "trial_type": "mouselab-mdp", "trial_index": 13, "time_elapsed": 352032, "internal_node_id": "0.0-6.0-1.0-4.0"}}, {"uniqueid": "w97200303:a23071343", "current_trial": 14, "dateTime": 1693487234504, "trialdata": {"revealed_states": [], "clicked_states": ["12", "23", "1"], "num_clicks_accrued": [0, 0, 0, 0, 0, 0, 0, 0, 0, 0, 0, 0, 0], "stateRewards": ["", 2, -1, 1, 10, -52, 86, -22, -2, -14, -63, 38, 1, 3, 7, -8, 11, -32, -27, 9, -71, 40, -87, -2, -1, 5, -7, 12, 31, -57, 13, 86, -58, 29], "withholdReward": false, "trial_id": "mdp_trial_6", "block": "test", "trialIndex": 7, "score": -18.2, "costs": -4.199999999999999, "simulationMode": [null, null, null, null, null], "rewards": [2, -1, 1, -2, -14], "path": ["0", "0", "1", "2", "3", "8", "9"], "rt": [8455, 536, 928, 789, 847], "actions": ["up", "up", "up", "left", "up"], "actionTimes": [10054, 11108, 12549, 13844, 15203], "queries": {"click": {"state": {"target": ["12", "23", "1"], "time": [3786, 5719, 7683]}, "edge": {"target": [], "time": []}}, "mouseover": {"state": {"target": ["1", "12", "13", "12", "0", "23", "23", "1"], "time": [2213, 2937, 3389, 3672, 4253, 4304, 4703, 6685]}, "edge": {"target": [], "time": []}}, "mouseout": {"state": {"target": ["0", "1", "12", "13", "12", "0", "23", "23", "1"], "time": [1438, 2742, 3357, 3624, 4237, 4286, 4368, 6321, 8088]}, "edge": {"target": [], "time": []}}}, "displayed_time": "15.72", "trialTime": 16828, "trial_type": "mouselab-mdp", "trial_index": 14, "time_elapsed": 368951, "internal_node_id": "0.0-6.0-1.0-5.0"}}, {"uniqueid": "w97200303:a23071343", "current_trial": 15, "dateTime": 1693487250801, "trialdata": {"revealed_states": [], "clicked_states": ["1", "3", "6"], "num_clicks_accrued": [0, 0, 0, 0, 0, 0, 0, 0, 0, 0, 0, 0, 0], "stateRewards": ["", 1, -2, -8, -13, 4, 34, -84, -4, -49, 88, -70, -1, 3, -4, 10, -77, 13, -34, 15, -21, -16, 27, 1, -2, 8, -8, -6, 38, -26, 6, -15, 66, -3], "withholdReward": false, "trial_id": "mdp_trial_7", "block": "test", "trialIndex": 8, "score": 7.800000000000001, "costs": -4.199999999999999, "simulationMode": [null, null, null, null, null], "rewards": [1, -2, -8, -13, 34], "path": ["0", "0", "1", "2", "3", "4", "6"], "rt": [8082, 274, 289, 266, 111], "actions": ["up", "up", "up", "right", "right"], "actionTimes": [8972, 9767, 10566, 11342, 11971], "queries": {"click": {"state": {"target": ["1", "3", "6"], "time": [1471, 4376, 7011]}, "edge": {"target": [], "time": []}}, "mouseover": {"state": {"target": ["1", "23", "12", "2", "3", "2", "4", "6", "6", "7", "2"], "time": [1295, 1877, 2825, 3596, 4329, 4858, 5056, 5143, 5576, 7459, 7560]}, "edge": {"target": [], "time": []}}, "mouseout": {"state": {"target": ["0", "1", "23", "12", "2", "3", "2", "4", "6", "6", "7", "2", "1", "23"], "time": [1229, 1793, 2360, 3395, 4130, 4790, 5043, 5109, 5157, 7409, 7492, 15657, 15763, 15877]}, "edge": {"target": [], "time": []}}}, "displayed_time": "14.90", "trialTime": 16215, "trial_type": "mouselab-mdp", "trial_index": 15, "time_elapsed": 385248, "internal_node_id": "0.0-6.0-1.0-6.0"}}, {"uniqueid": "w97200303:a23071343", "current_trial": 16, "dateTime": 1693487275717, "trialdata": {"revealed_states": [], "clicked_states": ["27", "6"], "num_clicks_accrued": [0, 0, 0, 0, 0, 0, 0, 0, 0, 0, 0, 0, 0], "stateRewards": ["", 1, 1, -6, -2, 7, 77, 3, 16, -16, 66, 31, -1, 3, -8, -6, 33, -50, -48, 7, -60, -66, 36, 2, -3, 3, -7, -12, -61, -79, -4, 8, 74, -70], "withholdReward": false, "trial_id": "mdp_trial_8", "block": "test", "trialIndex": 9, "score": 68.2, "costs": -2.8, "simulationMode": [null, null, null, null, null], "rewards": [1, 1, -6, -2, 77], "path": ["0", "0", "1", "2", "3", "4", "6"], "rt": [6049, 157, 307, 138, 200], "actions": ["up", "up", "up", "right", "right"], "actionTimes": [8036, 8710, 9529, 10176, 10888], "queries": {"click": {"state": {"target": ["27", "6"], "time": [3101, 5256]}, "edge": {"target": [], "time": []}}, "mouseover": {"state": {"target": ["0", "23", "24", "27", "3", "4", "6", "16", "17", "15", "7", "18", "13"], "time": [2373, 2401, 2689, 2923, 3534, 3570, 4021, 5734, 6570, 6587, 6669, 7005, 7290]}, "edge": {"target": [], "time": []}}, "mouseout": {"state": {"target": ["0", "0", "23", "24", "27", "3", "4", "6", "16", "17", "15", "7", "18", "13", "6", "16", "13"], "time": [1773, 2385, 2438, 2756, 3487, 3553, 3586, 5687, 5770, 6586, 6602, 6973, 7020, 7321, 11906, 24404, 24473]}, "edge": {"target": [], "time": []}}}, "displayed_time": "16.00", "trialTime": 24826, "trial_type": "mouselab-mdp", "trial_index": 16, "time_elapsed": 410165, "internal_node_id": "0.0-6.0-1.0-7.0"}}, {"uniqueid": "w97200303:a23071343", "current_trial": 17, "dateTime": 1693487292527, "trialdata": {"revealed_states": [], "clicked_states": ["6"], "num_clicks_accrued": [0, 0, 0, 0, 0, 0, 0, 0, 0, 0, 0, 0, 0], "stateRewards": ["", -1, -1, 4, -16, -75, 81, -51, -7, -84, 73, -30, -2, 1, -3, -16, -77, 33, 14, 1, 45, 87, -66, 2, 2, -5, -7, -19, -17, 79, -3, 8, 49, 47], "withholdReward": false, "trial_id": "mdp_trial_9", "block": "test", "trialIndex": 10, "score": 65.6, "costs": -1.4, "simulationMode": [null, null, null, null, null], "rewards": [-1, -1, 4, -16, 81], "path": ["0", "0", "1", "2", "3", "4", "6"], "rt": [3681, 394, 346, 254, 486], "actions": ["up", "up", "up", "right", "right"], "actionTimes": [5252, 6157, 7023, 7798, 8797], "queries": {"click": {"state": {"target": ["6"], "time": [2391]}, "edge": {"target": [], "time": []}}, "mouseover": {"state": {"target": ["1", "4", "6", "4", "3", "8", "11", "8", "3", "4"], "time": [1846, 2010, 2342, 2858, 2910, 3174, 3374, 4392, 4441, 4491]}, "edge": {"target": [], "time": []}}, "mouseout": {"state": {"target": ["0", "1", "4", "6", "4", "3", "8", "11", "8", "3", "4"], "time": [1446, 1859, 2112, 2827, 2876, 3143, 3243, 4380, 4428, 4477, 10346]}, "edge": {"target": [], "time": []}}}, "displayed_time": "15.58", "trialTime": 16709, "trial_type": "mouselab-mdp", "trial_index": 17, "time_elapsed": 426974, "internal_node_id": "0.0-6.0-1.0-8.0"}}, {"uniqueid": "w97200303:a23071343", "current_trial": 18, "dateTime": 1693487315982, "trialdata": {"revealed_states": [], "clicked_states": ["6", "11", "29", "32", "21", "17", "20"], "num_clicks_accrued": [0, 0, 0, 0, 0, 0, 0, 0, 0, 0, 0, 0, 0], "stateRewards": ["", -2, -3, 1, -7, 39, -67, 16, 5, -20, 73, 66, -1, 4, 5, -3, 23, -68, -87, -8, 3, -3, 17, 1, -4, -2, -13, -32, 34, 61, -5, -11, -18, 12], "withholdReward": false, "trial_id": "mdp_trial_10", "block": "test", "trialIndex": 11, "score": 33.2, "costs": -9.8, "simulationMode": [null, null, null, null, null], "rewards": [1, -4, -2, -13, 61], "path": ["0", "0", "23", "24", "25", "26", "29"], "rt": [17810, 48, 53, 239, 322], "actions": ["left", "left", "left", "up", "left"], "actionTimes": [19038, 19600, 20185, 20941, 21775], "queries": {"click": {"state": {"target": ["6", "11", "29", "32", "21", "17", "20"], "time": [1844, 3736, 6122, 8045, 10468, 12646, 14562]}, "edge": {"target": [], "time": []}}, "mouseover": {"state": {"target": ["7", "6", "3", "8", "11", "26", "29", "27", "26", "25", "30", "32", "21", "21", "20", "17", "20", "22", "1", "28", "26", "29"], "time": [1470, 1703, 2414, 2436, 2464, 5837, 6020, 6616, 6901, 6950, 7000, 7381, 9970, 10387, 12287, 12471, 13033, 16485, 16818, 16882, 16952, 17268]}, "edge": {"target": [], "time": []}}, "mouseout": {"state": {"target": ["7", "0", "7", "6", "6", "3", "8", "11", "26", "29", "27", "26", "25", "30", "32", "21", "21", "20", "17", "20", "22", "1", "28", "26", "29"], "time": [754, 1375, 1519, 1918, 2383, 2435, 2450, 4200, 5868, 6581, 6900, 6931, 6967, 7234, 8467, 10000, 11316, 12353, 12966, 14900, 16500, 16852, 16917, 17219, 18503]}, "edge": {"target": [], "time": []}}}, "displayed_time": "22.29", "trialTime": 23355, "trial_type": "mouselab-mdp", "trial_index": 18, "time_elapsed": 450430, "internal_node_id": "0.0-6.0-1.0-9.0"}}, {"uniqueid": "w97200303:a23071343", "current_trial": 19, "dateTime": 1693487332396, "trialdata": {"revealed_states": [], "clicked_states": ["9", "6", "17"], "num_clicks_accrued": [0, 0, 0, 0, 0, 0, 0, 0, 0, 0, 0, 0, 0], "stateRewards": ["", 1, 2, -5, 14, 54, -14, -25, 16, -5, -87, 78, -1, 1, 3, -3, 52, 53, 53, -10, 73, -69, -48, 2, 3, 1, 8, -62, -7, 85, 7, 82, 52, -28], "withholdReward": false, "trial_id": "mdp_trial_11", "block": "test", "trialIndex": 12, "score": 48.8, "costs": -4.199999999999999, "simulationMode": [null, null, null, null, null], "rewards": [-1, 1, 3, -3, 53], "path": ["0", "0", "12", "13", "14", "15", "17"], "rt": [7812, 110, 94, 129, 84], "actions": ["right", "right", "right", "up", "right"], "actionTimes": [9308, 9931, 10530, 11180, 11785], "queries": {"click": {"state": {"target": ["9", "6", "17"], "time": [2247, 4085, 6411]}, "edge": {"target": [], "time": []}}, "mouseover": {"state": {"target": ["1", "9", "6", "15", "17", "20", "14"], "time": [1787, 2136, 2747, 6018, 6304, 7732, 8485]}, "edge": {"target": [], "time": []}}, "mouseout": {"state": {"target": ["25", "0", "1", "9", "6", "15", "17", "20", "14", "17"], "time": [420, 1352, 1800, 2650, 4498, 6101, 6814, 8437, 8519, 12619]}, "edge": {"target": [], "time": []}}}, "displayed_time": "15.51", "trialTime": 16318, "trial_type": "mouselab-mdp", "trial_index": 19, "time_elapsed": 466844, "internal_node_id": "0.0-6.0-1.0-10.0"}}, {"uniqueid": "w97200303:a23071343", "current_trial": 20, "dateTime": 1693487354587, "trialdata": {"revealed_states": [], "clicked_states": ["17", "21", "32", "29", "11", "9", "5"], "num_clicks_accrued": [0, 0, 0, 0, 0, 0, 0, 0, 0, 0, 0, 0, 0], "stateRewards": ["", 1, 2, 3, 16, 63, -25, 16, -4, -14, 82, -66, -1, -3, -3, -11, -14, 19, 46, 3, -34, -82, 66, -2, -3, 4, -5, -63, 77, -37, -1, -45, -41, 84], "withholdReward": false, "trial_id": "mdp_trial_12", "block": "test", "trialIndex": 13, "score": 75.2, "costs": -9.8, "simulationMode": [null, null, null, null, null], "rewards": [1, 2, 3, 16, 63], "path": ["0", "0", "1", "2", "3", "4", "5"], "rt": [16210, 424, 1, 44, 96], "actions": ["up", "up", "up", "right", "up"], "actionTimes": [17570, 18510, 19017, 19597, 20213], "queries": {"click": {"state": {"target": ["17", "21", "32", "29", "11", "9", "5"], "time": [2024, 3922, 6348, 8534, 10965, 12884, 15070]}, "edge": {"target": [], "time": []}}, "mouseover": {"state": {"target": ["18", "15", "17", "21", "20", "14", "13", "12", "0", "31", "30", "32", "30", "29", "26", "11", "9", "11", "8", "9", "9", "9", "5", "6"], "time": [1667, 1684, 1735, 2650, 4385, 4752, 5200, 5234, 5824, 5903, 5934, 6252, 7098, 8369, 10503, 10568, 10636, 10851, 11416, 11833, 12033, 12417, 14918, 17018]}, "edge": {"target": [], "time": []}}, "mouseout": {"state": {"target": ["22", "18", "15", "17", "21", "20", "14", "13", "12", "0", "31", "30", "32", "30", "29", "26", "11", "9", "11", "8", "9", "9", "9", "5", "6", "6"], "time": [354, 1682, 1698, 2383, 3989, 4684, 5185, 5217, 5248, 5851, 5915, 5968, 7050, 7417, 9583, 10516, 10582, 10801, 11398, 11814, 11850, 12217, 13267, 15077, 17069, 21636]}, "edge": {"target": [], "time": []}}}, "displayed_time": "20.73", "trialTime": 22093, "trial_type": "mouselab-mdp", "trial_index": 20, "time_elapsed": 489034, "internal_node_id": "0.0-6.0-1.0-11.0"}}, {"uniqueid": "w97200303:a23071343", "current_trial": 21, "dateTime": 1693487378671, "trialdata": {"revealed_states": [], "clicked_states": ["5", "16", "17", "20"], "num_clicks_accrued": [0, 0, 0, 0, 0, 0, 0, 0, 0, 0, 0, 0, 0], "stateRewards": ["", 1, -3, -1, 9, -34, -40, 22, -7, 45, 53, -11, 2, 4, 5, 15, 21, 37, -49, -3, 80, -28, -34, 1, -3, 1, 1, -40, -6, -5, -16, -85, -86, 59], "withholdReward": false, "trial_id": "mdp_trial_13", "block": "test", "trialIndex": 14, "score": 82.4, "costs": -5.6, "simulationMode": [null, null, null, null, null], "rewards": [2, 4, 5, -3, 80], "path": ["0", "0", "12", "13", "14", "19", "20"], "rt": [9207, 1, 90, 76, 165], "actions": ["right", "right", "right", "down", "right"], "actionTimes": [10793, 11317, 11923, 12509, 13180], "queries": {"click": {"state": {"target": ["5", "16", "17", "20"], "time": [2277, 4215, 6194, 8216]}, "edge": {"target": [], "time": []}}, "mouseover": {"state": {"target": ["1", "5", "14", "15", "16", "17", "17", "20", "20", "21"], "time": [1901, 2033, 2981, 3013, 3497, 4662, 5048, 6632, 6898, 9215]}, "edge": {"target": [], "time": []}}, "mouseout": {"state": {"target": ["0", "1", "1", "5", "14", "15", "16", "17", "17", "17", "20", "20", "21", "20", "20", "19"], "time": [1114, 1382, 1931, 2682, 2997, 3031, 4630, 4681, 6267, 6562, 6665, 8714, 10233, 10284, 23569, 23666]}, "edge": {"target": [], "time": []}}}, "displayed_time": "15.60", "trialTime": 23991, "trial_type": "mouselab-mdp", "trial_index": 21, "time_elapsed": 513118, "internal_node_id": "0.0-6.0-1.0-12.0"}}, {"uniqueid": "w97200303:a23071343", "current_trial": 22, "dateTime": 1693487396798, "trialdata": {"revealed_states": [], "clicked_states": ["32"], "num_clicks_accrued": [0, 0, 0, 0, 0, 0, 0, 0, 0, 0, 0, 0, 0], "stateRewards": ["", -2, 3, -1, -9, 44, 48, -37, -3, 71, -39, 87, -1, 3, -4, 4, -21, 59, -15, -8, -1, 28, -38, 2, 4, 4, 8, -85, -72, -63, 14, 58, 63, -46], "withholdReward": false, "trial_id": "mdp_trial_14", "block": "test", "trialIndex": 15, "score": 85.6, "costs": -1.4, "simulationMode": [null, null, null, null, null], "rewards": [2, 4, 4, 14, 63], "path": ["0", "0", "23", "24", "25", "30", "32"], "rt": [3555, 513, 260, 202, 193], "actions": ["left", "left", "left", "down", "down"], "actionTimes": [4820, 5852, 6631, 7340, 8048], "queries": {"click": {"state": {"target": ["32"], "time": [2161]}, "edge": {"target": [], "time": []}}, "mouseover": {"state": {"target": ["31", "32", "31", "31", "24", "31", "31", "31"], "time": [1772, 2074, 2553, 2936, 3104, 3334, 3634, 4421]}, "edge": {"target": [], "time": []}}, "mouseout": {"state": {"target": ["19", "23", "23", "0", "31", "32", "31", "31", "24", "31", "31", "31"], "time": [689, 822, 972, 1571, 1786, 2486, 2686, 3036, 3303, 3453, 4271, 4455]}, "edge": {"target": [], "time": []}}}, "displayed_time": "15.28", "trialTime": 18023, "trial_type": "mouselab-mdp", "trial_index": 22, "time_elapsed": 531245, "internal_node_id": "0.0-6.0-1.0-13.0"}}, {"uniqueid": "w97200303:a23071343", "current_trial": 23, "dateTime": 1693487414427, "trialdata": {"revealed_states": [], "clicked_states": ["32", "29"], "num_clicks_accrued": [0, 0, 0, 0, 0, 0, 0, 0, 0, 0, 0, 0, 0], "stateRewards": ["", -1, 4, -5, 9, 29, -75, -42, -16, 24, -28, -41, 2, -3, 1, 10, 60, 47, 55, -1, -53, 22, -40, 2, -3, -6, 4, -26, 44, 54, 15, -76, 42, 14], "withholdReward": false, "trial_id": "mdp_trial_15", "block": "test", "trialIndex": 16, "score": 48.2, "costs": -2.8, "simulationMode": [null, null, null, null, null], "rewards": [2, -3, -6, 4, 54], "path": ["0", "0", "23", "24", "25", "26", "29"], "rt": [5472, 316, 210, 121, 148], "actions": ["left", "left", "left", "up", "left"], "actionTimes": [6685, 7526, 8252, 8881, 9539], "queries": {"click": {"state": {"target": ["32", "29"], "time": [2190, 4157]}, "edge": {"target": [], "time": []}}, "mouseover": {"state": {"target": ["0", "31", "32", "29", "26", "28"], "time": [1643, 1759, 2078, 2592, 4592, 4625]}, "edge": {"target": [], "time": []}}, "mouseout": {"state": {"target": ["1", "0", "31", "32", "29", "26", "28"], "time": [895, 1657, 1878, 2490, 4577, 4609, 4642]}, "edge": {"target": [], "time": []}}}, "displayed_time": "15.23", "trialTime": 17525, "trial_type": "mouselab-mdp", "trial_index": 23, "time_elapsed": 548874, "internal_node_id": "0.0-6.0-1.0-14.0"}}, {"uniqueid": "w97200303:a23071343", "current_trial": 24, "dateTime": 1693487430654, "trialdata": {"revealed_states": [], "clicked_states": ["9", "27", "29", "33"], "num_clicks_accrued": [0, 0, 0, 0, 0, 0, 0, 0, 0, 0, 0, 0, 0], "stateRewards": ["", 2, -3, 5, -14, -63, -9, -24, -11, -54, -43, 68, 2, -2, -4, 7, -64, 30, 47, 12, -74, 11, 86, 1, -3, 3, 10, -71, -42, -52, -1, -29, -16, 69], "withholdReward": false, "trial_id": "mdp_trial_16", "block": "test", "trialIndex": 17, "score": 63.4, "costs": -5.6, "simulationMode": [null, null, null, null, null], "rewards": [1, -3, 3, -1, 69], "path": ["0", "0", "23", "24", "25", "30", "33"], "rt": [9078, 36, 82, 62, 119], "actions": ["left", "left", "left", "down", "left"], "actionTimes": [10336, 10899, 11512, 12090, 12716], "queries": {"click": {"state": {"target": ["9", "27", "29", "33"], "time": [1956, 3805, 5784, 7641]}, "edge": {"target": [], "time": []}}, "mouseover": {"state": {"target": ["10", "8", "9", "11", "26", "27", "27", "29", "33", "33", "32"], "time": [1566, 1596, 1815, 2463, 2544, 2895, 3096, 4747, 6329, 6763, 8347]}, "edge": {"target": [], "time": []}}, "mouseout": {"state": {"target": ["10", "8", "9", "9", "11", "26", "27", "27", "27", "29", "33", "33", "32", "30"], "time": [1579, 1698, 2032, 2444, 2496, 2596, 2943, 3915, 4246, 6297, 6363, 7963, 9716, 13766]}, "edge": {"target": [], "time": []}}}, "displayed_time": "15.27", "trialTime": 16122, "trial_type": "mouselab-mdp", "trial_index": 24, "time_elapsed": 565101, "internal_node_id": "0.0-6.0-1.0-15.0"}}, {"uniqueid": "w97200303:a23071343", "current_trial": 25, "dateTime": 1693487449933, "trialdata": {"revealed_states": [], "clicked_states": ["17", "21", "32", "27", "9"], "num_clicks_accrued": [0, 0, 0, 0, 0, 0, 0, 0, 0, 0, 0, 0, 0], "stateRewards": ["", -1, 2, -7, -12, -62, 12, -13, 5, 77, -71, 83, 1, -4, 7, 15, -42, -87, -4, 5, -25, 44, 88, -1, 4, -5, -8, 14, 51, 8, -5, 83, -24, -19], "withholdReward": false, "trial_id": "mdp_trial_17", "block": "test", "trialIndex": 18, "score": 69, "costs": -7, "simulationMode": [null, null, null, null, null], "rewards": [-1, 2, -7, 5, 77], "path": ["0", "0", "1", "2", "3", "8", "9"], "rt": [13144, 467, 94, 17, 173], "actions": ["up", "up", "up", "left", "up"], "actionTimes": [14456, 15442, 16052, 16577, 17283], "queries": {"click": {"state": {"target": ["17", "21", "32", "27", "9"], "time": [2380, 4751, 7347, 9257, 11728]}, "edge": {"target": [], "time": []}}, "mouseover": {"state": {"target": ["12", "15", "17", "16", "16", "15", "14", "21", "32", "30", "25", "26", "27", "11", "9", "5", "8"], "time": [1924, 1993, 2363, 2857, 3276, 4111, 4347, 4611, 7263, 7710, 7728, 7743, 8142, 11314, 11677, 12193, 13913]}, "edge": {"target": [], "time": []}}, "mouseout": {"state": {"target": ["0", "12", "15", "17", "16", "16", "15", "14", "21", "32", "30", "25", "26", "27", "11", "9", "5", "8", "2"], "time": [1914, 1961, 2008, 2394, 2876, 4079, 4161, 4358, 6646, 7355, 7726, 7742, 7760, 9338, 11324, 11734, 13777, 18528, 18577]}, "edge": {"target": [], "time": []}}}, "displayed_time": "17.80", "trialTime": 19181, "trial_type": "mouselab-mdp", "trial_index": 25, "time_elapsed": 584380, "internal_node_id": "0.0-6.0-1.0-16.0"}}, {"uniqueid": "w97200303:a23071343", "current_trial": 26, "dateTime": 1693487466290, "trialdata": {"revealed_states": [], "clicked_states": ["9", "5"], "num_clicks_accrued": [0, 0, 0, 0, 0, 0, 0, 0, 0, 0, 0, 0, 0], "stateRewards": ["", -1, 3, -4, -14, 78, 67, 2, 13, -32, 28, 39, -2, 1, -4, -4, -4, -42, -86, 11, 64, -29, -32, -1, -4, 2, -7, 5, 68, -61, 2, -21, 85, 50], "withholdReward": false, "trial_id": "mdp_trial_18", "block": "test", "trialIndex": 19, "score": 59.2, "costs": -2.8, "simulationMode": [null, null, null, null, null], "rewards": [-1, 3, -4, -14, 78], "path": ["0", "0", "1", "2", "3", "4", "5"], "rt": [6008, 476, 144, 93, 144], "actions": ["up", "up", "up", "right", "up"], "actionTimes": [6954, 7945, 8598, 9211, 9860], "queries": {"click": {"state": {"target": ["9", "5"], "time": [2325, 4188]}, "edge": {"target": [], "time": []}}, "mouseover": {"state": {"target": ["1", "2", "3", "9", "5", "5", "6", "16"], "time": [1253, 1267, 1300, 2201, 2716, 3033, 4567, 4901]}, "edge": {"target": [], "time": []}}, "mouseout": {"state": {"target": ["0", "1", "2", "3", "9", "5", "5", "6", "16", "12"], "time": [617, 1265, 1282, 1587, 2651, 2767, 4534, 4583, 10884, 11021]}, "edge": {"target": [], "time": []}}}, "displayed_time": "14.96", "trialTime": 16264, "trial_type": "mouselab-mdp", "trial_index": 26, "time_elapsed": 600738, "internal_node_id": "0.0-6.0-1.0-17.0"}}, {"uniqueid": "w97200303:a23071343", "current_trial": 27, "dateTime": 1693487482549, "trialdata": {"revealed_states": [], "clicked_states": ["5", "16", "18", "22"], "num_clicks_accrued": [0, 0, 0, 0, 0, 0, 0, 0, 0, 0, 0, 0, 0], "stateRewards": ["", -2, 1, -7, -8, -37, -76, -87, 11, 30, -63, 80, -1, 4, 2, -1, 42, 17, 52, -3, -75, -80, -68, 2, -3, -5, -15, -48, 82, 24, -7, 5, -22, -71], "withholdReward": false, "trial_id": "mdp_trial_19", "block": "test", "trialIndex": 20, "score": 50.4, "costs": -5.6, "simulationMode": [null, null, null, null, null], "rewards": [-1, 4, 2, -1, 52], "path": ["0", "0", "12", "13", "14", "15", "18"], "rt": [9923, 31, 112, 11, 4], "actions": ["right", "right", "right", "up", "left"], "actionTimes": [11273, 11819, 12447, 12977, 13507], "queries": {"click": {"state": {"target": ["5", "16", "18", "22"], "time": [2036, 3848, 6780, 8755]}, "edge": {"target": [], "time": []}}, "mouseover": {"state": {"target": ["8", "9", "5", "6", "16", "7", "18", "18", "13", "18", "18", "13", "19", "22", "21", "13"], "time": [1635, 1682, 1887, 2418, 2784, 4703, 5336, 5983, 6117, 6284, 6688, 7136, 7202, 7582, 9185, 10816]}, "edge": {"target": [], "time": []}}, "mouseout": {"state": {"target": ["0", "8", "9", "5", "6", "16", "7", "18", "18", "13", "18", "18", "13", "19", "22", "21", "22", "13"], "time": [1585, 1669, 1822, 2121, 2434, 3947, 5269, 5684, 6087, 6270, 6320, 7116, 7152, 7487, 9132, 10753, 10804, 10852]}, "edge": {"target": [], "time": []}}}, "displayed_time": "15.36", "trialTime": 16158, "trial_type": "mouselab-mdp", "trial_index": 27, "time_elapsed": 616997, "internal_node_id": "0.0-6.0-1.0-18.0"}}, {"uniqueid": "w97200303:a23071343", "current_trial": 28, "dateTime": 1693487501999, "trialdata": {"revealed_states": [], "clicked_states": ["18", "22", "21"], "num_clicks_accrued": [0, 0, 0, 0, 0, 0, 0, 0, 0, 0, 0, 0, 0], "stateRewards": ["", -1, 1, 3, -8, -23, -15, -14, -11, -23, 58, 68, 1, 3, 5, 12, -17, -41, -7, -10, -4, 82, 10, 1, 4, -4, 11, 73, 55, -55, -1, -86, -86, 54], "withholdReward": false, "trial_id": "mdp_trial_20", "block": "test", "trialIndex": 21, "score": 76.8, "costs": -4.199999999999999, "simulationMode": [null, null, null, null, null], "rewards": [1, 3, 5, -10, 82], "path": ["0", "0", "12", "13", "14", "19", "21"], "rt": [7111, 383, 50, 68, 39], "actions": ["right", "right", "right", "down", "down"], "actionTimes": [7919, 8793, 9359, 9945, 10498], "queries": {"click": {"state": {"target": ["18", "22", "21"], "time": [1627, 3502, 5452]}, "edge": {"target": [], "time": []}}, "mouseover": {"state": {"target": ["12", "13", "18", "13", "22", "21", "32"], "time": [1213, 1343, 1512, 1992, 2040, 3990, 6293]}, "edge": {"target": [], "time": []}}, "mouseout": {"state": {"target": ["18", "12", "13", "18", "13", "22", "21", "32", "22"], "time": [445, 1262, 1445, 1959, 2026, 3910, 5809, 7395, 15760]}, "edge": {"target": [], "time": []}}}, "displayed_time": "14.82", "trialTime": 19348, "trial_type": "mouselab-mdp", "trial_index": 28, "time_elapsed": 636447, "internal_node_id": "0.0-6.0-1.0-19.0"}}, {"uniqueid": "w97200303:a23071343", "current_trial": 29, "dateTime": 1693487522593, "trialdata": {"revealed_states": [], "clicked_states": ["16", "20", "32", "29", "11"], "num_clicks_accrued": [0, 0, 0, 0, 0, 0, 0, 0, 0, 0, 0, 0, 0], "stateRewards": ["", -1, -2, 4, 9, 10, -75, 39, 16, -43, 88, -19, -1, 1, 2, 4, -31, 10, 73, 12, 41, -64, -81, -2, 2, -6, 1, -81, -1, -26, 3, -59, -3, -20], "withholdReward": false, "trial_id": "mdp_trial_21", "block": "test", "trialIndex": 22, "score": 48, "costs": -7, "simulationMode": [null, null, null, null, null], "rewards": [-1, 1, 2, 12, 41], "path": ["0", "0", "12", "13", "14", "19", "20"], "rt": [13631, 68, 5, 1158, 166], "actions": ["right", "right", "right", "down", "right"], "actionTimes": [15458, 16038, 16558, 18245, 18919], "queries": {"click": {"state": {"target": ["16", "20", "32", "29", "11"], "time": [3447, 5347, 7997, 10212, 12517]}, "edge": {"target": [], "time": []}}, "mouseover": {"state": {"target": ["12", "18", "15", "16", "20", "21", "32", "29", "26", "27", "11", "9"], "time": [2738, 3085, 3154, 3339, 4353, 5803, 7885, 10038, 10735, 12185, 12321, 13349]}, "edge": {"target": [], "time": []}}, "mouseout": {"state": {"target": ["0", "12", "18", "15", "16", "20", "21", "32", "29", "26", "27", "11", "9", "11"], "time": [688, 2987, 3103, 3168, 3819, 5769, 6553, 8402, 10220, 12172, 12201, 12919, 20054, 20119]}, "edge": {"target": [], "time": []}}}, "displayed_time": "19.44", "trialTime": 20485, "trial_type": "mouselab-mdp", "trial_index": 29, "time_elapsed": 657040, "internal_node_id": "0.0-6.0-1.0-20.0"}}, {"uniqueid": "w97200303:a23071343", "current_trial": 30, "dateTime": 1693487547131, "trialdata": {"revealed_states": [], "clicked_states": ["16", "6", "5", "11", "27", "33", "31", "22"], "num_clicks_accrued": [0, 0, 0, 0, 0, 0, 0, 0, 0, 0, 0, 0, 0], "stateRewards": ["", 2, 3, -1, 16, -78, -11, 46, 2, -20, 79, -67, 2, 3, 2, 11, -83, -42, -58, -11, -67, -22, 55, 2, -1, -1, -16, -83, -82, 23, -11, -29, 13, 13], "withholdReward": false, "trial_id": "mdp_trial_22", "block": "test", "trialIndex": 23, "score": 39.8, "costs": -11.200000000000001, "simulationMode": [null, null, null, null, null], "rewards": [2, 3, 2, -11, 55], "path": ["0", "0", "12", "13", "14", "19", "22"], "rt": [19089, 125, 122, 67, 129], "actions": ["right", "right", "right", "down", "left"], "actionTimes": [20864, 21501, 22132, 22710, 23355], "queries": {"click": {"state": {"target": ["16", "6", "5", "11", "27", "33", "31", "22"], "time": [3041, 5014, 7743, 10331, 12436, 14263, 16246, 18152]}, "edge": {"target": [], "time": []}}, "mouseover": {"state": {"target": ["15", "16", "4", "6", "5", "8", "11", "11", "27", "29", "33", "32", "31", "22", "19", "19", "22", "21", "19"], "time": [2491, 2961, 3607, 4057, 7542, 8408, 9677, 10245, 12210, 12874, 13508, 14772, 15109, 16692, 16724, 16958, 17041, 18609, 20408]}, "edge": {"target": [], "time": []}}, "mouseout": {"state": {"target": ["1", "0", "15", "16", "4", "6", "5", "8", "11", "11", "27", "29", "33", "33", "32", "31", "22", "19", "19", "22", "22", "21"], "time": [645, 1027, 2676, 3458, 4005, 6975, 8341, 8441, 9761, 12175, 12822, 12938, 14361, 14692, 14793, 16642, 16705, 16750, 17006, 18253, 18558, 20294]}, "edge": {"target": [], "time": []}}}, "displayed_time": "23.88", "trialTime": 24428, "trial_type": "mouselab-mdp", "trial_index": 30, "time_elapsed": 681578, "internal_node_id": "0.0-6.0-1.0-21.0"}}, {"uniqueid": "w97200303:a23071343", "current_trial": 31, "dateTime": 1693487566725, "trialdata": {"revealed_states": [], "clicked_states": ["22", "17", "6", "9", "10", "29"], "num_clicks_accrued": [0, 0, 0, 0, 0, 0, 0, 0, 0, 0, 0, 0, 0], "stateRewards": ["", 1, -1, 1, 13, 31, -56, 72, 2, 41, 5, 63, -2, -3, -2, 3, -71, -26, 52, 13, -31, 24, -67, 2, -2, 5, 4, 66, 43, 72, 9, 86, -26, 44], "withholdReward": false, "trial_id": "mdp_trial_23", "block": "test", "trialIndex": 24, "score": 72.6, "costs": -8.4, "simulationMode": [null, null, null, null, null], "rewards": [2, -2, 5, 4, 72], "path": ["0", "0", "23", "24", "25", "26", "29"], "rt": [14327, 34, 202, 134, 148], "actions": ["left", "left", "left", "up", "left"], "actionTimes": [15322, 15864, 16580, 17230, 17895], "queries": {"click": {"state": {"target": ["22", "17", "6", "9", "10", "29"], "time": [1592, 3476, 5818, 8307, 10722, 12772]}, "edge": {"target": [], "time": []}}, "mouseover": {"state": {"target": ["12", "22", "14", "17", "6", "5", "9", "9", "8", "10", "27", "29", "25", "31", "23", "1"], "time": [1265, 1480, 1944, 2008, 5678, 6311, 7745, 8181, 9878, 10263, 11858, 12278, 13460, 13676, 14880, 14911]}, "edge": {"target": [], "time": []}}, "mouseout": {"state": {"target": ["19", "22", "13", "12", "22", "14", "17", "6", "5", "9", "9", "9", "8", "10", "10", "27", "29", "25", "31", "23", "1", "2"], "time": [495, 547, 595, 1295, 1601, 1977, 3892, 6211, 6377, 7778, 8316, 9858, 9911, 10863, 11194, 12229, 13160, 13475, 14830, 14892, 14927, 19026]}, "edge": {"target": [], "time": []}}}, "displayed_time": "18.41", "trialTime": 19494, "trial_type": "mouselab-mdp", "trial_index": 31, "time_elapsed": 701173, "internal_node_id": "0.0-6.0-1.0-22.0"}}, {"uniqueid": "w97200303:a23071343", "current_trial": 32, "dateTime": 1693487591305, "trialdata": {"revealed_states": [], "clicked_states": ["29", "31", "22", "20", "17", "16", "5"], "num_clicks_accrued": [0, 0, 0, 0, 0, 0, 0, 0, 0, 0, 0, 0, 0], "stateRewards": ["", -2, 2, 3, -7, 76, 63, 21, 15, 35, -8, -44, 1, 1, -2, -12, 23, 24, 76, -9, 46, 66, -49, -2, -1, 7, 12, 40, -71, -45, -6, 38, -49, 46], "withholdReward": false, "trial_id": "mdp_trial_24", "block": "test", "trialIndex": 25, "score": 62.2, "costs": -9.8, "simulationMode": [null, null, null, null, null], "rewards": [-2, 2, 3, -7, 76], "path": ["0", "0", "1", "2", "3", "4", "5"], "rt": [15887, 389, 82, 47, 100], "actions": ["up", "up", "up", "right", "up"], "actionTimes": [16632, 17537, 18129, 18694, 19314], "queries": {"click": {"state": {"target": ["29", "31", "22", "20", "17", "16", "5"], "time": [1896, 3839, 5632, 7524, 9499, 11477, 14469]}, "edge": {"target": [], "time": []}}, "mouseover": {"state": {"target": ["1", "24", "29", "25", "31", "22", "21", "20", "17", "17", "17", "16", "6", "5", "5", "6", "15"], "time": [1216, 1513, 1800, 2277, 2594, 5029, 6347, 6446, 7912, 8213, 8396, 9996, 13564, 13665, 14247, 14829, 15162]}, "edge": {"target": [], "time": []}}, "mouseout": {"state": {"target": ["2", "0", "1", "24", "29", "25", "31", "22", "21", "20", "17", "17", "17", "16", "6", "5", "5", "6", "15", "13"], "time": [398, 1148, 1247, 1528, 2229, 2296, 4244, 6047, 6396, 7880, 7930, 8297, 9896, 11930, 13578, 13850, 14796, 14843, 23779, 23931]}, "edge": {"target": [], "time": []}}}, "displayed_time": "19.83", "trialTime": 24475, "trial_type": "mouselab-mdp", "trial_index": 32, "time_elapsed": 725752, "internal_node_id": "0.0-6.0-1.0-23.0"}}, {"uniqueid": "w97200303:a23071343", "current_trial": 33, "dateTime": 1693487631878, "trialdata": {"revealed_states": [], "clicked_states": ["9", "29", "32", "21", "17"], "num_clicks_accrued": [0, 0, 0, 0, 0, 0, 0, 0, 0, 0, 0, 0, 0], "stateRewards": ["", 1, -1, 4, -2, -75, -75, 84, -9, -60, -79, 59, 2, -4, 8, 9, -17, -82, 80, 14, -4, 49, 49, -1, 3, 6, -11, -33, 34, 55, 9, -57, 5, 59], "withholdReward": false, "trial_id": "mdp_trial_25", "block": "test", "trialIndex": 26, "score": 45, "costs": -7, "simulationMode": [null, null, null, null, null], "rewards": [-1, 3, 6, -11, 55], "path": ["0", "0", "23", "24", "25", "26", "29"], "rt": [12544, 355, 74, 148, 112], "actions": ["left", "left", "left", "up", "left"], "actionTimes": [13916, 14788, 15376, 16033, 16663], "queries": {"click": {"state": {"target": ["9", "29", "32", "21", "17"], "time": [3296, 5163, 7155, 9120, 11462]}, "edge": {"target": [], "time": []}}, "mouseover": {"state": {"target": ["10", "2", "1", "2", "3", "9", "8", "28", "26", "29", "33", "32", "21", "20", "17", "14", "13", "25"], "time": [1721, 2052, 2353, 2832, 2898, 3216, 3599, 3649, 3799, 4432, 5633, 6050, 8466, 10416, 11285, 11932, 11982, 13353]}, "edge": {"target": [], "time": []}}, "mouseout": {"state": {"target": ["0", "0", "10", "2", "1", "2", "3", "9", "8", "28", "26", "29", "33", "32", "21", "20", "17", "14", "13", "25"], "time": [920, 1618, 1785, 2101, 2801, 2885, 2916, 3567, 3613, 3665, 4049, 5533, 5650, 7584, 10330, 11184, 11880, 11967, 11999, 13403]}, "edge": {"target": [], "time": []}}}, "displayed_time": "17.18", "trialTime": 40468, "trial_type": "mouselab-mdp", "trial_index": 33, "time_elapsed": 766325, "internal_node_id": "0.0-6.0-1.0-24.0"}}, {"uniqueid": "w97200303:a23071343", "current_trial": 34, "dateTime": 1693487654081, "trialdata": {"revealed_states": [], "clicked_states": ["27", "33", "31", "22", "21", "17", "16"], "num_clicks_accrued": [0, 0, 0, 0, 0, 0, 0, 0, 0, 0, 0, 0, 0], "stateRewards": ["", -2, 3, -5, -7, 66, 43, -60, -4, -70, -75, 4, -1, 2, 2, -13, 54, 11, -40, -1, 77, 32, 15, -2, 3, -8, -9, -35, 83, -27, 6, -74, -34, 44], "withholdReward": false, "trial_id": "mdp_trial_26", "block": "test", "trialIndex": 27, "score": 34.2, "costs": -9.8, "simulationMode": [null, null, null, null, null], "rewards": [-1, 2, 2, -13, 54], "path": ["0", "0", "12", "13", "14", "15", "16"], "rt": [16682, 113, 255, 76, 41], "actions": ["right", "right", "right", "up", "up"], "actionTimes": [18070, 18710, 19485, 20070, 20637], "queries": {"click": {"state": {"target": ["27", "33", "31", "22", "21", "17", "16"], "time": [3763, 5709, 7727, 9561, 11542, 13607, 15540]}, "edge": {"target": [], "time": []}}, "mouseover": {"state": {"target": ["1", "28", "26", "28", "27", "29", "33", "30", "31", "22", "19", "20", "21", "19", "14", "17", "16", "16", "7", "4", "6", "2"], "time": [1878, 2115, 2529, 2730, 2979, 4479, 5159, 6643, 6710, 8295, 10213, 10295, 10862, 11929, 11963, 12795, 14163, 14463, 16013, 16095, 16396, 17347]}, "edge": {"target": [], "time": []}}, "mouseout": {"state": {"target": ["30", "24", "23", "1", "28", "26", "28", "27", "29", "33", "30", "31", "22", "19", "20", "21", "19", "14", "17", "16", "16", "7", "4", "6", "2"], "time": [515, 594, 610, 1931, 2469, 2563, 2812, 4228, 4761, 6309, 6660, 8178, 9995, 10229, 10796, 11912, 11946, 11979, 14112, 14197, 15930, 16079, 16263, 16463, 17378]}, "edge": {"target": [], "time": []}}}, "displayed_time": "21.16", "trialTime": 22083, "trial_type": "mouselab-mdp", "trial_index": 34, "time_elapsed": 788528, "internal_node_id": "0.0-6.0-1.0-25.0"}}, {"uniqueid": "w97200303:a23071343", "current_trial": 35, "dateTime": 1693487670075, "trialdata": {"revealed_states": [], "clicked_states": ["33", "27", "9", "5"], "num_clicks_accrued": [0, 0, 0, 0, 0, 0, 0, 0, 0, 0, 0, 0, 0], "stateRewards": ["", -2, -3, -3, 9, 79, 67, 22, -15, -56, 27, -85, -2, 4, -4, -15, -20, -32, 60, 15, 71, 57, 17, 1, 2, -8, 15, -37, -81, 82, 15, 21, -3, 2], "withholdReward": false, "trial_id": "mdp_trial_27", "block": "test", "trialIndex": 28, "score": 74.4, "costs": -5.6, "simulationMode": [null, null, null, null, null], "rewards": [-2, -3, -3, 9, 79], "path": ["0", "0", "1", "2", "3", "4", "5"], "rt": [10139, 398, 208, 102, 150], "actions": ["up", "up", "up", "right", "up"], "actionTimes": [11131, 12038, 12760, 13375, 14036], "queries": {"click": {"state": {"target": ["33", "27", "9", "5"], "time": [2626, 4558, 6450, 8488]}, "edge": {"target": [], "time": []}}, "mouseover": {"state": {"target": ["1", "1", "24", "25", "33", "25", "28", "27", "8", "9", "5"], "time": [1472, 1692, 2139, 2169, 2507, 3254, 3305, 3672, 5371, 5405, 6937]}, "edge": {"target": [], "time": []}}, "mouseout": {"state": {"target": ["17", "13", "12", "1", "1", "24", "25", "33", "25", "28", "27", "8", "9", "5", "4", "2", "23"], "time": [371, 454, 605, 1506, 1790, 2153, 2185, 3205, 3271, 3588, 4939, 5388, 6838, 9185, 15190, 15222, 15606]}, "edge": {"target": [], "time": []}}}, "displayed_time": "15.00", "trialTime": 15886, "trial_type": "mouselab-mdp", "trial_index": 35, "time_elapsed": 804522, "internal_node_id": "0.0-6.0-1.0-26.0"}}, {"uniqueid": "w97200303:a23071343", "current_trial": 36, "dateTime": 1693487686456, "trialdata": {"revealed_states": [], "clicked_states": ["33", "21"], "num_clicks_accrued": [0, 0, 0, 0, 0, 0, 0, 0, 0, 0, 0, 0, 0], "stateRewards": ["", 2, -1, -2, -5, -47, -57, -33, -11, 31, -18, -72, -2, 1, -4, -8, -46, -53, -50, 15, -85, -9, 39, -2, -2, 1, 14, -1, -8, 53, -12, -41, -74, 62], "withholdReward": false, "trial_id": "mdp_trial_28", "block": "test", "trialIndex": 29, "score": 44.2, "costs": -2.8, "simulationMode": [null, null, null, null, null], "rewards": [-2, -2, 1, -12, 62], "path": ["0", "0", "23", "24", "25", "30", "33"], "rt": [5120, 460, 95, 130, 1], "actions": ["left", "left", "left", "down", "left"], "actionTimes": [6621, 7594, 8199, 8849, 9370], "queries": {"click": {"state": {"target": ["33", "21"], "time": [2608, 4290]}, "edge": {"target": [], "time": []}}, "mouseover": {"state": {"target": ["24", "33", "33", "30", "21"], "time": [2237, 2319, 2570, 3015, 3618]}, "edge": {"target": [], "time": []}}, "mouseout": {"state": {"target": ["12", "12", "0", "24", "33", "33", "30", "21"], "time": [1003, 1185, 1869, 2267, 2369, 3015, 3034, 4948]}, "edge": {"target": [], "time": []}}}, "displayed_time": "15.51", "trialTime": 16265, "trial_type": "mouselab-mdp", "trial_index": 36, "time_elapsed": 820903, "internal_node_id": "0.0-6.0-1.0-27.0"}}, {"uniqueid": "w97200303:a23071343", "current_trial": 37, "dateTime": 1693487704769, "trialdata": {"revealed_states": [], "clicked_states": ["33", "27", "9", "7", "16", "20"], "num_clicks_accrued": [0, 0, 0, 0, 0, 0, 0, 0, 0, 0, 0, 0, 0], "stateRewards": ["", -1, -3, 1, -4, -48, -63, -49, -2, -84, -19, 65, 2, -2, -2, -12, -4, 59, 9, 6, 75, 69, -13, -1, -3, -3, -2, -37, -68, -36, 13, 32, 18, -14], "withholdReward": false, "trial_id": "mdp_trial_29", "block": "test", "trialIndex": 30, "score": 70.6, "costs": -8.4, "simulationMode": [null, null, null, null, null], "rewards": [2, -2, -2, 6, 75], "path": ["0", "0", "12", "13", "14", "19", "20"], "rt": [13224, 112, 232, 145, 161], "actions": ["right", "right", "right", "down", "right"], "actionTimes": [14350, 14983, 15734, 16382, 17050], "queries": {"click": {"state": {"target": ["33", "27", "9", "7", "16", "20"], "time": [1962, 3815, 5705, 7580, 9425, 11989]}, "edge": {"target": [], "time": []}}, "mouseover": {"state": {"target": ["0", "23", "30", "33", "25", "1", "18", "16", "1", "28", "26", "27", "8", "9", "9", "11", "9", "5", "5", "4", "7", "16", "17", "20", "20"], "time": [1388, 1420, 1624, 1874, 2338, 2385, 2418, 2837, 3087, 3136, 3168, 3403, 4271, 4304, 4486, 4672, 5471, 6104, 6437, 7021, 7154, 8454, 9821, 11391, 11838]}, "edge": {"target": [], "time": []}}, "mouseout": {"state": {"target": ["0", "0", "23", "30", "33", "25", "1", "18", "16", "1", "28", "26", "27", "8", "9", "9", "11", "9", "5", "5", "4", "7", "16", "17", "20", "20"], "time": [1039, 1403, 1437, 1655, 2301, 2356, 2404, 2687, 2868, 3105, 3153, 3204, 4204, 4287, 4372, 4554, 5405, 6052, 6138, 7004, 7068, 8104, 9788, 11341, 11456, 13952]}, "edge": {"target": [], "time": []}}}, "displayed_time": "17.57", "trialTime": 18197, "trial_type": "mouselab-mdp", "trial_index": 37, "time_elapsed": 839216, "internal_node_id": "0.0-6.0-1.0-28.0"}}, {"uniqueid": "w97200303:a23071343", "current_trial": 38, "dateTime": 1693487728039, "trialdata": {"revealed_states": [], "clicked_states": ["21", "17", "6", "9", "27", "29", "33", "32"], "num_clicks_accrued": [0, 0, 0, 0, 0, 0, 0, 0, 0, 0, 0, 0, 0], "stateRewards": ["", -2, 2, -5, 1, 42, -63, -58, -6, 2, 16, 81, -2, 4, 7, -10, 33, 3, -33, -2, -52, -84, -27, 2, -3, -3, 15, -74, -14, -5, -5, -84, 79, -31], "withholdReward": false, "trial_id": "mdp_trial_30", "block": "test", "trialIndex": 31, "score": 58.8, "costs": -11.200000000000001, "simulationMode": [null, null, null, null, null], "rewards": [2, -3, -3, -5, 79], "path": ["0", "0", "23", "24", "25", "30", "32"], "rt": [17757, 285, 96, 136, 101], "actions": ["left", "left", "left", "down", "down"], "actionTimes": [19242, 20035, 20644, 21302, 21916], "queries": {"click": {"state": {"target": ["21", "17", "6", "9", "27", "29", "33", "32"], "time": [2729, 4612, 6537, 8438, 10837, 12891, 14818, 16727]}, "edge": {"target": [], "time": []}}, "mouseover": {"state": {"target": ["12", "13", "19", "21", "22", "14", "17", "16", "6", "4", "9", "11", "27", "29", "33", "32", "22"], "time": [2064, 2362, 2430, 2478, 3363, 3413, 3731, 5081, 5532, 6914, 7328, 10433, 10733, 12616, 13344, 15350, 18014]}, "edge": {"target": [], "time": []}}, "mouseout": {"state": {"target": ["19", "0", "12", "13", "19", "21", "22", "14", "17", "16", "6", "4", "9", "11", "27", "29", "33", "32", "22"], "time": [399, 1999, 2352, 2398, 2462, 3213, 3379, 3447, 5047, 5114, 6897, 6930, 8898, 10463, 12532, 13263, 15264, 16808, 18683]}, "edge": {"target": [], "time": []}}}, "displayed_time": "22.43", "trialTime": 23160, "trial_type": "mouselab-mdp", "trial_index": 38, "time_elapsed": 862486, "internal_node_id": "0.0-6.0-1.0-29.0"}}, {"uniqueid": "w97200303:a23071343", "current_trial": 39, "dateTime": 1693487743958, "trialdata": {"revealed_states": [], "clicked_states": [], "num_clicks_accrued": [0, 0, 0, 0, 0, 0, 0, 0, 0, 0, 0, 0, 0], "stateRewards": ["", 2, 4, -5, 7, 81, 35, 6, 11, 14, -72, 42, -1, 2, 3, -7, -77, -44, -40, -15, -85, 51, -32, -2, -1, -5, 7, -74, 47, 52, 16, -49, 48, -46], "withholdReward": false, "trial_id": "mdp_trial_31", "block": "test", "trialIndex": 32, "score": 56, "costs": 0, "simulationMode": [null, null, null, null, null], "rewards": [-2, -1, -5, 16, 48], "path": ["0", "0", "23", "24", "25", "30", "32"], "rt": [6306, 258, 158, 179, 135], "actions": ["left", "left", "left", "down", "down"], "actionTimes": [7210, 7988, 8656, 9343, 9997], "queries": {"click": {"state": {"target": [], "time": []}, "edge": {"target": [], "time": []}}, "mouseover": {"state": {"target": ["12", "1", "28", "27", "27", "31"], "time": [1413, 4366, 4663, 4730, 5064, 6283]}, "edge": {"target": [], "time": []}}, "mouseout": {"state": {"target": ["0", "12", "1", "28", "27", "27", "31"], "time": [1364, 4113, 4396, 4697, 4829, 5998, 6294]}, "edge": {"target": [], "time": []}}}, "displayed_time": "14.91", "trialTime": 15810, "trial_type": "mouselab-mdp", "trial_index": 39, "time_elapsed": 878405, "internal_node_id": "0.0-6.0-1.0-30.0"}}, {"uniqueid": "w97200303:a23071343", "current_trial": 40, "dateTime": 1693487763212, "trialdata": {"revealed_states": [], "clicked_states": ["5", "16", "17", "21", "32"], "num_clicks_accrued": [0, 0, 0, 0, 0, 0, 0, 0, 0, 0, 0, 0, 0], "stateRewards": ["", -2, 1, -8, 12, -65, -79, 16, 7, -80, -17, -45, -2, 2, -5, -2, -85, 23, -4, -7, 48, 27, -76, 2, 3, 5, 2, 43, 71, -13, 7, -49, 59, -31], "withholdReward": false, "trial_id": "mdp_trial_32", "block": "test", "trialIndex": 33, "score": 69, "costs": -7, "simulationMode": [null, null, null, null, null], "rewards": [2, 3, 5, 7, 59], "path": ["0", "0", "23", "24", "25", "30", "32"], "rt": [11746, 20, 91, 420, 4], "actions": ["left", "left", "left", "down", "down"], "actionTimes": [12619, 13155, 13776, 14704, 15223], "queries": {"click": {"state": {"target": ["5", "16", "17", "21", "32"], "time": [1575, 3445, 5386, 7327, 10190]}, "edge": {"target": [], "time": []}}, "mouseover": {"state": {"target": ["1", "7", "4", "5", "16", "16", "17", "20", "21", "20", "19", "32"], "time": [1102, 1135, 1150, 1436, 2018, 2368, 3831, 5801, 6183, 9419, 9451, 10138]}, "edge": {"target": [], "time": []}}, "mouseout": {"state": {"target": ["18", "13", "0", "1", "7", "4", "5", "16", "16", "17", "20", "21", "20", "19", "32"], "time": [454, 503, 735, 1116, 1148, 1370, 1644, 2035, 3785, 5733, 5848, 7801, 9432, 9467, 12204]}, "edge": {"target": [], "time": []}}}, "displayed_time": "15.75", "trialTime": 19138, "trial_type": "mouselab-mdp", "trial_index": 40, "time_elapsed": 897660, "internal_node_id": "0.0-6.0-1.0-31.0"}}, {"uniqueid": "w97200303:a23071343", "current_trial": 41, "dateTime": 1693487780493, "trialdata": {"revealed_states": [], "clicked_states": ["29", "9", "6", "16"], "num_clicks_accrued": [0, 0, 0, 0, 0, 0, 0, 0, 0, 0, 0, 0, 0], "stateRewards": ["", -2, 1, 6, -2, -10, -78, -69, 14, -15, 7, -1, 1, -1, -2, 13, 77, 32, 87, 5, -74, 30, -26, 1, 3, 4, 12, 39, 54, -43, 2, 10, 23, 13], "withholdReward": false, "trial_id": "mdp_trial_33", "block": "test", "trialIndex": 34, "score": 82.4, "costs": -5.6, "simulationMode": [null, null, null, null, null], "rewards": [1, -1, -2, 13, 77], "path": ["0", "0", "12", "13", "14", "15", "16"], "rt": [12618, 26, 87, 32, 113], "actions": ["right", "right", "right", "up", "up"], "actionTimes": [13602, 14149, 14743, 15285, 15919], "queries": {"click": {"state": {"target": ["29", "9", "6", "16"], "time": [2989, 6214, 9236, 11099]}, "edge": {"target": [], "time": []}}, "mouseover": {"state": {"target": ["7", "1", "0", "24", "25", "26", "29", "8", "11", "9", "5", "6", "16", "17"], "time": [1340, 1606, 1723, 2326, 2459, 2589, 2857, 5193, 5753, 6122, 6906, 7289, 10169, 11622]}, "edge": {"target": [], "time": []}}, "mouseout": {"state": {"target": ["0", "7", "1", "0", "24", "25", "26", "29", "8", "11", "9", "5", "6", "16", "16"], "time": [690, 1524, 1654, 1737, 2392, 2539, 2808, 3321, 5710, 5909, 6572, 6939, 9789, 11189, 11469]}, "edge": {"target": [], "time": []}}}, "displayed_time": "16.44", "trialTime": 17157, "trial_type": "mouselab-mdp", "trial_index": 41, "time_elapsed": 914940, "internal_node_id": "0.0-6.0-1.0-32.0"}}, {"uniqueid": "w97200303:a23071343", "current_trial": 42, "dateTime": 1693487796942, "trialdata": {"revealed_states": [], "clicked_states": ["5", "16", "20"], "num_clicks_accrued": [0, 0, 0, 0, 0, 0, 0, 0, 0, 0, 0, 0, 0], "stateRewards": ["", -2, -1, -6, -14, -55, 78, -13, 11, 14, -71, 59, 2, 2, 6, -6, 9, 38, 14, 7, 85, 11, 68, 1, -4, -1, -3, -63, -85, 9, -2, 63, -86, -10], "withholdReward": false, "trial_id": "mdp_trial_34", "block": "test", "trialIndex": 35, "score": 97.8, "costs": -4.199999999999999, "simulationMode": [null, null, null, null, null], "rewards": [2, 2, 6, 7, 85], "path": ["0", "0", "12", "13", "14", "19", "20"], "rt": [7648, 53, 132, 122, 112], "actions": ["right", "right", "right", "down", "right"], "actionTimes": [9127, 9695, 10342, 10982, 11606], "queries": {"click": {"state": {"target": ["5", "16", "20"], "time": [2926, 4733, 6670]}, "edge": {"target": [], "time": []}}, "mouseover": {"state": {"target": ["4", "5", "5", "6", "16", "17", "20", "21", "19"], "time": [2246, 2577, 2830, 3291, 3559, 5160, 5460, 7176, 8792]}, "edge": {"target": [], "time": []}}, "mouseout": {"state": {"target": ["17", "14", "0", "4", "5", "5", "6", "16", "17", "20", "20", "21", "19"], "time": [460, 510, 1807, 2343, 2611, 3259, 3309, 5110, 5377, 6746, 7110, 8726, 8846]}, "edge": {"target": [], "time": []}}}, "displayed_time": "15.49", "trialTime": 16326, "trial_type": "mouselab-mdp", "trial_index": 42, "time_elapsed": 931389, "internal_node_id": "0.0-6.0-1.0-33.0"}}, {"uniqueid": "w97200303:a23071343", "current_trial": 43, "dateTime": 1693487812896, "trialdata": {"revealed_states": [], "clicked_states": ["32", "29"], "num_clicks_accrued": [0, 0, 0, 0, 0, 0, 0, 0, 0, 0, 0, 0, 0], "stateRewards": ["", 2, 3, 8, 11, 25, -80, 6, -4, -56, 84, -23, -2, -4, -3, 4, -51, -9, -61, -15, -64, 67, -35, 1, -1, -7, -6, 83, 59, -15, 12, -79, 56, 41], "withholdReward": false, "trial_id": "mdp_trial_35", "block": "test", "trialIndex": 36, "score": 58.2, "costs": -2.8, "simulationMode": [null, null, null, null, null], "rewards": [1, -1, -7, 12, 56], "path": ["0", "0", "23", "24", "25", "30", "32"], "rt": [5078, 146, 117, 189, 117], "actions": ["left", "left", "left", "down", "down"], "actionTimes": [6072, 6734, 7356, 8061, 8686], "queries": {"click": {"state": {"target": ["32", "29"], "time": [2054, 4035]}, "edge": {"target": [], "time": []}}, "mouseover": {"state": {"target": ["23", "24", "32", "32", "29", "27", "27"], "time": [1386, 1456, 1538, 1926, 2521, 4452, 4618]}, "edge": {"target": [], "time": []}}, "mouseout": {"state": {"target": ["12", "0", "23", "24", "32", "32", "29", "27", "27", "27"], "time": [541, 1373, 1423, 1470, 1554, 2439, 4421, 4521, 4672, 15190]}, "edge": {"target": [], "time": []}}}, "displayed_time": "15.00", "trialTime": 15843, "trial_type": "mouselab-mdp", "trial_index": 43, "time_elapsed": 947344, "internal_node_id": "0.0-6.0-1.0-34.0"}}, {"uniqueid": "w97200303:a23071343", "current_trial": 44, "dateTime": 1693487828671, "trialdata": {"revealed_states": [], "clicked_states": ["32", "29"], "num_clicks_accrued": [0, 0, 0, 0, 0, 0, 0, 0, 0, 0, 0, 0, 0], "stateRewards": ["", 2, -1, -1, 7, 11, -40, -22, -2, 69, 37, 8, -2, 4, -8, -12, -2, -72, -3, -12, 17, 63, 12, 1, 3, -7, 6, 25, 61, 61, -9, 28, -17, 27], "withholdReward": false, "trial_id": "mdp_trial_36", "block": "test", "trialIndex": 37, "score": 61.2, "costs": -2.8, "simulationMode": [null, null, null, null, null], "rewards": [1, 3, -7, 6, 61], "path": ["0", "0", "23", "24", "25", "26", "29"], "rt": [5758, 75, 80, 70, 76], "actions": ["left", "left", "left", "up", "left"], "actionTimes": [6799, 7380, 7969, 8558, 9147], "queries": {"click": {"state": {"target": ["32", "29"], "time": [1962, 3852]}, "edge": {"target": [], "time": []}}, "mouseover": {"state": {"target": ["23", "24", "30", "32", "30", "25", "26", "27", "29", "11", "9", "11", "27"], "time": [1435, 1485, 1555, 1857, 2288, 2304, 2322, 2371, 2654, 4275, 4335, 6289, 6355]}, "edge": {"target": [], "time": []}}, "mouseout": {"state": {"target": ["23", "0", "23", "24", "30", "32", "30", "25", "26", "27", "29", "11", "9", "11", "27", "26", "25", "30"], "time": [537, 1423, 1471, 1522, 1605, 2272, 2303, 2321, 2338, 2605, 4171, 4288, 6237, 6320, 6406, 10024, 10089, 10190]}, "edge": {"target": [], "time": []}}}, "displayed_time": "15.05", "trialTime": 15651, "trial_type": "mouselab-mdp", "trial_index": 44, "time_elapsed": 963119, "internal_node_id": "0.0-6.0-1.0-35.0"}}, {"uniqueid": "w97200303:a23071343", "current_trial": 45, "dateTime": 1693487848153, "trialdata": {"revealed_states": [], "clicked_states": ["11", "5", "16", "20", "31"], "num_clicks_accrued": [0, 0, 0, 0, 0, 0, 0, 0, 0, 0, 0, 0, 0], "stateRewards": ["", -1, 3, -7, 16, -32, -74, -48, 2, 10, 15, -30, 1, 1, -2, 10, 12, -83, 67, 13, -66, 47, 65, -2, 4, 2, -14, -8, -57, 24, 9, 65, 12, 46], "withholdReward": false, "trial_id": "mdp_trial_37", "block": "test", "trialIndex": 38, "score": 71, "costs": -7, "simulationMode": [null, null, null, null, null], "rewards": [-2, 4, 2, 9, 65], "path": ["0", "0", "23", "24", "25", "30", "31"], "rt": [11552, 393, 392, 445, 499], "actions": ["left", "left", "left", "down", "right"], "actionTimes": [13814, 14721, 15621, 16574, 17577], "queries": {"click": {"state": {"target": ["11", "5", "16", "20", "31"], "time": [2941, 4836, 6694, 9166, 11288]}, "edge": {"target": [], "time": []}}, "mouseover": {"state": {"target": ["11", "11", "5", "6", "16", "15", "20", "20", "20", "19", "22", "31", "32"], "time": [2543, 2814, 3658, 5274, 5727, 7124, 7778, 8059, 9026, 9577, 9943, 11098, 11827]}, "edge": {"target": [], "time": []}}, "mouseout": {"state": {"target": ["0", "10", "8", "10", "0", "11", "11", "5", "6", "16", "16", "15", "20", "20", "20", "19", "22", "31", "32"], "time": [893, 1597, 1728, 1762, 2485, 2578, 3014, 5244, 5311, 6768, 7078, 7161, 7827, 8430, 9544, 9610, 9977, 11695, 13296]}, "edge": {"target": [], "time": []}}}, "displayed_time": "18.10", "trialTime": 19355, "trial_type": "mouselab-mdp", "trial_index": 45, "time_elapsed": 982600, "internal_node_id": "0.0-6.0-1.0-36.0"}}, {"uniqueid": "w97200303:a23071343", "current_trial": 46, "dateTime": 1693487863762, "trialdata": {"revealed_states": [], "clicked_states": ["9", "6", "16"], "num_clicks_accrued": [0, 0, 0, 0, 0, 0, 0, 0, 0, 0, 0, 0, 0], "stateRewards": ["", 1, 1, 6, -14, -40, 37, 16, -13, 33, -68, 49, 2, 4, 3, 6, 55, 27, 32, 10, -65, 20, -87, 2, 1, -6, -5, -42, 12, 29, -8, 16, 76, -33], "withholdReward": false, "trial_id": "mdp_trial_38", "block": "test", "trialIndex": 39, "score": 65.8, "costs": -4.199999999999999, "simulationMode": [null, null, null, null, null], "rewards": [2, 4, 3, 6, 55], "path": ["0", "0", "12", "13", "14", "15", "16"], "rt": [7807, 59, 305, 85, 2], "actions": ["right", "right", "right", "up", "up"], "actionTimes": [8710, 9288, 10102, 10698, 11214], "queries": {"click": {"state": {"target": ["9", "6", "16"], "time": [1789, 4254, 6185]}, "edge": {"target": [], "time": []}}, "mouseover": {"state": {"target": ["1", "2", "3", "9", "4", "6", "16", "16", "17", "20"], "time": [1296, 1311, 1328, 1780, 3159, 3328, 4693, 5009, 6559, 7194]}, "edge": {"target": [], "time": []}}, "mouseout": {"state": {"target": ["31", "0", "1", "2", "3", "9", "4", "6", "16", "16", "17", "20"], "time": [363, 1264, 1310, 1327, 1342, 2246, 3194, 4678, 4727, 6479, 6876, 13447]}, "edge": {"target": [], "time": []}}}, "displayed_time": "14.91", "trialTime": 15484, "trial_type": "mouselab-mdp", "trial_index": 46, "time_elapsed": 998210, "internal_node_id": "0.0-6.0-1.0-37.0"}}, {"uniqueid": "w97200303:a23071343", "current_trial": 47, "dateTime": 1693487880480, "trialdata": {"revealed_states": [], "clicked_states": ["5"], "num_clicks_accrued": [0, 0, 0, 0, 0, 0, 0, 0, 0, 0, 0, 0, 0], "stateRewards": ["", 1, -2, 7, -14, 88, -56, -44, -14, 64, -51, -57, -2, 3, -4, -9, -11, 19, -77, -1, 68, 75, -67, -1, 1, -2, 5, -37, 70, -34, -10, -72, 63, -41], "withholdReward": false, "trial_id": "mdp_trial_39", "block": "test", "trialIndex": 40, "score": 78.6, "costs": -1.4, "simulationMode": [null, null, null, null, null], "rewards": [1, -2, 7, -14, 88], "path": ["0", "0", "1", "2", "3", "4", "5"], "rt": [3566, 48, 176, 117, 141], "actions": ["up", "up", "up", "right", "up"], "actionTimes": [5027, 5589, 6299, 6924, 7582], "queries": {"click": {"state": {"target": ["5"], "time": [2441]}, "edge": {"target": [], "time": []}}, "mouseover": {"state": {"target": ["4", "5", "6", "16"], "time": [1991, 2057, 3121, 3553]}, "edge": {"target": [], "time": []}}, "mouseout": {"state": {"target": ["0", "4", "5", "5", "6", "16", "16", "18", "12"], "time": [1907, 2021, 2509, 3089, 3138, 4639, 15442, 15925, 16009]}, "edge": {"target": [], "time": []}}}, "displayed_time": "15.47", "trialTime": 16594, "trial_type": "mouselab-mdp", "trial_index": 47, "time_elapsed": 1014927, "internal_node_id": "0.0-6.0-1.0-38.0"}}, {"uniqueid": "w97200303:a23071343", "current_trial": 48, "dateTime": 1693487896736, "trialdata": {"revealed_states": [], "clicked_states": ["17", "21", "32", "29"], "num_clicks_accrued": [0, 0, 0, 0, 0, 0, 0, 0, 0, 0, 0, 0, 0], "stateRewards": ["", 1, 2, -6, -13, -51, 22, -4, -12, -44, -12, 6, -2, -2, -2, -14, -46, -4, -77, -2, 36, -79, 41, 2, -4, 2, -6, -55, 59, 70, -5, 39, -19, 24], "withholdReward": false, "trial_id": "mdp_trial_40", "block": "test", "trialIndex": 41, "score": 58.4, "costs": -5.6, "simulationMode": [null, null, null, null, null], "rewards": [2, -4, 2, -6, 70], "path": ["0", "0", "23", "24", "25", "26", "29"], "rt": [10070, 16, 19, 126, 98], "actions": ["left", "left", "left", "up", "left"], "actionTimes": [11499, 12024, 12575, 13215, 13821], "queries": {"click": {"state": {"target": ["17", "21", "32", "29"], "time": [2562, 4430, 6632, 8899]}, "edge": {"target": [], "time": []}}, "mouseover": {"state": {"target": ["18", "15", "17", "19", "21", "32", "30", "29", "27"], "time": [2208, 2255, 2391, 3072, 3121, 6443, 8487, 8572, 10757]}, "edge": {"target": [], "time": []}}, "mouseout": {"state": {"target": ["0", "18", "15", "17", "17", "19", "21", "32", "30", "29", "27"], "time": [1891, 2237, 2290, 2574, 3021, 3105, 4840, 8460, 8505, 10722, 10823]}, "edge": {"target": [], "time": []}}}, "displayed_time": "15.44", "trialTime": 16133, "trial_type": "mouselab-mdp", "trial_index": 48, "time_elapsed": 1031183, "internal_node_id": "0.0-6.0-1.0-39.0"}}, {"uniqueid": "w97200303:a23071343", "current_trial": 49, "dateTime": 1693487938018, "trialdata": {"rt": 41276, "response": {"Q0": "$-2 to $2", "Q1": "$-16 to $16", "Q2": "$-88 to $88", "Q3": "The cost was always $1.4.", "Q4": "Very motivated"}, "question_order": [0, 1, 2, 3, 4], "trial_id": "final_quiz_control", "trial_type": "survey-multi-choice", "trial_index": 49, "time_elapsed": 1072465, "internal_node_id": "0.0-6.0-2.0"}}, {"uniqueid": "w97200303:a23071343", "current_trial": 50, "dateTime": 1693487993414, "trialdata": {"rt": 55387, "response": {"Q0": "I found which end nodes had the highest value and then went towards them", "Q1": "At first i struggled guessing randomly but then realised the best option was to find the highest end nodes", "Q2": "it was diffuclt to begin but once i got to grips with the task better i found it easier"}, "trial_id": "self_report_control", "trial_type": "survey-text", "trial_index": 50, "time_elapsed": 1127862, "internal_node_id": "0.0-6.0-3.0"}}, {"uniqueid": "w97200303:a23071343", "current_trial": 51, "dateTime": 1693488004570, "trialdata": {"rt": 11150, "response": {"gender": "male", "age": "25", "colorblind": "0", "effort": "0"}, "trial_type": "survey-html-form", "trial_index": 51, "time_elapsed": 1139018, "internal_node_id": "0.0-6.0-4.0"}}, {"uniqueid": "w97200303:a23071343", "current_trial": 52, "dateTime": 1693488033012, "trialdata": {"rt": 28436, "response": {"Q0": "no i understood ok", "Q1": "no i have not done this before", "Q2": "enjoyable task :)"}, "trial_type": "survey-text", "trial_index": 52, "time_elapsed": 1167460, "internal_node_id": "0.0-6.0-5.0"}}, {"uniqueid": "w97200303:a23071343", "current_trial": 53, "dateTime": 1693488059094, "trialdata": {"rt": 26076, "stimulus": "<h1>Completion Code Instructions (1/2)</h1>\n<br><br><br><br>\nYou have reached the end of the experiment! The completion code consists of two parts: (1) a code with 2 characters (2) a code with 6 characters. On this page, you will receive the second part of the code. The first part of the completion code will be on the next page.\n<br><br>\nThe second part of your completion code is: <b>EWEK22</b>\n<br><br>\nPlease note this down. Then, press 'Finish HIT' in order to find the first part of your completion code. Once the data has been saved, you will receive this code either in this window or in the original browser window where you started the experiment.\n", "response": 0, "trial_type": "html-button-response", "trial_index": 53, "time_elapsed": 1193542, "internal_node_id": "0.0-6.0-6.0"}}, {"uniqueid": "w97200303:a23071343", "current_trial": 54, "dateTime": 1693488060108, "trialdata": {"success": true, "trial_type": "fullscreen", "trial_index": 54, "time_elapsed": 1194556, "internal_node_id": "0.0-7.0"}}], "questiondata": {"params": {"CODE": "C6DMOQA6", "MIN_TIME": 14, "inspectCost": 1, "startTime": "Thu Aug 31 2023 14:01:04 GMT+0100 (British Summer Time)", "bonusRate": 0.002, "variance": "1_2_4_8_44", "branching": "31123"}, "final_score": 2101.6}, "eventdata": [{"eventtype": "initialized", "value": null, "timestamp": 1693486864331, "interval": 0}, {"eventtype": "window_resize", "value": [1024, 767], "timestamp": 1693486864331, "interval": 0}, {"eventtype": "window_resize", "value": [1024, 767], "timestamp": 1693486864651, "interval": 320}, {"eventtype": "window_resize", "value": [1470, 920], "timestamp": 1693486867068, "interval": 2417}, {"eventtype": "window_resize", "value": [1024, 767], "timestamp": 1693488059341, "interval": 1192273}], "useragent": "Mozilla/5.0 (Macintosh; Intel Mac OS X 10_15_7) AppleWebKit/537.36 (KHTML, like Gecko) Chrome/116.0.0.0 Safari/537.36", "mode": "live", "id": "w97200303:a23071343", "status": "user data saved", "Beginhit": "2023-08-31 13:01:03.222548", "Beginexp": "2023-08-31 13:01:07.914242", "Endhit": "2023-08-31 13:21:00.618424", "psiturkStatus": 3, "browser": "<redacted>", "platform": "macos", "language": "en-US"}