{"condition": 1, "counterbalance": 0, "assignmentId": "a39156300", "workerId": "w18642308", "hitId": "h41341121", "currenttrial": 62, "bonus": 0, "data": [{"uniqueid": "w18642308:a39156300", "current_trial": 0, "dateTime": 1693836501740, "trialdata": {"success": true, "trial_type": "fullscreen", "trial_index": 0, "time_elapsed": 5425, "internal_node_id": "0.0-0.0"}}, {"uniqueid": "w18642308:a39156300", "current_trial": 1, "dateTime": 1693836513806, "trialdata": {"view_history": [{"page_index": 0, "viewing_time": 12060}], "rt": 12060, "trial_id": "exp_instructions_misaligned", "trial_type": "instructions", "trial_index": 1, "time_elapsed": 17491, "internal_node_id": "0.0-1.0"}}, {"uniqueid": "w18642308:a39156300", "current_trial": 2, "dateTime": 1693836688997, "trialdata": {"view_history": [{"page_index": 0, "viewing_time": 52547}, {"page_index": 1, "viewing_time": 65272}, {"page_index": 2, "viewing_time": 28504}, {"page_index": 3, "viewing_time": 28864}], "rt": 175187, "trial_id": "mouselab_instructions_1_misaligned", "trial_type": "instructions", "trial_index": 2, "time_elapsed": 192683, "internal_node_id": "0.0-2.0-1.0"}}, {"uniqueid": "w18642308:a39156300", "current_trial": 3, "dateTime": 1693836709965, "trialdata": {"revealed_states": [], "clicked_states": [], "num_clicks_accrued": [0, 0, 0, 0, 0, 0, 0, 0, 0, 0, 0, 0, 0], "stateRewards": ["", -10, -10, 10, -10, 10, 10, -10, 10, 10, 10, -10, -10, -10, 10, -10, 10, 10, -10, -10, -10, 10, 10, -10, -10, 10, 10, -10, -10, 10, -10, 10, 10, -10], "withholdReward": false, "trial_id": "practice_1", "block": "test", "trialIndex": 0, "score": -6.5, "costs": 0, "simulationMode": [null, null, null, null, null], "rewards": [-10, -10, 10, -10, 10], "path": ["0", "0", "12", "13", "14", "19", "21"], "rt": [1658, 1219, 1187, 1129, 537], "actions": ["right", "right", "right", "down", "down"], "actionTimes": [8156, 9908, 11625, 13302, 14370], "queries": {"click": {"state": {"target": [], "time": []}, "edge": {"target": [], "time": []}}, "mouseover": {"state": {"target": [], "time": []}, "edge": {"target": [], "time": []}}, "mouseout": {"state": {"target": ["0", "12", "13", "19"], "time": [9460, 9676, 14863, 15088]}, "edge": {"target": [], "time": []}}}, "displayed_time": "14.89", "trialTime": 19746, "trial_type": "mouselab-mdp", "trial_index": 3, "time_elapsed": 213650, "internal_node_id": "0.0-2.0-2.0-0.0"}}, {"uniqueid": "w18642308:a39156300", "current_trial": 4, "dateTime": 1693836729441, "trialdata": {"revealed_states": [], "clicked_states": [], "num_clicks_accrued": [0, 0, 0, 0, 0, 0, 0, 0, 0, 0, 0, 0, 0], "stateRewards": ["", 10, 10, 10, -10, -10, -10, -10, 10, 10, 10, -10, -10, 10, 10, 10, -10, -10, -10, 10, 10, -10, 10, 10, -10, -10, -10, -10, -10, -10, -10, -10, -10, 10], "withholdReward": false, "trial_id": "practice_2", "block": "test", "trialIndex": 1, "score": 13.5, "costs": 0, "simulationMode": [null, null, null, null, null], "rewards": [10, 10, 10, -10, -10], "path": ["0", "0", "1", "2", "3", "4", "5"], "rt": [2237, 1089, 905, 1746, 1147], "actions": ["up", "up", "up", "right", "up"], "actionTimes": [7212, 8833, 10269, 12544, 14233], "queries": {"click": {"state": {"target": [], "time": []}, "edge": {"target": [], "time": []}}, "mouseover": {"state": {"target": [], "time": []}, "edge": {"target": [], "time": []}}, "mouseout": {"state": {"target": ["0", "22", "19", "20", "19", "12", "0", "22", "22", "0", "14"], "time": [1987, 2170, 2187, 2221, 2537, 2719, 3185, 3303, 3852, 15188, 15375]}, "edge": {"target": [], "time": []}}}, "displayed_time": "14.76", "trialTime": 18664, "trial_type": "mouselab-mdp", "trial_index": 4, "time_elapsed": 233126, "internal_node_id": "0.0-2.0-2.0-1.0"}}, {"uniqueid": "w18642308:a39156300", "current_trial": 5, "dateTime": 1693836759310, "trialdata": {"view_history": [{"page_index": 0, "viewing_time": 21302}, {"page_index": 1, "viewing_time": 8560}], "rt": 29863, "trial_id": "mouselab_instructions_2_misaligned", "trial_type": "instructions", "trial_index": 5, "time_elapsed": 262996, "internal_node_id": "0.0-2.0-3.0"}}, {"uniqueid": "w18642308:a39156300", "current_trial": 6, "dateTime": 1693836797801, "trialdata": {"rt": 38484, "response": {"Q0": "The cost for clicking on nodes may vary between nodes.", "Q1": "I will receive a $1 bonus if I perform well, otherwise I will receive no bonus.", "Q2": "No, the amount of cash at each node of the web may be different each time.", "Q3": "To get the highest total score.", "Q4": "Only before moving the spider.", "Q5": "3 seconds"}, "question_order": [0, 1, 2, 3, 4, 5], "correct": {"Q0": "The cost for clicking on nodes may vary between nodes.", "Q1": "The better I perform the higher my bonus will be.", "Q2": "No, the amount of cash at each node of the web may be different each time.", "Q3": "To get the highest total score.", "Q4": "Only before moving the spider.", "Q5": "3 seconds"}, "trial_id": "mouselab_quiz_misaligned", "trial_type": "survey-multi-choice", "trial_index": 6, "time_elapsed": 301487, "internal_node_id": "0.0-2.0-4.0"}}, {"uniqueid": "w18642308:a39156300", "current_trial": 7, "dateTime": 1693836809901, "trialdata": {"success": true, "trial_type": "fullscreen", "trial_index": 7, "time_elapsed": 313587, "internal_node_id": "0.0-2.1-0.1-0.1"}}, {"uniqueid": "w18642308:a39156300", "current_trial": 8, "dateTime": 1693836848685, "trialdata": {"view_history": [{"page_index": 0, "viewing_time": 5365}, {"page_index": 1, "viewing_time": 5952}, {"page_index": 2, "viewing_time": 4656}, {"page_index": 3, "viewing_time": 22808}], "rt": 38782, "trial_id": "mouselab_instructions_1_misaligned", "trial_type": "instructions", "trial_index": 8, "time_elapsed": 352371, "internal_node_id": "0.0-2.1-1.1"}}, {"uniqueid": "w18642308:a39156300", "current_trial": 9, "dateTime": 1693836878707, "trialdata": {"revealed_states": [], "clicked_states": ["3", "1", "12", "25"], "num_clicks_accrued": [0, 0, 0, 0, 0, 0, 0, 0, 0, 0, 0, 0, 0], "stateRewards": ["", -10, -10, 10, -10, 10, 10, -10, 10, 10, 10, -10, -10, -10, 10, -10, 10, 10, -10, -10, -10, 10, 10, -10, -10, 10, 10, -10, -10, 10, -10, 10, 10, -10], "withholdReward": false, "trial_id": "practice_1", "block": "test", "trialIndex": 2, "score": -8.5, "costs": -2, "simulationMode": [null, null, null, null, null], "rewards": [-10, -10, 10, -10, 10], "path": ["0", "0", "23", "24", "25", "30", "32"], "rt": [17545, 252, 793, 1918, 798], "actions": ["left", "left", "left", "down", "down"], "actionTimes": [20061, 20843, 22184, 24626, 25953], "queries": {"click": {"state": {"target": ["3", "1", "12", "25"], "time": [6031, 7894, 9122, 12011]}, "edge": {"target": [], "time": []}}, "mouseover": {"state": {"target": ["12", "13", "0", "1", "2", "3", "2", "1", "1", "12", "13", "14", "22", "23", "24", "25", "20", "20", "19", "0"], "time": [2777, 2848, 4225, 4508, 4775, 5507, 6992, 7239, 7655, 8769, 9727, 10436, 11268, 11401, 11485, 11602, 12553, 17613, 17650, 18078]}, "edge": {"target": [], "time": []}}, "mouseout": {"state": {"target": ["0", "12", "13", "0", "1", "2", "3", "2", "1", "1", "12", "12", "13", "14", "22", "23", "24", "25", "20", "20", "19", "0"], "time": [2743, 2815, 3226, 4308, 4725, 4941, 6717, 7173, 7323, 8717, 9253, 9678, 10402, 10469, 11302, 11437, 11551, 12433, 12582, 17645, 17678, 28269]}, "edge": {"target": [], "time": []}}}, "displayed_time": "26.48", "trialTime": 29138, "trial_type": "mouselab-mdp", "trial_index": 9, "time_elapsed": 382392, "internal_node_id": "0.0-2.1-2.1-0.1"}}, {"uniqueid": "w18642308:a39156300", "current_trial": 10, "dateTime": 1693836896370, "trialdata": {"revealed_states": [], "clicked_states": [], "num_clicks_accrued": [0, 0, 0, 0, 0, 0, 0, 0, 0, 0, 0, 0, 0], "stateRewards": ["", 10, 10, 10, -10, -10, -10, -10, 10, 10, 10, -10, -10, 10, 10, 10, -10, -10, -10, 10, 10, -10, 10, 10, -10, -10, -10, -10, -10, -10, -10, -10, -10, 10], "withholdReward": false, "trial_id": "practice_2", "block": "test", "trialIndex": 3, "score": 33.5, "costs": 0, "simulationMode": [null, null, null, null, null], "rewards": [-10, 10, 10, 10, 10], "path": ["0", "0", "12", "13", "14", "19", "20"], "rt": [3400, 1413, 289, 1060, 1296], "actions": ["right", "right", "right", "down", "right"], "actionTimes": [6549, 8487, 9304, 10907, 12742], "queries": {"click": {"state": {"target": [], "time": []}, "edge": {"target": [], "time": []}}, "mouseover": {"state": {"target": ["12", "13", "14"], "time": [3882, 3965, 4032]}, "edge": {"target": [], "time": []}}, "mouseout": {"state": {"target": ["0", "13", "12", "0", "12", "13", "14", "20", "21"], "time": [1400, 2099, 2165, 3849, 3932, 3998, 4082, 15771, 15853]}, "edge": {"target": [], "time": []}}}, "displayed_time": "13.27", "trialTime": 16787, "trial_type": "mouselab-mdp", "trial_index": 10, "time_elapsed": 400056, "internal_node_id": "0.0-2.1-2.1-1.1"}}, {"uniqueid": "w18642308:a39156300", "current_trial": 11, "dateTime": 1693836920365, "trialdata": {"view_history": [{"page_index": 0, "viewing_time": 22103}, {"page_index": 1, "viewing_time": 1887}], "rt": 23991, "trial_id": "mouselab_instructions_2_misaligned", "trial_type": "instructions", "trial_index": 11, "time_elapsed": 424051, "internal_node_id": "0.0-2.1-3.1"}}, {"uniqueid": "w18642308:a39156300", "current_trial": 12, "dateTime": 1693836948239, "trialdata": {"rt": 27869, "response": {"Q0": "The cost for clicking on nodes may vary between nodes.", "Q1": "The better I perform the higher my bonus will be.", "Q2": "No, the amount of cash at each node of the web may be different each time.", "Q3": "To get the highest total score.", "Q4": "Only before moving the spider.", "Q5": "3 seconds"}, "question_order": [0, 1, 2, 3, 4, 5], "correct": {"Q0": "The cost for clicking on nodes may vary between nodes.", "Q1": "The better I perform the higher my bonus will be.", "Q2": "No, the amount of cash at each node of the web may be different each time.", "Q3": "To get the highest total score.", "Q4": "Only before moving the spider.", "Q5": "3 seconds"}, "trial_id": "mouselab_quiz_misaligned", "trial_type": "survey-multi-choice", "trial_index": 12, "time_elapsed": 451925, "internal_node_id": "0.0-2.1-4.1"}}, {"uniqueid": "w18642308:a39156300", "current_trial": 13, "dateTime": 1693836954614, "trialdata": {"rt": 6366, "response": {"Q0": "No"}, "question_order": [0], "trial_id": "repeat_check", "trial_type": "survey-multi-choice", "trial_index": 13, "time_elapsed": 458300, "internal_node_id": "0.0-4.0-0.0"}}, {"uniqueid": "w18642308:a39156300", "current_trial": 14, "dateTime": 1693836974228, "trialdata": {"rt": 19607, "stimulus": "\n<h1> Get ready to start the game! </h1>\n\nThank you for reading the instructions. Get ready start with the 40 rounds of this game.\n<br><br>\nIf you need to take a break, feel free to take one after the end of a round, before continuing to the next one.\n<br><br>\nRemember, the more money the spider gets, the bigger your bonus will be!\n<br><br>\n<div style='text-align: center;'>Press <code>space</code> to begin.</div>\n\n<br><br>\n(If, at any point, the <code>space</code> key does not take you to the next page, click once on the text and try again.)", "response": " ", "trial_id": "mdp_ready", "trial_type": "html-keyboard-response", "trial_index": 14, "time_elapsed": 477914, "internal_node_id": "0.0-6.0-0.0"}}, {"uniqueid": "w18642308:a39156300", "current_trial": 15, "dateTime": 1693836996101, "trialdata": {"revealed_states": [], "clicked_states": [], "num_clicks_accrued": [0, 0, 0, 0, 0, 0, 0, 0, 0, 0, 0, 0, 0], "stateRewards": ["", -2, 4, -3, -13, 63, -36, 62, 11, 78, 34, -51, 2, -2, 8, -6, -40, -18, 31, 9, 64, 39, 79, 1, 4, -4, 15, -12, 76, 73, -10, -77, 86, -4], "withholdReward": false, "trial_id": "mdp_trial_1", "block": "test", "trialIndex": 4, "score": 81, "costs": 0, "simulationMode": [null, null, null, null, null], "rewards": [2, -2, 8, 9, 64], "path": ["0", "0", "12", "13", "14", "19", "20"], "rt": [5601, 942, 336, 1152, 866], "actions": ["right", "right", "right", "down", "right"], "actionTimes": [9436, 10920, 11786, 13472, 14862], "queries": {"click": {"state": {"target": [], "time": []}, "edge": {"target": [], "time": []}}, "mouseover": {"state": {"target": ["12", "19"], "time": [5226, 5576]}, "edge": {"target": [], "time": []}}, "mouseout": {"state": {"target": ["27", "7", "18", "12", "0", "12", "0", "12", "19"], "time": [497, 646, 896, 1761, 2078, 2195, 4694, 5277, 5609]}, "edge": {"target": [], "time": []}}}, "displayed_time": "17.84", "trialTime": 20807, "trial_type": "mouselab-mdp", "trial_index": 15, "time_elapsed": 499786, "internal_node_id": "0.0-6.0-1.0-0.0"}}, {"uniqueid": "w18642308:a39156300", "current_trial": 16, "dateTime": 1693837018315, "trialdata": {"revealed_states": [], "clicked_states": [], "num_clicks_accrued": [0, 0, 0, 0, 0, 0, 0, 0, 0, 0, 0, 0, 0], "stateRewards": ["", 1, 2, 2, -15, -84, 28, -26, 13, 31, 86, 30, -2, 1, -1, -8, 66, -40, -1, -10, -32, 57, -17, 1, 2, -2, 9, -23, 77, 85, 12, -32, -62, -35], "withholdReward": false, "trial_id": "mdp_trial_2", "block": "test", "trialIndex": 5, "score": 56, "costs": 0, "simulationMode": [null, null, null, null, null], "rewards": [-2, 1, -1, -8, 66], "path": ["0", "0", "12", "13", "14", "15", "16"], "rt": [2583, 385, 398, 946, 364], "actions": ["right", "right", "right", "up", "up"], "actionTimes": [5509, 6418, 7341, 8803, 9695], "queries": {"click": {"state": {"target": [], "time": []}, "edge": {"target": [], "time": []}}, "mouseover": {"state": {"target": [], "time": []}, "edge": {"target": [], "time": []}}, "mouseout": {"state": {"target": ["20", "12", "23", "0", "12", "14"], "time": [1338, 1388, 1654, 4519, 12361, 12412]}, "edge": {"target": [], "time": []}}}, "displayed_time": "16.93", "trialTime": 21185, "trial_type": "mouselab-mdp", "trial_index": 16, "time_elapsed": 522000, "internal_node_id": "0.0-6.0-1.0-1.0"}}, {"uniqueid": "w18642308:a39156300", "current_trial": 17, "dateTime": 1693837038461, "trialdata": {"revealed_states": [], "clicked_states": [], "num_clicks_accrued": [0, 0, 0, 0, 0, 0, 0, 0, 0, 0, 0, 0, 0], "stateRewards": ["", -1, -3, -7, -7, -76, 30, -49, 11, -70, 56, 2, 1, 4, -3, -14, -59, -83, -25, -9, -21, -67, -73, -2, 4, 4, -9, -11, -32, 60, 9, -87, 22, -64], "withholdReward": false, "trial_id": "mdp_trial_3", "block": "test", "trialIndex": 6, "score": -94, "costs": 0, "simulationMode": [null, null, null, null, null], "rewards": [-1, -3, -7, -7, -76], "path": ["0", "0", "1", "2", "3", "4", "5"], "rt": [2400, 175, 372, 856, 687], "actions": ["up", "up", "up", "right", "up"], "actionTimes": [5044, 5761, 6662, 8060, 9285], "queries": {"click": {"state": {"target": [], "time": []}, "edge": {"target": [], "time": []}}, "mouseover": {"state": {"target": ["15"], "time": [3617]}, "edge": {"target": [], "time": []}}, "mouseout": {"state": {"target": ["20", "19", "13", "12", "0", "15"], "time": [851, 1168, 1218, 1267, 3500, 3650]}, "edge": {"target": [], "time": []}}}, "displayed_time": "16.65", "trialTime": 18766, "trial_type": "mouselab-mdp", "trial_index": 17, "time_elapsed": 542146, "internal_node_id": "0.0-6.0-1.0-2.0"}}, {"uniqueid": "w18642308:a39156300", "current_trial": 18, "dateTime": 1693837057810, "trialdata": {"revealed_states": [], "clicked_states": [], "num_clicks_accrued": [0, 0, 0, 0, 0, 0, 0, 0, 0, 0, 0, 0, 0], "stateRewards": ["", -1, 1, -5, -6, -78, 47, -13, 12, 48, -88, 20, 2, -3, -2, 13, -20, 37, -57, 14, -38, 30, 31, -2, -2, 8, 2, -23, 78, 28, 12, -74, -88, 8], "withholdReward": false, "trial_id": "mdp_trial_4", "block": "test", "trialIndex": 7, "score": 41, "costs": 0, "simulationMode": [null, null, null, null, null], "rewards": [2, -3, -2, 14, 30], "path": ["0", "0", "12", "13", "14", "19", "21"], "rt": [1881, 263, 309, 901, 823], "actions": ["right", "right", "right", "down", "down"], "actionTimes": [4282, 5068, 5904, 7333, 8682], "queries": {"click": {"state": {"target": [], "time": []}, "edge": {"target": [], "time": []}}, "mouseover": {"state": {"target": [], "time": []}, "edge": {"target": [], "time": []}}, "mouseout": {"state": {"target": ["19", "22", "0", "0"], "time": [1098, 1148, 1414, 2440]}, "edge": {"target": [], "time": []}}}, "displayed_time": "16.41", "trialTime": 18198, "trial_type": "mouselab-mdp", "trial_index": 18, "time_elapsed": 561496, "internal_node_id": "0.0-6.0-1.0-3.0"}}, {"uniqueid": "w18642308:a39156300", "current_trial": 19, "dateTime": 1693837077527, "trialdata": {"revealed_states": [], "clicked_states": [], "num_clicks_accrued": [0, 0, 0, 0, 0, 0, 0, 0, 0, 0, 0, 0, 0], "stateRewards": ["", -1, -4, -1, -11, 43, 69, 39, 4, 17, -20, -82, -2, -1, 4, 8, -79, 24, -79, 11, 36, 64, 41, 2, 4, -1, 11, -79, -47, 75, -3, 63, -36, -19], "withholdReward": false, "trial_id": "mdp_trial_5", "block": "test", "trialIndex": 8, "score": 53, "costs": 0, "simulationMode": [null, null, null, null, null], "rewards": [-2, -1, 4, 11, 41], "path": ["0", "0", "12", "13", "14", "19", "22"], "rt": [1697, 228, 376, 745, 796], "actions": ["right", "right", "right", "down", "left"], "actionTimes": [4347, 5112, 6042, 7314, 8638], "queries": {"click": {"state": {"target": [], "time": []}, "edge": {"target": [], "time": []}}, "mouseover": {"state": {"target": [], "time": []}, "edge": {"target": [], "time": []}}, "mouseout": {"state": {"target": ["14", "13", "0"], "time": [1361, 1411, 2700]}, "edge": {"target": [], "time": []}}}, "displayed_time": "16.65", "trialTime": 18581, "trial_type": "mouselab-mdp", "trial_index": 19, "time_elapsed": 581212, "internal_node_id": "0.0-6.0-1.0-4.0"}}, {"uniqueid": "w18642308:a39156300", "current_trial": 20, "dateTime": 1693837103772, "trialdata": {"revealed_states": [], "clicked_states": [], "num_clicks_accrued": [0, 0, 0, 0, 0, 0, 0, 0, 0, 0, 0, 0, 0], "stateRewards": ["", -2, -2, -7, -13, -10, 49, -68, -1, 84, 70, 88, 1, 4, 4, 12, -57, 25, 30, 8, -1, -77, 57, 2, 3, 2, 3, -18, -80, 23, -15, -41, 70, 11], "withholdReward": false, "trial_id": "mdp_trial_6", "block": "test", "trialIndex": 9, "score": -60, "costs": 0, "simulationMode": [null, null, null, null, null], "rewards": [1, 4, 4, 8, -77], "path": ["0", "0", "12", "13", "14", "19", "21"], "rt": [1775, 200, 335, 605, 397], "actions": ["right", "right", "right", "down", "down"], "actionTimes": [3773, 4520, 5387, 6525, 7461], "queries": {"click": {"state": {"target": [], "time": []}, "edge": {"target": [], "time": []}}, "mouseover": {"state": {"target": [], "time": []}, "edge": {"target": [], "time": []}}, "mouseout": {"state": {"target": ["13", "12", "0"], "time": [765, 814, 2048]}, "edge": {"target": [], "time": []}}}, "displayed_time": "16.00", "trialTime": 25048, "trial_type": "mouselab-mdp", "trial_index": 20, "time_elapsed": 607458, "internal_node_id": "0.0-6.0-1.0-5.0"}}, {"uniqueid": "w18642308:a39156300", "current_trial": 21, "dateTime": 1693837127550, "trialdata": {"revealed_states": [], "clicked_states": [], "num_clicks_accrued": [0, 0, 0, 0, 0, 0, 0, 0, 0, 0, 0, 0, 0], "stateRewards": ["", 1, 2, 3, 16, 63, -25, 16, -4, -14, 82, -66, -1, -3, -3, -11, -14, 19, 46, 3, -34, -82, 66, -2, -3, 4, -5, -63, 77, -37, -1, -45, -41, 84], "withholdReward": false, "trial_id": "mdp_trial_7", "block": "test", "trialIndex": 10, "score": -86, "costs": 0, "simulationMode": [null, null, null, null, null], "rewards": [-1, -3, -3, 3, -82], "path": ["0", "0", "12", "13", "14", "19", "21"], "rt": [1950, 246, 255, 705, 524], "actions": ["right", "right", "right", "down", "down"], "actionTimes": [3909, 4722, 5509, 6738, 7804], "queries": {"click": {"state": {"target": [], "time": []}, "edge": {"target": [], "time": []}}, "mouseover": {"state": {"target": [], "time": []}, "edge": {"target": [], "time": []}}, "mouseout": {"state": {"target": ["23", "0", "20", "22"], "time": [748, 2000, 21363, 21412]}, "edge": {"target": [], "time": []}}}, "displayed_time": "15.96", "trialTime": 22636, "trial_type": "mouselab-mdp", "trial_index": 21, "time_elapsed": 631236, "internal_node_id": "0.0-6.0-1.0-6.0"}}, {"uniqueid": "w18642308:a39156300", "current_trial": 22, "dateTime": 1693837149767, "trialdata": {"revealed_states": [], "clicked_states": [], "num_clicks_accrued": [0, 0, 0, 0, 0, 0, 0, 0, 0, 0, 0, 0, 0], "stateRewards": ["", -1, -3, -7, -4, -85, -70, 79, 8, 84, -66, 42, 2, -2, -3, -16, -54, -66, 68, -3, 21, -14, 7, -2, -1, -3, -8, 75, 80, 86, -7, -84, 73, -16], "withholdReward": false, "trial_id": "mdp_trial_8", "block": "test", "trialIndex": 11, "score": -20, "costs": 0, "simulationMode": [null, null, null, null, null], "rewards": [2, -2, -3, -3, -14], "path": ["0", "0", "12", "13", "14", "19", "21"], "rt": [2799, 162, 241, 680, 438], "actions": ["right", "right", "right", "down", "down"], "actionTimes": [6532, 7214, 7975, 9196, 10153], "queries": {"click": {"state": {"target": [], "time": []}, "edge": {"target": [], "time": []}}, "mouseover": {"state": {"target": [], "time": []}, "edge": {"target": [], "time": []}}, "mouseout": {"state": {"target": ["15", "17", "14", "13", "12", "0"], "time": [966, 988, 2447, 2481, 2547, 3795]}, "edge": {"target": [], "time": []}}}, "displayed_time": "17.73", "trialTime": 20961, "trial_type": "mouselab-mdp", "trial_index": 22, "time_elapsed": 653453, "internal_node_id": "0.0-6.0-1.0-7.0"}}, {"uniqueid": "w18642308:a39156300", "current_trial": 23, "dateTime": 1693837187460, "trialdata": {"revealed_states": [], "clicked_states": [], "num_clicks_accrued": [0, 0, 0, 0, 0, 0, 0, 0, 0, 0, 0, 0, 0], "stateRewards": ["", -1, -2, 8, -6, -79, -6, 87, 9, -5, -66, -38, 2, 2, 5, -6, -82, 74, 85, -8, 67, -30, -15, 1, -2, -2, -2, 87, 64, 49, 7, 2, -38, -9], "withholdReward": false, "trial_id": "mdp_trial_9", "block": "test", "trialIndex": 12, "score": -14, "costs": 0, "simulationMode": [null, null, null, null, null], "rewards": [2, 2, 5, -8, -15], "path": ["0", "0", "12", "13", "14", "19", "22"], "rt": [2087, 217, 251, 665, 1234], "actions": ["right", "right", "right", "down", "left"], "actionTimes": [5426, 6186, 6963, 8162, 9928], "queries": {"click": {"state": {"target": [], "time": []}, "edge": {"target": [], "time": []}}, "mouseover": {"state": {"target": [], "time": []}, "edge": {"target": [], "time": []}}, "mouseout": {"state": {"target": ["1", "18", "15", "17", "22", "0", "17", "15", "1", "0", "0"], "time": [952, 1018, 1039, 1061, 1768, 3388, 24680, 24713, 24864, 25795, 35669]}, "edge": {"target": [], "time": []}}}, "displayed_time": "17.34", "trialTime": 36444, "trial_type": "mouselab-mdp", "trial_index": 23, "time_elapsed": 691145, "internal_node_id": "0.0-6.0-1.0-8.0"}}, {"uniqueid": "w18642308:a39156300", "current_trial": 24, "dateTime": 1693837207796, "trialdata": {"revealed_states": [], "clicked_states": [], "num_clicks_accrued": [0, 0, 0, 0, 0, 0, 0, 0, 0, 0, 0, 0, 0], "stateRewards": ["", -1, 3, -7, 16, -32, -74, -48, 2, 10, 15, -30, 1, 1, -2, 10, 12, -83, 67, 13, -66, 47, 65, -2, 4, 2, -14, -8, -57, 24, 9, 65, 12, 46], "withholdReward": false, "trial_id": "mdp_trial_10", "block": "test", "trialIndex": 13, "score": -21, "costs": 0, "simulationMode": [null, null, null, null, null], "rewards": [-1, 3, -7, 16, -32], "path": ["0", "0", "1", "2", "3", "4", "5"], "rt": [3660, 279, 400, 2487, 735], "actions": ["up", "up", "up", "right", "up"], "actionTimes": [6158, 6985, 7914, 10935, 12215], "queries": {"click": {"state": {"target": [], "time": []}, "edge": {"target": [], "time": []}}, "mouseover": {"state": {"target": ["22"], "time": [4198]}, "edge": {"target": [], "time": []}}, "mouseout": {"state": {"target": ["12", "0", "22"], "time": [1399, 2572, 4281]}, "edge": {"target": [], "time": []}}}, "displayed_time": "16.51", "trialTime": 19065, "trial_type": "mouselab-mdp", "trial_index": 24, "time_elapsed": 711482, "internal_node_id": "0.0-6.0-1.0-9.0"}}, {"uniqueid": "w18642308:a39156300", "current_trial": 25, "dateTime": 1693837230435, "trialdata": {"revealed_states": [], "clicked_states": [], "num_clicks_accrued": [0, 0, 0, 0, 0, 0, 0, 0, 0, 0, 0, 0, 0], "stateRewards": ["", 1, 3, 1, -13, 52, -28, 67, -14, 3, 63, -70, -1, -4, 7, -11, -10, 47, -18, 6, 69, -9, -61, 2, 3, -6, 10, 63, -34, 40, -6, -79, -35, -32], "withholdReward": false, "trial_id": "mdp_trial_11", "block": "test", "trialIndex": 14, "score": -42, "costs": 0, "simulationMode": [null, null, null, null, null], "rewards": [2, 3, -6, -6, -35], "path": ["0", "0", "23", "24", "25", "30", "32"], "rt": [1643, 255, 432, 1085, 509], "actions": ["left", "left", "left", "down", "down"], "actionTimes": [4421, 5219, 6178, 7788, 8814], "queries": {"click": {"state": {"target": [], "time": []}, "edge": {"target": [], "time": []}}, "mouseover": {"state": {"target": [], "time": []}, "edge": {"target": [], "time": []}}, "mouseout": {"state": {"target": ["20", "0"], "time": [1439, 2819]}, "edge": {"target": [], "time": []}}}, "displayed_time": "16.78", "trialTime": 21481, "trial_type": "mouselab-mdp", "trial_index": 25, "time_elapsed": 734121, "internal_node_id": "0.0-6.0-1.0-10.0"}}, {"uniqueid": "w18642308:a39156300", "current_trial": 26, "dateTime": 1693837248933, "trialdata": {"revealed_states": [], "clicked_states": [], "num_clicks_accrued": [0, 0, 0, 0, 0, 0, 0, 0, 0, 0, 0, 0, 0], "stateRewards": ["", 1, 3, -2, 15, 51, 15, -19, 11, 67, -45, -73, 2, 4, -2, -13, 36, 9, -28, 10, -30, 31, 16, 1, 2, -1, -16, 14, -22, 36, -1, 88, -5, 45], "withholdReward": false, "trial_id": "mdp_trial_12", "block": "test", "trialIndex": 15, "score": 45, "costs": 0, "simulationMode": [null, null, null, null, null], "rewards": [2, 4, -2, 10, 31], "path": ["0", "0", "12", "13", "14", "19", "21"], "rt": [2264, 230, 387, 878, 446], "actions": ["right", "right", "right", "down", "down"], "actionTimes": [3992, 4744, 5666, 7091, 8064], "queries": {"click": {"state": {"target": [], "time": []}, "edge": {"target": [], "time": []}}, "mouseover": {"state": {"target": ["13"], "time": [2254]}, "edge": {"target": [], "time": []}}, "mouseout": {"state": {"target": ["0", "13"], "time": [2221, 2288]}, "edge": {"target": [], "time": []}}}, "displayed_time": "15.73", "trialTime": 17182, "trial_type": "mouselab-mdp", "trial_index": 26, "time_elapsed": 752619, "internal_node_id": "0.0-6.0-1.0-11.0"}}, {"uniqueid": "w18642308:a39156300", "current_trial": 27, "dateTime": 1693837268165, "trialdata": {"revealed_states": [], "clicked_states": [], "num_clicks_accrued": [0, 0, 0, 0, 0, 0, 0, 0, 0, 0, 0, 0, 0], "stateRewards": ["", 2, -4, 1, -12, -59, -53, -74, 16, -88, -66, 66, 1, -2, 8, -9, -14, 22, 25, -1, -39, 47, -14, -1, -1, -2, 1, -4, 52, -26, 15, -7, 46, 43], "withholdReward": false, "trial_id": "mdp_trial_13", "block": "test", "trialIndex": 16, "score": 53, "costs": 0, "simulationMode": [null, null, null, null, null], "rewards": [1, -2, 8, -1, 47], "path": ["0", "0", "12", "13", "14", "19", "21"], "rt": [2076, 204, 385, 702, 417], "actions": ["right", "right", "right", "down", "down"], "actionTimes": [4256, 4985, 5924, 7152, 8113], "queries": {"click": {"state": {"target": [], "time": []}, "edge": {"target": [], "time": []}}, "mouseover": {"state": {"target": [], "time": []}, "edge": {"target": [], "time": []}}, "mouseout": {"state": {"target": ["14", "13", "12", "0"], "time": [940, 1041, 1107, 1157]}, "edge": {"target": [], "time": []}}}, "displayed_time": "16.18", "trialTime": 17935, "trial_type": "mouselab-mdp", "trial_index": 27, "time_elapsed": 771851, "internal_node_id": "0.0-6.0-1.0-12.0"}}, {"uniqueid": "w18642308:a39156300", "current_trial": 28, "dateTime": 1693837309756, "trialdata": {"revealed_states": [], "clicked_states": ["21", "32", "27", "16", "9", "5", "7"], "num_clicks_accrued": [0, 0, 0, 0, 0, 0, 0, 0, 0, 0, 0, 0, 0], "stateRewards": ["", 1, -4, -4, 8, 1, -79, 68, -10, -79, 8, -74, -1, -3, -6, 14, 43, 23, 9, 5, -51, 63, 61, -2, 4, 6, -10, 69, -32, 57, 15, -80, -80, -77], "withholdReward": false, "trial_id": "mdp_trial_14", "block": "test", "trialIndex": 17, "score": -71.05, "costs": -15.05, "simulationMode": [null, null, null, null, null], "rewards": [-1, -3, -6, 5, -51], "path": ["0", "0", "12", "13", "14", "19", "20"], "rt": [29307, 648, 626, 818, 682], "actions": ["right", "right", "right", "down", "right"], "actionTimes": [32010, 33203, 34343, 35682, 36883], "queries": {"click": {"state": {"target": ["21", "32", "27", "16", "9", "5", "7"], "time": [3788, 6685, 9876, 13021, 16588, 20150, 24549]}, "edge": {"target": [], "time": []}}, "mouseover": {"state": {"target": ["21", "22", "31", "30", "32", "30", "25", "26", "27", "10", "2", "16", "4", "9", "5", "4", "7", "7", "12", "26", "29", "25", "23", "0", "0"], "time": [3440, 4644, 4734, 4772, 5077, 7470, 7533, 7601, 7747, 10539, 10576, 10978, 13562, 13864, 17269, 20814, 20900, 23039, 28349, 28466, 28504, 28682, 28781, 29165, 30109]}, "edge": {"target": [], "time": []}}, "mouseout": {"state": {"target": ["19", "19", "22", "0", "21", "22", "31", "30", "32", "30", "25", "26", "27", "10", "2", "16", "4", "9", "5", "4", "7", "7", "12", "26", "29", "25", "23", "0", "0"], "time": [958, 1291, 1323, 2780, 4021, 4675, 4767, 4830, 7383, 7501, 7568, 7688, 10482, 10571, 10607, 13477, 13594, 17177, 20782, 20870, 22801, 25206, 28378, 28499, 28598, 28732, 28916, 29863, 30996]}, "edge": {"target": [], "time": []}}}, "displayed_time": "37.41", "trialTime": 40245, "trial_type": "mouselab-mdp", "trial_index": 28, "time_elapsed": 813442, "internal_node_id": "0.0-6.0-1.0-13.0"}}, {"uniqueid": "w18642308:a39156300", "current_trial": 29, "dateTime": 1693837335464, "trialdata": {"revealed_states": [], "clicked_states": [], "num_clicks_accrued": [0, 0, 0, 0, 0, 0, 0, 0, 0, 0, 0, 0, 0], "stateRewards": ["", -2, -4, -6, 12, -58, -70, -80, 2, 16, -88, -62, 1, 2, -5, 11, 77, -35, -44, -5, 18, -83, 87, 1, -3, -5, 13, -44, -21, -86, 10, -52, 8, 29], "withholdReward": false, "trial_id": "mdp_trial_15", "block": "test", "trialIndex": 18, "score": -90, "costs": 0, "simulationMode": [null, null, null, null, null], "rewards": [1, 2, -5, -5, -83], "path": ["0", "0", "12", "13", "14", "19", "21"], "rt": [2461, 409, 423, 799, 943], "actions": ["right", "right", "right", "down", "down"], "actionTimes": [10173, 11107, 12048, 13405, 14871], "queries": {"click": {"state": {"target": [], "time": []}, "edge": {"target": [], "time": []}}, "mouseover": {"state": {"target": ["13"], "time": [8325]}, "edge": {"target": [], "time": []}}, "mouseout": {"state": {"target": ["22", "0", "0", "13"], "time": [2362, 3861, 8292, 8358]}, "edge": {"target": [], "time": []}}}, "displayed_time": "21.71", "trialTime": 24300, "trial_type": "mouselab-mdp", "trial_index": 29, "time_elapsed": 839149, "internal_node_id": "0.0-6.0-1.0-14.0"}}, {"uniqueid": "w18642308:a39156300", "current_trial": 30, "dateTime": 1693837362368, "trialdata": {"revealed_states": [], "clicked_states": [], "num_clicks_accrued": [0, 0, 0, 0, 0, 0, 0, 0, 0, 0, 0, 0, 0], "stateRewards": ["", -2, 1, -5, 2, -68, 80, 33, 10, 67, -59, 20, -1, -3, 3, 14, 74, -2, 24, -16, 63, 80, 46, -1, 4, 6, 12, 83, -38, -43, -4, 43, 14, -79], "withholdReward": false, "trial_id": "mdp_trial_16", "block": "test", "trialIndex": 19, "score": 63, "costs": 0, "simulationMode": [null, null, null, null, null], "rewards": [-1, -3, 3, -16, 80], "path": ["0", "0", "12", "13", "14", "19", "21"], "rt": [6212, 250, 233, 696, 356], "actions": ["right", "right", "right", "down", "down"], "actionTimes": [11330, 12102, 12893, 14121, 15003], "queries": {"click": {"state": {"target": [], "time": []}, "edge": {"target": [], "time": []}}, "mouseover": {"state": {"target": [], "time": []}, "edge": {"target": [], "time": []}}, "mouseout": {"state": {"target": ["0", "1", "15", "14", "13", "12", "0", "23"], "time": [29, 930, 1197, 3761, 3794, 3912, 9524, 24593]}, "edge": {"target": [], "time": []}}}, "displayed_time": "19.13", "trialTime": 25464, "trial_type": "mouselab-mdp", "trial_index": 30, "time_elapsed": 866054, "internal_node_id": "0.0-6.0-1.0-15.0"}}, {"uniqueid": "w18642308:a39156300", "current_trial": 31, "dateTime": 1693837384157, "trialdata": {"revealed_states": [], "clicked_states": [], "num_clicks_accrued": [0, 0, 0, 0, 0, 0, 0, 0, 0, 0, 0, 0, 0], "stateRewards": ["", -2, -3, 8, 14, -73, 73, 84, -12, -2, -50, -17, 2, 1, -2, -9, -44, -27, -33, 16, -63, -47, -66, -2, 1, 4, -5, -33, -11, 50, 9, 38, -79, 31], "withholdReward": false, "trial_id": "mdp_trial_17", "block": "test", "trialIndex": 20, "score": -30, "costs": 0, "simulationMode": [null, null, null, null, null], "rewards": [2, 1, -2, 16, -47], "path": ["0", "0", "12", "13", "14", "19", "21"], "rt": [2295, 245, 297, 622, 511], "actions": ["right", "right", "right", "down", "down"], "actionTimes": [4842, 5627, 6463, 7616, 8656], "queries": {"click": {"state": {"target": [], "time": []}, "edge": {"target": [], "time": []}}, "mouseover": {"state": {"target": [], "time": []}, "edge": {"target": [], "time": []}}, "mouseout": {"state": {"target": ["0", "21"], "time": [2621, 19194]}, "edge": {"target": [], "time": []}}}, "displayed_time": "16.55", "trialTime": 20491, "trial_type": "mouselab-mdp", "trial_index": 31, "time_elapsed": 887842, "internal_node_id": "0.0-6.0-1.0-16.0"}}, {"uniqueid": "w18642308:a39156300", "current_trial": 32, "dateTime": 1693837402521, "trialdata": {"revealed_states": [], "clicked_states": [], "num_clicks_accrued": [0, 0, 0, 0, 0, 0, 0, 0, 0, 0, 0, 0, 0], "stateRewards": ["", -2, -1, -6, -14, -55, 78, -13, 11, 14, -71, 59, 2, 2, 6, -6, 9, 38, 14, 7, 85, 11, 68, 1, -4, -1, -3, -63, -85, 9, -2, 63, -86, -10], "withholdReward": false, "trial_id": "mdp_trial_18", "block": "test", "trialIndex": 21, "score": 28, "costs": 0, "simulationMode": [null, null, null, null, null], "rewards": [2, 2, 6, 7, 11], "path": ["0", "0", "12", "13", "14", "19", "21"], "rt": [4530, 173, 296, 520, 291], "actions": ["right", "right", "right", "down", "down"], "actionTimes": [6661, 7356, 8191, 9245, 10078], "queries": {"click": {"state": {"target": [], "time": []}, "edge": {"target": [], "time": []}}, "mouseover": {"state": {"target": ["13"], "time": [3706]}, "edge": {"target": [], "time": []}}, "mouseout": {"state": {"target": ["23", "0", "0", "13", "20"], "time": [574, 1224, 3673, 3734, 15296]}, "edge": {"target": [], "time": []}}}, "displayed_time": "16.13", "trialTime": 16990, "trial_type": "mouselab-mdp", "trial_index": 32, "time_elapsed": 906206, "internal_node_id": "0.0-6.0-1.0-17.0"}}, {"uniqueid": "w18642308:a39156300", "current_trial": 33, "dateTime": 1693837420871, "trialdata": {"revealed_states": [], "clicked_states": [], "num_clicks_accrued": [0, 0, 0, 0, 0, 0, 0, 0, 0, 0, 0, 0, 0], "stateRewards": ["", 2, 1, -3, 7, 46, 11, -36, 16, 71, 5, 1, 2, -2, -8, -3, -4, 6, 55, 7, 68, -54, 2, 1, 1, 6, -6, 42, -4, -84, -11, -65, 63, 25], "withholdReward": false, "trial_id": "mdp_trial_19", "block": "test", "trialIndex": 22, "score": -55, "costs": 0, "simulationMode": [null, null, null, null, null], "rewards": [2, -2, -8, 7, -54], "path": ["0", "0", "12", "13", "14", "19", "21"], "rt": [1855, 294, 238, 532, 356], "actions": ["right", "right", "right", "down", "down"], "actionTimes": [3766, 4594, 5356, 6435, 7325], "queries": {"click": {"state": {"target": [], "time": []}, "edge": {"target": [], "time": []}}, "mouseover": {"state": {"target": [], "time": []}, "edge": {"target": [], "time": []}}, "mouseout": {"state": {"target": ["1", "0"], "time": [148, 1957]}, "edge": {"target": [], "time": []}}}, "displayed_time": "15.92", "trialTime": 16896, "trial_type": "mouselab-mdp", "trial_index": 33, "time_elapsed": 924556, "internal_node_id": "0.0-6.0-1.0-18.0"}}, {"uniqueid": "w18642308:a39156300", "current_trial": 34, "dateTime": 1693837439931, "trialdata": {"revealed_states": [], "clicked_states": [], "num_clicks_accrued": [0, 0, 0, 0, 0, 0, 0, 0, 0, 0, 0, 0, 0], "stateRewards": ["", 2, 3, -1, 16, -78, -11, 46, 2, -20, 79, -67, 2, 3, 2, 11, -83, -42, -58, -11, -67, -22, 55, 2, -1, -1, -16, -83, -82, 23, -11, -29, 13, 13], "withholdReward": false, "trial_id": "mdp_trial_20", "block": "test", "trialIndex": 23, "score": -26, "costs": 0, "simulationMode": [null, null, null, null, null], "rewards": [2, 3, 2, -11, -22], "path": ["0", "0", "12", "13", "14", "19", "21"], "rt": [2740, 117, 246, 424, 402], "actions": ["right", "right", "right", "down", "down"], "actionTimes": [5013, 5676, 6477, 7449, 8372], "queries": {"click": {"state": {"target": [], "time": []}, "edge": {"target": [], "time": []}}, "mouseover": {"state": {"target": ["23", "30", "31", "22"], "time": [2401, 3017, 3133, 3300]}, "edge": {"target": [], "time": []}}, "mouseout": {"state": {"target": ["20", "19", "23", "0", "23", "30", "31", "22"], "time": [851, 884, 1183, 2367, 2451, 3101, 3162, 3499]}, "edge": {"target": [], "time": []}}}, "displayed_time": "16.28", "trialTime": 17646, "trial_type": "mouselab-mdp", "trial_index": 34, "time_elapsed": 943616, "internal_node_id": "0.0-6.0-1.0-19.0"}}, {"uniqueid": "w18642308:a39156300", "current_trial": 35, "dateTime": 1693837459063, "trialdata": {"revealed_states": [], "clicked_states": [], "num_clicks_accrued": [0, 0, 0, 0, 0, 0, 0, 0, 0, 0, 0, 0, 0], "stateRewards": ["", 2, -1, -1, -9, -81, -30, 55, -6, 78, 25, 62, 2, 4, -1, 9, -85, 1, -19, 1, -60, 12, -34, 1, 4, -1, -13, -24, -16, -83, -8, 16, 43, 9], "withholdReward": false, "trial_id": "mdp_trial_21", "block": "test", "trialIndex": 24, "score": 18, "costs": 0, "simulationMode": [null, null, null, null, null], "rewards": [2, 4, -1, 1, 12], "path": ["0", "0", "12", "13", "14", "19", "21"], "rt": [2170, 208, 216, 479, 378], "actions": ["right", "right", "right", "down", "down"], "actionTimes": [4386, 5121, 5874, 6883, 7795], "queries": {"click": {"state": {"target": [], "time": []}, "edge": {"target": [], "time": []}}, "mouseover": {"state": {"target": [], "time": []}, "edge": {"target": [], "time": []}}, "mouseout": {"state": {"target": ["13", "14", "13", "12", "0"], "time": [169, 1018, 1051, 1134, 3017]}, "edge": {"target": [], "time": []}}}, "displayed_time": "16.23", "trialTime": 17714, "trial_type": "mouselab-mdp", "trial_index": 35, "time_elapsed": 962749, "internal_node_id": "0.0-6.0-1.0-20.0"}}, {"uniqueid": "w18642308:a39156300", "current_trial": 36, "dateTime": 1693837476611, "trialdata": {"revealed_states": [], "clicked_states": [], "num_clicks_accrued": [0, 0, 0, 0, 0, 0, 0, 0, 0, 0, 0, 0, 0], "stateRewards": ["", 2, 4, 4, 9, -88, -10, 44, 16, -54, 64, 78, 1, 2, 5, 16, 80, 36, 7, -4, 9, -47, -70, -1, -3, 6, -16, 11, 80, 28, 8, -1, 34, -17], "withholdReward": false, "trial_id": "mdp_trial_22", "block": "test", "trialIndex": 25, "score": -43, "costs": 0, "simulationMode": [null, null, null, null, null], "rewards": [1, 2, 5, -4, -47], "path": ["0", "0", "12", "13", "14", "19", "21"], "rt": [1927, 182, 269, 363, 249], "actions": ["right", "right", "right", "down", "down"], "actionTimes": [3525, 4224, 5029, 5923, 6711], "queries": {"click": {"state": {"target": [], "time": []}, "edge": {"target": [], "time": []}}, "mouseover": {"state": {"target": ["13"], "time": [2469]}, "edge": {"target": [], "time": []}}, "mouseout": {"state": {"target": ["0", "13"], "time": [2435, 2499]}, "edge": {"target": [], "time": []}}}, "displayed_time": "15.60", "trialTime": 16047, "trial_type": "mouselab-mdp", "trial_index": 36, "time_elapsed": 980296, "internal_node_id": "0.0-6.0-1.0-21.0"}}, {"uniqueid": "w18642308:a39156300", "current_trial": 37, "dateTime": 1693837495835, "trialdata": {"revealed_states": [], "clicked_states": [], "num_clicks_accrued": [0, 0, 0, 0, 0, 0, 0, 0, 0, 0, 0, 0, 0], "stateRewards": ["", 1, 2, -8, 9, 18, -83, -11, 6, -64, -48, 17, -2, -2, -5, -3, -24, -3, -86, -2, 48, -41, -22, -2, 4, 7, 8, 81, 13, -48, 10, 61, 19, 57], "withholdReward": false, "trial_id": "mdp_trial_23", "block": "test", "trialIndex": 26, "score": -52, "costs": 0, "simulationMode": [null, null, null, null, null], "rewards": [-2, -2, -5, -2, -41], "path": ["0", "0", "12", "13", "14", "19", "21"], "rt": [1801, 105, 102, 626, 276], "actions": ["right", "right", "right", "down", "down"], "actionTimes": [4213, 4863, 5526, 6691, 7517], "queries": {"click": {"state": {"target": [], "time": []}, "edge": {"target": [], "time": []}}, "mouseover": {"state": {"target": ["12", "13", "14"], "time": [3035, 3074, 3122]}, "edge": {"target": [], "time": []}}, "mouseout": {"state": {"target": ["23", "0", "12", "0", "12", "13", "14"], "time": [286, 585, 735, 3001, 3069, 3118, 3154]}, "edge": {"target": [], "time": []}}}, "displayed_time": "16.42", "trialTime": 17705, "trial_type": "mouselab-mdp", "trial_index": 37, "time_elapsed": 999520, "internal_node_id": "0.0-6.0-1.0-22.0"}}, {"uniqueid": "w18642308:a39156300", "current_trial": 38, "dateTime": 1693837516822, "trialdata": {"revealed_states": [], "clicked_states": [], "num_clicks_accrued": [0, 0, 0, 0, 0, 0, 0, 0, 0, 0, 0, 0, 0], "stateRewards": ["", -2, 3, -1, -9, 44, 48, -37, -3, 71, -39, 87, -1, 3, -4, 4, -21, 59, -15, -8, -1, 28, -38, 2, 4, 4, 8, -85, -72, -63, 14, 58, 63, -46], "withholdReward": false, "trial_id": "mdp_trial_24", "block": "test", "trialIndex": 27, "score": 18, "costs": 0, "simulationMode": [null, null, null, null, null], "rewards": [-1, 3, -4, -8, 28], "path": ["0", "0", "12", "13", "14", "19", "21"], "rt": [4834, 643, 105, 546, 406], "actions": ["right", "right", "right", "down", "down"], "actionTimes": [8448, 9620, 10287, 11369, 12307], "queries": {"click": {"state": {"target": [], "time": []}, "edge": {"target": [], "time": []}}, "mouseover": {"state": {"target": ["0", "0", "12", "14"], "time": [4798, 5181, 7229, 7296]}, "edge": {"target": [], "time": []}}, "mouseout": {"state": {"target": ["15", "18", "12", "0", "0", "0", "0", "12", "14"], "time": [1584, 1666, 1833, 2133, 4449, 4832, 7163, 7263, 7325]}, "edge": {"target": [], "time": []}}}, "displayed_time": "17.62", "trialTime": 19726, "trial_type": "mouselab-mdp", "trial_index": 38, "time_elapsed": 1020507, "internal_node_id": "0.0-6.0-1.0-23.0"}}, {"uniqueid": "w18642308:a39156300", "current_trial": 39, "dateTime": 1693837537981, "trialdata": {"revealed_states": [], "clicked_states": [], "num_clicks_accrued": [0, 0, 0, 0, 0, 0, 0, 0, 0, 0, 0, 0, 0], "stateRewards": ["", 1, 4, 5, -5, 58, -80, 75, 6, 25, -39, 46, 2, -2, 4, 2, 59, 31, -22, -12, -61, 15, 72, 1, -2, -7, 8, 77, 76, -23, -7, 71, -15, -3], "withholdReward": false, "trial_id": "mdp_trial_25", "block": "test", "trialIndex": 28, "score": 7, "costs": 0, "simulationMode": [null, null, null, null, null], "rewards": [2, -2, 4, -12, 15], "path": ["0", "0", "12", "13", "14", "19", "21"], "rt": [5191, 259, 170, 667, 475], "actions": ["right", "right", "right", "down", "down"], "actionTimes": [10365, 11152, 11868, 13057, 14072], "queries": {"click": {"state": {"target": [], "time": []}, "edge": {"target": [], "time": []}}, "mouseover": {"state": {"target": ["22"], "time": [7085]}, "edge": {"target": [], "time": []}}, "mouseout": {"state": {"target": ["13", "0", "22"], "time": [3753, 6968, 7367]}, "edge": {"target": [], "time": []}}}, "displayed_time": "19.18", "trialTime": 19878, "trial_type": "mouselab-mdp", "trial_index": 39, "time_elapsed": 1041666, "internal_node_id": "0.0-6.0-1.0-24.0"}}, {"uniqueid": "w18642308:a39156300", "current_trial": 40, "dateTime": 1693837556270, "trialdata": {"revealed_states": [], "clicked_states": [], "num_clicks_accrued": [0, 0, 0, 0, 0, 0, 0, 0, 0, 0, 0, 0, 0], "stateRewards": ["", -1, -4, -6, -15, 21, -67, -63, 9, 51, 69, -14, -1, 3, 8, -8, 39, 72, 63, 15, 19, 47, 15, 1, 4, 5, 16, -18, 34, 35, -14, -80, 40, 1], "withholdReward": false, "trial_id": "mdp_trial_26", "block": "test", "trialIndex": 29, "score": 72, "costs": 0, "simulationMode": [null, null, null, null, null], "rewards": [-1, 3, 8, 15, 47], "path": ["0", "0", "12", "13", "14", "19", "21"], "rt": [1612, 153, 201, 344, 395], "actions": ["right", "right", "right", "down", "down"], "actionTimes": [3733, 4429, 5187, 6084, 7015], "queries": {"click": {"state": {"target": [], "time": []}, "edge": {"target": [], "time": []}}, "mouseover": {"state": {"target": [], "time": []}, "edge": {"target": [], "time": []}}, "mouseout": {"state": {"target": ["14", "12", "0"], "time": [633, 865, 2220]}, "edge": {"target": [], "time": []}}}, "displayed_time": "16.13", "trialTime": 16980, "trial_type": "mouselab-mdp", "trial_index": 40, "time_elapsed": 1059955, "internal_node_id": "0.0-6.0-1.0-25.0"}}, {"uniqueid": "w18642308:a39156300", "current_trial": 41, "dateTime": 1693837575610, "trialdata": {"revealed_states": [], "clicked_states": [], "num_clicks_accrued": [0, 0, 0, 0, 0, 0, 0, 0, 0, 0, 0, 0, 0], "stateRewards": ["", 2, -3, 5, 11, -79, 54, 11, -9, -78, 33, 22, -2, -1, 2, 14, 43, 34, 1, 10, 49, -65, 39, -1, 1, -1, 3, -16, -2, 11, 2, 12, 48, -65], "withholdReward": false, "trial_id": "mdp_trial_27", "block": "test", "trialIndex": 30, "score": -56, "costs": 0, "simulationMode": [null, null, null, null, null], "rewards": [-2, -1, 2, 10, -65], "path": ["0", "0", "12", "13", "14", "19", "21"], "rt": [1543, 130, 140, 290, 285], "actions": ["right", "right", "right", "down", "down"], "actionTimes": [3646, 4298, 4984, 5816, 6622], "queries": {"click": {"state": {"target": [], "time": []}, "edge": {"target": [], "time": []}}, "mouseover": {"state": {"target": [], "time": []}, "edge": {"target": [], "time": []}}, "mouseout": {"state": {"target": ["14", "13", "0", "12", "17"], "time": [809, 837, 8562, 12317, 12400]}, "edge": {"target": [], "time": []}}}, "displayed_time": "16.11", "trialTime": 18016, "trial_type": "mouselab-mdp", "trial_index": 41, "time_elapsed": 1079295, "internal_node_id": "0.0-6.0-1.0-26.0"}}, {"uniqueid": "w18642308:a39156300", "current_trial": 42, "dateTime": 1693837595275, "trialdata": {"revealed_states": [], "clicked_states": [], "num_clicks_accrued": [0, 0, 0, 0, 0, 0, 0, 0, 0, 0, 0, 0, 0], "stateRewards": ["", -2, -1, -1, 5, -54, -87, 35, 2, -8, 20, -22, 1, 3, 6, 13, -75, -32, -55, -3, 56, 62, -22, -1, -4, -1, -7, -51, 84, 70, 7, -15, 5, 55], "withholdReward": false, "trial_id": "mdp_trial_28", "block": "test", "trialIndex": 31, "score": 69, "costs": 0, "simulationMode": [null, null, null, null, null], "rewards": [1, 3, 6, -3, 62], "path": ["0", "0", "12", "13", "14", "19", "21"], "rt": [1471, 160, 156, 222, 369], "actions": ["right", "right", "right", "down", "down"], "actionTimes": [3784, 4474, 5183, 5936, 6832], "queries": {"click": {"state": {"target": [], "time": []}, "edge": {"target": [], "time": []}}, "mouseover": {"state": {"target": [], "time": []}, "edge": {"target": [], "time": []}}, "mouseout": {"state": {"target": ["22", "0"], "time": [999, 2395]}, "edge": {"target": [], "time": []}}}, "displayed_time": "16.32", "trialTime": 18240, "trial_type": "mouselab-mdp", "trial_index": 42, "time_elapsed": 1098960, "internal_node_id": "0.0-6.0-1.0-27.0"}}, {"uniqueid": "w18642308:a39156300", "current_trial": 43, "dateTime": 1693837613415, "trialdata": {"revealed_states": [], "clicked_states": [], "num_clicks_accrued": [0, 0, 0, 0, 0, 0, 0, 0, 0, 0, 0, 0, 0], "stateRewards": ["", -1, 1, 3, -8, -23, -15, -14, -11, -23, 58, 68, 1, 3, 5, 12, -17, -41, -7, -10, -4, 82, 10, 1, 4, -4, 11, 73, 55, -55, -1, -86, -86, 54], "withholdReward": false, "trial_id": "mdp_trial_29", "block": "test", "trialIndex": 32, "score": 81, "costs": 0, "simulationMode": [null, null, null, null, null], "rewards": [1, 3, 5, -10, 82], "path": ["0", "0", "12", "13", "14", "19", "21"], "rt": [1737, 190, 164, 195, 298], "actions": ["right", "right", "right", "down", "down"], "actionTimes": [3458, 4179, 4885, 5611, 6435], "queries": {"click": {"state": {"target": [], "time": []}, "edge": {"target": [], "time": []}}, "mouseover": {"state": {"target": ["18"], "time": [1908]}, "edge": {"target": [], "time": []}}, "mouseout": {"state": {"target": ["0", "18"], "time": [1762, 1940]}, "edge": {"target": [], "time": []}}}, "displayed_time": "15.73", "trialTime": 16608, "trial_type": "mouselab-mdp", "trial_index": 43, "time_elapsed": 1117101, "internal_node_id": "0.0-6.0-1.0-28.0"}}, {"uniqueid": "w18642308:a39156300", "current_trial": 44, "dateTime": 1693837632639, "trialdata": {"revealed_states": [], "clicked_states": [], "num_clicks_accrued": [0, 0, 0, 0, 0, 0, 0, 0, 0, 0, 0, 0, 0], "stateRewards": ["", -2, -3, 8, -4, -30, 31, 69, 9, 66, 87, 64, -2, 2, 8, 5, 47, 16, -39, -8, -54, 51, -19, 1, -2, -2, -11, -25, -26, 43, -9, 19, -84, 86], "withholdReward": false, "trial_id": "mdp_trial_30", "block": "test", "trialIndex": 33, "score": 51, "costs": 0, "simulationMode": [null, null, null, null, null], "rewards": [-2, 2, 8, -8, 51], "path": ["0", "0", "12", "13", "14", "19", "21"], "rt": [2893, 113, 181, 211, 290], "actions": ["right", "right", "right", "down", "down"], "actionTimes": [5120, 5767, 6500, 7253, 8076], "queries": {"click": {"state": {"target": [], "time": []}, "edge": {"target": [], "time": []}}, "mouseover": {"state": {"target": ["13"], "time": [4133]}, "edge": {"target": [], "time": []}}, "mouseout": {"state": {"target": ["13", "12", "0", "13"], "time": [669, 752, 4082, 4167]}, "edge": {"target": [], "time": []}}}, "displayed_time": "16.24", "trialTime": 17693, "trial_type": "mouselab-mdp", "trial_index": 44, "time_elapsed": 1136325, "internal_node_id": "0.0-6.0-1.0-29.0"}}, {"uniqueid": "w18642308:a39156300", "current_trial": 45, "dateTime": 1693837651749, "trialdata": {"revealed_states": [], "clicked_states": [], "num_clicks_accrued": [0, 0, 0, 0, 0, 0, 0, 0, 0, 0, 0, 0, 0], "stateRewards": ["", -1, 3, -4, -14, 78, 67, 2, 13, -32, 28, 39, -2, 1, -4, -4, -4, -42, -86, 11, 64, -29, -32, -1, -4, 2, -7, 5, 68, -61, 2, -21, 85, 50], "withholdReward": false, "trial_id": "mdp_trial_31", "block": "test", "trialIndex": 34, "score": -23, "costs": 0, "simulationMode": [null, null, null, null, null], "rewards": [-2, 1, -4, 11, -29], "path": ["0", "0", "12", "13", "14", "19", "21"], "rt": [1835, 120, 216, 209, 432], "actions": ["right", "right", "right", "down", "down"], "actionTimes": [3819, 4480, 5234, 5985, 6954], "queries": {"click": {"state": {"target": [], "time": []}, "edge": {"target": [], "time": []}}, "mouseover": {"state": {"target": [], "time": []}, "edge": {"target": [], "time": []}}, "mouseout": {"state": {"target": ["14", "0"], "time": [259, 2027]}, "edge": {"target": [], "time": []}}}, "displayed_time": "15.99", "trialTime": 17578, "trial_type": "mouselab-mdp", "trial_index": 45, "time_elapsed": 1155434, "internal_node_id": "0.0-6.0-1.0-30.0"}}, {"uniqueid": "w18642308:a39156300", "current_trial": 46, "dateTime": 1693837670581, "trialdata": {"revealed_states": [], "clicked_states": [], "num_clicks_accrued": [0, 0, 0, 0, 0, 0, 0, 0, 0, 0, 0, 0, 0], "stateRewards": ["", 1, -2, -2, 10, -31, -77, 35, 9, -47, 8, 48, -2, 1, -4, -3, -26, -50, 43, -11, 76, -38, 17, 1, -1, 6, 10, 15, -9, 12, -8, 85, 11, -55], "withholdReward": false, "trial_id": "mdp_trial_32", "block": "test", "trialIndex": 35, "score": -54, "costs": 0, "simulationMode": [null, null, null, null, null], "rewards": [-2, 1, -4, -11, -38], "path": ["0", "0", "12", "13", "14", "19", "21"], "rt": [1478, 183, 210, 275, 466], "actions": ["right", "right", "right", "down", "down"], "actionTimes": [3916, 4617, 5380, 6176, 7170], "queries": {"click": {"state": {"target": [], "time": []}, "edge": {"target": [], "time": []}}, "mouseover": {"state": {"target": [], "time": []}, "edge": {"target": [], "time": []}}, "mouseout": {"state": {"target": ["19", "0"], "time": [1091, 2483]}, "edge": {"target": [], "time": []}}}, "displayed_time": "16.44", "trialTime": 17378, "trial_type": "mouselab-mdp", "trial_index": 46, "time_elapsed": 1174266, "internal_node_id": "0.0-6.0-1.0-31.0"}}, {"uniqueid": "w18642308:a39156300", "current_trial": 47, "dateTime": 1693837691819, "trialdata": {"revealed_states": [], "clicked_states": [], "num_clicks_accrued": [0, 0, 0, 0, 0, 0, 0, 0, 0, 0, 0, 0, 0], "stateRewards": ["", 2, -1, 8, -2, -16, 69, -39, -7, -13, -27, -86, 2, -2, 2, 13, -34, -16, -20, -5, 19, 81, 32, -2, -1, 2, -14, 20, 80, 58, 4, 70, 12, 73], "withholdReward": false, "trial_id": "mdp_trial_33", "block": "test", "trialIndex": 36, "score": 78, "costs": 0, "simulationMode": [null, null, null, null, null], "rewards": [2, -2, 2, -5, 81], "path": ["0", "0", "12", "13", "14", "19", "21"], "rt": [2860, 111, 228, 331, 435], "actions": ["right", "right", "right", "down", "down"], "actionTimes": [4540, 5175, 5960, 6810, 7779], "queries": {"click": {"state": {"target": [], "time": []}, "edge": {"target": [], "time": []}}, "mouseover": {"state": {"target": ["12"], "time": [3161]}, "edge": {"target": [], "time": []}}, "mouseout": {"state": {"target": ["0", "12"], "time": [3156, 3206]}, "edge": {"target": [], "time": []}}}, "displayed_time": "15.68", "trialTime": 19768, "trial_type": "mouselab-mdp", "trial_index": 47, "time_elapsed": 1195505, "internal_node_id": "0.0-6.0-1.0-32.0"}}, {"uniqueid": "w18642308:a39156300", "current_trial": 48, "dateTime": 1693837713901, "trialdata": {"revealed_states": [], "clicked_states": [], "num_clicks_accrued": [0, 0, 0, 0, 0, 0, 0, 0, 0, 0, 0, 0, 0], "stateRewards": ["", -1, 1, -2, 5, 73, 15, 61, 8, 7, 38, 76, 2, 2, -4, -6, -6, -26, 43, -5, -45, -85, -35, -2, 1, -4, 15, -10, 69, 72, -11, 84, -49, -38], "withholdReward": false, "trial_id": "mdp_trial_34", "block": "test", "trialIndex": 37, "score": -90, "costs": 0, "simulationMode": [null, null, null, null, null], "rewards": [2, 2, -4, -5, -85], "path": ["0", "0", "12", "13", "14", "19", "21"], "rt": [2371, 165, 219, 208, 358], "actions": ["right", "right", "right", "down", "down"], "actionTimes": [6355, 7065, 7844, 8572, 9473], "queries": {"click": {"state": {"target": [], "time": []}, "edge": {"target": [], "time": []}}, "mouseover": {"state": {"target": [], "time": []}, "edge": {"target": [], "time": []}}, "mouseout": {"state": {"target": ["15", "16", "15", "14", "13", "12", "0"], "time": [907, 1224, 1689, 2656, 2705, 2855, 12332]}, "edge": {"target": [], "time": []}}}, "displayed_time": "17.99", "trialTime": 20588, "trial_type": "mouselab-mdp", "trial_index": 48, "time_elapsed": 1217587, "internal_node_id": "0.0-6.0-1.0-33.0"}}, {"uniqueid": "w18642308:a39156300", "current_trial": 49, "dateTime": 1693837735920, "trialdata": {"revealed_states": [], "clicked_states": [], "num_clicks_accrued": [0, 0, 0, 0, 0, 0, 0, 0, 0, 0, 0, 0, 0], "stateRewards": ["", -1, -2, 4, 9, 10, -75, 39, 16, -43, 88, -19, -1, 1, 2, 4, -31, 10, 73, 12, 41, -64, -81, -2, 2, -6, 1, -81, -1, -26, 3, -59, -3, -20], "withholdReward": false, "trial_id": "mdp_trial_35", "block": "test", "trialIndex": 38, "score": -50, "costs": 0, "simulationMode": [null, null, null, null, null], "rewards": [-1, 1, 2, 12, -64], "path": ["0", "0", "12", "13", "14", "19", "21"], "rt": [2051, 197, 199, 289, 410], "actions": ["right", "right", "right", "down", "down"], "actionTimes": [6565, 7305, 8062, 8876, 9811], "queries": {"click": {"state": {"target": [], "time": []}, "edge": {"target": [], "time": []}}, "mouseover": {"state": {"target": ["12"], "time": [4821]}, "edge": {"target": [], "time": []}}, "mouseout": {"state": {"target": ["14", "13", "12", "0", "12", "20", "21"], "time": [3105, 3173, 3338, 4788, 4855, 15478, 15545]}, "edge": {"target": [], "time": []}}}, "displayed_time": "18.52", "trialTime": 20445, "trial_type": "mouselab-mdp", "trial_index": 49, "time_elapsed": 1239605, "internal_node_id": "0.0-6.0-1.0-34.0"}}, {"uniqueid": "w18642308:a39156300", "current_trial": 50, "dateTime": 1693837755374, "trialdata": {"revealed_states": [], "clicked_states": [], "num_clicks_accrued": [0, 0, 0, 0, 0, 0, 0, 0, 0, 0, 0, 0, 0], "stateRewards": ["", -2, -1, -3, -1, -78, -6, 2, -1, 22, -88, 32, 2, 2, -7, -8, -51, -17, 54, 2, -44, 54, 75, 2, -2, -8, -15, -29, 12, -67, 15, -1, -47, -47], "withholdReward": false, "trial_id": "mdp_trial_36", "block": "test", "trialIndex": 39, "score": 53, "costs": 0, "simulationMode": [null, null, null, null, null], "rewards": [2, 2, -7, 2, 54], "path": ["0", "0", "12", "13", "14", "19", "21"], "rt": [1900, 189, 225, 242, 420], "actions": ["right", "right", "right", "down", "down"], "actionTimes": [4761, 5485, 6240, 7028, 7970], "queries": {"click": {"state": {"target": [], "time": []}, "edge": {"target": [], "time": []}}, "mouseover": {"state": {"target": ["12"], "time": [3662]}, "edge": {"target": [], "time": []}}, "mouseout": {"state": {"target": ["0", "23", "0", "12"], "time": [1478, 1645, 3627, 3695]}, "edge": {"target": [], "time": []}}}, "displayed_time": "16.87", "trialTime": 18108, "trial_type": "mouselab-mdp", "trial_index": 50, "time_elapsed": 1259059, "internal_node_id": "0.0-6.0-1.0-35.0"}}, {"uniqueid": "w18642308:a39156300", "current_trial": 51, "dateTime": 1693837779073, "trialdata": {"revealed_states": [], "clicked_states": [], "num_clicks_accrued": [0, 0, 0, 0, 0, 0, 0, 0, 0, 0, 0, 0, 0], "stateRewards": ["", 1, 1, -5, 10, -31, 73, 14, -8, -23, 63, -70, -1, 2, 8, 7, 25, -59, 27, -10, -40, -71, -15, -2, 3, -8, -5, -19, 77, -34, 7, 67, 63, 19], "withholdReward": false, "trial_id": "mdp_trial_37", "block": "test", "trialIndex": 40, "score": -72, "costs": 0, "simulationMode": [null, null, null, null, null], "rewards": [-1, 2, 8, -10, -71], "path": ["0", "0", "12", "13", "14", "19", "21"], "rt": [3065, 190, 251, 172, 354], "actions": ["right", "right", "right", "down", "down"], "actionTimes": [9264, 9986, 10787, 11502, 12391], "queries": {"click": {"state": {"target": [], "time": []}, "edge": {"target": [], "time": []}}, "mouseover": {"state": {"target": ["12", "13", "12", "13", "14"], "time": [7017, 7177, 7560, 7960, 8027]}, "edge": {"target": [], "time": []}}, "mouseout": {"state": {"target": ["12", "0", "12", "13", "12", "13", "14"], "time": [5012, 6978, 7128, 7494, 7927, 7993, 8061]}, "edge": {"target": [], "time": []}}}, "displayed_time": "20.20", "trialTime": 22195, "trial_type": "mouselab-mdp", "trial_index": 51, "time_elapsed": 1282757, "internal_node_id": "0.0-6.0-1.0-36.0"}}, {"uniqueid": "w18642308:a39156300", "current_trial": 52, "dateTime": 1693837798759, "trialdata": {"revealed_states": [], "clicked_states": [], "num_clicks_accrued": [0, 0, 0, 0, 0, 0, 0, 0, 0, 0, 0, 0, 0], "stateRewards": ["", 2, 4, 7, -6, -76, -81, 2, 5, -66, -3, 36, -2, -4, 6, -2, -69, 4, -49, -6, 67, 38, -67, 2, 1, 1, 6, -68, -21, 52, -16, -16, 6, -70], "withholdReward": false, "trial_id": "mdp_trial_38", "block": "test", "trialIndex": 41, "score": 32, "costs": 0, "simulationMode": [null, null, null, null, null], "rewards": [-2, -4, 6, -6, 38], "path": ["0", "0", "12", "13", "14", "19", "21"], "rt": [1773, 162, 224, 197, 354], "actions": ["right", "right", "right", "down", "down"], "actionTimes": [4114, 4821, 5576, 6305, 7197], "queries": {"click": {"state": {"target": [], "time": []}, "edge": {"target": [], "time": []}}, "mouseover": {"state": {"target": [], "time": []}, "edge": {"target": [], "time": []}}, "mouseout": {"state": {"target": ["17", "17", "15", "12", "0"], "time": [304, 1103, 1137, 1221, 2386]}, "edge": {"target": [], "time": []}}}, "displayed_time": "16.35", "trialTime": 18028, "trial_type": "mouselab-mdp", "trial_index": 52, "time_elapsed": 1302445, "internal_node_id": "0.0-6.0-1.0-37.0"}}, {"uniqueid": "w18642308:a39156300", "current_trial": 53, "dateTime": 1693837817235, "trialdata": {"revealed_states": [], "clicked_states": [], "num_clicks_accrued": [0, 0, 0, 0, 0, 0, 0, 0, 0, 0, 0, 0, 0], "stateRewards": ["", 2, 3, -2, -8, -8, -41, 74, 15, -23, -80, 1, 1, 3, 3, -15, -63, -78, 67, 13, 75, -41, 86, 2, -2, 6, -3, -8, -49, 50, -6, 83, 74, 80], "withholdReward": false, "trial_id": "mdp_trial_39", "block": "test", "trialIndex": 42, "score": -21, "costs": 0, "simulationMode": [null, null, null, null, null], "rewards": [1, 3, 3, 13, -41], "path": ["0", "0", "12", "13", "14", "19", "21"], "rt": [2112, 126, 94, 412, 388], "actions": ["right", "right", "right", "down", "down"], "actionTimes": [4126, 4785, 5413, 6342, 7260], "queries": {"click": {"state": {"target": [], "time": []}, "edge": {"target": [], "time": []}}, "mouseover": {"state": {"target": ["17"], "time": [2141]}, "edge": {"target": [], "time": []}}, "mouseout": {"state": {"target": ["0", "17"], "time": [2085, 2206]}, "edge": {"target": [], "time": []}}}, "displayed_time": "16.02", "trialTime": 16861, "trial_type": "mouselab-mdp", "trial_index": 53, "time_elapsed": 1320920, "internal_node_id": "0.0-6.0-1.0-38.0"}}, {"uniqueid": "w18642308:a39156300", "current_trial": 54, "dateTime": 1693837836430, "trialdata": {"revealed_states": [], "clicked_states": [], "num_clicks_accrued": [0, 0, 0, 0, 0, 0, 0, 0, 0, 0, 0, 0, 0], "stateRewards": ["", -2, 1, -3, -16, -39, -52, 30, -7, -41, -59, 11, 2, 1, 8, 2, -11, -26, -42, -13, 87, -59, -48, -1, -1, -1, 16, -79, 31, 50, -1, -84, 34, -82], "withholdReward": false, "trial_id": "mdp_trial_40", "block": "test", "trialIndex": 43, "score": -61, "costs": 0, "simulationMode": [null, null, null, null, null], "rewards": [2, 1, 8, -13, -59], "path": ["0", "0", "12", "13", "14", "19", "21"], "rt": [1826, 33, 386, 396, 327], "actions": ["right", "right", "right", "down", "down"], "actionTimes": [4108, 4670, 5595, 6529, 7399], "queries": {"click": {"state": {"target": [], "time": []}, "edge": {"target": [], "time": []}}, "mouseover": {"state": {"target": [], "time": []}, "edge": {"target": [], "time": []}}, "mouseout": {"state": {"target": ["13", "12", "0"], "time": [1012, 1044, 2327]}, "edge": {"target": [], "time": []}}}, "displayed_time": "16.29", "trialTime": 17594, "trial_type": "mouselab-mdp", "trial_index": 54, "time_elapsed": 1340115, "internal_node_id": "0.0-6.0-1.0-39.0"}}, {"uniqueid": "w18642308:a39156300", "current_trial": 55, "dateTime": 1693837891242, "trialdata": {"rt": 54764, "response": {"Q0": "$-2 to $2", "Q1": "$-16 to $16", "Q2": "$-16 to $16", "Q3": "The cost for clicking on nodes varied between nodes.", "Q4": "Neither motivated nor unmotivated"}, "question_order": [0, 1, 2, 3, 4], "trial_id": "final_quiz_control", "trial_type": "survey-multi-choice", "trial_index": 55, "time_elapsed": 1394927, "internal_node_id": "0.0-6.0-2.0"}}, {"uniqueid": "w18642308:a39156300", "current_trial": 56, "dateTime": 1693837910499, "trialdata": {"rt": 19217, "response": {"Q0": "no strategy", "Q1": "no", "Q2": "na"}, "trial_id": "self_report_control", "trial_type": "survey-text", "trial_index": 56, "time_elapsed": 1414185, "internal_node_id": "0.0-6.0-3.0"}}, {"uniqueid": "w18642308:a39156300", "current_trial": 57, "dateTime": 1693837950783, "trialdata": {"rt": 40274, "response": {"Q0": "Disagree", "Q1": "Strongly disagree", "Q2": "Neither disagree nor agree", "Q3": "Neither disagree nor agree", "Q4": "Neither disagree nor agree", "Q5": "Neither disagree nor agree", "Q6": "Neither disagree nor agree"}, "question_order": [0, 1, 2, 3, 4, 5, 6], "trial_id": "self_report_2", "trial_type": "survey-multi-choice", "trial_index": 57, "time_elapsed": 1454469, "internal_node_id": "0.0-6.0-4.0"}}, {"uniqueid": "w18642308:a39156300", "current_trial": 58, "dateTime": 1693837974811, "trialdata": {"rt": 23985, "response": {"gender": "female", "age": "51", "colorblind": "0", "effort": "0"}, "trial_type": "survey-html-form", "trial_index": 58, "time_elapsed": 1478497, "internal_node_id": "0.0-6.0-5.0"}}, {"uniqueid": "w18642308:a39156300", "current_trial": 59, "dateTime": 1693838004574, "trialdata": {"rt": 29751, "response": {"Q0": "no", "Q1": "no", "Q2": "the game was boring and long"}, "trial_type": "survey-text", "trial_index": 59, "time_elapsed": 1508259, "internal_node_id": "0.0-6.0-6.0"}}, {"uniqueid": "w18642308:a39156300", "current_trial": 60, "dateTime": 1693838030466, "trialdata": {"rt": 25874, "stimulus": "<h1>Completion Code Instructions (1/2)</h1>\n<br><br><br><br>\nYou have reached the end of the experiment! The completion code consists of two parts: (1) a code with 2 characters (2) a code with 6 characters. On this page, you will receive the second part of the code. The first part of the completion code will be on the next page.\n<br><br>\nThe second part of your completion code is: <b>EWEK22</b>\n<br><br>\nPlease note this down. Then, press 'Next' in order to find the first part of your completion code. Once the data has been saved, you will receive this code either in this window or in the original browser window where you started the experiment.\n <br><br>\n<h2 style='color: red;'>Note: this is <strong>NOT</strong> the full completion code. Copy this down and click 'Next' to get the full completion code on the next page.</h2>", "response": 0, "trial_type": "html-button-response", "trial_index": 60, "time_elapsed": 1534152, "internal_node_id": "0.0-6.0-7.0"}}, {"uniqueid": "w18642308:a39156300", "current_trial": 61, "dateTime": 1693838031483, "trialdata": {"success": true, "trial_type": "fullscreen", "trial_index": 61, "time_elapsed": 1535169, "internal_node_id": "0.0-7.0"}}], "questiondata": {"params": {"CODE": "C6DMOQA6", "MIN_TIME": 14, "inspectCost": 1, "startTime": "Mon Sep 04 2023 15:08:15 GMT+0100 (British Summer Time)", "bonusRate": 0.002, "variance": "1_2_4_8_44", "branching": "31123"}, "final_score": -232.05}, "eventdata": [{"eventtype": "initialized", "value": null, "timestamp": 1693836495382, "interval": 0}, {"eventtype": "window_resize", "value": [1024, 605], "timestamp": 1693836495383, "interval": 1}, {"eventtype": "window_resize", "value": [1024, 605], "timestamp": 1693836495689, "interval": 306}, {"eventtype": "window_resize", "value": [1300, 731], "timestamp": 1693836500979, "interval": 5290}, {"eventtype": "focus", "value": "off", "timestamp": 1693836807298, "interval": 306319}, {"eventtype": "focus", "value": "on", "timestamp": 1693836807301, "interval": 3}, {"eventtype": "window_resize", "value": [1024, 605], "timestamp": 1693836807523, "interval": 222}, {"eventtype": "window_resize", "value": [1300, 731], "timestamp": 1693836809131, "interval": 1608}, {"eventtype": "window_resize", "value": [1024, 605], "timestamp": 1693838030851, "interval": 1221720}], "useragent": "Mozilla/5.0 (X11; CrOS x86_64 14541.0.0) AppleWebKit/537.36 (KHTML, like Gecko) Chrome/116.0.0.0 Safari/537.36", "mode": "live", "id": "w18642308:a39156300", "status": "user data saved", "Beginhit": "2023-09-04 14:08:14.539899", "Beginexp": "2023-09-04 14:08:21.849909", "Endhit": "2023-09-04 14:33:52.115386", "psiturkStatus": 3, "browser": "<redacted>", "platform": "chromeos", "language": "en-GB"}