{"condition": 0, "counterbalance": 0, "assignmentId": "a32136405", "workerId": "w87613104", "hitId": "h14478674", "currenttrial": 67, "bonus": 0, "data": [{"uniqueid": "w87613104:a32136405", "current_trial": 0, "dateTime": 1691159253626, "trialdata": {"success": true, "trial_type": "fullscreen", "trial_index": 0, "time_elapsed": 8402, "internal_node_id": "0.0-0.0"}}, {"uniqueid": "w87613104:a32136405", "current_trial": 1, "dateTime": 1691159276127, "trialdata": {"view_history": [{"page_index": 0, "viewing_time": 22489}], "rt": 22490, "trial_id": "exp_instructions_control", "trial_type": "instructions", "trial_index": 1, "time_elapsed": 30904, "internal_node_id": "0.0-1.0"}}, {"uniqueid": "w87613104:a32136405", "current_trial": 2, "dateTime": 1691159283550, "trialdata": {"success": true, "trial_type": "fullscreen", "trial_index": 2, "time_elapsed": 38327, "internal_node_id": "0.0-2.0-0.0"}}, {"uniqueid": "w87613104:a32136405", "current_trial": 3, "dateTime": 1691159458262, "trialdata": {"view_history": [{"page_index": 0, "viewing_time": 55721}, {"page_index": 1, "viewing_time": 64408}, {"page_index": 2, "viewing_time": 18531}, {"page_index": 3, "viewing_time": 36044}], "rt": 174705, "trial_id": "mouselab_instructions_1_control", "trial_type": "instructions", "trial_index": 3, "time_elapsed": 213039, "internal_node_id": "0.0-2.0-1.0"}}, {"uniqueid": "w87613104:a32136405", "current_trial": 4, "dateTime": 1691159589424, "trialdata": {"revealed_states": [], "clicked_states": ["24", "28", "26", "25", "30", "33", "32", "31", "27", "23", "10", "8", "9", "11", "3", "4", "6", "5", "7", "18", "14", "17", "20", "22", "13", "12", "1", "2", "16", "21", "29"], "num_clicks_accrued": [0, 0, 0, 0, 0, 0, 0, 0, 0, 0, 0, 0, 0], "stateRewards": ["", -10, -10, -10, -10, 10, -10, -10, 10, -10, 10, 10, 10, -10, 10, 10, -10, 10, -10, 10, -10, -10, -10, -10, -10, 10, -10, 10, 10, -10, 10, -10, -10, -10], "withholdReward": false, "trial_id": "practice_1", "block": "test", "trialIndex": 0, "score": -2, "costs": -15.5, "simulationMode": [null, null, null, null, null], "rewards": [10, -10, 10, 10, -10], "path": ["0", "0", "12", "13", "14", "19", "22"], "rt": [108958, 63, 439, 1475, 2521], "actions": ["right", "right", "right", "down", "left"], "actionTimes": [115721, 116298, 117290, 119276, 122313], "queries": {"click": {"state": {"target": ["24", "28", "26", "25", "30", "33", "32", "31", "27", "23", "10", "8", "9", "11", "3", "4", "6", "5", "7", "18", "14", "17", "20", "22", "13", "12", "1", "2", "16", "21", "29"], "time": [10298, 12384, 15272, 21651, 23040, 28630, 30117, 31303, 33219, 35279, 38604, 39650, 42436, 43790, 45077, 51175, 53354, 54699, 56088, 57328, 59017, 60622, 67904, 69926, 71820, 73104, 76139, 77877, 82541, 83855, 86384]}, "edge": {"target": [], "time": []}}, "mouseover": {"state": {"target": ["23", "24", "28", "25", "26", "29", "27", "28", "25", "30", "28", "28", "28", "28", "25", "32", "33", "32", "31", "25", "26", "27", "28", "23", "24", "10", "10", "8", "3", "9", "11", "8", "3", "2", "10", "8", "10", "2", "7", "18", "7", "4", "6", "6", "5", "5", "7", "18", "18", "15", "14", "17", "16", "15", "19", "14", "13", "15", "17", "20", "21", "22", "19", "13", "12", "23", "0", "0", "1", "2", "12", "12", "18", "15", "16", "15", "21", "12", "0", "31", "30", "30", "29", "26", "28", "28", "28", "28", "28", "25", "24", "23", "12", "12", "18", "15", "22", "12", "17", "19", "19"], "time": [9306, 9625, 11585, 13242, 13427, 16607, 17993, 18744, 20810, 22462, 24497, 25064, 26656, 26996, 27233, 27614, 28142, 29307, 30939, 32002, 32433, 32799, 34283, 34884, 36237, 37785, 38169, 39313, 40136, 41697, 43149, 44310, 44373, 45642, 45910, 46556, 48372, 50023, 50067, 50190, 50424, 50808, 51606, 52992, 53914, 54288, 55358, 56764, 57061, 57842, 58645, 59598, 60950, 62682, 63030, 63465, 64517, 64681, 65127, 67483, 68640, 69600, 70403, 71518, 72365, 73941, 74504, 75186, 75600, 77487, 78971, 80855, 81090, 81223, 81556, 83125, 83495, 84994, 85024, 85075, 85150, 85241, 86007, 87057, 87113, 88042, 88291, 90691, 92259, 93278, 94761, 94809, 96779, 97779, 98096, 98413, 101983, 104644, 104685, 107670, 111319]}, "edge": {"target": [], "time": []}}, "mouseout": {"state": {"target": ["0", "23", "24", "28", "25", "26", "29", "27", "28", "25", "30", "28", "28", "28", "28", "25", "32", "33", "32", "31", "25", "26", "27", "28", "23", "24", "10", "10", "8", "3", "8", "9", "11", "8", "3", "2", "10", "8", "10", "2", "7", "18", "7", "4", "6", "6", "5", "5", "4", "7", "18", "18", "15", "14", "17", "16", "15", "14", "19", "14", "13", "15", "17", "20", "21", "22", "19", "13", "13", "12", "23", "0", "0", "1", "12", "2", "12", "12", "18", "15", "16", "15", "21", "21", "12", "0", "31", "30", "30", "29", "26", "28", "28", "28", "28", "28", "25", "24", "23", "12", "12", "18", "15", "22", "12", "17", "19", "19"], "time": [9174, 9472, 11291, 13091, 13274, 16108, 17676, 18309, 20561, 22384, 24130, 24881, 25194, 26697, 27214, 27257, 27948, 29204, 30876, 31895, 32051, 32468, 33816, 34367, 36035, 37218, 37967, 39248, 40031, 41420, 41470, 42931, 44281, 44339, 45569, 45792, 46010, 48206, 49991, 50045, 50091, 50341, 50557, 51552, 52759, 53548, 54019, 55166, 55244, 56730, 56795, 57790, 58578, 59572, 60911, 62629, 62730, 62948, 63281, 64098, 64631, 64931, 66915, 68351, 69349, 70320, 71169, 71994, 72214, 73295, 74336, 74702, 75579, 76325, 77224, 78359, 80522, 80939, 81188, 81455, 83119, 83143, 84046, 84527, 85013, 85046, 85141, 85174, 85274, 87026, 87087, 87143, 88075, 90592, 91734, 93244, 94728, 94783, 94843, 96848, 98029, 98197, 101883, 102048, 104664, 104710, 107784, 111340]}, "edge": {"target": [], "time": []}}}, "displayed_time": "122.84", "trialTime": 129488, "trial_type": "mouselab-mdp", "trial_index": 4, "time_elapsed": 344200, "internal_node_id": "0.0-2.0-2.0-0.0"}}, {"uniqueid": "w87613104:a32136405", "current_trial": 5, "dateTime": 1691159707415, "trialdata": {"revealed_states": [], "clicked_states": ["23"], "num_clicks_accrued": [0, 0, 0, 0, 0, 0, 0, 0, 0, 0, 0, 0, 0], "stateRewards": ["", 10, 10, 10, 10, 10, -10, -10, -10, -10, 10, -10, 10, -10, 10, -10, -10, 10, -10, 10, -10, -10, 10, 10, 10, 10, 10, 10, -10, 10, -10, -10, 10, 10], "withholdReward": false, "trial_id": "practice_2", "block": "test", "trialIndex": 1, "score": 33, "costs": -0.5, "simulationMode": [null, null, null, null, null], "rewards": [10, 10, 10, -10, 10], "path": ["0", "0", "23", "24", "25", "30", "32"], "rt": [5021, 61030, 2761, 1311, 603], "actions": ["left", "left", "left", "down", "down"], "actionTimes": [13670, 75238, 78524, 80370, 81513], "queries": {"click": {"state": {"target": ["23"], "time": [10352]}, "edge": {"target": [], "time": []}}, "mouseover": {"state": {"target": ["0", "23", "24", "24"], "time": [9480, 9664, 10887, 12535]}, "edge": {"target": [], "time": []}}, "mouseout": {"state": {"target": ["15", "12", "0", "0", "23", "24", "23", "24", "24", "25", "24", "0", "23", "24", "1", "15", "17", "2", "1", "0", "13", "13", "12", "23", "23", "0", "0", "31", "22"], "time": [7061, 7127, 7894, 9530, 10853, 12165, 12498, 15332, 16550, 19084, 19152, 21352, 21452, 22270, 23670, 24938, 24959, 28439, 28471, 28856, 29391, 62590, 62614, 64025, 64844, 109660, 110177, 113311, 114280]}, "edge": {"target": [], "time": []}}}, "displayed_time": "82.03", "trialTime": 117145, "trial_type": "mouselab-mdp", "trial_index": 5, "time_elapsed": 462191, "internal_node_id": "0.0-2.0-2.0-1.0"}}, {"uniqueid": "w87613104:a32136405", "current_trial": 6, "dateTime": 1691159739170, "trialdata": {"view_history": [{"page_index": 0, "viewing_time": 26945}, {"page_index": 1, "viewing_time": 4800}], "rt": 31747, "trial_id": "mouselab_instructions_2_control", "trial_type": "instructions", "trial_index": 6, "time_elapsed": 493947, "internal_node_id": "0.0-2.0-3.0"}}, {"uniqueid": "w87613104:a32136405", "current_trial": 7, "dateTime": 1691159819333, "trialdata": {"rt": 80151, "response": {"Q0": "There is no cost for clicking on nodes.", "Q1": "I will receive a $1 bonus regardless of my performance.", "Q2": "No, the amount of cash at each node of the web may be different each time.", "Q3": "To get the highest total score.", "Q4": "Only after moving the spider.", "Q5": "3 seconds"}, "question_order": [0, 1, 2, 3, 4, 5], "correct": {"Q0": "The cost for clicking on nodes may vary between nodes.", "Q1": "The better I perform the higher my bonus will be.", "Q2": "No, the amount of cash at each node of the web may be different each time.", "Q3": "To get the highest total score.", "Q4": "Only before moving the spider.", "Q5": "3 seconds"}, "trial_id": "mouselab_quiz_control", "trial_type": "survey-multi-choice", "trial_index": 7, "time_elapsed": 574109, "internal_node_id": "0.0-2.0-4.0"}}, {"uniqueid": "w87613104:a32136405", "current_trial": 8, "dateTime": 1691159834513, "trialdata": {"success": true, "trial_type": "fullscreen", "trial_index": 8, "time_elapsed": 589290, "internal_node_id": "0.0-2.1-0.1"}}, {"uniqueid": "w87613104:a32136405", "current_trial": 9, "dateTime": 1691160060859, "trialdata": {"view_history": [{"page_index": 0, "viewing_time": 70117}, {"page_index": 1, "viewing_time": 95504}, {"page_index": 2, "viewing_time": 16509}, {"page_index": 3, "viewing_time": 44209}], "rt": 226338, "trial_id": "mouselab_instructions_1_control", "trial_type": "instructions", "trial_index": 9, "time_elapsed": 815635, "internal_node_id": "0.0-2.1-1.1"}}, {"uniqueid": "w87613104:a32136405", "current_trial": 10, "dateTime": 1691160088599, "trialdata": {"revealed_states": [], "clicked_states": [], "num_clicks_accrued": [0, 0, 0, 0, 0, 0, 0, 0, 0, 0, 0, 0, 0], "stateRewards": ["", -10, -10, -10, -10, 10, -10, -10, 10, -10, 10, 10, 10, -10, 10, 10, -10, 10, -10, 10, -10, -10, -10, -10, -10, 10, -10, 10, 10, -10, 10, -10, -10, -10], "withholdReward": false, "trial_id": "practice_1", "block": "test", "trialIndex": 2, "score": -6.5, "costs": 0, "simulationMode": [null, null, null, null, null], "rewards": [-10, -10, 10, 10, -10], "path": ["0", "0", "23", "24", "25", "30", "32"], "rt": [1506, 303, 365, 10578, 324], "actions": ["left", "left", "left", "down", "down"], "actionTimes": [6264, 7082, 7975, 19080, 19932], "queries": {"click": {"state": {"target": [], "time": []}, "edge": {"target": [], "time": []}}, "mouseover": {"state": {"target": [], "time": []}, "edge": {"target": [], "time": []}}, "mouseout": {"state": {"target": ["13", "12", "0", "28", "1", "18", "14", "12", "23", "28", "10", "2"], "time": [1978, 2228, 9133, 13068, 13100, 13128, 17754, 17786, 17837, 23439, 23523, 23722]}, "edge": {"target": [], "time": []}}}, "displayed_time": "20.47", "trialTime": 26801, "trial_type": "mouselab-mdp", "trial_index": 10, "time_elapsed": 843376, "internal_node_id": "0.0-2.1-2.1-0.1"}}, {"uniqueid": "w87613104:a32136405", "current_trial": 11, "dateTime": 1691160125130, "trialdata": {"revealed_states": [], "clicked_states": ["24", "28", "25"], "num_clicks_accrued": [0, 0, 0, 0, 0, 0, 0, 0, 0, 0, 0, 0, 0], "stateRewards": ["", 10, 10, 10, 10, 10, -10, -10, -10, -10, 10, -10, 10, -10, 10, -10, -10, 10, -10, 10, -10, -10, 10, 10, 10, 10, 10, 10, -10, 10, -10, -10, 10, 10], "withholdReward": false, "trial_id": "practice_2", "block": "test", "trialIndex": 3, "score": 32, "costs": -1.5, "simulationMode": [null, null, null, null, null], "rewards": [10, 10, 10, -10, 10], "path": ["0", "0", "23", "24", "25", "30", "32"], "rt": [8572, 210, 822, 1720, 3042], "actions": ["left", "left", "left", "down", "down"], "actionTimes": [12890, 13621, 14982, 17227, 20780], "queries": {"click": {"state": {"target": ["24", "28", "25"], "time": [5852, 7075, 9456]}, "edge": {"target": [], "time": []}}, "mouseover": {"state": {"target": ["0", "23", "24", "28", "0", "25", "24", "30", "31", "23", "23"], "time": [4919, 4967, 5185, 6569, 8436, 9086, 10119, 10471, 10721, 11021, 11355]}, "edge": {"target": [], "time": []}}, "mouseout": {"state": {"target": ["17", "13", "0", "0", "23", "24", "28", "24", "0", "24", "25", "24", "30", "31", "23", "23", "21", "20", "21"], "time": [2498, 2832, 3214, 4943, 5084, 6507, 7633, 7793, 8603, 8820, 10037, 10198, 10654, 10920, 11120, 11539, 32230, 32517, 33999]}, "edge": {"target": [], "time": []}}}, "displayed_time": "21.30", "trialTime": 35573, "trial_type": "mouselab-mdp", "trial_index": 11, "time_elapsed": 879907, "internal_node_id": "0.0-2.1-2.1-1.1"}}, {"uniqueid": "w87613104:a32136405", "current_trial": 12, "dateTime": 1691160169470, "trialdata": {"view_history": [{"page_index": 0, "viewing_time": 41365}, {"page_index": 1, "viewing_time": 2966}], "rt": 44332, "trial_id": "mouselab_instructions_2_control", "trial_type": "instructions", "trial_index": 12, "time_elapsed": 924247, "internal_node_id": "0.0-2.1-3.1"}}, {"uniqueid": "w87613104:a32136405", "current_trial": 13, "dateTime": 1691160343133, "trialdata": {"rt": 173654, "response": {"Q0": "There is no cost for clicking on nodes.", "Q1": "The better I perform the higher my bonus will be.", "Q2": "No, the amount of cash at each node of the web may be different each time.", "Q3": "To get the highest total score.", "Q4": "Only before moving the spider.", "Q5": "3 seconds"}, "question_order": [0, 1, 2, 3, 4, 5], "correct": {"Q0": "The cost for clicking on nodes may vary between nodes.", "Q1": "The better I perform the higher my bonus will be.", "Q2": "No, the amount of cash at each node of the web may be different each time.", "Q3": "To get the highest total score.", "Q4": "Only before moving the spider.", "Q5": "3 seconds"}, "trial_id": "mouselab_quiz_control", "trial_type": "survey-multi-choice", "trial_index": 13, "time_elapsed": 1097909, "internal_node_id": "0.0-2.1-4.1"}}, {"uniqueid": "w87613104:a32136405", "current_trial": 14, "dateTime": 1691160350378, "trialdata": {"success": true, "trial_type": "fullscreen", "trial_index": 14, "time_elapsed": 1105154, "internal_node_id": "0.0-2.2-0.2"}}, {"uniqueid": "w87613104:a32136405", "current_trial": 15, "dateTime": 1691160398293, "trialdata": {"view_history": [{"page_index": 0, "viewing_time": 8356}, {"page_index": 1, "viewing_time": 10150}, {"page_index": 2, "viewing_time": 6622}, {"page_index": 3, "viewing_time": 22777}], "rt": 47906, "trial_id": "mouselab_instructions_1_control", "trial_type": "instructions", "trial_index": 15, "time_elapsed": 1153070, "internal_node_id": "0.0-2.2-1.2"}}, {"uniqueid": "w87613104:a32136405", "current_trial": 16, "dateTime": 1691160468743, "trialdata": {"revealed_states": [], "clicked_states": ["25", "24", "23", "12", "13"], "num_clicks_accrued": [0, 0, 0, 0, 0, 0, 0, 0, 0, 0, 0, 0, 0], "stateRewards": ["", -10, -10, -10, -10, 10, -10, -10, 10, -10, 10, 10, 10, -10, 10, 10, -10, 10, -10, 10, -10, -10, -10, -10, -10, 10, -10, 10, 10, -10, 10, -10, -10, -10], "withholdReward": false, "trial_id": "practice_1", "block": "test", "trialIndex": 4, "score": 11, "costs": -2.5, "simulationMode": [null, null, null, null, null], "rewards": [10, -10, 10, 10, -10], "path": ["0", "0", "12", "13", "14", "19", "21"], "rt": [11373, 41911, 976, 1380, 324], "actions": ["right", "right", "right", "down", "down"], "actionTimes": [16873, 59307, 60812, 62701, 63536], "queries": {"click": {"state": {"target": ["25", "24", "23", "12", "13"], "time": [8245, 9404, 12566, 13771, 15022]}, "edge": {"target": [], "time": []}}, "mouseover": {"state": {"target": ["23", "24", "25", "25", "24", "23", "28", "26", "26", "28", "23", "12", "13", "0"], "time": [6179, 6213, 6390, 7273, 8857, 10389, 11327, 11425, 11742, 12027, 12193, 13216, 14800, 16008]}, "edge": {"target": [], "time": []}}, "mouseout": {"state": {"target": ["22", "22", "0", "23", "24", "25", "25", "24", "23", "28", "26", "26", "28", "23", "12", "13", "12", "0", "15", "13", "19"], "time": [1568, 3036, 6156, 6205, 6257, 6640, 8559, 10247, 11276, 11352, 11493, 11776, 12098, 13144, 13891, 15707, 15765, 16044, 22698, 23247, 32135]}, "edge": {"target": [], "time": []}}}, "displayed_time": "64.05", "trialTime": 69483, "trial_type": "mouselab-mdp", "trial_index": 16, "time_elapsed": 1223519, "internal_node_id": "0.0-2.2-2.2-0.2"}}, {"uniqueid": "w87613104:a32136405", "current_trial": 17, "dateTime": 1691160505997, "trialdata": {"revealed_states": [], "clicked_states": ["12", "13", "14", "15", "18", "17", "19", "23", "24"], "num_clicks_accrued": [0, 0, 0, 0, 0, 0, 0, 0, 0, 0, 0, 0, 0], "stateRewards": ["", 10, 10, 10, 10, 10, -10, -10, -10, -10, 10, -10, 10, -10, 10, -10, -10, 10, -10, 10, -10, -10, 10, 10, 10, 10, 10, 10, -10, 10, -10, -10, 10, 10], "withholdReward": false, "trial_id": "practice_2", "block": "test", "trialIndex": 5, "score": 49, "costs": -4.5, "simulationMode": [null, null, null, null, null], "rewards": [10, 10, 10, 10, 10], "path": ["0", "0", "23", "24", "25", "26", "27"], "rt": [19931, 983, 1262, 2175, 382], "actions": ["left", "left", "left", "up", "up"], "actionTimes": [23109, 24622, 26397, 29084, 30045], "queries": {"click": {"state": {"target": ["12", "13", "14", "15", "18", "17", "19", "23", "24"], "time": [4310, 5633, 7292, 8453, 9891, 12313, 13760, 17511, 19245]}, "edge": {"target": [], "time": []}}, "mouseover": {"state": {"target": ["12", "12", "13", "14", "15", "18", "16", "17", "19", "22", "0", "23", "23", "24", "25", "30", "31"], "time": [3206, 3854, 5136, 6911, 7917, 9251, 10605, 12025, 13375, 14362, 15292, 16508, 16822, 18166, 19832, 20726, 21308]}, "edge": {"target": [], "time": []}}, "mouseout": {"state": {"target": ["22", "12", "12", "13", "14", "15", "18", "16", "17", "19", "22", "0", "23", "23", "24", "25", "30", "31"], "time": [1534, 3703, 4775, 6377, 7827, 8622, 10057, 11608, 12943, 14326, 15242, 15626, 16641, 18057, 19799, 20594, 21280, 21338]}, "edge": {"target": [], "time": []}}}, "displayed_time": "30.58", "trialTime": 35954, "trial_type": "mouselab-mdp", "trial_index": 17, "time_elapsed": 1260774, "internal_node_id": "0.0-2.2-2.2-1.2"}}, {"uniqueid": "w87613104:a32136405", "current_trial": 18, "dateTime": 1691160565046, "trialdata": {"view_history": [{"page_index": 0, "viewing_time": 56447}, {"page_index": 1, "viewing_time": 2591}], "rt": 59039, "trial_id": "mouselab_instructions_2_control", "trial_type": "instructions", "trial_index": 18, "time_elapsed": 1319823, "internal_node_id": "0.0-2.2-3.2"}}, {"uniqueid": "w87613104:a32136405", "current_trial": 19, "dateTime": 1691160617305, "trialdata": {"rt": 52250, "response": {"Q0": "The cost for clicking on nodes may vary between nodes.", "Q1": "The better I perform the higher my bonus will be.", "Q2": "No, the amount of cash at each node of the web may be different each time.", "Q3": "To get the highest total score.", "Q4": "Only before moving the spider.", "Q5": "3 seconds"}, "question_order": [0, 1, 2, 3, 4, 5], "correct": {"Q0": "The cost for clicking on nodes may vary between nodes.", "Q1": "The better I perform the higher my bonus will be.", "Q2": "No, the amount of cash at each node of the web may be different each time.", "Q3": "To get the highest total score.", "Q4": "Only before moving the spider.", "Q5": "3 seconds"}, "trial_id": "mouselab_quiz_control", "trial_type": "survey-multi-choice", "trial_index": 19, "time_elapsed": 1372082, "internal_node_id": "0.0-2.2-4.2"}}, {"uniqueid": "w87613104:a32136405", "current_trial": 20, "dateTime": 1691160624008, "trialdata": {"rt": 6684, "stimulus": "\n<h1> Get ready to start the game! </h1>\n\nThank you for reading the instructions. Get ready start with the 40 rounds of this game.\n<br><br>\nIf you need to take a break, feel free to take one after the end of a round, before continuing to the next one.\n<br><br>\nRemember, the more money the spider gets, the bigger your bonus will be!\n<br><br>\n<div style='text-align: center;'>Press <code>space</code> to begin.</div>\n\n<br><br>\n(If, at any point, the <code>space</code> key does not take you to the next page, click once on the text and try again.)", "response": " ", "trial_id": "mdp_ready", "trial_type": "html-keyboard-response", "trial_index": 20, "time_elapsed": 1378784, "internal_node_id": "0.0-4.0-0.0"}}, {"uniqueid": "w87613104:a32136405", "current_trial": 21, "dateTime": 1691160677933, "trialdata": {"revealed_states": [], "clicked_states": ["23", "25", "26", "27"], "num_clicks_accrued": [0, 0, 0, 0, 0, 0, 0, 0, 0, 0, 0, 0, 0], "stateRewards": ["", -1, 2, 5, -6, 13, -64, -47, 8, -79, -80, -33, 1, 2, -2, -16, 56, -71, -10, 3, 29, 44, 85, -1, 4, 5, 4, -36, -56, 19, 8, 52, -13, -2], "withholdReward": false, "trial_id": "mdp_trial_1", "block": "test", "trialIndex": 6, "score": -29.6, "costs": -5.6, "simulationMode": [null, null, null, null, null], "rewards": [-1, 4, 5, 4, -36], "path": ["0", "0", "23", "24", "25", "26", "27"], "rt": [14162, 327, 200, 830, 159], "actions": ["left", "left", "left", "up", "up"], "actionTimes": [40967, 41807, 42522, 43885, 44606], "queries": {"click": {"state": {"target": ["23", "25", "26", "27"], "time": [28431, 30926, 33268, 35559]}, "edge": {"target": [], "time": []}}, "mouseover": {"state": {"target": ["0", "23", "23", "24", "25", "24", "24", "26", "26", "28", "27", "12", "23", "24", "25", "29"], "time": [27628, 27682, 28019, 29004, 30689, 31637, 32154, 32488, 32906, 33969, 35072, 37224, 37757, 37907, 38041, 38490]}, "edge": {"target": [], "time": []}}, "mouseout": {"state": {"target": ["0", "0", "23", "23", "23", "24", "25", "24", "24", "26", "26", "28", "27", "12", "23", "24", "25", "29", "28", "14"], "time": [756, 27653, 27709, 28608, 28965, 30371, 31602, 31785, 32241, 32556, 33841, 34990, 36369, 37367, 37857, 37944, 38123, 48689, 48719, 48767]}, "edge": {"target": [], "time": []}}}, "displayed_time": "45.12", "trialTime": 52491, "trial_type": "mouselab-mdp", "trial_index": 21, "time_elapsed": 1432709, "internal_node_id": "0.0-4.0-1.0-0.0"}}, {"uniqueid": "w87613104:a32136405", "current_trial": 22, "dateTime": 1691160731565, "trialdata": {"revealed_states": [], "clicked_states": ["12", "24", "30", "31", "28", "27", "29", "1", "10", "7", "13", "14", "21", "22", "20"], "num_clicks_accrued": [0, 0, 0, 0, 0, 0, 0, 0, 0, 0, 0, 0, 0], "stateRewards": ["", 1, 2, -8, 9, 18, -83, -11, 6, -64, -48, 17, -2, -2, -5, -3, -24, -3, -86, -2, 48, -41, -22, -2, 4, 7, 8, 81, 13, -48, 10, 61, 19, 57], "withholdReward": false, "trial_id": "mdp_trial_2", "block": "test", "trialIndex": 7, "score": -73, "costs": -20.999999999999996, "simulationMode": [null, null, null, null, null], "rewards": [-2, -2, -5, -2, -41], "path": ["0", "0", "12", "13", "14", "19", "21"], "rt": [38027, 276, 377, 774, 345], "actions": ["right", "right", "right", "down", "down"], "actionTimes": [41052, 41846, 42751, 44072, 44936], "queries": {"click": {"state": {"target": ["12", "24", "30", "31", "28", "27", "29", "1", "10", "7", "13", "14", "21", "22", "20"], "time": [4261, 6640, 8836, 10785, 13529, 15823, 17656, 20799, 23454, 25486, 28164, 29890, 32379, 33936, 36110]}, "edge": {"target": [], "time": []}}, "mouseover": {"state": {"target": ["12", "0", "23", "23", "24", "25", "30", "32", "31", "33", "25", "26", "28", "26", "27", "29", "7", "18", "18", "1", "2", "10", "2", "7", "15", "13", "14", "19", "21", "22", "19", "20", "15", "18", "12"], "time": [3706, 4840, 4888, 5253, 6409, 7225, 8626, 9402, 10593, 11560, 12745, 13029, 13245, 14195, 15529, 16326, 18974, 19847, 20154, 20548, 21255, 23233, 24165, 25117, 26524, 27617, 29406, 30502, 31903, 33276, 34610, 35657, 36823, 38190, 39241]}, "edge": {"target": [], "time": []}}, "mouseout": {"state": {"target": ["14", "0", "12", "0", "23", "23", "24", "25", "30", "32", "31", "33", "25", "26", "28", "26", "27", "29", "7", "18", "18", "1", "2", "10", "2", "7", "15", "13", "14", "19", "21", "22", "19", "20", "15", "18", "12", "1"], "time": [1504, 3607, 4810, 4880, 4950, 6207, 7190, 8243, 9311, 10358, 11116, 12528, 12934, 13178, 14102, 15428, 16229, 18001, 19781, 20130, 20182, 21247, 22998, 24051, 25034, 26089, 27468, 28698, 30452, 31803, 32616, 34602, 35556, 36700, 38140, 38613, 39307, 49461]}, "edge": {"target": [], "time": []}}}, "displayed_time": "45.45", "trialTime": 52230, "trial_type": "mouselab-mdp", "trial_index": 22, "time_elapsed": 1486341, "internal_node_id": "0.0-4.0-1.0-1.0"}}, {"uniqueid": "w87613104:a32136405", "current_trial": 23, "dateTime": 1691160775880, "trialdata": {"revealed_states": [], "clicked_states": ["23", "25", "33", "31", "28", "29", "26", "1", "12", "14", "22"], "num_clicks_accrued": [0, 0, 0, 0, 0, 0, 0, 0, 0, 0, 0, 0, 0], "stateRewards": ["", 2, 3, 6, -12, -29, 12, 87, 4, 35, -30, 67, 2, 3, -5, -9, 44, 69, -8, 1, 45, -8, 28, -2, -1, -8, 11, -12, -5, 81, 9, 87, 82, 88], "withholdReward": false, "trial_id": "mdp_trial_3", "block": "test", "trialIndex": 8, "score": 13.599999999999998, "costs": -15.400000000000002, "simulationMode": [null, null, null, null, null, null], "rewards": [2, 3, -5, 1, 28], "path": ["0", "0", "12", "13", "14", "19", "22"], "rt": [27622, 1363, 372, 238, 179, 172], "actions": ["right", "right", "right", "right", "down", "left"], "actionTimes": [32103, 33472, 34372, 35187, 35904, 36611], "queries": {"click": {"state": {"target": ["23", "25", "33", "31", "28", "29", "26", "1", "12", "14", "22"], "time": [5315, 7983, 9693, 12737, 15712, 18587, 20313, 23407, 25902, 28361, 30739]}, "edge": {"target": [], "time": []}}, "mouseover": {"state": {"target": ["23", "24", "25", "30", "33", "32", "31", "32", "30", "25", "26", "28", "26", "29", "26", "27", "26", "27", "3", "10", "1", "2", "12", "13", "14", "19", "22", "13", "18"], "time": [5031, 5847, 7637, 8498, 9296, 10438, 11849, 13427, 14186, 14885, 15185, 15369, 16736, 18186, 18892, 19103, 20020, 21010, 22139, 22521, 23071, 23876, 25590, 26655, 27908, 29341, 30495, 31326, 31402]}, "edge": {"target": [], "time": []}}, "mouseout": {"state": {"target": ["14", "0", "23", "24", "25", "30", "33", "32", "31", "31", "32", "30", "25", "26", "28", "26", "29", "26", "27", "26", "27", "3", "10", "1", "2", "12", "13", "14", "14", "19", "22", "13", "18", "18", "15", "17"], "time": [2828, 4513, 5753, 6661, 8395, 9226, 10104, 11479, 12940, 13191, 14151, 14234, 14969, 15269, 16551, 17771, 18689, 19015, 19822, 20920, 22022, 22388, 22956, 23811, 25074, 26091, 27606, 28506, 29295, 30453, 30945, 31362, 31438, 39113, 39142, 39195]}, "edge": {"target": [], "time": []}}}, "displayed_time": "37.14", "trialTime": 42843, "trial_type": "mouselab-mdp", "trial_index": 23, "time_elapsed": 1530656, "internal_node_id": "0.0-4.0-1.0-2.0"}}, {"uniqueid": "w87613104:a32136405", "current_trial": 24, "dateTime": 1691160830985, "trialdata": {"revealed_states": [], "clicked_states": ["23", "24", "25", "31", "33", "32", "12", "14", "13", "15", "16", "3", "2"], "num_clicks_accrued": [0, 0, 0, 0, 0, 0, 0, 0, 0, 0, 0, 0, 0], "stateRewards": ["", -1, 3, 1, -11, -22, -36, 19, -5, -70, -52, 50, -2, -4, 4, -2, -41, -83, 29, -2, 22, 10, -6, -2, 3, -2, 14, 54, 44, 77, -9, -65, -37, -40], "withholdReward": false, "trial_id": "mdp_trial_4", "block": "test", "trialIndex": 9, "score": -48.2, "costs": -18.2, "simulationMode": [null, null, null, null, null], "rewards": [-1, 3, 1, -11, -22], "path": ["0", "0", "1", "2", "3", "4", "5"], "rt": [28577, 4, 212, 3589, 530], "actions": ["up", "up", "up", "right", "up"], "actionTimes": [39649, 40170, 40930, 45037, 46097], "queries": {"click": {"state": {"target": ["23", "24", "25", "31", "33", "32", "12", "14", "13", "15", "16", "3", "2"], "time": [12120, 13800, 15426, 17607, 19232, 21310, 23059, 25290, 26896, 28919, 31503, 35000, 37592]}, "edge": {"target": [], "time": []}}, "mouseover": {"state": {"target": ["23", "24", "25", "30", "31", "30", "33", "32", "12", "12", "13", "14", "13", "19", "15", "18", "16", "17", "18", "7", "3", "2", "2", "1"], "time": [11746, 12787, 14239, 16029, 17454, 18190, 19054, 19747, 21901, 22177, 23595, 25007, 25893, 27386, 28609, 29427, 30959, 32579, 33511, 34331, 34695, 35488, 37362, 38059]}, "edge": {"target": [], "time": []}}, "mouseout": {"state": {"target": ["17", "15", "0", "23", "24", "25", "30", "31", "31", "30", "33", "32", "12", "12", "13", "14", "13", "19", "14", "15", "18", "16", "17", "15", "18", "7", "3", "2", "2", "1", "19", "12"], "time": [9030, 9349, 11718, 12606, 14204, 15985, 17276, 17859, 18125, 18868, 19651, 21835, 21941, 23541, 24889, 25843, 27316, 28526, 28575, 29332, 30493, 32165, 33234, 33311, 33578, 34358, 35446, 36645, 38020, 48885, 49335, 53068]}, "edge": {"target": [], "time": []}}}, "displayed_time": "46.65", "trialTime": 53579, "trial_type": "mouselab-mdp", "trial_index": 24, "time_elapsed": 1585761, "internal_node_id": "0.0-4.0-1.0-3.0"}}, {"uniqueid": "w87613104:a32136405", "current_trial": 25, "dateTime": 1691160876810, "trialdata": {"revealed_states": [], "clicked_states": ["23", "24", "25", "26", "27", "29", "28", "33", "32", "31"], "num_clicks_accrued": [0, 0, 0, 0, 0, 0, 0, 0, 0, 0, 0, 0, 0], "stateRewards": ["", -2, -4, -2, 10, -8, -15, -47, 7, -84, 53, 5, -1, 2, -7, 3, 83, 31, 47, -1, 30, -8, 69, 2, -4, -1, 8, -7, 12, -8, -8, -13, 30, -84], "withholdReward": false, "trial_id": "mdp_trial_5", "block": "test", "trialIndex": 10, "score": 5, "costs": -14.000000000000002, "simulationMode": [null, null, null, null, null], "rewards": [2, -4, -1, -8, 30], "path": ["0", "0", "23", "24", "25", "30", "32"], "rt": [19827, 265, 184, 546, 432], "actions": ["left", "left", "left", "down", "down"], "actionTimes": [35887, 36688, 37385, 38455, 39422], "queries": {"click": {"state": {"target": ["23", "24", "25", "26", "27", "29", "28", "33", "32", "31"], "time": [16980, 18900, 20897, 22482, 24553, 26234, 28233, 29876, 31704, 33688]}, "edge": {"target": [], "time": []}}, "mouseover": {"state": {"target": ["0", "23", "24", "25", "26", "27", "29", "28", "28", "25", "30", "33", "30", "32", "31", "30"], "time": [16090, 16720, 17506, 19322, 21467, 23028, 25293, 26767, 27142, 29006, 29212, 29474, 30536, 30757, 32268, 34476]}, "edge": {"target": [], "time": []}}, "mouseout": {"state": {"target": ["0", "0", "23", "24", "25", "26", "27", "26", "29", "26", "28", "28", "25", "30", "33", "30", "32", "31", "30"], "time": [14635, 16686, 17458, 19252, 21424, 22959, 25071, 25225, 26695, 26757, 26805, 28806, 29044, 29370, 30493, 30661, 32208, 34179, 34688]}, "edge": {"target": [], "time": []}}}, "displayed_time": "39.94", "trialTime": 44411, "trial_type": "mouselab-mdp", "trial_index": 25, "time_elapsed": 1631586, "internal_node_id": "0.0-4.0-1.0-4.0"}}, {"uniqueid": "w87613104:a32136405", "current_trial": 26, "dateTime": 1691160916450, "trialdata": {"revealed_states": [], "clicked_states": ["1", "2", "3", "11", "9", "5", "6", "7", "14"], "num_clicks_accrued": [0, 0, 0, 0, 0, 0, 0, 0, 0, 0, 0, 0, 0], "stateRewards": ["", -1, -2, -8, 8, -27, -82, 19, -14, -62, 4, 1, -2, 2, 6, 10, 73, -51, -2, 2, 73, -48, 54, -1, 2, -4, 11, -25, 47, 86, 15, 33, 43, -42], "withholdReward": false, "trial_id": "mdp_trial_6", "block": "test", "trialIndex": 11, "score": 3.3999999999999986, "costs": -12.600000000000001, "simulationMode": [null, null, null, null, null], "rewards": [-1, -2, -8, 8, 19], "path": ["0", "0", "1", "2", "3", "4", "7"], "rt": [19249, 365, 46, 671, 286], "actions": ["up", "up", "up", "right", "down"], "actionTimes": [21919, 22802, 23398, 24607, 25416], "queries": {"click": {"state": {"target": ["1", "2", "3", "11", "9", "5", "6", "7", "14"], "time": [3473, 5173, 7036, 8938, 11245, 12855, 15799, 17667, 19229]}, "edge": {"target": [], "time": []}}, "mouseover": {"state": {"target": ["1", "2", "3", "8", "11", "9", "5", "4", "6", "7", "18", "15", "14", "19", "15", "18", "13"], "time": [3208, 3959, 5564, 7493, 7597, 9501, 11977, 13379, 15387, 16470, 18213, 18435, 18884, 19863, 20658, 20811, 21034]}, "edge": {"target": [], "time": []}}, "mouseout": {"state": {"target": ["22", "1", "2", "3", "8", "11", "9", "5", "4", "6", "7", "18", "15", "14", "14", "19", "14", "15", "18", "13", "14"], "time": [754, 3878, 5496, 7482, 7529, 9443, 11708, 13317, 15081, 16314, 18175, 18304, 18650, 19399, 19822, 20198, 20235, 20728, 20850, 21065, 21151]}, "edge": {"target": [], "time": []}}}, "displayed_time": "25.95", "trialTime": 38027, "trial_type": "mouselab-mdp", "trial_index": 26, "time_elapsed": 1671226, "internal_node_id": "0.0-4.0-1.0-5.0"}}, {"uniqueid": "w87613104:a32136405", "current_trial": 27, "dateTime": 1691160953458, "trialdata": {"revealed_states": [], "clicked_states": ["23", "25", "28", "27", "29"], "num_clicks_accrued": [0, 0, 0, 0, 0, 0, 0, 0, 0, 0, 0, 0, 0], "stateRewards": ["", -1, -4, -1, -11, 43, 69, 39, 4, 17, -20, -82, -2, -1, 4, 8, -79, 24, -79, 11, 36, 64, 41, 2, 4, -1, 11, -79, -47, 75, -3, 63, -36, -19], "withholdReward": false, "trial_id": "mdp_trial_7", "block": "test", "trialIndex": 12, "score": 84, "costs": -7, "simulationMode": [null, null, null, null, null], "rewards": [2, 4, -1, 11, 75], "path": ["0", "0", "23", "24", "25", "26", "29"], "rt": [13574, 433, 626, 892, 15], "actions": ["left", "left", "left", "up", "left"], "actionTimes": [19807, 20785, 21968, 23399, 23939], "queries": {"click": {"state": {"target": ["23", "25", "28", "27", "29"], "time": [7873, 10641, 12528, 14244, 16034]}, "edge": {"target": [], "time": []}}, "mouseover": {"state": {"target": ["23", "24", "25", "26", "28", "27", "29", "29", "26", "25", "25", "31"], "time": [7083, 8492, 10153, 11100, 11414, 13037, 14658, 15179, 16649, 18062, 18409, 18641]}, "edge": {"target": [], "time": []}}, "mouseout": {"state": {"target": ["21", "22", "12", "0", "23", "24", "25", "26", "28", "27", "29", "29", "26", "25", "25", "31", "22", "19", "19"], "time": [4149, 4281, 4700, 7053, 8425, 9887, 11060, 11374, 12872, 14619, 14701, 16234, 18023, 18108, 18454, 18674, 25813, 25845, 27812]}, "edge": {"target": [], "time": []}}}, "displayed_time": "24.51", "trialTime": 35308, "trial_type": "mouselab-mdp", "trial_index": 27, "time_elapsed": 1708234, "internal_node_id": "0.0-4.0-1.0-6.0"}}, {"uniqueid": "w87613104:a32136405", "current_trial": 28, "dateTime": 1691160982016, "trialdata": {"revealed_states": [], "clicked_states": ["23", "24", "25", "33", "31"], "num_clicks_accrued": [0, 0, 0, 0, 0, 0, 0, 0, 0, 0, 0, 0, 0], "stateRewards": ["", -1, -1, 4, -16, -75, 81, -51, -7, -84, 73, -30, -2, 1, -3, -16, -77, 33, 14, 1, 45, 87, -66, 2, 2, -5, -7, -19, -17, 79, -3, 8, 49, 47], "withholdReward": false, "trial_id": "mdp_trial_8", "block": "test", "trialIndex": 13, "score": 38, "costs": -7, "simulationMode": [null, null, null, null, null], "rewards": [2, 2, -5, -3, 49], "path": ["0", "0", "23", "24", "25", "30", "32"], "rt": [14408, 436, 248, 74, 162], "actions": ["left", "left", "left", "down", "down"], "actionTimes": [18028, 19014, 19791, 20391, 21109], "queries": {"click": {"state": {"target": ["23", "24", "25", "33", "31"], "time": [4619, 6851, 8923, 11809, 15179]}, "edge": {"target": [], "time": []}}, "mouseover": {"state": {"target": ["0", "23", "24", "24", "25", "33", "32", "31", "31", "30"], "time": [3662, 4375, 5146, 6376, 7378, 9760, 12584, 14046, 14930, 15665]}, "edge": {"target": [], "time": []}}, "mouseout": {"state": {"target": ["0", "0", "23", "24", "24", "25", "33", "32", "31", "31", "30", "0", "13"], "time": [3645, 4259, 5045, 5924, 7275, 9325, 12268, 13829, 14214, 15625, 16026, 23884, 23920]}, "edge": {"target": [], "time": []}}}, "displayed_time": "21.64", "trialTime": 26623, "trial_type": "mouselab-mdp", "trial_index": 28, "time_elapsed": 1736791, "internal_node_id": "0.0-4.0-1.0-7.0"}}, {"uniqueid": "w87613104:a32136405", "current_trial": 29, "dateTime": 1691161028997, "trialdata": {"revealed_states": [], "clicked_states": ["12", "14", "15", "16", "17", "18"], "num_clicks_accrued": [0, 0, 0, 0, 0, 0, 0, 0, 0, 0, 0, 0, 0], "stateRewards": ["", -1, 2, -7, -12, -62, 12, -13, 5, 77, -71, 83, 1, -4, 7, 15, -42, -87, -4, 5, -25, 44, 88, -1, 4, -5, -8, 14, 51, 8, -5, 83, -24, -19], "withholdReward": false, "trial_id": "mdp_trial_9", "block": "test", "trialIndex": 14, "score": -31.4, "costs": -8.4, "simulationMode": [null, null, null, null, null], "rewards": [1, -4, 7, 15, -42], "path": ["0", "0", "12", "13", "14", "15", "16"], "rt": [16426, 359, 52, 1014, 7679], "actions": ["right", "right", "right", "up", "up"], "actionTimes": [19690, 20634, 21210, 22748, 30953], "queries": {"click": {"state": {"target": ["12", "14", "15", "16", "17", "18"], "time": [4231, 7302, 9709, 11530, 14913, 17523]}, "edge": {"target": [], "time": []}}, "mouseover": {"state": {"target": ["12", "13", "14", "13", "15", "16", "18", "17", "15", "18", "15"], "time": [3936, 4917, 6583, 7902, 9382, 10702, 12690, 14299, 15643, 16043, 18381]}, "edge": {"target": [], "time": []}}, "mouseout": {"state": {"target": ["0", "12", "13", "14", "13", "15", "16", "15", "18", "15", "17", "15", "18", "15", "20", "19", "22", "22", "20"], "time": [2162, 4813, 6450, 7864, 8619, 10344, 12271, 12538, 13936, 14253, 15574, 15936, 18373, 18447, 33162, 42133, 42250, 43617, 43647]}, "edge": {"target": [], "time": []}}}, "displayed_time": "31.48", "trialTime": 45332, "trial_type": "mouselab-mdp", "trial_index": 29, "time_elapsed": 1783773, "internal_node_id": "0.0-4.0-1.0-8.0"}}, {"uniqueid": "w87613104:a32136405", "current_trial": 30, "dateTime": 1691161062339, "trialdata": {"revealed_states": [], "clicked_states": ["23", "24", "25", "26", "27", "29"], "num_clicks_accrued": [0, 0, 0, 0, 0, 0, 0, 0, 0, 0, 0, 0, 0], "stateRewards": ["", 2, -1, -2, -5, -47, -57, -33, -11, 31, -18, -72, -2, 1, -4, -8, -46, -53, -50, 15, -85, -9, 39, -2, -2, 1, 14, -1, -8, 53, -12, -41, -74, 62], "withholdReward": false, "trial_id": "mdp_trial_10", "block": "test", "trialIndex": 15, "score": 55.6, "costs": -8.4, "simulationMode": [null, null, null, null, null], "rewards": [-2, -2, 1, 14, 53], "path": ["0", "0", "23", "24", "25", "26", "29"], "rt": [17145, 363, 15, 487, 384], "actions": ["left", "left", "left", "up", "left"], "actionTimes": [22362, 23255, 23814, 24854, 25764], "queries": {"click": {"state": {"target": ["23", "24", "25", "26", "27", "29"], "time": [7190, 9593, 11684, 13706, 16020, 18981]}, "edge": {"target": [], "time": []}}, "mouseover": {"state": {"target": ["23", "24", "25", "26", "27", "29", "28"], "time": [6982, 7858, 10671, 12377, 14667, 16809, 19568]}, "edge": {"target": [], "time": []}}, "mouseout": {"state": {"target": ["18", "1", "23", "24", "25", "26", "27", "29", "28", "14"], "time": [3066, 3599, 7798, 10173, 12291, 14429, 16508, 19361, 28363, 28846]}, "edge": {"target": [], "time": []}}}, "displayed_time": "26.34", "trialTime": 31591, "trial_type": "mouselab-mdp", "trial_index": 30, "time_elapsed": 1817116, "internal_node_id": "0.0-4.0-1.0-9.0"}}, {"uniqueid": "w87613104:a32136405", "current_trial": 31, "dateTime": 1691161092261, "trialdata": {"revealed_states": [], "clicked_states": ["1", "2", "3", "8", "9", "11", "10"], "num_clicks_accrued": [0, 0, 0, 0, 0, 0, 0, 0, 0, 0, 0, 0, 0], "stateRewards": ["", -2, -4, 2, 10, -17, 18, 73, 11, -32, 23, -13, -2, -4, 7, 12, -25, 66, -23, 15, 40, -76, -9, 1, 2, -7, -5, -20, 24, 3, -5, 16, -73, 70], "withholdReward": false, "trial_id": "mdp_trial_11", "block": "test", "trialIndex": 16, "score": 20.2, "costs": -9.8, "simulationMode": [null, null, null, null, null], "rewards": [-2, -4, 2, 11, 23], "path": ["0", "0", "1", "2", "3", "8", "10"], "rt": [16912, 624, 309, 1540, 120], "actions": ["up", "up", "up", "left", "down"], "actionTimes": [19612, 20763, 21587, 23656, 24304], "queries": {"click": {"state": {"target": ["1", "2", "3", "8", "9", "11", "10"], "time": [3583, 5562, 7691, 9699, 11826, 13996, 15996]}, "edge": {"target": [], "time": []}}, "mouseover": {"state": {"target": ["1", "2", "3", "8", "9", "11", "10", "3", "4", "5", "5"], "time": [3335, 4147, 6101, 8574, 10619, 12918, 14504, 16879, 17362, 17742, 18510]}, "edge": {"target": [], "time": []}}, "mouseout": {"state": {"target": ["0", "1", "2", "3", "8", "9", "11", "8", "10", "3", "4", "5", "5"], "time": [2728, 4081, 6028, 8410, 10204, 12316, 14241, 14280, 16296, 16946, 17609, 18120, 18542]}, "edge": {"target": [], "time": []}}}, "displayed_time": "24.85", "trialTime": 28046, "trial_type": "mouselab-mdp", "trial_index": 31, "time_elapsed": 1847037, "internal_node_id": "0.0-4.0-1.0-10.0"}}, {"uniqueid": "w87613104:a32136405", "current_trial": 32, "dateTime": 1691161124151, "trialdata": {"revealed_states": [], "clicked_states": ["1", "2", "3", "4", "7", "6", "5", "9"], "num_clicks_accrued": [0, 0, 0, 0, 0, 0, 0, 0, 0, 0, 0, 0, 0], "stateRewards": ["", 1, 3, -2, 15, 51, 15, -19, 11, 67, -45, -73, 2, 4, -2, -13, 36, 9, -28, 10, -30, 31, 16, 1, 2, -1, -16, 14, -22, 36, -1, 88, -5, 45], "withholdReward": false, "trial_id": "mdp_trial_12", "block": "test", "trialIndex": 17, "score": 68.8, "costs": -11.200000000000001, "simulationMode": [null, null, null, null, null, null], "rewards": [1, 3, -2, 11, 67], "path": ["0", "0", "1", "2", "3", "8", "9"], "rt": [19123, 491, 334, 265, 12, 125], "actions": ["up", "up", "up", "up", "left", "up"], "actionTimes": [21427, 21927, 22770, 23567, 24097, 24762], "queries": {"click": {"state": {"target": ["1", "2", "3", "4", "7", "6", "5", "9"], "time": [3709, 5907, 8697, 10653, 12464, 14346, 17865, 20191]}, "edge": {"target": [], "time": []}}, "mouseover": {"state": {"target": ["0", "1", "2", "3", "4", "7", "6", "5", "5", "9"], "time": [2574, 3248, 4308, 6444, 9484, 11453, 13522, 15027, 17337, 18684]}, "edge": {"target": [], "time": []}}, "mouseout": {"state": {"target": ["16", "1", "0", "1", "2", "3", "4", "7", "6", "5", "5", "9"], "time": [23, 427, 2752, 4265, 6369, 9168, 11162, 12889, 14708, 16820, 18362, 26587]}, "edge": {"target": [], "time": []}}}, "displayed_time": "25.29", "trialTime": 30252, "trial_type": "mouselab-mdp", "trial_index": 32, "time_elapsed": 1878927, "internal_node_id": "0.0-4.0-1.0-11.0"}}, {"uniqueid": "w87613104:a32136405", "current_trial": 33, "dateTime": 1691161153040, "trialdata": {"revealed_states": [], "clicked_states": ["23", "31", "33", "27", "29", "28"], "num_clicks_accrued": [0, 0, 0, 0, 0, 0, 0, 0, 0, 0, 0, 0, 0], "stateRewards": ["", 2, -4, 1, -12, -59, -53, -74, 16, -88, -66, 66, 1, -2, 8, -9, -14, 22, 25, -1, -39, 47, -14, -1, -1, -2, 1, -4, 52, -26, 15, -7, 46, 43], "withholdReward": false, "trial_id": "mdp_trial_13", "block": "test", "trialIndex": 18, "score": 40.6, "costs": -8.4, "simulationMode": [null, null, null, null, null], "rewards": [-1, -1, -2, 1, 52], "path": ["0", "0", "23", "24", "25", "26", "28"], "rt": [16869, 13, 1186, 45, 17], "actions": ["left", "left", "left", "up", "right"], "actionTimes": [19265, 19799, 21509, 22081, 22650], "queries": {"click": {"state": {"target": ["23", "31", "33", "27", "29", "28"], "time": [3551, 6244, 8873, 13273, 15255, 17126]}, "edge": {"target": [], "time": []}}, "mouseover": {"state": {"target": ["0", "23", "31", "31", "32", "33", "32", "30", "25", "26", "27", "29", "26", "28"], "time": [2431, 3122, 4285, 5988, 7041, 8272, 9383, 11788, 12022, 12105, 12439, 14192, 15687, 16094]}, "edge": {"target": [], "time": []}}, "mouseout": {"state": {"target": ["0", "0", "23", "31", "31", "32", "33", "32", "30", "25", "26", "27", "29", "26", "28", "7", "16"], "time": [982, 3052, 4026, 5655, 6972, 8071, 9276, 11255, 11822, 12054, 12373, 13852, 15645, 15725, 18063, 24895, 24947]}, "edge": {"target": [], "time": []}}}, "displayed_time": "23.62", "trialTime": 27065, "trial_type": "mouselab-mdp", "trial_index": 33, "time_elapsed": 1907816, "internal_node_id": "0.0-4.0-1.0-12.0"}}, {"uniqueid": "w87613104:a32136405", "current_trial": 34, "dateTime": 1691161175208, "trialdata": {"revealed_states": [], "clicked_states": ["28", "27", "29"], "num_clicks_accrued": [0, 0, 0, 0, 0, 0, 0, 0, 0, 0, 0, 0, 0], "stateRewards": ["", 1, 1, 1, 15, -76, 52, -32, 14, -57, 37, 49, 1, -4, -3, 6, 83, -76, 25, 9, 36, -1, -17, -1, 4, 4, -2, -22, -21, 58, -15, -57, 49, -24], "withholdReward": false, "trial_id": "mdp_trial_14", "block": "test", "trialIndex": 19, "score": 58.8, "costs": -4.199999999999999, "simulationMode": [null, null, null, null, null], "rewards": [-1, 4, 4, -2, 58], "path": ["0", "0", "23", "24", "25", "26", "29"], "rt": [9822, 571, 339, 67, 102], "actions": ["left", "left", "left", "up", "left"], "actionTimes": [12303, 13403, 14277, 14879, 15533], "queries": {"click": {"state": {"target": ["28", "27", "29"], "time": [4925, 6978, 8950]}, "edge": {"target": [], "time": []}}, "mouseover": {"state": {"target": ["23", "1", "23", "24", "28", "26", "27", "29", "25", "33", "25", "24", "1"], "time": [3326, 3843, 4294, 4353, 4560, 5395, 5606, 7692, 9716, 10105, 11247, 11292, 12282]}, "edge": {"target": [], "time": []}}, "mouseout": {"state": {"target": ["0", "23", "1", "23", "24", "28", "26", "27", "29", "25", "33", "25", "24", "1", "12", "13"], "time": [3198, 3728, 4243, 4322, 4476, 5343, 5527, 7407, 9710, 9950, 11214, 11283, 11329, 16149, 17650, 17683]}, "edge": {"target": [], "time": []}}}, "displayed_time": "16.48", "trialTime": 20228, "trial_type": "mouselab-mdp", "trial_index": 34, "time_elapsed": 1929984, "internal_node_id": "0.0-4.0-1.0-13.0"}}, {"uniqueid": "w87613104:a32136405", "current_trial": 35, "dateTime": 1691161202439, "trialdata": {"revealed_states": [], "clicked_states": ["18", "16", "17", "21", "22"], "num_clicks_accrued": [0, 0, 0, 0, 0, 0, 0, 0, 0, 0, 0, 0, 0], "stateRewards": ["", -1, 2, -2, 5, 80, -61, -27, 12, 44, -26, -75, -2, -4, 1, -16, 42, -49, -50, 4, -44, 2, 80, -2, -2, 5, -2, 59, 10, 24, 7, -48, -86, -44], "withholdReward": false, "trial_id": "mdp_trial_15", "block": "test", "trialIndex": 20, "score": 72, "costs": -7, "simulationMode": [null, null, null, null, null], "rewards": [-2, -4, 1, 4, 80], "path": ["0", "0", "12", "13", "14", "19", "22"], "rt": [15210, 485, 367, 153, 86], "actions": ["right", "right", "right", "down", "left"], "actionTimes": [17311, 18324, 19223, 19905, 20529], "queries": {"click": {"state": {"target": ["18", "16", "17", "21", "22"], "time": [4391, 5996, 8026, 11030, 13022]}, "edge": {"target": [], "time": []}}, "mouseover": {"state": {"target": ["13", "18", "16", "16", "17", "15", "14", "19", "21", "22", "19", "20"], "time": [3630, 4037, 4928, 5364, 6876, 8805, 10257, 10441, 10709, 11686, 13509, 13738]}, "edge": {"target": [], "time": []}}, "mouseout": {"state": {"target": ["12", "0", "13", "18", "16", "16", "17", "17", "15", "14", "19", "21", "22", "19", "20", "17", "15", "18", "1"], "time": [637, 1067, 3659, 4902, 4968, 6477, 8329, 8663, 10178, 10342, 10625, 11560, 13466, 13587, 22446, 23863, 23897, 23945, 24130]}, "edge": {"target": [], "time": []}}}, "displayed_time": "21.20", "trialTime": 24876, "trial_type": "mouselab-mdp", "trial_index": 35, "time_elapsed": 1957215, "internal_node_id": "0.0-4.0-1.0-14.0"}}, {"uniqueid": "w87613104:a32136405", "current_trial": 36, "dateTime": 1691161233461, "trialdata": {"revealed_states": [], "clicked_states": ["9", "5", "11", "8", "6", "10", "7"], "num_clicks_accrued": [0, 0, 0, 0, 0, 0, 0, 0, 0, 0, 0, 0, 0], "stateRewards": ["", -2, -3, 8, 14, -73, 73, 84, -12, -2, -50, -17, 2, 1, -2, -9, -44, -27, -33, 16, -63, -47, -66, -2, 1, 4, -5, -33, -11, 50, 9, 38, -79, 31], "withholdReward": false, "trial_id": "mdp_trial_16", "block": "test", "trialIndex": 21, "score": 91.2, "costs": -9.8, "simulationMode": [null, null, null, null, null], "rewards": [-2, -3, 8, 14, 84], "path": ["0", "0", "1", "2", "3", "4", "7"], "rt": [17372, 304, 811, 142, 39], "actions": ["up", "up", "up", "right", "down"], "actionTimes": [21501, 22356, 23696, 24365, 24934], "queries": {"click": {"state": {"target": ["9", "5", "11", "8", "6", "10", "7"], "time": [6735, 8841, 10818, 12881, 15091, 17065, 19661]}, "edge": {"target": [], "time": []}}, "mouseover": {"state": {"target": ["23", "23", "1", "2", "8", "9", "5", "8", "11", "8", "3", "4", "6", "2", "10", "4", "7", "2", "7", "2"], "time": [4734, 5067, 5437, 5800, 5884, 6387, 7835, 9615, 9967, 11808, 13307, 13357, 13463, 15678, 15825, 17654, 17774, 18090, 19373, 20419]}, "edge": {"target": [], "time": []}}, "mouseout": {"state": {"target": ["23", "23", "1", "2", "8", "9", "5", "8", "11", "8", "3", "4", "6", "2", "10", "4", "7", "2", "7", "2"], "time": [4766, 5184, 5752, 5830, 6343, 7314, 9467, 9707, 11574, 13266, 13349, 13407, 15561, 15721, 17577, 17700, 17952, 18823, 20371, 20696]}, "edge": {"target": [], "time": []}}}, "displayed_time": "25.47", "trialTime": 29181, "trial_type": "mouselab-mdp", "trial_index": 36, "time_elapsed": 1988237, "internal_node_id": "0.0-4.0-1.0-15.0"}}, {"uniqueid": "w87613104:a32136405", "current_trial": 37, "dateTime": 1691161263970, "trialdata": {"revealed_states": [], "clicked_states": ["10", "27", "29", "28", "33", "32", "31"], "num_clicks_accrued": [0, 0, 0, 0, 0, 0, 0, 0, 0, 0, 0, 0, 0], "stateRewards": ["", 1, 1, 6, -14, -40, 37, 16, -13, 33, -68, 49, 2, 4, 3, 6, 55, 27, 32, 10, -65, 20, -87, 2, 1, -6, -5, -42, 12, 29, -8, 16, 76, -33], "withholdReward": false, "trial_id": "mdp_trial_17", "block": "test", "trialIndex": 22, "score": 55.2, "costs": -9.8, "simulationMode": [null, null, null, null, null], "rewards": [2, 1, -6, -8, 76], "path": ["0", "0", "23", "24", "25", "30", "32"], "rt": [17398, 118, 516, 79, 558], "actions": ["left", "left", "left", "down", "down"], "actionTimes": [21508, 22141, 23183, 23790, 24870], "queries": {"click": {"state": {"target": ["10", "27", "29", "28", "33", "32", "31"], "time": [6534, 8548, 11192, 13210, 15489, 17901, 19568]}, "edge": {"target": [], "time": []}}, "mouseover": {"state": {"target": ["0", "12", "1", "2", "10", "28", "27", "29", "26", "28", "24", "25", "33", "30", "32", "31"], "time": [4146, 4814, 5181, 5631, 5962, 7120, 7772, 10900, 11738, 11927, 13986, 14134, 14952, 16270, 16615, 18486]}, "edge": {"target": [], "time": []}}, "mouseout": {"state": {"target": ["18", "1", "0", "0", "12", "1", "2", "10", "28", "27", "29", "26", "28", "24", "25", "33", "30", "32", "31", "31", "23", "18"], "time": [100, 426, 2811, 4614, 4848, 5566, 5915, 7047, 7599, 9171, 11698, 11781, 13907, 14056, 14416, 15687, 16502, 18115, 19721, 20193, 26510, 26547]}, "edge": {"target": [], "time": []}}}, "displayed_time": "25.40", "trialTime": 28223, "trial_type": "mouselab-mdp", "trial_index": 37, "time_elapsed": 2018746, "internal_node_id": "0.0-4.0-1.0-16.0"}}, {"uniqueid": "w87613104:a32136405", "current_trial": 38, "dateTime": 1691161301238, "trialdata": {"revealed_states": [], "clicked_states": ["23", "25", "33", "32", "31", "27", "28", "29"], "num_clicks_accrued": [0, 0, 0, 0, 0, 0, 0, 0, 0, 0, 0, 0, 0], "stateRewards": ["", -2, -1, 3, -3, 71, -58, -21, 7, -10, -75, -37, 2, 4, -1, -12, -79, -29, -48, 3, -41, -10, -30, -1, -2, 1, -15, 13, 66, 22, -1, -42, -86, -55], "withholdReward": false, "trial_id": "mdp_trial_18", "block": "test", "trialIndex": 23, "score": 37.8, "costs": -11.200000000000001, "simulationMode": [null, null, null, null, null], "rewards": [-1, -2, 1, -15, 66], "path": ["0", "0", "23", "24", "25", "26", "28"], "rt": [18019, 352, 345, 111, 2039], "actions": ["left", "left", "left", "up", "right"], "actionTimes": [25393, 26268, 27134, 27793, 30355], "queries": {"click": {"state": {"target": ["23", "25", "33", "32", "31", "27", "28", "29"], "time": [8406, 10747, 13082, 14714, 17636, 19464, 21766, 23754]}, "edge": {"target": [], "time": []}}, "mouseover": {"state": {"target": ["23", "24", "25", "30", "33", "30", "32", "31", "26", "27", "29", "26", "28", "26", "29"], "time": [8057, 8982, 10442, 11360, 11644, 13920, 14290, 15425, 18945, 19201, 20335, 21098, 21381, 22393, 23221]}, "edge": {"target": [], "time": []}}, "mouseout": {"state": {"target": ["16", "15", "18", "12", "0", "23", "0", "23", "24", "25", "30", "33", "30", "32", "31", "26", "27", "29", "26", "28", "26", "29", "28"], "time": [4605, 4755, 4938, 5270, 5521, 5755, 8027, 8920, 10407, 11223, 11529, 13912, 13963, 15199, 18567, 19036, 19837, 21064, 21148, 22313, 22616, 24399, 24472]}, "edge": {"target": [], "time": []}}}, "displayed_time": "30.87", "trialTime": 35219, "trial_type": "mouselab-mdp", "trial_index": 38, "time_elapsed": 2056014, "internal_node_id": "0.0-4.0-1.0-17.0"}}, {"uniqueid": "w87613104:a32136405", "current_trial": 39, "dateTime": 1691161339840, "trialdata": {"revealed_states": [], "clicked_states": ["1", "2", "3", "5", "6", "7", "10", "11", "9"], "num_clicks_accrued": [0, 0, 0, 0, 0, 0, 0, 0, 0, 0, 0, 0, 0], "stateRewards": ["", 1, -1, 4, 5, -32, 18, 20, 6, -88, -74, 9, -2, 1, -2, -14, 34, -77, -38, -1, 80, -36, 73, 2, 3, -8, 10, -48, -73, -71, -11, -22, 20, 54], "withholdReward": false, "trial_id": "mdp_trial_19", "block": "test", "trialIndex": 24, "score": 14.399999999999999, "costs": -12.600000000000001, "simulationMode": [null, null, null, null, null], "rewards": [1, -1, 4, 5, 18], "path": ["0", "0", "1", "2", "3", "4", "6"], "rt": [22186, 77, 159, 103, 393], "actions": ["up", "up", "up", "right", "right"], "actionTimes": [29420, 30017, 30717, 31350, 32324], "queries": {"click": {"state": {"target": ["1", "2", "3", "5", "6", "7", "10", "11", "9"], "time": [9015, 11070, 13953, 16057, 17907, 19831, 21703, 24021, 26036]}, "edge": {"target": [], "time": []}}, "mouseover": {"state": {"target": ["1", "2", "3", "3", "4", "3", "5", "4", "6", "7", "4", "10", "11", "9", "3", "7"], "time": [8497, 10374, 11504, 11998, 13235, 13701, 14695, 16574, 16770, 18867, 20516, 21421, 22287, 24555, 27689, 28540]}, "edge": {"target": [], "time": []}}, "mouseout": {"state": {"target": ["17", "0", "1", "2", "3", "3", "4", "3", "5", "4", "6", "7", "4", "10", "11", "9", "3", "7", "15", "21"], "time": [5378, 8448, 9610, 11465, 11547, 13184, 13268, 14688, 16465, 16688, 18568, 20034, 20631, 22207, 24476, 26633, 28057, 28592, 34058, 36409]}, "edge": {"target": [], "time": []}}}, "displayed_time": "32.86", "trialTime": 36727, "trial_type": "mouselab-mdp", "trial_index": 39, "time_elapsed": 2094616, "internal_node_id": "0.0-4.0-1.0-18.0"}}, {"uniqueid": "w87613104:a32136405", "current_trial": 40, "dateTime": 1691161362445, "trialdata": {"revealed_states": [], "clicked_states": ["7", "6", "5"], "num_clicks_accrued": [0, 0, 0, 0, 0, 0, 0, 0, 0, 0, 0, 0, 0], "stateRewards": ["", -2, 3, 3, -14, 62, 36, 49, 16, 11, 17, -84, 2, -1, 6, 2, -82, -73, 49, -6, -87, 48, 50, -1, -2, -1, -16, -11, 37, -44, 4, 55, 73, -10], "withholdReward": false, "trial_id": "mdp_trial_20", "block": "test", "trialIndex": 25, "score": 47.8, "costs": -4.199999999999999, "simulationMode": [null, null, null, null, null], "rewards": [-2, 3, 3, -14, 62], "path": ["0", "0", "1", "2", "3", "4", "5"], "rt": [7971, 383, 16, 436, 169], "actions": ["up", "up", "up", "right", "up"], "actionTimes": [10203, 11125, 11680, 12651, 13340], "queries": {"click": {"state": {"target": ["7", "6", "5"], "time": [4101, 6139, 8326]}, "edge": {"target": [], "time": []}}, "mouseover": {"state": {"target": ["1", "7", "4", "6", "5"], "time": [3207, 3788, 4834, 4957, 6674]}, "edge": {"target": [], "time": []}}, "mouseout": {"state": {"target": ["0", "1", "7", "4", "6", "5", "6"], "time": [2939, 3655, 4723, 4876, 6558, 9012, 18896]}, "edge": {"target": [], "time": []}}}, "displayed_time": "16.23", "trialTime": 20725, "trial_type": "mouselab-mdp", "trial_index": 40, "time_elapsed": 2117221, "internal_node_id": "0.0-4.0-1.0-19.0"}}, {"uniqueid": "w87613104:a32136405", "current_trial": 41, "dateTime": 1691161392611, "trialdata": {"revealed_states": [], "clicked_states": ["23", "28", "27", "29"], "num_clicks_accrued": [0, 0, 0, 0, 0, 0, 0, 0, 0, 0, 0, 0, 0], "stateRewards": ["", -1, 1, -6, -1, 80, 23, 2, -11, 73, -81, 59, 1, 3, 5, -1, -26, 28, -3, 16, -59, -13, -50, -2, -2, 2, 15, -50, 86, 17, -4, 37, 35, 44], "withholdReward": false, "trial_id": "mdp_trial_21", "block": "test", "trialIndex": 26, "score": 93.4, "costs": -5.6, "simulationMode": [null, null, null, null, null], "rewards": [-2, -2, 2, 15, 86], "path": ["0", "0", "23", "24", "25", "26", "28"], "rt": [10592, 15, 540, 24, 181], "actions": ["left", "left", "left", "up", "right"], "actionTimes": [14472, 15002, 16118, 16862, 17595], "queries": {"click": {"state": {"target": ["23", "28", "27", "29"], "time": [5897, 8059, 9645, 11244]}, "edge": {"target": [], "time": []}}, "mouseover": {"state": {"target": ["23", "24", "28", "26", "27", "29", "26"], "time": [5496, 6498, 7791, 8651, 8830, 10569, 13319]}, "edge": {"target": [], "time": []}}, "mouseout": {"state": {"target": ["14", "13", "0", "23", "24", "28", "26", "27", "29", "26", "15", "17", "20", "19", "22"], "time": [426, 2194, 5465, 6465, 7414, 8642, 8700, 10225, 11399, 13436, 25738, 26159, 27323, 27366, 27417]}, "edge": {"target": [], "time": []}}}, "displayed_time": "18.13", "trialTime": 28123, "trial_type": "mouselab-mdp", "trial_index": 41, "time_elapsed": 2147388, "internal_node_id": "0.0-4.0-1.0-20.0"}}, {"uniqueid": "w87613104:a32136405", "current_trial": 42, "dateTime": 1691161424631, "trialdata": {"revealed_states": [], "clicked_states": ["12", "17", "16", "18", "21", "20"], "num_clicks_accrued": [0, 0, 0, 0, 0, 0, 0, 0, 0, 0, 0, 0, 0], "stateRewards": ["", -1, 4, -3, 3, 57, -61, 5, -11, 23, -1, 34, -2, -4, -1, -13, 27, 38, -36, 4, -45, 21, 88, 1, -2, -1, 1, -69, -5, -78, -12, -9, 38, -54], "withholdReward": false, "trial_id": "mdp_trial_22", "block": "test", "trialIndex": 27, "score": 9.600000000000001, "costs": -8.4, "simulationMode": [null, null, null, null, null, null], "rewards": [-2, -4, -1, -13, 38], "path": ["0", "0", "12", "13", "14", "15", "17"], "rt": [14267, 274, 291, 112, 1607, 1235], "actions": ["right", "right", "right", "right", "up", "right"], "actionTimes": [19950, 20232, 21061, 21705, 23822, 25583], "queries": {"click": {"state": {"target": ["12", "17", "16", "18", "21", "20"], "time": [7875, 10391, 12134, 14232, 16810, 19191]}, "edge": {"target": [], "time": []}}, "mouseover": {"state": {"target": ["1", "13", "13", "12", "13", "15", "17", "16", "18", "14", "19", "21", "20", "20"], "time": [6809, 6959, 7331, 7427, 8533, 9544, 9862, 10963, 12855, 15317, 15698, 16114, 17514, 17903]}, "edge": {"target": [], "time": []}}, "mouseout": {"state": {"target": ["0", "1", "13", "13", "12", "13", "15", "17", "16", "18", "14", "19", "21", "20", "20", "21"], "time": [5899, 6832, 7242, 7371, 8075, 9328, 9644, 10917, 12778, 14859, 15578, 15864, 17467, 17561, 27641, 29255]}, "edge": {"target": [], "time": []}}}, "displayed_time": "26.11", "trialTime": 29740, "trial_type": "mouselab-mdp", "trial_index": 42, "time_elapsed": 2179407, "internal_node_id": "0.0-4.0-1.0-21.0"}}, {"uniqueid": "w87613104:a32136405", "current_trial": 43, "dateTime": 1691161448495, "trialdata": {"revealed_states": [], "clicked_states": ["27", "29", "28"], "num_clicks_accrued": [0, 0, 0, 0, 0, 0, 0, 0, 0, 0, 0, 0, 0], "stateRewards": ["", 1, 1, -7, -9, -44, 24, -83, -15, 44, -24, 72, -2, -3, 4, -5, 57, 55, 29, -11, 22, 12, -25, -1, 2, 7, 12, 33, -8, 47, -4, 8, 50, -4], "withholdReward": false, "trial_id": "mdp_trial_23", "block": "test", "trialIndex": 28, "score": 62.8, "costs": -4.199999999999999, "simulationMode": [null, null, null, null, null], "rewards": [-1, 2, 7, 12, 47], "path": ["0", "0", "23", "24", "25", "26", "29"], "rt": [7044, 473, 296, 106, 476], "actions": ["left", "left", "left", "up", "left"], "actionTimes": [9881, 10864, 11707, 12351, 13343], "queries": {"click": {"state": {"target": ["27", "29", "28"], "time": [4427, 6314, 7944]}, "edge": {"target": [], "time": []}}, "mouseover": {"state": {"target": ["27", "27", "29", "26", "28", "28"], "time": [3809, 4125, 5342, 6825, 6878, 7272]}, "edge": {"target": [], "time": []}}, "mouseout": {"state": {"target": ["0", "27", "27", "29", "26", "28", "28", "28", "26", "28", "28", "1", "18", "19", "21"], "time": [3458, 3861, 5025, 6779, 6870, 6923, 8862, 16016, 16233, 16399, 16832, 17217, 17616, 20433, 20834]}, "edge": {"target": [], "time": []}}}, "displayed_time": "16.86", "trialTime": 21538, "trial_type": "mouselab-mdp", "trial_index": 43, "time_elapsed": 2203271, "internal_node_id": "0.0-4.0-1.0-22.0"}}, {"uniqueid": "w87613104:a32136405", "current_trial": 44, "dateTime": 1691161475415, "trialdata": {"revealed_states": [], "clicked_states": ["9", "11", "10", "5", "6"], "num_clicks_accrued": [0, 0, 0, 0, 0, 0, 0, 0, 0, 0, 0, 0, 0], "stateRewards": ["", 1, -3, 4, 13, -72, 52, 5, 5, -58, 5, 14, 2, 1, 3, -14, -86, -4, 73, 6, -58, -50, 49, 2, -3, -4, 2, 33, -41, 42, -11, 81, 45, 53], "withholdReward": false, "trial_id": "mdp_trial_24", "block": "test", "trialIndex": 29, "score": 60, "costs": -7, "simulationMode": [null, null, null, null, null], "rewards": [1, -3, 4, 13, 52], "path": ["0", "0", "1", "2", "3", "4", "6"], "rt": [14350, 398, 122, 82, 485], "actions": ["up", "up", "up", "right", "right"], "actionTimes": [17422, 18374, 19016, 19625, 20635], "queries": {"click": {"state": {"target": ["9", "11", "10", "5", "6"], "time": [5198, 7330, 9534, 11918, 13849]}, "edge": {"target": [], "time": []}}, "mouseover": {"state": {"target": ["23", "1", "2", "3", "8", "9", "11", "8", "10", "5", "6", "7", "4"], "time": [3824, 4037, 4455, 4493, 4655, 4855, 6091, 7888, 8054, 10228, 12835, 14783, 16362]}, "edge": {"target": [], "time": []}}, "mouseout": {"state": {"target": ["0", "23", "1", "2", "3", "8", "9", "11", "8", "10", "5", "6", "7", "4"], "time": [1201, 3973, 4421, 4487, 4571, 4772, 5695, 7511, 7938, 10074, 12514, 14046, 16327, 16399]}, "edge": {"target": [], "time": []}}}, "displayed_time": "21.16", "trialTime": 24745, "trial_type": "mouselab-mdp", "trial_index": 44, "time_elapsed": 2230191, "internal_node_id": "0.0-4.0-1.0-23.0"}}, {"uniqueid": "w87613104:a32136405", "current_trial": 45, "dateTime": 1691161499945, "trialdata": {"revealed_states": [], "clicked_states": ["23", "33", "32", "31"], "num_clicks_accrued": [0, 0, 0, 0, 0, 0, 0, 0, 0, 0, 0, 0, 0], "stateRewards": ["", -2, -2, -7, -13, -10, 49, -68, -1, 84, 70, 88, 1, 4, 4, 12, -57, 25, 30, 8, -1, -77, 57, 2, 3, 2, 3, -18, -80, 23, -15, -41, 70, 11], "withholdReward": false, "trial_id": "mdp_trial_25", "block": "test", "trialIndex": 30, "score": 56.4, "costs": -5.6, "simulationMode": [null, null, null, null, null, null], "rewards": [2, 3, 2, -15, 70], "path": ["0", "0", "23", "24", "25", "30", "32"], "rt": [9492, 759, 333, 483, 17, 67], "actions": ["left", "left", "left", "left", "down", "down"], "actionTimes": [14259, 15026, 15875, 16884, 17441, 18051], "queries": {"click": {"state": {"target": ["23", "33", "32", "31"], "time": [6416, 8391, 10258, 12986]}, "edge": {"target": [], "time": []}}, "mouseover": {"state": {"target": ["23", "23", "24", "25", "33", "30", "32", "31"], "time": [5601, 6036, 7119, 7767, 7899, 9138, 9408, 10911]}, "edge": {"target": [], "time": []}}, "mouseout": {"state": {"target": ["18", "0", "0", "0", "23", "23", "24", "25", "33", "30", "32", "31"], "time": [281, 681, 1638, 5351, 5768, 7057, 7624, 7805, 9089, 9252, 10834, 20426]}, "edge": {"target": [], "time": []}}}, "displayed_time": "19.11", "trialTime": 22309, "trial_type": "mouselab-mdp", "trial_index": 45, "time_elapsed": 2254721, "internal_node_id": "0.0-4.0-1.0-24.0"}}, {"uniqueid": "w87613104:a32136405", "current_trial": 46, "dateTime": 1691161530111, "trialdata": {"revealed_states": [], "clicked_states": ["28", "27", "29", "32", "33", "31"], "num_clicks_accrued": [0, 0, 0, 0, 0, 0, 0, 0, 0, 0, 0, 0, 0], "stateRewards": ["", 2, -1, -3, 16, -3, -16, -62, -1, 13, -26, 43, -1, 4, 3, -9, -54, -37, -3, -12, -71, -68, -57, 1, -3, 2, -9, 2, -2, -9, -11, 84, -52, 55], "withholdReward": false, "trial_id": "mdp_trial_26", "block": "test", "trialIndex": 31, "score": 64.6, "costs": -8.4, "simulationMode": [null, null, null, null, null], "rewards": [1, -3, 2, -11, 84], "path": ["0", "0", "23", "24", "25", "30", "31"], "rt": [14670, 132, 329, 177, 1056], "actions": ["left", "left", "left", "down", "right"], "actionTimes": [20361, 21025, 21898, 22595, 24190], "queries": {"click": {"state": {"target": ["28", "27", "29", "32", "33", "31"], "time": [7335, 9491, 11537, 14745, 16557, 18716]}, "edge": {"target": [], "time": []}}, "mouseover": {"state": {"target": ["0", "24", "28", "27", "29", "26", "25", "30", "32", "33", "30", "31", "22"], "time": [5721, 6759, 6927, 7926, 10576, 12184, 12885, 13711, 14295, 15762, 17143, 17249, 19575]}, "edge": {"target": [], "time": []}}, "mouseout": {"state": {"target": ["1", "1", "1", "23", "23", "23", "0", "24", "28", "27", "29", "26", "25", "30", "32", "32", "33", "30", "31", "22", "14", "14", "13"], "time": [165, 902, 1337, 2904, 3705, 3872, 6359, 6826, 7886, 10122, 12138, 12707, 13544, 14095, 14900, 15410, 17131, 17191, 19459, 19615, 26133, 27468, 27671]}, "edge": {"target": [], "time": []}}}, "displayed_time": "24.72", "trialTime": 27903, "trial_type": "mouselab-mdp", "trial_index": 46, "time_elapsed": 2284887, "internal_node_id": "0.0-4.0-1.0-25.0"}}, {"uniqueid": "w87613104:a32136405", "current_trial": 47, "dateTime": 1691161553709, "trialdata": {"revealed_states": [], "clicked_states": ["5", "6", "7"], "num_clicks_accrued": [0, 0, 0, 0, 0, 0, 0, 0, 0, 0, 0, 0, 0], "stateRewards": ["", 2, -2, -8, 9, -20, 55, -58, 14, 42, 2, 36, 1, -3, -5, 5, -58, 57, 60, 16, 57, 30, -70, -2, 1, 3, 10, 59, 23, 77, -13, -26, 88, -72], "withholdReward": false, "trial_id": "mdp_trial_27", "block": "test", "trialIndex": 32, "score": 51.8, "costs": -4.199999999999999, "simulationMode": [null, null, null, null, null], "rewards": [2, -2, -8, 9, 55], "path": ["0", "0", "1", "2", "3", "4", "6"], "rt": [10232, 391, 230, 961, 449], "actions": ["up", "up", "up", "right", "right"], "actionTimes": [12762, 13703, 14465, 15961, 16951], "queries": {"click": {"state": {"target": ["5", "6", "7"], "time": [4547, 6624, 9194]}, "edge": {"target": [], "time": []}}, "mouseover": {"state": {"target": ["1", "4", "5", "6", "4", "7", "3", "8", "11", "3"], "time": [3413, 3980, 4262, 5745, 7826, 8683, 9791, 10252, 10386, 11642]}, "edge": {"target": [], "time": []}}, "mouseout": {"state": {"target": ["0", "1", "4", "5", "5", "6", "4", "7", "3", "8", "11", "3", "6", "17", "12"], "time": [2869, 3911, 4197, 4732, 5156, 7316, 8582, 9779, 9832, 10299, 11602, 11700, 18686, 20371, 20703]}, "edge": {"target": [], "time": []}}}, "displayed_time": "17.50", "trialTime": 21225, "trial_type": "mouselab-mdp", "trial_index": 47, "time_elapsed": 2308484, "internal_node_id": "0.0-4.0-1.0-26.0"}}, {"uniqueid": "w87613104:a32136405", "current_trial": 48, "dateTime": 1691161579226, "trialdata": {"revealed_states": [], "clicked_states": ["21", "22", "20"], "num_clicks_accrued": [0, 0, 0, 0, 0, 0, 0, 0, 0, 0, 0, 0, 0], "stateRewards": ["", -1, -3, 1, 13, -64, -29, 12, -4, -33, 50, 56, 2, -3, 4, 11, -64, -58, -55, 12, 47, 38, -25, -2, 2, 5, -15, 85, 7, 84, 10, 8, 57, 26], "withholdReward": false, "trial_id": "mdp_trial_28", "block": "test", "trialIndex": 33, "score": 57.8, "costs": -4.199999999999999, "simulationMode": [null, null, null, null, null], "rewards": [2, -3, 4, 12, 47], "path": ["0", "0", "12", "13", "14", "19", "20"], "rt": [9255, 23, 420, 67, 191], "actions": ["right", "right", "right", "down", "right"], "actionTimes": [12846, 13515, 14485, 15079, 15827], "queries": {"click": {"state": {"target": ["21", "22", "20"], "time": [5364, 7308, 9412]}, "edge": {"target": [], "time": []}}, "mouseover": {"state": {"target": ["0", "12", "13", "19", "21", "22", "19", "20", "14", "15", "15", "14"], "time": [3631, 4104, 4299, 4670, 4871, 6000, 7878, 7973, 10674, 11390, 11744, 12029]}, "edge": {"target": [], "time": []}}, "mouseout": {"state": {"target": ["23", "0", "12", "13", "19", "21", "22", "19", "20", "14", "15", "15", "14", "13", "19"], "time": [1801, 4004, 4253, 4571, 4805, 5885, 7507, 7927, 9715, 11309, 11593, 11992, 17628, 17879, 21080]}, "edge": {"target": [], "time": []}}}, "displayed_time": "17.59", "trialTime": 22791, "trial_type": "mouselab-mdp", "trial_index": 48, "time_elapsed": 2334002, "internal_node_id": "0.0-4.0-1.0-27.0"}}, {"uniqueid": "w87613104:a32136405", "current_trial": 49, "dateTime": 1691161608188, "trialdata": {"revealed_states": [], "clicked_states": ["32", "33", "31", "27", "29", "28"], "num_clicks_accrued": [0, 0, 0, 0, 0, 0, 0, 0, 0, 0, 0, 0, 0], "stateRewards": ["", 1, 2, -3, -5, 66, -50, -47, -5, 1, 28, -27, 1, 1, -1, -6, 37, -25, 56, 1, -82, -66, -40, -1, -4, -7, 15, -61, -23, 26, 10, 14, -56, 29], "withholdReward": false, "trial_id": "mdp_trial_29", "block": "test", "trialIndex": 34, "score": 20.6, "costs": -8.4, "simulationMode": [null, null, null, null, null], "rewards": [-1, -4, -7, 15, 26], "path": ["0", "0", "23", "24", "25", "26", "29"], "rt": [16277, 544, 83, 927, 386], "actions": ["left", "left", "left", "up", "left"], "actionTimes": [18654, 19716, 20335, 21934, 22869], "queries": {"click": {"state": {"target": ["32", "33", "31", "27", "29", "28"], "time": [4892, 6876, 9034, 11808, 13938, 16213]}, "edge": {"target": [], "time": []}}, "mouseover": {"state": {"target": ["0", "2", "3", "8", "30", "32", "33", "31", "25", "25", "26", "27", "29", "28", "28"], "time": [2637, 3167, 3548, 3697, 4247, 4548, 5922, 7320, 9738, 11087, 11169, 11406, 12669, 14496, 14887]}, "edge": {"target": [], "time": []}}, "mouseout": {"state": {"target": ["0", "2", "3", "8", "30", "32", "33", "31", "25", "25", "26", "27", "29", "28", "28", "29", "25", "12", "13"], "time": [3131, 3204, 3582, 3730, 4447, 5549, 7272, 9653, 10401, 11121, 11351, 12361, 14450, 14542, 16959, 23959, 24091, 24591, 24630]}, "edge": {"target": [], "time": []}}}, "displayed_time": "23.39", "trialTime": 26452, "trial_type": "mouselab-mdp", "trial_index": 49, "time_elapsed": 2362964, "internal_node_id": "0.0-4.0-1.0-28.0"}}, {"uniqueid": "w87613104:a32136405", "current_trial": 50, "dateTime": 1691161636484, "trialdata": {"revealed_states": [], "clicked_states": ["18", "16", "17", "21", "20", "22"], "num_clicks_accrued": [0, 0, 0, 0, 0, 0, 0, 0, 0, 0, 0, 0, 0], "stateRewards": ["", -1, -1, 7, -15, -43, -21, -84, -9, -45, -66, 2, 1, -2, 2, 8, -27, 44, -52, -5, -84, 11, 53, 1, 4, -4, 16, 83, -82, -15, -16, 68, -43, 81], "withholdReward": false, "trial_id": "mdp_trial_30", "block": "test", "trialIndex": 35, "score": 40.6, "costs": -8.4, "simulationMode": [null, null, null, null, null], "rewards": [1, -2, 2, -5, 53], "path": ["0", "0", "12", "13", "14", "19", "22"], "rt": [14248, 331, 1051, 303, 416], "actions": ["right", "right", "right", "down", "left"], "actionTimes": [17625, 18494, 20067, 20906, 21831], "queries": {"click": {"state": {"target": ["18", "16", "17", "21", "20", "22"], "time": [5454, 7315, 9290, 11163, 13080, 15905]}, "edge": {"target": [], "time": []}}, "mouseover": {"state": {"target": ["12", "13", "18", "15", "16", "17", "15", "15", "21", "20", "19", "22"], "time": [4107, 4150, 4707, 6253, 6715, 7987, 9893, 10124, 10556, 11758, 13549, 13598]}, "edge": {"target": [], "time": []}}, "mouseout": {"state": {"target": ["0", "12", "13", "18", "15", "16", "17", "15", "15", "21", "20", "19", "22", "19", "22"], "time": [3995, 4142, 4557, 6208, 6451, 7893, 9882, 9946, 10172, 11621, 13542, 13591, 16544, 25351, 25802]}, "edge": {"target": [], "time": []}}}, "displayed_time": "22.37", "trialTime": 25994, "trial_type": "mouselab-mdp", "trial_index": 50, "time_elapsed": 2391260, "internal_node_id": "0.0-4.0-1.0-29.0"}}, {"uniqueid": "w87613104:a32136405", "current_trial": 51, "dateTime": 1691161659513, "trialdata": {"revealed_states": [], "clicked_states": ["1", "2", "10"], "num_clicks_accrued": [0, 0, 0, 0, 0, 0, 0, 0, 0, 0, 0, 0, 0], "stateRewards": ["", 2, 3, 8, 11, 25, -80, 6, -4, -56, 84, -23, -2, -4, -3, 4, -51, -9, -61, -15, -64, 67, -35, 1, -1, -7, -6, 83, 59, -15, 12, -79, 56, 41], "withholdReward": false, "trial_id": "mdp_trial_31", "block": "test", "trialIndex": 36, "score": 88.8, "costs": -4.199999999999999, "simulationMode": [null, null, null, null, null], "rewards": [2, 3, 8, -4, 84], "path": ["0", "0", "1", "2", "3", "8", "10"], "rt": [9976, 17, 446, 622, 160], "actions": ["up", "up", "up", "left", "down"], "actionTimes": [12730, 13273, 14276, 15433, 16107], "queries": {"click": {"state": {"target": ["1", "2", "10"], "time": [4531, 7085, 9292]}, "edge": {"target": [], "time": []}}, "mouseover": {"state": {"target": ["1", "2", "1", "2", "10", "3", "4", "7", "6"], "time": [3537, 3609, 4187, 5154, 8383, 9962, 11042, 11436, 11760]}, "edge": {"target": [], "time": []}}, "mouseout": {"state": {"target": ["0", "1", "2", "1", "2", "10", "3", "4", "7", "6"], "time": [3338, 3573, 3647, 5105, 7822, 9800, 10975, 11397, 11688, 18033]}, "edge": {"target": [], "time": []}}}, "displayed_time": "16.76", "trialTime": 20724, "trial_type": "mouselab-mdp", "trial_index": 51, "time_elapsed": 2414289, "internal_node_id": "0.0-4.0-1.0-30.0"}}, {"uniqueid": "w87613104:a32136405", "current_trial": 52, "dateTime": 1691161689522, "trialdata": {"revealed_states": [], "clicked_states": ["32", "33", "31", "27", "29", "28"], "num_clicks_accrued": [0, 0, 0, 0, 0, 0, 0, 0, 0, 0, 0, 0, 0], "stateRewards": ["", 2, -4, 4, 9, 69, 9, -75, 12, -86, 66, 25, -1, 3, 2, -13, -88, -3, 1, 4, -69, 49, -84, 2, -1, 4, 2, -18, -81, -52, -15, -69, -54, 25], "withholdReward": false, "trial_id": "mdp_trial_32", "block": "test", "trialIndex": 37, "score": -87.4, "costs": -8.4, "simulationMode": [null, null, null, null, null], "rewards": [2, -1, 4, -15, -69], "path": ["0", "0", "23", "24", "25", "30", "31"], "rt": [15683, 75, 596, 115, 308], "actions": ["left", "left", "left", "down", "right"], "actionTimes": [18868, 19485, 20614, 21256, 22081], "queries": {"click": {"state": {"target": ["32", "33", "31", "27", "29", "28"], "time": [4486, 6382, 8277, 10869, 13196, 15140]}, "edge": {"target": [], "time": []}}, "mouseover": {"state": {"target": ["0", "31", "30", "32", "33", "30", "31", "30", "25", "26", "27", "29", "26", "28"], "time": [3226, 3808, 3852, 4064, 5246, 6896, 6970, 9085, 9770, 10034, 10384, 11662, 14012, 14281]}, "edge": {"target": [], "time": []}}, "mouseout": {"state": {"target": ["13", "12", "0", "0", "0", "31", "30", "32", "33", "30", "31", "30", "25", "26", "27", "29", "26", "28", "28", "1"], "time": [876, 1061, 1227, 1510, 3763, 3846, 3894, 5196, 6883, 6963, 8895, 9166, 9934, 10234, 11456, 14002, 14067, 15857, 25506, 25542]}, "edge": {"target": [], "time": []}}}, "displayed_time": "22.66", "trialTime": 27547, "trial_type": "mouselab-mdp", "trial_index": 52, "time_elapsed": 2444299, "internal_node_id": "0.0-4.0-1.0-31.0"}}, {"uniqueid": "w87613104:a32136405", "current_trial": 53, "dateTime": 1691161721365, "trialdata": {"revealed_states": [], "clicked_states": ["16", "18", "17"], "num_clicks_accrued": [0, 0, 0, 0, 0, 0, 0, 0, 0, 0, 0, 0, 0], "stateRewards": ["", 2, 4, 7, 7, -79, -2, -21, -5, -53, 47, -21, 1, -3, -1, 7, 83, 7, 84, -7, 80, -37, 69, 2, -4, 5, 2, 4, -20, -30, 7, 71, 44, -81], "withholdReward": false, "trial_id": "mdp_trial_33", "block": "test", "trialIndex": 38, "score": 83.8, "costs": -4.199999999999999, "simulationMode": [null, null, null, null, null], "rewards": [1, -3, -1, 7, 84], "path": ["0", "0", "12", "13", "14", "15", "18"], "rt": [9309, 371, 252, 194, 19], "actions": ["right", "right", "right", "up", "left"], "actionTimes": [22130, 23035, 23802, 24541, 25105], "queries": {"click": {"state": {"target": ["16", "18", "17"], "time": [15270, 17257, 19718]}, "edge": {"target": [], "time": []}}, "mouseover": {"state": {"target": ["0", "12", "13", "15", "16", "18", "15", "17"], "time": [13911, 14210, 14360, 14809, 14977, 15961, 18147, 18206]}, "edge": {"target": [], "time": []}}, "mouseout": {"state": {"target": ["16", "0", "0", "12", "13", "15", "16", "18", "15", "17", "14"], "time": [10706, 13744, 13959, 14311, 14411, 14893, 15804, 18091, 18195, 27150, 27266]}, "edge": {"target": [], "time": []}}}, "displayed_time": "26.82", "trialTime": 29586, "trial_type": "mouselab-mdp", "trial_index": 53, "time_elapsed": 2476141, "internal_node_id": "0.0-4.0-1.0-32.0"}}, {"uniqueid": "w87613104:a32136405", "current_trial": 54, "dateTime": 1691161744514, "trialdata": {"revealed_states": [], "clicked_states": [], "num_clicks_accrued": [0, 0, 0, 0, 0, 0, 0, 0, 0, 0, 0, 0, 0], "stateRewards": ["", -1, 3, 8, 10, -86, 61, -36, 10, 17, -60, 24, -1, -3, 3, 11, 50, 60, 33, -3, -20, 58, -6, 1, -4, -4, 13, -70, -71, 43, 14, 52, 82, -11], "withholdReward": false, "trial_id": "mdp_trial_34", "block": "test", "trialIndex": 39, "score": 54, "costs": 0, "simulationMode": [null, null, null, null, null], "rewards": [-1, -3, 3, -3, 58], "path": ["0", "0", "12", "13", "14", "19", "21"], "rt": [7247, 1034, 647, 1028, 22], "actions": ["right", "right", "right", "down", "down"], "actionTimes": [10389, 11948, 13132, 14699, 15252], "queries": {"click": {"state": {"target": [], "time": []}, "edge": {"target": [], "time": []}}, "mouseover": {"state": {"target": ["13", "19", "22", "13", "14", "22"], "time": [4367, 5152, 5251, 5469, 5806, 7153]}, "edge": {"target": [], "time": []}}, "mouseout": {"state": {"target": ["18", "0", "13", "19", "22", "13", "14", "22"], "time": [37, 3176, 4733, 5190, 5335, 5752, 6969, 7190]}, "edge": {"target": [], "time": []}}}, "displayed_time": "17.14", "trialTime": 19846, "trial_type": "mouselab-mdp", "trial_index": 54, "time_elapsed": 2499291, "internal_node_id": "0.0-4.0-1.0-33.0"}}, {"uniqueid": "w87613104:a32136405", "current_trial": 55, "dateTime": 1691161768166, "trialdata": {"revealed_states": [], "clicked_states": ["27", "28"], "num_clicks_accrued": [0, 0, 0, 0, 0, 0, 0, 0, 0, 0, 0, 0, 0], "stateRewards": ["", -1, 1, 3, -8, -23, -15, -14, -11, -23, 58, 68, 1, 3, 5, 12, -17, -41, -7, -10, -4, 82, 10, 1, 4, -4, 11, 73, 55, -55, -1, -86, -86, 54], "withholdReward": false, "trial_id": "mdp_trial_35", "block": "test", "trialIndex": 40, "score": 82.2, "costs": -2.8, "simulationMode": [null, null, null, null, null], "rewards": [1, 4, -4, 11, 73], "path": ["0", "0", "23", "24", "25", "26", "27"], "rt": [5715, 30, 140, 199, 166], "actions": ["left", "left", "left", "up", "up"], "actionTimes": [8979, 9547, 10230, 10993, 11680], "queries": {"click": {"state": {"target": ["27", "28"], "time": [4526, 6149]}, "edge": {"target": [], "time": []}}, "mouseover": {"state": {"target": ["27", "29", "26", "28", "26"], "time": [4228, 5204, 5718, 5895, 7134]}, "edge": {"target": [], "time": []}}, "mouseout": {"state": {"target": ["22", "0", "27", "29", "26", "28", "26", "1", "17", "15", "13"], "time": [547, 3304, 5197, 5668, 5846, 6786, 14267, 14318, 14372, 18407, 18952]}, "edge": {"target": [], "time": []}}}, "displayed_time": "17.27", "trialTime": 20557, "trial_type": "mouselab-mdp", "trial_index": 55, "time_elapsed": 2522942, "internal_node_id": "0.0-4.0-1.0-34.0"}}, {"uniqueid": "w87613104:a32136405", "current_trial": 56, "dateTime": 1691161802127, "trialdata": {"revealed_states": [], "clicked_states": ["33", "32", "31"], "num_clicks_accrued": [0, 0, 0, 0, 0, 0, 0, 0, 0, 0, 0, 0, 0], "stateRewards": ["", 1, -3, -2, 14, 49, -40, -39, 2, 26, -61, 73, 1, -4, -8, 12, 79, 29, -65, -13, 55, -26, 27, -1, 3, 3, 9, -17, -60, -18, -8, 35, -88, 69], "withholdReward": false, "trial_id": "mdp_trial_36", "block": "test", "trialIndex": 41, "score": 61.8, "costs": -4.199999999999999, "simulationMode": [null, null, null, null, null], "rewards": [-1, 3, 3, -8, 69], "path": ["0", "0", "23", "24", "25", "30", "33"], "rt": [9373, 186, 21, 84, 574], "actions": ["left", "left", "left", "down", "left"], "actionTimes": [19384, 20131, 20697, 21386, 22526], "queries": {"click": {"state": {"target": ["33", "32", "31"], "time": [12559, 14340, 17494]}, "edge": {"target": [], "time": []}}, "mouseover": {"state": {"target": ["24", "33", "32", "31"], "time": [11458, 12292, 13148, 14962]}, "edge": {"target": [], "time": []}}, "mouseout": {"state": {"target": ["12", "0", "24", "33", "32", "31"], "time": [7404, 11391, 11859, 13060, 14862, 18030]}, "edge": {"target": [], "time": []}}}, "displayed_time": "24.01", "trialTime": 30394, "trial_type": "mouselab-mdp", "trial_index": 56, "time_elapsed": 2556902, "internal_node_id": "0.0-4.0-1.0-35.0"}}, {"uniqueid": "w87613104:a32136405", "current_trial": 57, "dateTime": 1691161827989, "trialdata": {"revealed_states": [], "clicked_states": ["33", "32"], "num_clicks_accrued": [0, 0, 0, 0, 0, 0, 0, 0, 0, 0, 0, 0, 0], "stateRewards": ["", -2, 1, -8, 12, -65, -79, 16, 7, -80, -17, -45, -2, 2, -5, -2, -85, 23, -4, -7, 48, 27, -76, 2, 3, 5, 2, 43, 71, -13, 7, -49, 59, -31], "withholdReward": false, "trial_id": "mdp_trial_37", "block": "test", "trialIndex": 42, "score": 73.2, "costs": -2.8, "simulationMode": [null, null, null, null, null], "rewards": [2, 3, 5, 7, 59], "path": ["0", "0", "23", "24", "25", "30", "32"], "rt": [7906, 200, 22, 628, 375], "actions": ["left", "left", "left", "down", "down"], "actionTimes": [12653, 13390, 13950, 15123, 16029], "queries": {"click": {"state": {"target": ["33", "32"], "time": [6205, 8923]}, "edge": {"target": [], "time": []}}, "mouseover": {"state": {"target": ["0", "33", "32", "32", "31"], "time": [4790, 5813, 7227, 8678, 9388]}, "edge": {"target": [], "time": []}}, "mouseout": {"state": {"target": ["19", "22", "0", "0", "33", "32", "32", "31", "17", "15"], "time": [271, 955, 1405, 5359, 6766, 8228, 9378, 11378, 21383, 21437]}, "edge": {"target": [], "time": []}}}, "displayed_time": "18.75", "trialTime": 21895, "trial_type": "mouselab-mdp", "trial_index": 57, "time_elapsed": 2582765, "internal_node_id": "0.0-4.0-1.0-36.0"}}, {"uniqueid": "w87613104:a32136405", "current_trial": 58, "dateTime": 1691161886860, "trialdata": {"revealed_states": [], "clicked_states": ["27", "29", "28", "33", "32"], "num_clicks_accrued": [0, 0, 0, 0, 0, 0, 0, 0, 0, 0, 0, 0, 0], "stateRewards": ["", -1, -3, -6, 14, 41, 18, 63, -14, 80, 21, 17, -2, -4, -2, -5, 13, 70, 8, -4, -64, -10, -20, 2, -1, 4, -1, -17, -55, 42, -7, 47, 54, 15], "withholdReward": false, "trial_id": "mdp_trial_38", "block": "test", "trialIndex": 43, "score": 45, "costs": -7, "simulationMode": [null, null, null, null, null], "rewards": [2, -1, 4, -7, 54], "path": ["0", "0", "23", "24", "25", "30", "32"], "rt": [12482, 211, 485, 310, 518], "actions": ["left", "left", "left", "down", "down"], "actionTimes": [15422, 16167, 17203, 18132, 19174], "queries": {"click": {"state": {"target": ["27", "29", "28", "33", "32"], "time": [4664, 6467, 8506, 10672, 12337]}, "edge": {"target": [], "time": []}}, "mouseover": {"state": {"target": ["0", "23", "28", "27", "26", "29", "26", "28", "25", "33", "32", "31", "31"], "time": [3070, 3777, 3892, 4185, 5360, 5635, 6857, 7159, 9568, 10086, 11419, 13195, 13499]}, "edge": {"target": [], "time": []}}, "mouseout": {"state": {"target": ["1", "23", "0", "23", "28", "27", "26", "29", "26", "28", "25", "33", "32", "31", "31", "13"], "time": [98, 781, 3735, 3818, 3935, 5310, 5501, 6807, 6976, 9249, 9625, 11156, 13110, 13240, 20782, 22494]}, "edge": {"target": [], "time": []}}}, "displayed_time": "19.71", "trialTime": 55464, "trial_type": "mouselab-mdp", "trial_index": 58, "time_elapsed": 2641635, "internal_node_id": "0.0-4.0-1.0-37.0"}}, {"uniqueid": "w87613104:a32136405", "current_trial": 59, "dateTime": 1691161924582, "trialdata": {"revealed_states": [], "clicked_states": ["5", "6", "7", "10", "11", "9", "32", "33"], "num_clicks_accrued": [0, 0, 0, 0, 0, 0, 0, 0, 0, 0, 0, 0, 0], "stateRewards": ["", 2, -4, 7, 3, 23, -42, 4, 7, -81, -33, 7, -2, -4, 5, -1, 50, -57, -14, -13, -14, 44, 55, -2, -2, 5, -2, 33, 1, 57, -13, -7, 58, 87], "withholdReward": false, "trial_id": "mdp_trial_39", "block": "test", "trialIndex": 44, "score": 63.8, "costs": -11.200000000000001, "simulationMode": [null, null, null, null, null, null], "rewards": [-2, -2, 5, -13, 87], "path": ["0", "0", "23", "24", "25", "30", "33"], "rt": [19031, 339, 462, 219, 407, 218], "actions": ["left", "left", "left", "left", "down", "left"], "actionTimes": [26034, 26379, 27383, 28121, 29064, 29825], "queries": {"click": {"state": {"target": ["5", "6", "7", "10", "11", "9", "32", "33"], "time": [8334, 10216, 12850, 15057, 17007, 19359, 22546, 24221]}, "edge": {"target": [], "time": []}}, "mouseover": {"state": {"target": ["1", "2", "4", "5", "6", "7", "2", "10", "11", "9", "3", "7", "1", "31", "32", "33", "31"], "time": [7659, 7709, 7844, 8010, 9718, 10734, 13673, 14732, 15694, 17647, 19899, 21598, 21701, 21851, 22151, 23296, 25214]}, "edge": {"target": [], "time": []}}, "mouseout": {"state": {"target": ["0", "1", "2", "4", "5", "6", "7", "2", "10", "11", "9", "9", "3", "7", "1", "31", "32", "33", "31", "13", "14"], "time": [7621, 7700, 7749, 7928, 9073, 10607, 13403, 14481, 15644, 17402, 19560, 19848, 19994, 21638, 21751, 21890, 23055, 25131, 25256, 32121, 34257]}, "edge": {"target": [], "time": []}}}, "displayed_time": "30.34", "trialTime": 34650, "trial_type": "mouselab-mdp", "trial_index": 59, "time_elapsed": 2679358, "internal_node_id": "0.0-4.0-1.0-38.0"}}, {"uniqueid": "w87613104:a32136405", "current_trial": 60, "dateTime": 1691161948890, "trialdata": {"revealed_states": [], "clicked_states": [], "num_clicks_accrued": [0, 0, 0, 0, 0, 0, 0, 0, 0, 0, 0, 0, 0], "stateRewards": ["", 1, 3, 1, -13, 52, -28, 67, -14, 3, 63, -70, -1, -4, 7, -11, -10, 47, -18, 6, 69, -9, -61, 2, 3, -6, 10, 63, -34, 40, -6, -79, -35, -32], "withholdReward": false, "trial_id": "mdp_trial_40", "block": "test", "trialIndex": 45, "score": 77, "costs": 0, "simulationMode": [null, null, null, null, null], "rewards": [-1, -4, 7, 6, 69], "path": ["0", "0", "12", "13", "14", "19", "20"], "rt": [7348, 397, 382, 618, 201], "actions": ["right", "right", "right", "down", "right"], "actionTimes": [11299, 12210, 13111, 14258, 14999], "queries": {"click": {"state": {"target": [], "time": []}, "edge": {"target": [], "time": []}}, "mouseover": {"state": {"target": ["16", "17"], "time": [8399, 10160]}, "edge": {"target": [], "time": []}}, "mouseout": {"state": {"target": ["13", "12", "0", "16", "17"], "time": [943, 989, 5175, 10110, 10204]}, "edge": {"target": [], "time": []}}}, "displayed_time": "17.95", "trialTime": 21355, "trial_type": "mouselab-mdp", "trial_index": 60, "time_elapsed": 2703666, "internal_node_id": "0.0-4.0-1.0-39.0"}}, {"uniqueid": "w87613104:a32136405", "current_trial": 61, "dateTime": 1691162054651, "trialdata": {"rt": 105132, "response": {"Q0": "$-2 to $2", "Q1": "$-4 to $4", "Q2": "$-32 to $32", "Q3": "The cost for clicking on nodes varied between nodes.", "Q4": "Very motivated"}, "question_order": [0, 1, 2, 3, 4], "trial_id": "final_quiz_control", "trial_type": "survey-multi-choice", "trial_index": 61, "time_elapsed": 2809427, "internal_node_id": "0.0-4.0-2.0"}}, {"uniqueid": "w87613104:a32136405", "current_trial": 62, "dateTime": 1691162275100, "trialdata": {"rt": 219881, "response": {"Q0": "Quickly clicking on the nods to see the value before time elapses.", "Q1": "Yes, i become more confident at the game went on as i was much faster in clicking the nods.", "Q2": "Time elapses vey quickly so you have to be very fast."}, "trial_id": "self_report_control", "trial_type": "survey-text", "trial_index": 62, "time_elapsed": 3029877, "internal_node_id": "0.0-4.0-3.0"}}, {"uniqueid": "w87613104:a32136405", "current_trial": 63, "dateTime": 1691162300049, "trialdata": {"rt": 24702, "response": {"gender": "female", "age": "27", "colorblind": "0", "effort": "0"}, "trial_type": "survey-html-form", "trial_index": 63, "time_elapsed": 3054826, "internal_node_id": "0.0-4.0-4.0"}}, {"uniqueid": "w87613104:a32136405", "current_trial": 64, "dateTime": 1691162460196, "trialdata": {"rt": 160108, "response": {"Q0": "At the start it was very difficult as it was my first time the playing game, but as it went on i quickly caught on.", "Q1": "no, i have never played the game before.", "Q2": ""}, "trial_type": "survey-text", "trial_index": 64, "time_elapsed": 3214972, "internal_node_id": "0.0-4.0-5.0"}}, {"uniqueid": "w87613104:a32136405", "current_trial": 65, "dateTime": 1691162468581, "trialdata": {"rt": 8283, "stimulus": "Press 'Finish HIT' in order to reach the completion code. Once the data has been saved, you will receive the code either in this window or in the original browser window where you started the experiment.\n", "response": 0, "trial_type": "html-button-response", "trial_index": 65, "time_elapsed": 3223358, "internal_node_id": "0.0-5.0"}}, {"uniqueid": "w87613104:a32136405", "current_trial": 66, "dateTime": 1691162469627, "trialdata": {"success": true, "trial_type": "fullscreen", "trial_index": 66, "time_elapsed": 3224404, "internal_node_id": "0.0-6.0"}}], "questiondata": {"params": {"CODE": "C6DMOQA6", "MIN_TIME": 14, "inspectCost": 1, "startTime": "Fri Aug 04 2023 16:27:14 GMT+0200 (South Africa Standard Time)", "bonusRate": 0.002, "variance": "1_2_4_8_44", "branching": "31123"}, "final_score": 1584}, "eventdata": [{"eventtype": "initialized", "value": null, "timestamp": 1691159233927, "interval": 0}, {"eventtype": "window_resize", "value": [1024, 654], "timestamp": 1691159233927, "interval": 0}, {"eventtype": "window_resize", "value": [1024, 654], "timestamp": 1691159234543, "interval": 616}, {"eventtype": "window_resize", "value": [1366, 768], "timestamp": 1691159252920, "interval": 18377}, {"eventtype": "focus", "value": "off", "timestamp": 1691159824856, "interval": 571936}, {"eventtype": "focus", "value": "on", "timestamp": 1691159824856, "interval": 0}, {"eventtype": "window_resize", "value": [1024, 654], "timestamp": 1691159825115, "interval": 259}, {"eventtype": "window_resize", "value": [1366, 670], "timestamp": 1691159830987, "interval": 5872}, {"eventtype": "window_resize", "value": [1366, 768], "timestamp": 1691159833740, "interval": 2753}, {"eventtype": "focus", "value": "off", "timestamp": 1691160346858, "interval": 513118}, {"eventtype": "focus", "value": "on", "timestamp": 1691160346859, "interval": 1}, {"eventtype": "window_resize", "value": [1366, 670], "timestamp": 1691160347085, "interval": 226}, {"eventtype": "window_resize", "value": [1366, 768], "timestamp": 1691160349608, "interval": 2523}], "useragent": "Mozilla/5.0 (Windows NT 10.0; Win64; x64) AppleWebKit/537.36 (KHTML, like Gecko) Chrome/115.0.0.0 Safari/537.36", "mode": "live", "id": "w87613104:a32136405", "status": "user data saved", "Beginhit": "2023-08-04 14:26:59.045923", "Beginexp": "2023-08-04 14:27:33.89703", "Endhit": "2023-08-04 15:21:18.813595", "psiturkStatus": 3, "browser": "<redacted>", "platform": "windows", "language": "en-US"}