{"condition": 0, "counterbalance": 0, "assignmentId": "a77082454", "workerId": "w20817889", "hitId": "h54658519", "currenttrial": 28, "bonus": 0, "data": [{"uniqueid": "w20817889:a77082454", "current_trial": 0, "dateTime": 1693481171687, "trialdata": {"success": true, "trial_type": "fullscreen", "trial_index": 0, "time_elapsed": 6564, "internal_node_id": "0.0-0.0"}}, {"uniqueid": "w20817889:a77082454", "current_trial": 1, "dateTime": 1693481228262, "trialdata": {"view_history": [{"page_index": 0, "viewing_time": 56559}], "rt": 56560, "trial_id": "exp_instructions_control", "trial_type": "instructions", "trial_index": 1, "time_elapsed": 63140, "internal_node_id": "0.0-1.0"}}, {"uniqueid": "w20817889:a77082454", "current_trial": 2, "dateTime": 1693481531005, "trialdata": {"view_history": [{"page_index": 0, "viewing_time": 109400}, {"page_index": 1, "viewing_time": 67440}, {"page_index": 2, "viewing_time": 5471}, {"page_index": 1, "viewing_time": 3966}, {"page_index": 2, "viewing_time": 28184}, {"page_index": 3, "viewing_time": 88279}], "rt": 302740, "trial_id": "mouselab_instructions_1_control", "trial_type": "instructions", "trial_index": 2, "time_elapsed": 365882, "internal_node_id": "0.0-2.0-1.0"}}, {"uniqueid": "w20817889:a77082454", "current_trial": 3, "dateTime": 1693481592384, "trialdata": {"revealed_states": [], "clicked_states": ["1", "12", "23", "24", "25", "30", "33", "32", "31", "26"], "num_clicks_accrued": [0, 0, 0, 0, 0, 0, 0, 0, 0, 0, 0, 0, 0], "stateRewards": ["", 10, -10, -10, 10, -10, 10, 10, -10, 10, -10, 10, 10, -10, -10, -10, 10, 10, 10, -10, -10, -10, -10, -10, -10, -10, -10, 10, 10, -10, 10, 10, -10, 10], "withholdReward": false, "trial_id": "practice_1", "block": "test", "trialIndex": 0, "score": -11.5, "costs": -5, "simulationMode": [null, null, null, null, null], "rewards": [-10, -10, -10, 10, 10], "path": ["0", "0", "23", "24", "25", "30", "31"], "rt": [51864, 569, 374, 117, 166], "actions": ["left", "left", "left", "down", "right"], "actionTimes": [53034, 54102, 54976, 55601, 56282], "queries": {"click": {"state": {"target": ["1", "12", "23", "24", "25", "30", "33", "32", "31", "26"], "time": [4964, 6139, 7305, 12198, 22713, 26746, 29742, 34148, 35310, 36769]}, "edge": {"target": [], "time": []}}, "mouseover": {"state": {"target": ["0", "1", "12", "0", "23", "0", "1", "1", "1", "1", "24", "28", "24", "24", "24", "24", "25", "24", "30", "30", "33", "33", "32", "23", "30", "32", "31", "30", "25", "25", "26", "29", "25", "29", "26", "0", "24", "25", "23", "0", "23", "24", "24", "25", "25", "30", "30", "31"], "time": [1682, 4668, 5632, 6399, 6682, 8483, 9157, 10073, 10165, 10916, 11486, 14000, 18485, 20018, 20833, 21850, 22434, 23082, 23449, 26269, 27581, 29449, 31772, 33034, 33370, 33950, 35113, 35846, 35930, 36263, 36539, 37314, 38385, 42449, 42699, 43017, 43399, 44066, 44282, 44899, 45150, 45814, 46605, 47300, 48083, 48299, 48450, 48802]}, "edge": {"target": [], "time": []}}, "mouseout": {"state": {"target": ["12", "0", "0", "0", "1", "12", "0", "23", "0", "1", "1", "1", "1", "1", "23", "24", "24", "28", "24", "24", "24", "24", "24", "25", "24", "30", "25", "25", "25", "25", "25", "30", "33", "30", "30", "33", "30", "32", "23", "30", "32", "32", "31", "30", "25", "25", "26", "29", "26", "25", "31", "29", "26", "0", "24", "25", "23", "0", "23", "24", "24", "25", "25", "30", "30", "31"], "time": [null, 620, 1484, 4285, 5565, 6366, 6633, 8049, 8584, 9017, 9951, 10098, 10566, 10933, 11384, 12565, 13921, 14421, 18123, 19300, 20624, 21522, 22398, 23016, 23199, 23868, 23974, 24368, 24649, 25699, 26100, 27265, 28089, 28502, 29350, 30132, 31599, 32398, 33066, 33833, 34153, 34863, 35813, 35880, 35998, 36483, 37214, 37814, 38149, 38463, 40417, 42666, 42733, 43213, 43549, 44131, 44481, 45030, 45736, 46498, 47207, 47333, 48113, 48415, 48749, 49348]}, "edge": {"target": [], "time": []}}}, "displayed_time": "56.80", "trialTime": 60332, "trial_type": "mouselab-mdp", "trial_index": 3, "time_elapsed": 427260, "internal_node_id": "0.0-2.0-2.0-0.0"}}, {"uniqueid": "w20817889:a77082454", "current_trial": 4, "dateTime": 1693481610862, "trialdata": {"revealed_states": [], "clicked_states": ["12", "1", "23"], "num_clicks_accrued": [0, 0, 0, 0, 0, 0, 0, 0, 0, 0, 0, 0, 0], "stateRewards": ["", 10, 10, -10, -10, -10, -10, -10, 10, -10, 10, -10, 10, -10, -10, -10, 10, 10, 10, 10, 10, -10, -10, 10, 10, 10, -10, 10, -10, -10, 10, 10, -10, -10], "withholdReward": false, "trial_id": "practice_2", "block": "test", "trialIndex": 1, "score": 12, "costs": -1.5, "simulationMode": [null, null, null, null, null], "rewards": [10, 10, 10, -10, -10], "path": ["0", "0", "23", "24", "25", "26", "29"], "rt": [6051, 3948, 616, 50, 5], "actions": ["left", "left", "left", "up", "left"], "actionTimes": [8546, 13010, 14146, 14712, 15235], "queries": {"click": {"state": {"target": ["12", "1", "23"], "time": [4855, 6028, 7360]}, "edge": {"target": [], "time": []}}, "mouseover": {"state": {"target": ["0", "0", "12", "12", "1", "23"], "time": [2562, 3526, 4345, 4730, 5726, 7110]}, "edge": {"target": [], "time": []}}, "mouseout": {"state": {"target": ["12", "0", "0", "0", "0", "12", "12", "12", "1", "23", "23", "24", "24", "24", "25", "24", "23"], "time": [1577, 1893, 2177, 3077, 3763, 4394, 5326, 5476, 6292, 8109, 9427, 11147, 11409, 12727, 15878, 15948, 16261]}, "edge": {"target": [], "time": []}}}, "displayed_time": "15.74", "trialTime": 18339, "trial_type": "mouselab-mdp", "trial_index": 4, "time_elapsed": 445739, "internal_node_id": "0.0-2.0-2.0-1.0"}}, {"uniqueid": "w20817889:a77082454", "current_trial": 5, "dateTime": 1693481662467, "trialdata": {"view_history": [{"page_index": 0, "viewing_time": 44922}, {"page_index": 1, "viewing_time": 6677}], "rt": 51600, "trial_id": "mouselab_instructions_2_control", "trial_type": "instructions", "trial_index": 5, "time_elapsed": 497345, "internal_node_id": "0.0-2.0-3.0"}}, {"uniqueid": "w20817889:a77082454", "current_trial": 6, "dateTime": 1693481735081, "trialdata": {"rt": 72609, "response": {"Q0": "There is no cost for clicking on nodes.", "Q1": "The better I perform the higher my bonus will be.", "Q2": "No, the amount of cash at each node of the web may be different each time.", "Q3": "To get the highest total score.", "Q4": "Only before moving the spider.", "Q5": "3 seconds"}, "question_order": [0, 1, 2, 3, 4, 5], "correct": {"Q0": "The cost for clicking on nodes may vary between nodes.", "Q1": "The better I perform the higher my bonus will be.", "Q2": "No, the amount of cash at each node of the web may be different each time.", "Q3": "To get the highest total score.", "Q4": "Only before moving the spider.", "Q5": "3 seconds"}, "trial_id": "mouselab_quiz_control", "trial_type": "survey-multi-choice", "trial_index": 6, "time_elapsed": 569959, "internal_node_id": "0.0-2.0-4.0"}}, {"uniqueid": "w20817889:a77082454", "current_trial": 7, "dateTime": 1693481758309, "trialdata": {"success": true, "trial_type": "fullscreen", "trial_index": 7, "time_elapsed": 593187, "internal_node_id": "0.0-2.1-0.1-0.1"}}, {"uniqueid": "w20817889:a77082454", "current_trial": 8, "dateTime": 1693481911528, "trialdata": {"view_history": [{"page_index": 0, "viewing_time": 26881}, {"page_index": 1, "viewing_time": 55410}, {"page_index": 2, "viewing_time": 18082}, {"page_index": 3, "viewing_time": 52842}], "rt": 153216, "trial_id": "mouselab_instructions_1_control", "trial_type": "instructions", "trial_index": 8, "time_elapsed": 746406, "internal_node_id": "0.0-2.1-1.1"}}, {"uniqueid": "w20817889:a77082454", "current_trial": 9, "dateTime": 1693481940563, "trialdata": {"revealed_states": [], "clicked_states": ["1", "12"], "num_clicks_accrued": [0, 0, 0, 0, 0, 0, 0, 0, 0, 0, 0, 0, 0], "stateRewards": ["", 10, -10, -10, 10, -10, 10, 10, -10, 10, -10, 10, 10, -10, -10, -10, 10, 10, 10, -10, -10, -10, -10, -10, -10, -10, -10, 10, 10, -10, 10, 10, -10, 10], "withholdReward": false, "trial_id": "practice_1", "block": "test", "trialIndex": 2, "score": -7.5, "costs": -1, "simulationMode": [null, null, null, null, null], "rewards": [10, -10, -10, -10, 10], "path": ["0", "0", "1", "2", "3", "8", "9"], "rt": [9575, 4321, 4307, 13, 2118], "actions": ["up", "up", "up", "left", "up"], "actionTimes": [13162, 17977, 22812, 23316, 25952], "queries": {"click": {"state": {"target": ["1", "12"], "time": [5914, 7407]}, "edge": {"target": [], "time": []}}, "mouseover": {"state": {"target": ["0", "1", "12", "2", "2", "1", "1"], "time": [3910, 5635, 6787, 10007, 10338, 10887, 11289]}, "edge": {"target": [], "time": []}}, "mouseout": {"state": {"target": ["12", "1", "2", "0", "0", "1", "12", "1", "2", "2", "1", "1", "2", "2", "3", "3", "3", "2", "1"], "time": [387, 540, 655, 3043, 5418, 6521, 9392, 9876, 10071, 10554, 11039, 13903, 16404, 18085, 19573, 24449, 25850, 27016, 27101]}, "edge": {"target": [], "time": []}}}, "displayed_time": "26.47", "trialTime": 28890, "trial_type": "mouselab-mdp", "trial_index": 9, "time_elapsed": 775441, "internal_node_id": "0.0-2.1-2.1-0.1"}}, {"uniqueid": "w20817889:a77082454", "current_trial": 10, "dateTime": 1693481966184, "trialdata": {"revealed_states": [], "clicked_states": ["23", "12", "13", "14", "15", "1"], "num_clicks_accrued": [0, 0, 0, 0, 0, 0, 0, 0, 0, 0, 0, 0, 0], "stateRewards": ["", 10, 10, -10, -10, -10, -10, -10, 10, -10, 10, -10, 10, -10, -10, -10, 10, 10, 10, 10, 10, -10, -10, 10, 10, 10, -10, 10, -10, -10, 10, 10, -10, -10], "withholdReward": false, "trial_id": "practice_2", "block": "test", "trialIndex": 3, "score": -9.5, "costs": -3, "simulationMode": [null, null, null, null, null], "rewards": [10, 10, -10, -10, -10], "path": ["0", "0", "1", "2", "3", "4", "6"], "rt": [14286, 133, 715, 485, 145], "actions": ["up", "up", "up", "right", "right"], "actionTimes": [19170, 19814, 21047, 22034, 22695], "queries": {"click": {"state": {"target": ["23", "12", "13", "14", "15", "1"], "time": [8034, 9299, 11134, 12720, 13921, 15857]}, "edge": {"target": [], "time": []}}, "mouseover": {"state": {"target": ["0", "1", "0", "23", "24", "0", "12", "13", "13", "14", "15", "18", "1", "2"], "time": [5124, 6347, 7680, 7731, 8394, 8828, 9132, 9878, 10914, 11962, 13694, 15063, 15533, 16229]}, "edge": {"target": [], "time": []}}, "mouseout": {"state": {"target": ["0", "0", "1", "0", "23", "24", "23", "0", "12", "12", "13", "13", "14", "15", "18", "1", "2", "1", "0"], "time": [4532, 5981, 7446, 7697, 8378, 8778, 8812, 8895, 9308, 9778, 10096, 11844, 13261, 15047, 15078, 16112, 17087, 23932, 24035]}, "edge": {"target": [], "time": []}}}, "displayed_time": "23.21", "trialTime": 25471, "trial_type": "mouselab-mdp", "trial_index": 10, "time_elapsed": 801061, "internal_node_id": "0.0-2.1-2.1-1.1"}}, {"uniqueid": "w20817889:a77082454", "current_trial": 11, "dateTime": 1693481980245, "trialdata": {"view_history": [{"page_index": 0, "viewing_time": 8227}, {"page_index": 1, "viewing_time": 5829}], "rt": 14056, "trial_id": "mouselab_instructions_2_control", "trial_type": "instructions", "trial_index": 11, "time_elapsed": 815123, "internal_node_id": "0.0-2.1-3.1"}}, {"uniqueid": "w20817889:a77082454", "current_trial": 12, "dateTime": 1693482038424, "trialdata": {"rt": 58176, "response": {"Q0": "The cost for clicking on nodes may vary between nodes.", "Q1": "The better I perform the higher my bonus will be.", "Q2": "No, the structure of the web will be different each time.", "Q3": "To get the highest total score.", "Q4": "Only before moving the spider.", "Q5": "3 seconds"}, "question_order": [0, 1, 2, 3, 4, 5], "correct": {"Q0": "The cost for clicking on nodes may vary between nodes.", "Q1": "The better I perform the higher my bonus will be.", "Q2": "No, the amount of cash at each node of the web may be different each time.", "Q3": "To get the highest total score.", "Q4": "Only before moving the spider.", "Q5": "3 seconds"}, "trial_id": "mouselab_quiz_control", "trial_type": "survey-multi-choice", "trial_index": 12, "time_elapsed": 873302, "internal_node_id": "0.0-2.1-4.1"}}, {"uniqueid": "w20817889:a77082454", "current_trial": 13, "dateTime": 1693482044574, "trialdata": {"success": true, "trial_type": "fullscreen", "trial_index": 13, "time_elapsed": 879452, "internal_node_id": "0.0-2.2-0.2-0.2"}}, {"uniqueid": "w20817889:a77082454", "current_trial": 14, "dateTime": 1693482078022, "trialdata": {"view_history": [{"page_index": 0, "viewing_time": 9624}, {"page_index": 1, "viewing_time": 12703}, {"page_index": 2, "viewing_time": 9816}, {"page_index": 3, "viewing_time": 1301}], "rt": 33444, "trial_id": "mouselab_instructions_1_control", "trial_type": "instructions", "trial_index": 14, "time_elapsed": 912900, "internal_node_id": "0.0-2.2-1.2"}}, {"uniqueid": "w20817889:a77082454", "current_trial": 15, "dateTime": 1693482116639, "trialdata": {"revealed_states": [], "clicked_states": ["1", "2", "23", "24", "12", "13", "14", "15", "19", "22"], "num_clicks_accrued": [0, 0, 0, 0, 0, 0, 0, 0, 0, 0, 0, 0, 0], "stateRewards": ["", 10, -10, -10, 10, -10, 10, 10, -10, 10, -10, 10, 10, -10, -10, -10, 10, 10, 10, -10, -10, -10, -10, -10, -10, -10, -10, 10, 10, -10, 10, 10, -10, 10], "withholdReward": false, "trial_id": "practice_1", "block": "test", "trialIndex": 4, "score": -11.5, "costs": -5, "simulationMode": [null, null, null, null, null], "rewards": [10, -10, -10, -10, 10], "path": ["0", "0", "12", "13", "14", "15", "17"], "rt": [31275, 56, 135, 123, 1], "actions": ["right", "right", "right", "up", "right"], "actionTimes": [33225, 33786, 34431, 35051, 35564], "queries": {"click": {"state": {"target": ["1", "2", "23", "24", "12", "13", "14", "15", "19", "22"], "time": [4442, 7017, 10665, 11891, 13794, 15397, 17684, 20627, 22922, 25496]}, "edge": {"target": [], "time": []}}, "mouseover": {"state": {"target": ["0", "1", "2", "1", "23", "24", "0", "12", "12", "13", "14", "15", "14", "19", "22", "12", "0", "23", "23", "0", "12"], "time": [2346, 3810, 6710, 9378, 10043, 11009, 13009, 13211, 13577, 14076, 17260, 20443, 22310, 22378, 25076, 27385, 27627, 27709, 28344, 32058, 32309]}, "edge": {"target": [], "time": []}}, "mouseout": {"state": {"target": ["12", "0", "0", "1", "2", "2", "1", "23", "24", "23", "0", "12", "12", "13", "14", "14", "15", "14", "19", "22", "12", "0", "23", "23", "0", "12", "12"], "time": [876, 1743, 2531, 6378, 8848, 9309, 9460, 10977, 12860, 12976, 13094, 13401, 14009, 15776, 18711, 20028, 21159, 22343, 23276, 27326, 27579, 27642, 27943, 32043, 32275, 37074, 37240]}, "edge": {"target": [], "time": []}}}, "displayed_time": "36.10", "trialTime": 38423, "trial_type": "mouselab-mdp", "trial_index": 15, "time_elapsed": 951516, "internal_node_id": "0.0-2.2-2.2-0.2"}}, {"uniqueid": "w20817889:a77082454", "current_trial": 16, "dateTime": 1693482141218, "trialdata": {"revealed_states": [], "clicked_states": ["1", "2", "3", "4", "8", "10"], "num_clicks_accrued": [0, 0, 0, 0, 0, 0, 0, 0, 0, 0, 0, 0, 0], "stateRewards": ["", 10, 10, -10, -10, -10, -10, -10, 10, -10, 10, -10, 10, -10, -10, -10, 10, 10, 10, 10, 10, -10, -10, 10, 10, 10, -10, 10, -10, -10, 10, 10, -10, -10], "withholdReward": false, "trial_id": "practice_2", "block": "test", "trialIndex": 5, "score": 30.5, "costs": -3, "simulationMode": [null, null, null, null, null], "rewards": [10, 10, -10, 10, 10], "path": ["0", "0", "1", "2", "3", "8", "10"], "rt": [16497, 120, 13, 670, 131], "actions": ["up", "up", "up", "left", "down"], "actionTimes": [19011, 19653, 20178, 21387, 22016], "queries": {"click": {"state": {"target": ["1", "2", "3", "4", "8", "10"], "time": [4992, 6587, 8532, 10763, 12722, 15329]}, "edge": {"target": [], "time": []}}, "mouseover": {"state": {"target": ["0", "0", "1", "2", "3", "4", "8", "10", "11", "2"], "time": [2924, 4214, 4782, 6133, 8231, 10495, 12551, 15132, 16030, 17397]}, "edge": {"target": [], "time": []}}, "mouseout": {"state": {"target": ["0", "0", "0", "1", "2", "3", "4", "3", "8", "8", "10", "11", "2", "1", "0"], "time": [1099, 3326, 4482, 5001, 8097, 9064, 12247, 12347, 13347, 14697, 15731, 16960, 17497, 23337, 23381]}, "edge": {"target": [], "time": []}}}, "displayed_time": "22.52", "trialTime": 24427, "trial_type": "mouselab-mdp", "trial_index": 16, "time_elapsed": 976096, "internal_node_id": "0.0-2.2-2.2-1.2"}}, {"uniqueid": "w20817889:a77082454", "current_trial": 17, "dateTime": 1693482149001, "trialdata": {"view_history": [{"page_index": 0, "viewing_time": 3974}, {"page_index": 1, "viewing_time": 3805}], "rt": 7778, "trial_id": "mouselab_instructions_2_control", "trial_type": "instructions", "trial_index": 17, "time_elapsed": 983879, "internal_node_id": "0.0-2.2-3.2"}}, {"uniqueid": "w20817889:a77082454", "current_trial": 18, "dateTime": 1693482183686, "trialdata": {"rt": 34678, "response": {"Q0": "The cost is always $2.", "Q1": "The better I perform the higher my bonus will be.", "Q2": "No, the amount of cash at each node of the web may be different each time.", "Q3": "To get the highest total score.", "Q4": "Only before moving the spider.", "Q5": "3 seconds"}, "question_order": [0, 1, 2, 3, 4, 5], "correct": {"Q0": "The cost for clicking on nodes may vary between nodes.", "Q1": "The better I perform the higher my bonus will be.", "Q2": "No, the amount of cash at each node of the web may be different each time.", "Q3": "To get the highest total score.", "Q4": "Only before moving the spider.", "Q5": "3 seconds"}, "trial_id": "mouselab_quiz_control", "trial_type": "survey-multi-choice", "trial_index": 18, "time_elapsed": 1018564, "internal_node_id": "0.0-2.2-4.2"}}, {"uniqueid": "w20817889:a77082454", "current_trial": 19, "dateTime": 1693482192200, "trialdata": {"success": true, "trial_type": "fullscreen", "trial_index": 19, "time_elapsed": 1027078, "internal_node_id": "0.0-2.3-0.3-0.3"}}, {"uniqueid": "w20817889:a77082454", "current_trial": 20, "dateTime": 1693482387471, "trialdata": {"view_history": [{"page_index": 0, "viewing_time": 57228}, {"page_index": 1, "viewing_time": 60671}, {"page_index": 2, "viewing_time": 4563}, {"page_index": 3, "viewing_time": 72803}], "rt": 195266, "trial_id": "mouselab_instructions_1_control", "trial_type": "instructions", "trial_index": 20, "time_elapsed": 1222349, "internal_node_id": "0.0-2.3-1.3"}}, {"uniqueid": "w20817889:a77082454", "current_trial": 21, "dateTime": 1693482421921, "trialdata": {"revealed_states": [], "clicked_states": ["1", "2", "3", "23", "24", "25", "12", "13", "14", "19", "15"], "num_clicks_accrued": [0, 0, 0, 0, 0, 0, 0, 0, 0, 0, 0, 0, 0], "stateRewards": ["", 10, -10, -10, 10, -10, 10, 10, -10, 10, -10, 10, 10, -10, -10, -10, 10, 10, 10, -10, -10, -10, -10, -10, -10, -10, -10, 10, 10, -10, 10, 10, -10, 10], "withholdReward": false, "trial_id": "practice_1", "block": "test", "trialIndex": 6, "score": -12, "costs": -5.5, "simulationMode": [null, null, null, null, null], "rewards": [10, -10, -10, -10, 10], "path": ["0", "0", "12", "13", "14", "15", "18"], "rt": [23701, 379, 159, 102, 29], "actions": ["right", "right", "right", "up", "left"], "actionTimes": [28639, 29527, 30208, 30814, 31342], "queries": {"click": {"state": {"target": ["1", "2", "3", "23", "24", "25", "12", "13", "14", "19", "15"], "time": [7212, 10315, 12332, 15172, 16697, 18905, 20286, 21648, 23087, 25001, 26370]}, "edge": {"target": [], "time": []}}, "mouseover": {"state": {"target": ["0", "1", "2", "2", "2", "2", "7", "3", "3", "4", "0", "23", "24", "25", "25", "25", "22", "12", "13", "13", "14", "15", "15", "19", "15"], "time": [5495, 6979, 8814, 9246, 9645, 9963, 10712, 10995, 11262, 13931, 14628, 14978, 15428, 17145, 18162, 18547, 19278, 19545, 20412, 20714, 21962, 23693, 23978, 24794, 25462]}, "edge": {"target": [], "time": []}}, "mouseout": {"state": {"target": ["0", "0", "0", "0", "0", "1", "1", "1", "1", "2", "2", "2", "2", "7", "3", "3", "4", "0", "23", "24", "25", "24", "23", "24", "25", "25", "24", "22", "12", "13", "13", "14", "15", "15", "19", "14", "15", "19"], "time": [1378, 2995, 4367, 5168, 5564, 7222, 7744, 8011, 8733, 8913, 9413, 9695, 10678, 10878, 11044, 12678, 14496, 14661, 15394, 16995, 17345, 17378, 17594, 17877, 18445, 19045, 19128, 19395, 20385, 20445, 21895, 23410, 23727, 24445, 25279, 25394, 26611, 32511]}, "edge": {"target": [], "time": []}}}, "displayed_time": "31.88", "trialTime": 34293, "trial_type": "mouselab-mdp", "trial_index": 21, "time_elapsed": 1256798, "internal_node_id": "0.0-2.3-2.3-0.3"}}, {"uniqueid": "w20817889:a77082454", "current_trial": 22, "dateTime": 1693482441460, "trialdata": {"revealed_states": [], "clicked_states": ["23", "24", "25", "26", "29", "27"], "num_clicks_accrued": [0, 0, 0, 0, 0, 0, 0, 0, 0, 0, 0, 0, 0], "stateRewards": ["", 10, 10, -10, -10, -10, -10, -10, 10, -10, 10, -10, 10, -10, -10, -10, 10, 10, 10, 10, 10, -10, -10, 10, 10, 10, -10, 10, -10, -10, 10, 10, -10, -10], "withholdReward": false, "trial_id": "practice_2", "block": "test", "trialIndex": 7, "score": 30.5, "costs": -3, "simulationMode": [null, null, null, null, null], "rewards": [10, 10, 10, -10, 10], "path": ["0", "0", "23", "24", "25", "26", "27"], "rt": [12896, 56, 72, 75, 20], "actions": ["left", "left", "left", "up", "up"], "actionTimes": [15614, 16202, 16801, 17375, 17913], "queries": {"click": {"state": {"target": ["23", "24", "25", "26", "29", "27"], "time": [3666, 6773, 8437, 10176, 11708, 13579]}, "edge": {"target": [], "time": []}}, "mouseover": {"state": {"target": ["0", "23", "0", "1", "1", "24", "25", "31", "26", "29", "25", "27", "28"], "time": [3399, 3532, 3965, 4499, 5799, 6516, 7616, 8948, 9465, 11149, 12548, 13399, 14951]}, "edge": {"target": [], "time": []}}, "mouseout": {"state": {"target": ["0", "0", "23", "0", "1", "1", "24", "24", "23", "25", "24", "31", "25", "26", "29", "25", "27", "26", "28", "28"], "time": [3167, 3498, 3915, 4365, 5502, 6186, 6858, 6966, 7065, 8732, 8781, 8965, 9264, 10532, 12014, 12781, 13848, 14131, 17643, 18977]}, "edge": {"target": [], "time": []}}}, "displayed_time": "18.41", "trialTime": 19387, "trial_type": "mouselab-mdp", "trial_index": 22, "time_elapsed": 1276337, "internal_node_id": "0.0-2.3-2.3-1.3"}}, {"uniqueid": "w20817889:a77082454", "current_trial": 23, "dateTime": 1693482450535, "trialdata": {"view_history": [{"page_index": 0, "viewing_time": 6984}, {"page_index": 1, "viewing_time": 2084}], "rt": 9069, "trial_id": "mouselab_instructions_2_control", "trial_type": "instructions", "trial_index": 23, "time_elapsed": 1285413, "internal_node_id": "0.0-2.3-3.3"}}, {"uniqueid": "w20817889:a77082454", "current_trial": 24, "dateTime": 1693482488177, "trialdata": {"rt": 37640, "response": {"Q0": "The cost for clicking on nodes may vary between nodes.", "Q1": "I will receive a $1 bonus if I perform well, otherwise I will receive no bonus.", "Q2": "No, the amount of cash at each node of the web may be different each time.", "Q3": "To get the highest total score.", "Q4": "Only before moving the spider.", "Q5": "3 seconds"}, "question_order": [0, 1, 2, 3, 4, 5], "correct": {"Q0": "The cost for clicking on nodes may vary between nodes.", "Q1": "The better I perform the higher my bonus will be.", "Q2": "No, the amount of cash at each node of the web may be different each time.", "Q3": "To get the highest total score.", "Q4": "Only before moving the spider.", "Q5": "3 seconds"}, "trial_id": "mouselab_quiz_control", "trial_type": "survey-multi-choice", "trial_index": 24, "time_elapsed": 1323055, "internal_node_id": "0.0-2.3-4.3"}}, {"uniqueid": "w20817889:a77082454", "current_trial": 25, "dateTime": 1693482581508, "trialdata": {"rt": 93321, "response": {"Q0": "I was too distracted by things happening around me to comprehend the instructions well. The content itself was clear enough. ", "Q1": "32", "Q2": "female", "Q3": "no", "Q4": "none, sorry I couldn't complete it. "}, "trial_id": "finish_fail", "trial_type": "survey-text", "trial_index": 25, "time_elapsed": 1416385, "internal_node_id": "0.0-3.0-0.0"}}, {"uniqueid": "w20817889:a77082454", "current_trial": 26, "dateTime": 1693482614429, "trialdata": {"rt": 32916, "stimulus": "<h1>Completion Code Instructions (1/2)</h1>\n<br><br><br><br>\nYou have reached the end of the experiment! The completion code consists of two parts: (1) a code with 2 characters (2) a code with 6 characters. On this page, you will receive the second part of the code. The first part of the completion code will be on the next page.\n<br><br>\nThe second part of your completion code is: <b>AYIWIP</b>\n<br><br>\nPlease note this down. Then, press 'Finish HIT' in order to find the first part of your completion code. Once the data has been saved, you will receive this code either in this window or in the original browser window where you started the experiment.\n", "response": 0, "trial_type": "html-button-response", "trial_index": 26, "time_elapsed": 1449307, "internal_node_id": "0.0-3.0-1.0"}}, {"uniqueid": "w20817889:a77082454", "current_trial": 27, "dateTime": 1693482615432, "trialdata": {"success": true, "trial_type": "fullscreen", "trial_index": 27, "time_elapsed": 1450310, "internal_node_id": "0.0-7.0"}}], "questiondata": {"params": {"CODE": "C6DMOQA6", "MIN_TIME": 14, "inspectCost": 1, "startTime": "Thu Aug 31 2023 13:26:03 GMT+0200 (South Africa Standard Time)", "bonusRate": 0.002, "variance": "1_2_4_8_44", "branching": "31123"}, "final_score": 0}, "eventdata": [{"eventtype": "initialized", "value": null, "timestamp": 1693481162747, "interval": 0}, {"eventtype": "window_resize", "value": [1024, 767], "timestamp": 1693481162747, "interval": 0}, {"eventtype": "window_resize", "value": [1024, 767], "timestamp": 1693481163238, "interval": 491}, {"eventtype": "window_resize", "value": [1920, 1080], "timestamp": 1693481170912, "interval": 7674}, {"eventtype": "focus", "value": "off", "timestamp": 1693481754816, "interval": 583904}, {"eventtype": "focus", "value": "on", "timestamp": 1693481754817, "interval": 1}, {"eventtype": "window_resize", "value": [1024, 767], "timestamp": 1693481755028, "interval": 211}, {"eventtype": "window_resize", "value": [1920, 1080], "timestamp": 1693481757524, "interval": 2496}, {"eventtype": "focus", "value": "off", "timestamp": 1693482041746, "interval": 284222}, {"eventtype": "focus", "value": "on", "timestamp": 1693482041746, "interval": 0}, {"eventtype": "window_resize", "value": [1024, 767], "timestamp": 1693482041970, "interval": 224}, {"eventtype": "window_resize", "value": [1920, 1080], "timestamp": 1693482043806, "interval": 1836}, {"eventtype": "focus", "value": "off", "timestamp": 1693482186191, "interval": 142385}, {"eventtype": "focus", "value": "on", "timestamp": 1693482186192, "interval": 1}, {"eventtype": "window_resize", "value": [1024, 767], "timestamp": 1693482186409, "interval": 217}, {"eventtype": "window_resize", "value": [1920, 1080], "timestamp": 1693482191426, "interval": 5017}, {"eventtype": "window_resize", "value": [1024, 767], "timestamp": 1693482614656, "interval": 423230}], "useragent": "Mozilla/5.0 (Windows NT 10.0; Win64; x64) AppleWebKit/537.36 (KHTML, like Gecko) Chrome/116.0.0.0 Safari/537.36", "mode": "live", "id": "w20817889:a77082454", "status": "user data saved", "Beginhit": "2023-08-31 11:25:57.373632", "Beginexp": "2023-08-31 11:26:09.295439", "Endhit": "2023-08-31 11:50:13.923955", "psiturkStatus": 3, "browser": "<redacted>", "platform": "windows", "language": "en-US", "excludeReason": "quizfail"}