{"condition": 1, "counterbalance": 0, "assignmentId": "a23072496", "workerId": "w84114670", "hitId": "h52543453", "currenttrial": 62, "bonus": 0, "data": [{"uniqueid": "w84114670:a23072496", "current_trial": 0, "dateTime": 1691159443216, "trialdata": {"success": true, "trial_type": "fullscreen", "trial_index": 0, "time_elapsed": 3714, "internal_node_id": "0.0-0.0"}}, {"uniqueid": "w84114670:a23072496", "current_trial": 1, "dateTime": 1691159475412, "trialdata": {"view_history": [{"page_index": 0, "viewing_time": 32190}], "rt": 32191, "trial_id": "exp_instructions_misaligned", "trial_type": "instructions", "trial_index": 1, "time_elapsed": 35909, "internal_node_id": "0.0-1.0"}}, {"uniqueid": "w84114670:a23072496", "current_trial": 2, "dateTime": 1691159478566, "trialdata": {"success": true, "trial_type": "fullscreen", "trial_index": 2, "time_elapsed": 39064, "internal_node_id": "0.0-2.0-0.0"}}, {"uniqueid": "w84114670:a23072496", "current_trial": 3, "dateTime": 1691159820910, "trialdata": {"view_history": [{"page_index": 0, "viewing_time": 94542}, {"page_index": 1, "viewing_time": 163654}, {"page_index": 2, "viewing_time": 51868}, {"page_index": 3, "viewing_time": 32284}], "rt": 342347, "trial_id": "mouselab_instructions_1_misaligned", "trial_type": "instructions", "trial_index": 3, "time_elapsed": 381408, "internal_node_id": "0.0-2.0-1.0"}}, {"uniqueid": "w84114670:a23072496", "current_trial": 4, "dateTime": 1691159849298, "trialdata": {"revealed_states": [], "clicked_states": ["2", "1"], "num_clicks_accrued": [0, 0, 0, 0, 0, 0, 0, 0, 0, 0, 0, 0, 0], "stateRewards": ["", -10, 10, -10, -10, -10, 10, 10, -10, 10, -10, -10, 10, -10, 10, -10, 10, -10, 10, -10, 10, -10, 10, 10, 10, 10, -10, -10, 10, -10, -10, 10, 10, 10], "withholdReward": false, "trial_id": "practice_1", "block": "test", "trialIndex": 0, "score": -7.5, "costs": -1, "simulationMode": [null, null, null, null, null], "rewards": [10, -10, 10, -10, -10], "path": ["0", "0", "12", "13", "14", "15", "17"], "rt": [14734, 486, 382, 2057, 361], "actions": ["right", "right", "right", "up", "right"], "actionTimes": [17520, 18502, 19398, 21973, 22844], "queries": {"click": {"state": {"target": ["2", "1"], "time": [5460, 9258]}, "edge": {"target": [], "time": []}}, "mouseover": {"state": {"target": ["23", "24", "25", "1", "2", "1", "0", "1", "2"], "time": [3814, 3863, 4149, 4534, 4949, 6296, 7032, 8554, 11718]}, "edge": {"target": [], "time": []}}, "mouseout": {"state": {"target": ["0", "23", "24", "25", "1", "2", "1", "0", "1", "1", "2", "1"], "time": [3800, 3848, 3898, 4400, 4597, 6215, 6496, 7302, 9948, 11482, 13102, 13167]}, "edge": {"target": [], "time": []}}}, "displayed_time": "23.36", "trialTime": 26920, "trial_type": "mouselab-mdp", "trial_index": 4, "time_elapsed": 409795, "internal_node_id": "0.0-2.0-2.0-0.0"}}, {"uniqueid": "w84114670:a23072496", "current_trial": 5, "dateTime": 1691159861962, "trialdata": {"revealed_states": [], "clicked_states": [], "num_clicks_accrued": [0, 0, 0, 0, 0, 0, 0, 0, 0, 0, 0, 0, 0], "stateRewards": ["", -10, -10, -10, 10, 10, -10, 10, 10, 10, 10, -10, 10, 10, 10, -10, 10, 10, -10, 10, -10, -10, -10, -10, 10, 10, 10, -10, -10, 10, -10, 10, 10, 10], "withholdReward": false, "trial_id": "practice_2", "block": "test", "trialIndex": 1, "score": 33.5, "costs": 0, "simulationMode": [null, null, null, null, null], "rewards": [-10, 10, 10, 10, 10], "path": ["0", "0", "23", "24", "25", "26", "29"], "rt": [1781, 295, 236, 1770, 493], "actions": ["left", "left", "left", "up", "left"], "actionTimes": [3610, 4418, 5176, 7460, 8464], "queries": {"click": {"state": {"target": [], "time": []}, "edge": {"target": [], "time": []}}, "mouseover": {"state": {"target": [], "time": []}, "edge": {"target": [], "time": []}}, "mouseout": {"state": {"target": ["0"], "time": [1343]}, "edge": {"target": [], "time": []}}}, "displayed_time": "8.97", "trialTime": 12543, "trial_type": "mouselab-mdp", "trial_index": 5, "time_elapsed": 422460, "internal_node_id": "0.0-2.0-2.0-1.0"}}, {"uniqueid": "w84114670:a23072496", "current_trial": 6, "dateTime": 1691159915110, "trialdata": {"view_history": [{"page_index": 0, "viewing_time": 19713}, {"page_index": 1, "viewing_time": 1899}, {"page_index": 0, "viewing_time": 23246}, {"page_index": 1, "viewing_time": 8286}], "rt": 53144, "trial_id": "mouselab_instructions_2_misaligned", "trial_type": "instructions", "trial_index": 6, "time_elapsed": 475608, "internal_node_id": "0.0-2.0-3.0"}}, {"uniqueid": "w84114670:a23072496", "current_trial": 7, "dateTime": 1691159974546, "trialdata": {"rt": 59431, "response": {"Q0": "The cost for clicking on nodes may vary between nodes.", "Q1": "The better I perform the higher my bonus will be.", "Q2": "No, the amount of cash at each node of the web may be different each time.", "Q3": "To click on the least number of nodes.", "Q4": "Only before moving the spider.", "Q5": "3 seconds"}, "question_order": [0, 1, 2, 3, 4, 5], "correct": {"Q0": "The cost for clicking on nodes may vary between nodes.", "Q1": "The better I perform the higher my bonus will be.", "Q2": "No, the amount of cash at each node of the web may be different each time.", "Q3": "To get the highest total score.", "Q4": "Only before moving the spider.", "Q5": "3 seconds"}, "trial_id": "mouselab_quiz_misaligned", "trial_type": "survey-multi-choice", "trial_index": 7, "time_elapsed": 535044, "internal_node_id": "0.0-2.0-4.0"}}, {"uniqueid": "w84114670:a23072496", "current_trial": 8, "dateTime": 1691159983868, "trialdata": {"success": true, "trial_type": "fullscreen", "trial_index": 8, "time_elapsed": 544365, "internal_node_id": "0.0-2.1-0.1"}}, {"uniqueid": "w84114670:a23072496", "current_trial": 9, "dateTime": 1691159995376, "trialdata": {"view_history": [{"page_index": 0, "viewing_time": 5821}, {"page_index": 1, "viewing_time": 2233}, {"page_index": 2, "viewing_time": 2000}, {"page_index": 3, "viewing_time": 1451}], "rt": 11506, "trial_id": "mouselab_instructions_1_misaligned", "trial_type": "instructions", "trial_index": 9, "time_elapsed": 555874, "internal_node_id": "0.0-2.1-1.1"}}, {"uniqueid": "w84114670:a23072496", "current_trial": 10, "dateTime": 1691160007934, "trialdata": {"revealed_states": [], "clicked_states": ["26"], "num_clicks_accrued": [0, 0, 0, 0, 0, 0, 0, 0, 0, 0, 0, 0, 0], "stateRewards": ["", -10, 10, -10, -10, -10, 10, 10, -10, 10, -10, -10, 10, -10, 10, -10, 10, -10, 10, -10, 10, -10, 10, 10, 10, 10, -10, -10, 10, -10, -10, 10, 10, 10], "withholdReward": false, "trial_id": "practice_1", "block": "test", "trialIndex": 2, "score": -7, "costs": -0.5, "simulationMode": [null, null, null, null, null], "rewards": [10, -10, 10, -10, -10], "path": ["0", "0", "12", "13", "14", "15", "17"], "rt": [4381, 553, 187, 494, 147], "actions": ["right", "right", "right", "up", "right"], "actionTimes": [6790, 7861, 8557, 9566, 10220], "queries": {"click": {"state": {"target": ["26"], "time": [4334]}, "edge": {"target": [], "time": []}}, "mouseover": {"state": {"target": ["23", "24", "26", "28", "23", "0", "0"], "time": [3255, 3305, 3643, 4907, 4973, 5190, 6026]}, "edge": {"target": [], "time": []}}, "mouseout": {"state": {"target": ["0", "23", "24", "26", "28", "23", "0"], "time": [3226, 3290, 3356, 4890, 4921, 4990, 5574]}, "edge": {"target": [], "time": []}}}, "displayed_time": "10.74", "trialTime": 12431, "trial_type": "mouselab-mdp", "trial_index": 10, "time_elapsed": 568431, "internal_node_id": "0.0-2.1-2.1-0.1"}}, {"uniqueid": "w84114670:a23072496", "current_trial": 11, "dateTime": 1691160018820, "trialdata": {"revealed_states": [], "clicked_states": [], "num_clicks_accrued": [0, 0, 0, 0, 0, 0, 0, 0, 0, 0, 0, 0, 0], "stateRewards": ["", -10, -10, -10, 10, 10, -10, 10, 10, 10, 10, -10, 10, 10, 10, -10, 10, 10, -10, 10, -10, -10, -10, -10, 10, 10, 10, -10, -10, 10, -10, 10, 10, 10], "withholdReward": false, "trial_id": "practice_2", "block": "test", "trialIndex": 3, "score": -26.5, "costs": 0, "simulationMode": [null, null, null, null, null], "rewards": [-10, -10, -10, 10, -10], "path": ["0", "0", "1", "2", "3", "8", "11"], "rt": [2451, 798, 183, 941, 101], "actions": ["up", "up", "up", "left", "left"], "actionTimes": [3944, 5263, 5964, 7421, 8029], "queries": {"click": {"state": {"target": [], "time": []}, "edge": {"target": [], "time": []}}, "mouseover": {"state": {"target": ["1", "2", "2", "1"], "time": [2084, 2181, 2500, 2562]}, "edge": {"target": [], "time": []}}, "mouseout": {"state": {"target": ["0", "1", "2", "2", "1"], "time": [1983, 2149, 2228, 2549, 2614]}, "edge": {"target": [], "time": []}}}, "displayed_time": "8.55", "trialTime": 10759, "trial_type": "mouselab-mdp", "trial_index": 11, "time_elapsed": 579318, "internal_node_id": "0.0-2.1-2.1-1.1"}}, {"uniqueid": "w84114670:a23072496", "current_trial": 12, "dateTime": 1691160024692, "trialdata": {"view_history": [{"page_index": 0, "viewing_time": 3984}, {"page_index": 1, "viewing_time": 1883}], "rt": 5868, "trial_id": "mouselab_instructions_2_misaligned", "trial_type": "instructions", "trial_index": 12, "time_elapsed": 585190, "internal_node_id": "0.0-2.1-3.1"}}, {"uniqueid": "w84114670:a23072496", "current_trial": 13, "dateTime": 1691160052760, "trialdata": {"rt": 28064, "response": {"Q0": "The cost for clicking on nodes may vary between nodes.", "Q1": "The better I perform the higher my bonus will be.", "Q2": "No, the amount of cash at each node of the web may be different each time.", "Q3": "To get the highest total score.", "Q4": "Only before moving the spider.", "Q5": "3 seconds"}, "question_order": [0, 1, 2, 3, 4, 5], "correct": {"Q0": "The cost for clicking on nodes may vary between nodes.", "Q1": "The better I perform the higher my bonus will be.", "Q2": "No, the amount of cash at each node of the web may be different each time.", "Q3": "To get the highest total score.", "Q4": "Only before moving the spider.", "Q5": "3 seconds"}, "trial_id": "mouselab_quiz_misaligned", "trial_type": "survey-multi-choice", "trial_index": 13, "time_elapsed": 613258, "internal_node_id": "0.0-2.1-4.1"}}, {"uniqueid": "w84114670:a23072496", "current_trial": 14, "dateTime": 1691160064399, "trialdata": {"rt": 11629, "stimulus": "\n<h1> Get ready to start the game! </h1>\n\nThank you for reading the instructions. Get ready start with the 40 rounds of this game.\n<br><br>\nIf you need to take a break, feel free to take one after the end of a round, before continuing to the next one.\n<br><br>\nRemember, the more money the spider gets, the bigger your bonus will be!\n<br><br>\n<div style='text-align: center;'>Press <code>space</code> to begin.</div>\n\n<br><br>\n(If, at any point, the <code>space</code> key does not take you to the next page, click once on the text and try again.)", "response": " ", "trial_id": "mdp_ready", "trial_type": "html-keyboard-response", "trial_index": 14, "time_elapsed": 624897, "internal_node_id": "0.0-4.0-0.0"}}, {"uniqueid": "w84114670:a23072496", "current_trial": 15, "dateTime": 1691160084098, "trialdata": {"revealed_states": [], "clicked_states": ["14"], "num_clicks_accrued": [0, 0, 0, 0, 0, 0, 0, 0, 0, 0, 0, 0, 0], "stateRewards": ["", 2, 3, -6, -5, -3, 55, 40, 11, 61, 11, 51, 2, -4, -6, 9, -25, 29, -15, -6, 7, -77, -2, -2, -4, 1, 14, -43, -1, 56, -12, -54, 41, -74], "withholdReward": false, "trial_id": "mdp_trial_1", "block": "test", "trialIndex": 4, "score": 64.05, "costs": -0.95, "simulationMode": [null, null, null, null, null], "rewards": [-2, -4, 1, 14, 56], "path": ["0", "0", "23", "24", "25", "26", "29"], "rt": [4754, 1, 318, 1068, 241], "actions": ["left", "left", "left", "up", "left"], "actionTimes": [7684, 8197, 9045, 10629, 11386], "queries": {"click": {"state": {"target": ["14"], "time": [5888]}, "edge": {"target": [], "time": []}}, "mouseover": {"state": {"target": ["1", "28", "25", "24", "23", "12", "13", "14", "13", "12", "23"], "time": [3613, 4048, 4464, 4984, 5008, 5076, 5162, 5552, 6528, 6595, 7146]}, "edge": {"target": [], "time": []}}, "mouseout": {"state": {"target": ["0", "1", "28", "25", "24", "23", "12", "13", "14", "13", "12"], "time": [995, 3660, 4060, 4981, 4993, 5025, 5111, 5327, 5894, 6579, 6679]}, "edge": {"target": [], "time": []}}}, "displayed_time": "16.94", "trialTime": 19566, "trial_type": "mouselab-mdp", "trial_index": 15, "time_elapsed": 644594, "internal_node_id": "0.0-4.0-1.0-0.0"}}, {"uniqueid": "w84114670:a23072496", "current_trial": 16, "dateTime": 1691160101348, "trialdata": {"revealed_states": [], "clicked_states": [], "num_clicks_accrued": [0, 0, 0, 0, 0, 0, 0, 0, 0, 0, 0, 0, 0], "stateRewards": ["", -2, 2, -5, -6, 10, -66, -58, -10, -11, -63, -70, -1, -4, -5, 7, 66, -64, -43, -3, 45, -37, 4, -2, -2, -6, -4, -30, 33, 43, 15, -32, -65, -59], "withholdReward": false, "trial_id": "mdp_trial_2", "block": "test", "trialIndex": 5, "score": -85, "costs": 0, "simulationMode": [null, null, null, null, null], "rewards": [-2, 2, -5, -10, -70], "path": ["0", "0", "1", "2", "3", "8", "11"], "rt": [9711, 942, 250, 367, 151], "actions": ["up", "up", "up", "left", "left"], "actionTimes": [10739, 12197, 12958, 13842, 14509], "queries": {"click": {"state": {"target": [], "time": []}, "edge": {"target": [], "time": []}}, "mouseover": {"state": {"target": ["12", "13", "14", "13", "12", "12", "13", "14", "19", "21", "19", "14", "13", "12", "0"], "time": [2155, 2207, 2708, 3505, 3541, 3893, 4190, 4475, 5006, 5291, 5822, 6092, 9740, 9806, 9992]}, "edge": {"target": [], "time": []}}, "mouseout": {"state": {"target": ["23", "0", "12", "13", "14", "13", "12", "12", "13", "14", "19", "21", "19", "14", "13", "12"], "time": [659, 2128, 2174, 2272, 3475, 3540, 3575, 4160, 4258, 4974, 5229, 5792, 5975, 9726, 9776, 9888]}, "edge": {"target": [], "time": []}}}, "displayed_time": "15.03", "trialTime": 17113, "trial_type": "mouselab-mdp", "trial_index": 16, "time_elapsed": 661845, "internal_node_id": "0.0-4.0-1.0-1.0"}}, {"uniqueid": "w84114670:a23072496", "current_trial": 17, "dateTime": 1691160120842, "trialdata": {"revealed_states": [], "clicked_states": [], "num_clicks_accrued": [0, 0, 0, 0, 0, 0, 0, 0, 0, 0, 0, 0, 0], "stateRewards": ["", 1, 3, -2, 15, 51, 15, -19, 11, 67, -45, -73, 2, 4, -2, -13, 36, 9, -28, 10, -30, 31, 16, 1, 2, -1, -16, 14, -22, 36, -1, 88, -5, 45], "withholdReward": false, "trial_id": "mdp_trial_3", "block": "test", "trialIndex": 6, "score": 22, "costs": 0, "simulationMode": [null, null, null, null, null], "rewards": [1, 2, -1, -16, 36], "path": ["0", "0", "23", "24", "25", "26", "29"], "rt": [1941, 3, 102, 851, 213], "actions": ["left", "left", "left", "up", "left"], "actionTimes": [4714, 5237, 5872, 7238, 7966], "queries": {"click": {"state": {"target": [], "time": []}, "edge": {"target": [], "time": []}}, "mouseover": {"state": {"target": [], "time": []}, "edge": {"target": [], "time": []}}, "mouseout": {"state": {"target": [], "time": []}, "edge": {"target": [], "time": []}}}, "displayed_time": "16.78", "trialTime": 19370, "trial_type": "mouselab-mdp", "trial_index": 17, "time_elapsed": 681340, "internal_node_id": "0.0-4.0-1.0-2.0"}}, {"uniqueid": "w84114670:a23072496", "current_trial": 18, "dateTime": 1691160139075, "trialdata": {"revealed_states": [], "clicked_states": [], "num_clicks_accrued": [0, 0, 0, 0, 0, 0, 0, 0, 0, 0, 0, 0, 0], "stateRewards": ["", -1, 2, -6, 6, 43, 78, 78, -2, 55, -29, -17, -2, -4, 1, -15, 13, 7, -79, 8, -28, -68, 36, -1, -3, 3, -16, 84, -18, 87, 10, 32, 13, -81], "withholdReward": false, "trial_id": "mdp_trial_4", "block": "test", "trialIndex": 7, "score": -65, "costs": 0, "simulationMode": [null, null, null, null, null], "rewards": [-2, -4, 1, 8, -68], "path": ["0", "0", "12", "13", "14", "19", "21"], "rt": [2325, 339, 241, 690, 138], "actions": ["right", "right", "right", "down", "down"], "actionTimes": [3606, 4456, 5208, 6405, 7055], "queries": {"click": {"state": {"target": [], "time": []}, "edge": {"target": [], "time": []}}, "mouseover": {"state": {"target": [], "time": []}, "edge": {"target": [], "time": []}}, "mouseout": {"state": {"target": ["0", "13", "12"], "time": [385, 650, 715]}, "edge": {"target": [], "time": []}}}, "displayed_time": "15.28", "trialTime": 18099, "trial_type": "mouselab-mdp", "trial_index": 18, "time_elapsed": 699573, "internal_node_id": "0.0-4.0-1.0-3.0"}}, {"uniqueid": "w84114670:a23072496", "current_trial": 19, "dateTime": 1691160155750, "trialdata": {"revealed_states": [], "clicked_states": ["30"], "num_clicks_accrued": [0, 0, 0, 0, 0, 0, 0, 0, 0, 0, 0, 0, 0], "stateRewards": ["", 1, -1, 1, 13, 31, -56, 72, 2, 41, 5, 63, -2, -3, -2, 3, -71, -26, 52, 13, -31, 24, -67, 2, -2, 5, 4, 66, 43, 72, 9, 86, -26, 44], "withholdReward": false, "trial_id": "mdp_trial_5", "block": "test", "trialIndex": 8, "score": -43.55, "costs": -1.55, "simulationMode": [null, null, null, null, null], "rewards": [1, -1, 1, 13, -56], "path": ["0", "0", "1", "2", "3", "4", "6"], "rt": [6153, 201, 152, 204, 91], "actions": ["up", "up", "up", "right", "right"], "actionTimes": [7250, 7967, 8634, 9352, 9955], "queries": {"click": {"state": {"target": ["30"], "time": [2924]}, "edge": {"target": [], "time": []}}, "mouseover": {"state": {"target": ["18", "1", "30", "31", "23"], "time": [1649, 2098, 2549, 3729, 3832]}, "edge": {"target": [], "time": []}}, "mouseout": {"state": {"target": ["0", "18", "1", "30", "31", "23"], "time": [1568, 1868, 2147, 3682, 3746, 4045]}, "edge": {"target": [], "time": []}}}, "displayed_time": "15.11", "trialTime": 16539, "trial_type": "mouselab-mdp", "trial_index": 19, "time_elapsed": 716247, "internal_node_id": "0.0-4.0-1.0-4.0"}}, {"uniqueid": "w84114670:a23072496", "current_trial": 20, "dateTime": 1691160185070, "trialdata": {"revealed_states": [], "clicked_states": [], "num_clicks_accrued": [0, 0, 0, 0, 0, 0, 0, 0, 0, 0, 0, 0, 0], "stateRewards": ["", 1, -1, 1, -14, -10, 67, -28, -11, 72, 40, -65, -1, 1, 1, -2, 8, -55, 34, -10, 61, 33, -15, 2, -4, 7, 4, -75, 63, -21, -16, 61, 19, 21], "withholdReward": false, "trial_id": "mdp_trial_6", "block": "test", "trialIndex": 9, "score": -12, "costs": 0, "simulationMode": [null, null, null, null, null], "rewards": [2, -4, 7, 4, -21], "path": ["0", "0", "23", "24", "25", "26", "29"], "rt": [5498, 444, 147, 450, 81], "actions": ["left", "left", "left", "up", "left"], "actionTimes": [9106, 10051, 10705, 11673, 12269], "queries": {"click": {"state": {"target": [], "time": []}, "edge": {"target": [], "time": []}}, "mouseover": {"state": {"target": ["23", "12", "22", "22", "13", "2", "24", "30", "25", "26"], "time": [4241, 4742, 5171, 5409, 5455, 5624, 5790, 6172, 6654, 6723]}, "edge": {"target": [], "time": []}}, "mouseout": {"state": {"target": ["0", "23", "12", "22", "22", "13", "2", "24", "30", "25"], "time": [4159, 4627, 5143, 5241, 5421, 5471, 5674, 5839, 6640, 6690]}, "edge": {"target": [], "time": []}}}, "displayed_time": "17.61", "trialTime": 29185, "trial_type": "mouselab-mdp", "trial_index": 20, "time_elapsed": 745567, "internal_node_id": "0.0-4.0-1.0-5.0"}}, {"uniqueid": "w84114670:a23072496", "current_trial": 21, "dateTime": 1691160206877, "trialdata": {"revealed_states": [], "clicked_states": [], "num_clicks_accrued": [0, 0, 0, 0, 0, 0, 0, 0, 0, 0, 0, 0, 0], "stateRewards": ["", 1, -2, -2, 10, -31, -77, 35, 9, -47, 8, 48, -2, 1, -4, -3, -26, -50, 43, -11, 76, -38, 17, 1, -1, 6, 10, 15, -9, 12, -8, 85, 11, -55], "withholdReward": false, "trial_id": "mdp_trial_7", "block": "test", "trialIndex": 10, "score": -70, "costs": 0, "simulationMode": [null, null, null, null, null], "rewards": [1, -2, -2, 10, -77], "path": ["0", "0", "1", "2", "3", "4", "6"], "rt": [4582, 929, 464, 537, 338], "actions": ["up", "up", "up", "right", "right"], "actionTimes": [6072, 7516, 8500, 9557, 10392], "queries": {"click": {"state": {"target": [], "time": []}, "edge": {"target": [], "time": []}}, "mouseover": {"state": {"target": ["1", "2"], "time": [4071, 4339]}, "edge": {"target": [], "time": []}}, "mouseout": {"state": {"target": ["26", "28", "0", "1", "2", "1", "0"], "time": [803, 836, 3870, 4170, 19087, 19204, 19286]}, "edge": {"target": [], "time": []}}}, "displayed_time": "15.49", "trialTime": 21672, "trial_type": "mouselab-mdp", "trial_index": 21, "time_elapsed": 767374, "internal_node_id": "0.0-4.0-1.0-6.0"}}, {"uniqueid": "w84114670:a23072496", "current_trial": 22, "dateTime": 1691160228054, "trialdata": {"revealed_states": [], "clicked_states": ["26"], "num_clicks_accrued": [0, 0, 0, 0, 0, 0, 0, 0, 0, 0, 0, 0, 0], "stateRewards": ["", 2, 3, -1, 6, 44, -4, -59, -14, -3, 64, 16, 1, -3, 3, 6, 3, 49, 19, 3, -49, -14, -86, 1, 2, -3, -8, -33, 14, 32, -13, -77, -47, -67], "withholdReward": false, "trial_id": "mdp_trial_8", "block": "test", "trialIndex": 11, "score": 22.45, "costs": -1.55, "simulationMode": [null, null, null, null, null], "rewards": [1, 2, -3, -8, 32], "path": ["0", "0", "23", "24", "25", "26", "29"], "rt": [2664, 99, 112, 716, 12], "actions": ["left", "left", "left", "up", "left"], "actionTimes": [6086, 6704, 7334, 8571, 9085], "queries": {"click": {"state": {"target": ["26"], "time": [4632]}, "edge": {"target": [], "time": []}}, "mouseover": {"state": {"target": ["26"], "time": [4410]}, "edge": {"target": [], "time": []}}, "mouseout": {"state": {"target": ["0", "26", "28", "18", "15", "15"], "time": [1238, 16888, 16919, 16989, 18238, 18966]}, "edge": {"target": [], "time": []}}}, "displayed_time": "17.43", "trialTime": 21035, "trial_type": "mouselab-mdp", "trial_index": 22, "time_elapsed": 788552, "internal_node_id": "0.0-4.0-1.0-7.0"}}, {"uniqueid": "w84114670:a23072496", "current_trial": 23, "dateTime": 1691160246144, "trialdata": {"revealed_states": [], "clicked_states": ["15"], "num_clicks_accrued": [0, 0, 0, 0, 0, 0, 0, 0, 0, 0, 0, 0, 0], "stateRewards": ["", 2, -4, 1, -12, -59, -53, -74, 16, -88, -66, 66, 1, -2, 8, -9, -14, 22, 25, -1, -39, 47, -14, -1, -1, -2, 1, -4, 52, -26, 15, -7, 46, 43], "withholdReward": false, "trial_id": "mdp_trial_9", "block": "test", "trialIndex": 12, "score": 18.45, "costs": -1.55, "simulationMode": [null, null, null, null, null], "rewards": [1, -2, 8, -9, 22], "path": ["0", "0", "12", "13", "14", "15", "17"], "rt": [2198, 35, 5, 442, 110], "actions": ["right", "right", "right", "up", "right"], "actionTimes": [3498, 4045, 4566, 5539, 6156], "queries": {"click": {"state": {"target": ["15"], "time": [2088]}, "edge": {"target": [], "time": []}}, "mouseover": {"state": {"target": ["18", "15", "18"], "time": [1628, 1912, 2761]}, "edge": {"target": [], "time": []}}, "mouseout": {"state": {"target": ["18", "18", "15", "18", "30"], "time": [647, 1728, 2728, 3225, 17548]}, "edge": {"target": [], "time": []}}}, "displayed_time": "15.31", "trialTime": 17964, "trial_type": "mouselab-mdp", "trial_index": 23, "time_elapsed": 806642, "internal_node_id": "0.0-4.0-1.0-8.0"}}, {"uniqueid": "w84114670:a23072496", "current_trial": 24, "dateTime": 1691160264000, "trialdata": {"revealed_states": [], "clicked_states": ["30"], "num_clicks_accrued": [0, 0, 0, 0, 0, 0, 0, 0, 0, 0, 0, 0, 0], "stateRewards": ["", -2, 4, -5, -12, 85, -24, -18, -15, -78, -22, 26, -1, -1, 2, 14, -45, 52, -23, 7, -33, 24, -6, -2, -4, 5, -7, -16, 36, -39, 5, 71, -87, -23], "withholdReward": false, "trial_id": "mdp_trial_10", "block": "test", "trialIndex": 13, "score": -84.55, "costs": -1.55, "simulationMode": [null, null, null, null, null], "rewards": [-2, -4, 5, 5, -87], "path": ["0", "0", "23", "24", "25", "30", "32"], "rt": [2016, 44, 107, 427, 184], "actions": ["left", "left", "left", "down", "down"], "actionTimes": [3264, 3815, 4429, 5365, 6055], "queries": {"click": {"state": {"target": ["30"], "time": [2110]}, "edge": {"target": [], "time": []}}, "mouseover": {"state": {"target": ["23", "24", "30"], "time": [1506, 1554, 1888]}, "edge": {"target": [], "time": []}}, "mouseout": {"state": {"target": ["31", "30", "30", "31", "23", "0", "23", "24"], "time": [255, 471, 706, 740, 838, 1471, 1535, 1569]}, "edge": {"target": [], "time": []}}}, "displayed_time": "15.26", "trialTime": 17714, "trial_type": "mouselab-mdp", "trial_index": 24, "time_elapsed": 824498, "internal_node_id": "0.0-4.0-1.0-9.0"}}, {"uniqueid": "w84114670:a23072496", "current_trial": 25, "dateTime": 1691160283116, "trialdata": {"revealed_states": [], "clicked_states": ["30"], "num_clicks_accrued": [0, 0, 0, 0, 0, 0, 0, 0, 0, 0, 0, 0, 0], "stateRewards": ["", 1, 2, -6, -13, -51, 22, -4, -12, -44, -12, 6, -2, -2, -2, -14, -46, -4, -77, -2, 36, -79, 41, 2, -4, 2, -6, -55, 59, 70, -5, 39, -19, 24], "withholdReward": false, "trial_id": "mdp_trial_11", "block": "test", "trialIndex": 14, "score": 17.45, "costs": -1.55, "simulationMode": [null, null, null, null, null], "rewards": [2, -4, 2, -5, 24], "path": ["0", "0", "23", "24", "25", "30", "33"], "rt": [2190, 63, 85, 423, 380], "actions": ["left", "left", "left", "down", "left"], "actionTimes": [3657, 4238, 4842, 5780, 6671], "queries": {"click": {"state": {"target": ["30"], "time": [2297]}, "edge": {"target": [], "time": []}}, "mouseover": {"state": {"target": ["23", "30"], "time": [1872, 1973]}, "edge": {"target": [], "time": []}}, "mouseout": {"state": {"target": ["30", "31", "0", "23", "30"], "time": [625, 688, 1857, 1889, 16508]}, "edge": {"target": [], "time": []}}}, "displayed_time": "15.47", "trialTime": 18965, "trial_type": "mouselab-mdp", "trial_index": 25, "time_elapsed": 843614, "internal_node_id": "0.0-4.0-1.0-10.0"}}, {"uniqueid": "w84114670:a23072496", "current_trial": 26, "dateTime": 1691160304011, "trialdata": {"revealed_states": [], "clicked_states": ["11"], "num_clicks_accrued": [0, 0, 0, 0, 0, 0, 0, 0, 0, 0, 0, 0, 0], "stateRewards": ["", 2, 4, 4, -8, -36, -33, 38, 16, -51, 57, 57, 1, 3, 4, -6, 45, 68, 87, 1, 63, 24, -55, -2, 2, -6, -13, -63, -50, 8, 2, 80, 6, 60], "withholdReward": false, "trial_id": "mdp_trial_12", "block": "test", "trialIndex": 15, "score": -33.15, "costs": -2.15, "simulationMode": [null, null, null, null, null, null], "rewards": [2, 4, 4, -8, -33], "path": ["0", "0", "1", "2", "3", "4", "6"], "rt": [2104, 3655, 491, 261, 735, 135], "actions": ["up", "up", "up", "up", "right", "right"], "actionTimes": [4718, 8375, 9379, 10150, 11407, 12055], "queries": {"click": {"state": {"target": ["11"], "time": [3781]}, "edge": {"target": [], "time": []}}, "mouseover": {"state": {"target": ["28", "11"], "time": [3006, 3572]}, "edge": {"target": [], "time": []}}, "mouseout": {"state": {"target": ["31", "0", "28", "11", "11", "8", "0", "0"], "time": [1989, 2905, 3155, 18273, 18742, 19091, 19623, 20226]}, "edge": {"target": [], "time": []}}}, "displayed_time": "16.62", "trialTime": 20758, "trial_type": "mouselab-mdp", "trial_index": 26, "time_elapsed": 864509, "internal_node_id": "0.0-4.0-1.0-11.0"}}, {"uniqueid": "w84114670:a23072496", "current_trial": 27, "dateTime": 1691160322217, "trialdata": {"revealed_states": [], "clicked_states": ["4"], "num_clicks_accrued": [0, 0, 0, 0, 0, 0, 0, 0, 0, 0, 0, 0, 0], "stateRewards": ["", 1, 2, 3, 16, 63, -25, 16, -4, -14, 82, -66, -1, -3, -3, -11, -14, 19, 46, 3, -34, -82, 66, -2, -3, 4, -5, -63, 77, -37, -1, -45, -41, 84], "withholdReward": false, "trial_id": "mdp_trial_13", "block": "test", "trialIndex": 16, "score": 83.45, "costs": -1.55, "simulationMode": [null, null, null, null, null], "rewards": [1, 2, 3, 16, 63], "path": ["0", "0", "1", "2", "3", "4", "5"], "rt": [2534, 423, 176, 187, 574], "actions": ["up", "up", "up", "right", "up"], "actionTimes": [3644, 4589, 5278, 5969, 7055], "queries": {"click": {"state": {"target": ["4"], "time": [2627]}, "edge": {"target": [], "time": []}}, "mouseover": {"state": {"target": ["1", "2", "3", "4"], "time": [1534, 1564, 1634, 2401]}, "edge": {"target": [], "time": []}}, "mouseout": {"state": {"target": ["0", "1", "2", "3", "4", "2", "23"], "time": [767, 1548, 1580, 2369, 16886, 17468, 17548]}, "edge": {"target": [], "time": []}}}, "displayed_time": "15.11", "trialTime": 18059, "trial_type": "mouselab-mdp", "trial_index": 27, "time_elapsed": 882714, "internal_node_id": "0.0-4.0-1.0-12.0"}}, {"uniqueid": "w84114670:a23072496", "current_trial": 28, "dateTime": 1691160339669, "trialdata": {"revealed_states": [], "clicked_states": ["15"], "num_clicks_accrued": [0, 0, 0, 0, 0, 0, 0, 0, 0, 0, 0, 0, 0], "stateRewards": ["", 1, 1, 1, -3, -7, -1, -41, -10, 20, -72, -63, 1, -4, -2, 2, -66, 30, -84, -2, 49, 23, 71, -1, -4, 4, -12, 67, 5, 18, -16, 88, 56, -5], "withholdReward": false, "trial_id": "mdp_trial_14", "block": "test", "trialIndex": 17, "score": -88.55, "costs": -1.55, "simulationMode": [null, null, null, null, null], "rewards": [1, -4, -2, 2, -84], "path": ["0", "0", "12", "13", "14", "15", "18"], "rt": [2189, 163, 140, 1534, 203], "actions": ["right", "right", "right", "up", "left"], "actionTimes": [3082, 3777, 4439, 6482, 7203], "queries": {"click": {"state": {"target": ["15"], "time": [2259]}, "edge": {"target": [], "time": []}}, "mouseover": {"state": {"target": ["1", "18", "15"], "time": [1317, 1815, 2083]}, "edge": {"target": [], "time": []}}, "mouseout": {"state": {"target": ["0", "1", "18", "15", "22"], "time": [1233, 1717, 1985, 16052, 16385]}, "edge": {"target": [], "time": []}}}, "displayed_time": "14.90", "trialTime": 17309, "trial_type": "mouselab-mdp", "trial_index": 28, "time_elapsed": 900166, "internal_node_id": "0.0-4.0-1.0-13.0"}}, {"uniqueid": "w84114670:a23072496", "current_trial": 29, "dateTime": 1691160356884, "trialdata": {"revealed_states": [], "clicked_states": ["19"], "num_clicks_accrued": [0, 0, 0, 0, 0, 0, 0, 0, 0, 0, 0, 0, 0], "stateRewards": ["", 1, 4, -8, -5, -15, -7, 21, 13, -30, 40, -65, 1, 1, 5, -14, 35, 27, -38, -11, 36, -58, -47, -2, 4, -3, 13, -16, -49, 22, 15, -56, -44, -10], "withholdReward": false, "trial_id": "mdp_trial_15", "block": "test", "trialIndex": 18, "score": 30.45, "costs": -1.55, "simulationMode": [null, null, null, null, null], "rewards": [1, 1, 5, -11, 36], "path": ["0", "0", "12", "13", "14", "19", "20"], "rt": [2491, 94, 19, 360, 275], "actions": ["right", "right", "right", "down", "right"], "actionTimes": [3402, 4009, 4537, 5426, 6210], "queries": {"click": {"state": {"target": ["19"], "time": [1639]}, "edge": {"target": [], "time": []}}, "mouseover": {"state": {"target": ["19", "19", "13", "12"], "time": [1336, 1620, 2284, 2334]}, "edge": {"target": [], "time": []}}, "mouseout": {"state": {"target": ["0", "19", "19", "13", "12", "0", "12", "0"], "time": [551, 1384, 2217, 2299, 2700, 15884, 16302, 16667]}, "edge": {"target": [], "time": []}}}, "displayed_time": "14.92", "trialTime": 17059, "trial_type": "mouselab-mdp", "trial_index": 29, "time_elapsed": 917381, "internal_node_id": "0.0-4.0-1.0-14.0"}}, {"uniqueid": "w84114670:a23072496", "current_trial": 30, "dateTime": 1691160376921, "trialdata": {"revealed_states": [], "clicked_states": ["26"], "num_clicks_accrued": [0, 0, 0, 0, 0, 0, 0, 0, 0, 0, 0, 0, 0], "stateRewards": ["", 1, 1, -2, 7, -31, -6, 76, 1, -36, -16, -53, 2, 1, 7, 13, -47, -10, 47, -7, 72, 46, -56, -2, -2, -2, 11, -80, 44, 38, 16, 67, 85, -78], "withholdReward": false, "trial_id": "mdp_trial_16", "block": "test", "trialIndex": 19, "score": 47.45, "costs": -1.55, "simulationMode": [null, null, null, null, null], "rewards": [-2, -2, -2, 11, 44], "path": ["0", "0", "23", "24", "25", "26", "28"], "rt": [2321, 329, 91, 354, 87], "actions": ["left", "left", "left", "up", "right"], "actionTimes": [3396, 4244, 4855, 5717, 6318], "queries": {"click": {"state": {"target": ["26"], "time": [2557]}, "edge": {"target": [], "time": []}}, "mouseover": {"state": {"target": ["23", "31", "30", "25", "26"], "time": [1466, 1529, 1580, 2145, 2197]}, "edge": {"target": [], "time": []}}, "mouseout": {"state": {"target": ["0", "23", "31", "30", "25", "26", "2", "16", "16", "4", "3", "8", "10"], "time": [480, 1496, 1544, 2115, 2182, 17502, 17548, 17597, 17849, 17982, 18250, 19482, 19516]}, "edge": {"target": [], "time": []}}}, "displayed_time": "15.09", "trialTime": 19911, "trial_type": "mouselab-mdp", "trial_index": 30, "time_elapsed": 937419, "internal_node_id": "0.0-4.0-1.0-15.0"}}, {"uniqueid": "w84114670:a23072496", "current_trial": 31, "dateTime": 1691160395860, "trialdata": {"revealed_states": [], "clicked_states": ["8"], "num_clicks_accrued": [0, 0, 0, 0, 0, 0, 0, 0, 0, 0, 0, 0, 0], "stateRewards": ["", 1, 2, -3, -5, 66, -50, -47, -5, 1, 28, -27, 1, 1, -1, -6, 37, -25, 56, 1, -82, -66, -40, -1, -4, -7, 15, -61, -23, 26, 10, 14, -56, 29], "withholdReward": false, "trial_id": "mdp_trial_17", "block": "test", "trialIndex": 20, "score": -53.55, "costs": -1.55, "simulationMode": [null, null, null, null, null], "rewards": [1, 2, -3, -5, -47], "path": ["0", "0", "1", "2", "3", "4", "7"], "rt": [2070, 18, 65, 158, 424], "actions": ["up", "up", "up", "right", "down"], "actionTimes": [4006, 4532, 5128, 5803, 6737], "queries": {"click": {"state": {"target": ["8"], "time": [2738]}, "edge": {"target": [], "time": []}}, "mouseover": {"state": {"target": ["10", "8", "8"], "time": [2245, 2277, 2548]}, "edge": {"target": [], "time": []}}, "mouseout": {"state": {"target": ["28", "0", "10", "8", "8", "3", "2"], "time": [1198, 2147, 2262, 2346, 17015, 18132, 18281]}, "edge": {"target": [], "time": []}}}, "displayed_time": "15.95", "trialTime": 18781, "trial_type": "mouselab-mdp", "trial_index": 31, "time_elapsed": 956357, "internal_node_id": "0.0-4.0-1.0-16.0"}}, {"uniqueid": "w84114670:a23072496", "current_trial": 32, "dateTime": 1691160413848, "trialdata": {"revealed_states": [], "clicked_states": ["16"], "num_clicks_accrued": [0, 0, 0, 0, 0, 0, 0, 0, 0, 0, 0, 0, 0], "stateRewards": ["", 2, -1, -1, -9, -81, -30, 55, -6, 78, 25, 62, 2, 4, -1, 9, -85, 1, -19, 1, -60, 12, -34, 1, 4, -1, -13, -24, -16, -83, -8, 16, 43, 9], "withholdReward": false, "trial_id": "mdp_trial_18", "block": "test", "trialIndex": 21, "score": 15.85, "costs": -2.15, "simulationMode": [null, null, null, null, null, null], "rewards": [2, 4, -1, 1, 12], "path": ["0", "0", "12", "13", "14", "19", "21"], "rt": [2327, 682, 61, 387, 498, 152], "actions": ["right", "right", "right", "right", "down", "down"], "actionTimes": [3582, 4266, 4858, 5766, 6780, 7450], "queries": {"click": {"state": {"target": ["16"], "time": [2290]}, "edge": {"target": [], "time": []}}, "mouseover": {"state": {"target": ["16"], "time": [2082]}, "edge": {"target": [], "time": []}}, "mouseout": {"state": {"target": ["0", "16", "18", "12", "0"], "time": [1632, 16117, 16549, 16934, 17368]}, "edge": {"target": [], "time": []}}}, "displayed_time": "15.26", "trialTime": 17837, "trial_type": "mouselab-mdp", "trial_index": 32, "time_elapsed": 974345, "internal_node_id": "0.0-4.0-1.0-17.0"}}, {"uniqueid": "w84114670:a23072496", "current_trial": 33, "dateTime": 1691160431651, "trialdata": {"revealed_states": [], "clicked_states": ["25"], "num_clicks_accrued": [0, 0, 0, 0, 0, 0, 0, 0, 0, 0, 0, 0, 0], "stateRewards": ["", 2, 3, 6, -5, -74, -53, 17, -12, 46, 44, 18, -2, 4, 1, -8, 22, -23, -49, 9, -45, 55, 81, 1, -1, -7, -16, -83, -71, -45, 2, 51, 82, 61], "withholdReward": false, "trial_id": "mdp_trial_19", "block": "test", "trialIndex": 22, "score": 55.05, "costs": -0.95, "simulationMode": [null, null, null, null, null], "rewards": [1, -1, -7, 2, 61], "path": ["0", "0", "23", "24", "25", "30", "33"], "rt": [2224, 13, 23, 529, 2910], "actions": ["left", "left", "left", "down", "left"], "actionTimes": [3381, 3909, 4452, 5493, 8923], "queries": {"click": {"state": {"target": ["25"], "time": [2120]}, "edge": {"target": [], "time": []}}, "mouseover": {"state": {"target": ["23", "24", "25"], "time": [1465, 1530, 1964]}, "edge": {"target": [], "time": []}}, "mouseout": {"state": {"target": ["0", "23", "24", "25", "24"], "time": [1431, 1497, 1597, 16448, 16515]}, "edge": {"target": [], "time": []}}}, "displayed_time": "15.16", "trialTime": 17656, "trial_type": "mouselab-mdp", "trial_index": 33, "time_elapsed": 992148, "internal_node_id": "0.0-4.0-1.0-18.0"}}, {"uniqueid": "w84114670:a23072496", "current_trial": 34, "dateTime": 1691160449606, "trialdata": {"revealed_states": [], "clicked_states": ["27"], "num_clicks_accrued": [0, 0, 0, 0, 0, 0, 0, 0, 0, 0, 0, 0, 0], "stateRewards": ["", 1, 2, 7, 13, 88, -71, 27, 3, 60, 5, -53, -2, 2, -6, -1, -30, 79, 47, -4, -14, 46, 68, 1, 1, 8, 10, -14, 86, 48, -11, -67, -44, 5], "withholdReward": false, "trial_id": "mdp_trial_20", "block": "test", "trialIndex": 23, "score": 3.8500000000000014, "costs": -2.15, "simulationMode": [null, null, null, null, null, null], "rewards": [1, 1, 8, 10, -14], "path": ["0", "0", "23", "24", "25", "26", "27"], "rt": [2279, 1013, 205, 162, 236, 582], "actions": ["left", "left", "left", "left", "up", "up"], "actionTimes": [3612, 4626, 5366, 6039, 6795, 7893], "queries": {"click": {"state": {"target": ["27"], "time": [2235]}, "edge": {"target": [], "time": []}}, "mouseover": {"state": {"target": ["28", "27"], "time": [1694, 2080]}, "edge": {"target": [], "time": []}}, "mouseout": {"state": {"target": ["28", "27"], "time": [1759, 4494]}, "edge": {"target": [], "time": []}}}, "displayed_time": "15.34", "trialTime": 17791, "trial_type": "mouselab-mdp", "trial_index": 34, "time_elapsed": 1010103, "internal_node_id": "0.0-4.0-1.0-19.0"}}, {"uniqueid": "w84114670:a23072496", "current_trial": 35, "dateTime": 1691160467691, "trialdata": {"revealed_states": [], "clicked_states": ["8"], "num_clicks_accrued": [0, 0, 0, 0, 0, 0, 0, 0, 0, 0, 0, 0, 0], "stateRewards": ["", 2, -1, 4, -9, -43, 7, 54, -13, 38, -40, -83, -1, 2, -8, -10, 34, -33, 11, -14, -79, 65, 26, 1, 2, 4, 10, 21, 1, 86, 4, -53, 28, -29], "withholdReward": false, "trial_id": "mdp_trial_21", "block": "test", "trialIndex": 24, "score": -49.55, "costs": -1.55, "simulationMode": [null, null, null, null, null], "rewards": [2, -1, 4, -13, -40], "path": ["0", "0", "1", "2", "3", "8", "10"], "rt": [2077, 506, 122, 915, 259], "actions": ["up", "up", "up", "left", "down"], "actionTimes": [4463, 5483, 6117, 7543, 8318], "queries": {"click": {"state": {"target": ["8"], "time": [3370]}, "edge": {"target": [], "time": []}}, "mouseover": {"state": {"target": ["1", "8"], "time": [2781, 3197]}, "edge": {"target": [], "time": []}}, "mouseout": {"state": {"target": ["28", "1", "8", "1", "0"], "time": [1096, 2812, 16829, 17197, 17578]}, "edge": {"target": [], "time": []}}}, "displayed_time": "16.39", "trialTime": 17929, "trial_type": "mouselab-mdp", "trial_index": 35, "time_elapsed": 1028189, "internal_node_id": "0.0-4.0-1.0-20.0"}}, {"uniqueid": "w84114670:a23072496", "current_trial": 36, "dateTime": 1691160488615, "trialdata": {"revealed_states": [], "clicked_states": ["14"], "num_clicks_accrued": [0, 0, 0, 0, 0, 0, 0, 0, 0, 0, 0, 0, 0], "stateRewards": ["", 1, -3, -2, 14, 49, -40, -39, 2, 26, -61, 73, 1, -4, -8, 12, 79, 29, -65, -13, 55, -26, 27, -1, 3, 3, 9, -17, -60, -18, -8, 35, -88, 69], "withholdReward": false, "trial_id": "mdp_trial_22", "block": "test", "trialIndex": 25, "score": 2.0500000000000007, "costs": -0.95, "simulationMode": [null, null, null, null, null], "rewards": [1, -4, -8, -13, 27], "path": ["0", "0", "12", "13", "14", "19", "22"], "rt": [1761, 59, 78, 263, 601], "actions": ["right", "right", "right", "down", "left"], "actionTimes": [2823, 3415, 4014, 4786, 5906], "queries": {"click": {"state": {"target": ["14"], "time": [2014]}, "edge": {"target": [], "time": []}}, "mouseover": {"state": {"target": ["12", "13", "14"], "time": [1470, 1522, 1874]}, "edge": {"target": [], "time": []}}, "mouseout": {"state": {"target": ["0", "12", "13", "14"], "time": [1456, 1488, 1620, 18724]}, "edge": {"target": [], "time": []}}}, "displayed_time": "15.07", "trialTime": 20762, "trial_type": "mouselab-mdp", "trial_index": 36, "time_elapsed": 1049112, "internal_node_id": "0.0-4.0-1.0-21.0"}}, {"uniqueid": "w84114670:a23072496", "current_trial": 37, "dateTime": 1691160507608, "trialdata": {"revealed_states": [], "clicked_states": ["31"], "num_clicks_accrued": [0, 0, 0, 0, 0, 0, 0, 0, 0, 0, 0, 0, 0], "stateRewards": ["", 2, 4, -5, 7, 81, 35, 6, 11, 14, -72, 42, -1, 2, 3, -7, -77, -44, -40, -15, -85, 51, -32, -2, -1, -5, 7, -74, 47, 52, 16, -49, 48, -46], "withholdReward": false, "trial_id": "mdp_trial_23", "block": "test", "trialIndex": 26, "score": -43.15, "costs": -2.15, "simulationMode": [null, null, null, null, null, null], "rewards": [-2, -1, -5, 16, -49], "path": ["0", "0", "23", "24", "25", "30", "31"], "rt": [2881, 495, 104, 98, 243, 836], "actions": ["left", "left", "left", "left", "down", "right"], "actionTimes": [3914, 4411, 5046, 5675, 6437, 7778], "queries": {"click": {"state": {"target": ["31"], "time": [2769]}, "edge": {"target": [], "time": []}}, "mouseover": {"state": {"target": ["12", "22", "22", "31", "30", "31"], "time": [1558, 1628, 1911, 2077, 2178, 2563]}, "edge": {"target": [], "time": []}}, "mouseout": {"state": {"target": ["0", "12", "22", "22", "31", "30", "31", "30"], "time": [1546, 1591, 1675, 1944, 2092, 2394, 17597, 18164]}, "edge": {"target": [], "time": []}}}, "displayed_time": "15.04", "trialTime": 18827, "trial_type": "mouselab-mdp", "trial_index": 37, "time_elapsed": 1068105, "internal_node_id": "0.0-4.0-1.0-22.0"}}, {"uniqueid": "w84114670:a23072496", "current_trial": 38, "dateTime": 1691160525598, "trialdata": {"revealed_states": [], "clicked_states": ["27"], "num_clicks_accrued": [0, 0, 0, 0, 0, 0, 0, 0, 0, 0, 0, 0, 0], "stateRewards": ["", 2, -1, 5, 8, 75, -35, -77, 1, -9, -81, -58, 1, 2, -7, 5, 77, -16, 19, 16, -10, -18, 40, -2, 3, 7, -5, 64, 1, -62, 10, 27, 10, 65], "withholdReward": false, "trial_id": "mdp_trial_24", "block": "test", "trialIndex": 27, "score": 64.85, "costs": -2.15, "simulationMode": [null, null, null, null, null], "rewards": [-2, 3, 7, -5, 64], "path": ["0", "0", "23", "24", "25", "26", "27"], "rt": [7727, 118, 72, 496, 36], "actions": ["left", "left", "left", "up", "up"], "actionTimes": [8939, 9555, 10141, 11149, 11706], "queries": {"click": {"state": {"target": ["27"], "time": [2213]}, "edge": {"target": [], "time": []}}, "mouseover": {"state": {"target": ["27", "27", "28", "23", "23", "1"], "time": [1634, 1953, 2786, 3234, 4100, 4587]}, "edge": {"target": [], "time": []}}, "mouseout": {"state": {"target": ["0", "27", "27", "28", "23", "23", "1", "12"], "time": [1538, 1684, 2750, 2801, 3735, 4418, 17037, 17137]}, "edge": {"target": [], "time": []}}}, "displayed_time": "15.22", "trialTime": 17827, "trial_type": "mouselab-mdp", "trial_index": 38, "time_elapsed": 1086096, "internal_node_id": "0.0-4.0-1.0-23.0"}}, {"uniqueid": "w84114670:a23072496", "current_trial": 39, "dateTime": 1691160542547, "trialdata": {"revealed_states": [], "clicked_states": ["6"], "num_clicks_accrued": [0, 0, 0, 0, 0, 0, 0, 0, 0, 0, 0, 0, 0], "stateRewards": ["", 1, 1, -5, 8, -6, 45, 16, -6, -7, -22, -38, -1, -4, 8, -11, -16, 21, -45, -15, -59, -32, 42, -1, 3, 6, 11, -7, 34, -27, -8, 85, 43, -9], "withholdReward": false, "trial_id": "mdp_trial_25", "block": "test", "trialIndex": 28, "score": 47.85, "costs": -2.15, "simulationMode": [null, null, null, null, null], "rewards": [1, 1, -5, 8, 45], "path": ["0", "0", "1", "2", "3", "4", "6"], "rt": [4387, 583, 181, 103, 106], "actions": ["up", "up", "up", "right", "right"], "actionTimes": [5333, 6433, 7134, 7755, 8372], "queries": {"click": {"state": {"target": ["6"], "time": [1989]}, "edge": {"target": [], "time": []}}, "mouseover": {"state": {"target": ["1", "4", "6", "7"], "time": [1423, 1604, 1821, 2601]}, "edge": {"target": [], "time": []}}, "mouseout": {"state": {"target": ["0", "1", "4", "6", "7", "0"], "time": [720, 1435, 1720, 2552, 2649, 15856]}, "edge": {"target": [], "time": []}}}, "displayed_time": "14.95", "trialTime": 16791, "trial_type": "mouselab-mdp", "trial_index": 39, "time_elapsed": 1103044, "internal_node_id": "0.0-4.0-1.0-24.0"}}, {"uniqueid": "w84114670:a23072496", "current_trial": 40, "dateTime": 1691160560729, "trialdata": {"revealed_states": [], "clicked_states": ["14"], "num_clicks_accrued": [0, 0, 0, 0, 0, 0, 0, 0, 0, 0, 0, 0, 0], "stateRewards": ["", -1, -3, -3, 1, -38, 2, -53, -2, -1, -81, 70, -1, 1, -5, -9, 46, 15, 35, -1, -22, 38, 59, -2, 4, -8, 13, 1, -83, -43, 4, 76, 13, 48], "withholdReward": false, "trial_id": "mdp_trial_26", "block": "test", "trialIndex": 29, "score": 31.05, "costs": -0.95, "simulationMode": [null, null, null, null, null], "rewards": [-1, 1, -5, -9, 46], "path": ["0", "0", "12", "13", "14", "15", "16"], "rt": [5167, 33, 35, 1023, 152], "actions": ["right", "right", "right", "up", "up"], "actionTimes": [6374, 6914, 7466, 9020, 9683], "queries": {"click": {"state": {"target": ["14"], "time": [2140]}, "edge": {"target": [], "time": []}}, "mouseover": {"state": {"target": ["12", "13", "14"], "time": [1578, 1664, 1932]}, "edge": {"target": [], "time": []}}, "mouseout": {"state": {"target": ["0", "12", "13", "14"], "time": [1565, 1614, 1744, 2664]}, "edge": {"target": [], "time": []}}}, "displayed_time": "15.21", "trialTime": 18019, "trial_type": "mouselab-mdp", "trial_index": 40, "time_elapsed": 1121227, "internal_node_id": "0.0-4.0-1.0-25.0"}}, {"uniqueid": "w84114670:a23072496", "current_trial": 41, "dateTime": 1691160577455, "trialdata": {"revealed_states": [], "clicked_states": ["10"], "num_clicks_accrued": [0, 0, 0, 0, 0, 0, 0, 0, 0, 0, 0, 0, 0], "stateRewards": ["", -1, 3, 1, -11, -22, -36, 19, -5, -70, -52, 50, -2, -4, 4, -2, -41, -83, 29, -2, 22, 10, -6, -2, 3, -2, 14, 54, 44, 77, -9, -65, -37, -40], "withholdReward": false, "trial_id": "mdp_trial_27", "block": "test", "trialIndex": 30, "score": -49.15, "costs": -2.15, "simulationMode": [null, null, null, null, null], "rewards": [-2, 3, -2, -9, -37], "path": ["0", "0", "23", "24", "25", "30", "32"], "rt": [7281, 36, 272, 916, 233], "actions": ["left", "left", "left", "down", "down"], "actionTimes": [8323, 8869, 9653, 11082, 11832], "queries": {"click": {"state": {"target": ["10"], "time": [2207]}, "edge": {"target": [], "time": []}}, "mouseover": {"state": {"target": ["10", "1", "0", "23"], "time": [2031, 2712, 3481, 6766]}, "edge": {"target": [], "time": []}}, "mouseout": {"state": {"target": ["0", "10", "10", "1", "0", "23", "0"], "time": [1402, 2214, 2666, 2797, 5384, 7515, 15732]}, "edge": {"target": [], "time": []}}}, "displayed_time": "15.05", "trialTime": 16562, "trial_type": "mouselab-mdp", "trial_index": 41, "time_elapsed": 1137952, "internal_node_id": "0.0-4.0-1.0-26.0"}}, {"uniqueid": "w84114670:a23072496", "current_trial": 42, "dateTime": 1691160597663, "trialdata": {"revealed_states": [], "clicked_states": ["21"], "num_clicks_accrued": [0, 0, 0, 0, 0, 0, 0, 0, 0, 0, 0, 0, 0], "stateRewards": ["", -1, 2, -2, 5, 80, -61, -27, 12, 44, -26, -75, -2, -4, 1, -16, 42, -49, -50, 4, -44, 2, 80, -2, -2, 5, -2, 59, 10, 24, 7, -48, -86, -44], "withholdReward": false, "trial_id": "mdp_trial_28", "block": "test", "trialIndex": 31, "score": -1.1500000000000004, "costs": -2.15, "simulationMode": [null, null, null, null, null], "rewards": [-2, -4, 1, 4, 2], "path": ["0", "0", "12", "13", "14", "19", "21"], "rt": [4220, 463, 160, 211, 133], "actions": ["right", "right", "right", "down", "down"], "actionTimes": [5136, 6108, 6786, 7504, 8159], "queries": {"click": {"state": {"target": ["21"], "time": [1731]}, "edge": {"target": [], "time": []}}, "mouseover": {"state": {"target": ["12", "22", "19", "21", "22"], "time": [1313, 1357, 1439, 1576, 2459]}, "edge": {"target": [], "time": []}}, "mouseout": {"state": {"target": ["12", "22", "19", "21", "22"], "time": [1326, 1375, 1459, 1845, 2492]}, "edge": {"target": [], "time": []}}}, "displayed_time": "14.93", "trialTime": 20048, "trial_type": "mouselab-mdp", "trial_index": 42, "time_elapsed": 1158160, "internal_node_id": "0.0-4.0-1.0-27.0"}}, {"uniqueid": "w84114670:a23072496", "current_trial": 43, "dateTime": 1691160616577, "trialdata": {"revealed_states": [], "clicked_states": ["2"], "num_clicks_accrued": [0, 0, 0, 0, 0, 0, 0, 0, 0, 0, 0, 0, 0], "stateRewards": ["", -2, 1, 6, -2, -10, -78, -69, 14, -15, 7, -1, 1, -1, -2, 13, 77, 32, 87, 5, -74, 30, -26, 1, 3, 4, 12, 39, 54, -43, 2, 10, 23, 13], "withholdReward": false, "trial_id": "mdp_trial_29", "block": "test", "trialIndex": 32, "score": -7.35, "costs": -0.35, "simulationMode": [null, null, null, null, null], "rewards": [-2, 1, 6, -2, -10], "path": ["0", "0", "1", "2", "3", "4", "5"], "rt": [3858, 280, 387, 275, 235], "actions": ["up", "up", "up", "right", "up"], "actionTimes": [4894, 5682, 6576, 7363, 8107], "queries": {"click": {"state": {"target": ["2"], "time": [2031]}, "edge": {"target": [], "time": []}}, "mouseover": {"state": {"target": ["1", "2", "2", "1", "0"], "time": [1503, 1638, 1804, 2653, 2705]}, "edge": {"target": [], "time": []}}, "mouseout": {"state": {"target": ["0", "1", "2", "2", "2", "1", "0", "1", "2", "1"], "time": [1422, 1554, 1671, 2124, 2621, 2671, 2722, 17757, 18208, 18305]}, "edge": {"target": [], "time": []}}}, "displayed_time": "15.04", "trialTime": 18742, "trial_type": "mouselab-mdp", "trial_index": 43, "time_elapsed": 1177075, "internal_node_id": "0.0-4.0-1.0-28.0"}}, {"uniqueid": "w84114670:a23072496", "current_trial": 44, "dateTime": 1691160636301, "trialdata": {"revealed_states": [], "clicked_states": ["8"], "num_clicks_accrued": [0, 0, 0, 0, 0, 0, 0, 0, 0, 0, 0, 0, 0], "stateRewards": ["", 2, 3, 3, 10, 19, -21, 6, 9, 54, 68, 16, 2, 2, -6, -8, 40, -2, -75, -2, -42, 55, 59, -1, 2, 4, -14, 11, -34, -30, -6, 61, -53, 13], "withholdReward": false, "trial_id": "mdp_trial_30", "block": "test", "trialIndex": 33, "score": 31.45, "costs": -1.55, "simulationMode": [null, null, null, null, null], "rewards": [2, 3, 3, 9, 16], "path": ["0", "0", "1", "2", "3", "8", "11"], "rt": [3093, 197, 88, 182, 205], "actions": ["up", "up", "up", "left", "left"], "actionTimes": [3938, 4654, 5249, 5941, 6665], "queries": {"click": {"state": {"target": ["8"], "time": [2070]}, "edge": {"target": [], "time": []}}, "mouseover": {"state": {"target": ["1", "2", "8"], "time": [1277, 1377, 1743]}, "edge": {"target": [], "time": []}}, "mouseout": {"state": {"target": ["0", "1", "2", "8", "23", "0", "1", "2", "3", "2", "1"], "time": [1230, 1326, 1596, 2694, 15863, 16728, 16760, 16794, 18162, 19145, 19192]}, "edge": {"target": [], "time": []}}}, "displayed_time": "14.86", "trialTime": 19554, "trial_type": "mouselab-mdp", "trial_index": 44, "time_elapsed": 1196799, "internal_node_id": "0.0-4.0-1.0-29.0"}}, {"uniqueid": "w84114670:a23072496", "current_trial": 45, "dateTime": 1691160656020, "trialdata": {"revealed_states": [], "clicked_states": ["6"], "num_clicks_accrued": [0, 0, 0, 0, 0, 0, 0, 0, 0, 0, 0, 0, 0], "stateRewards": ["", -2, -1, -2, -15, 87, 57, 29, -10, 77, -80, -7, 1, -3, 6, 14, -11, 87, -59, 4, -71, 16, -11, 2, 2, -7, 2, -47, 61, 50, 14, -20, 17, 81], "withholdReward": false, "trial_id": "mdp_trial_31", "block": "test", "trialIndex": 34, "score": 34.85, "costs": -2.15, "simulationMode": [null, null, null, null, null], "rewards": [-2, -1, -2, -15, 57], "path": ["0", "0", "1", "2", "3", "4", "6"], "rt": [4664, 486, 188, 102, 112], "actions": ["up", "up", "up", "right", "right"], "actionTimes": [5568, 6563, 7262, 7875, 8503], "queries": {"click": {"state": {"target": ["6"], "time": [1885]}, "edge": {"target": [], "time": []}}, "mouseover": {"state": {"target": ["1", "7", "4", "6", "12"], "time": [1276, 1324, 1407, 1690, 2407]}, "edge": {"target": [], "time": []}}, "mouseout": {"state": {"target": ["0", "1", "7", "4", "6", "12", "0", "1", "2", "1", "0", "1", "2", "1"], "time": [277, 1289, 1358, 1442, 2340, 2423, 17879, 17976, 18325, 18444, 18742, 18791, 18975, 19022]}, "edge": {"target": [], "time": []}}}, "displayed_time": "14.91", "trialTime": 19555, "trial_type": "mouselab-mdp", "trial_index": 45, "time_elapsed": 1216517, "internal_node_id": "0.0-4.0-1.0-30.0"}}, {"uniqueid": "w84114670:a23072496", "current_trial": 46, "dateTime": 1691160674542, "trialdata": {"revealed_states": [], "clicked_states": ["15"], "num_clicks_accrued": [0, 0, 0, 0, 0, 0, 0, 0, 0, 0, 0, 0, 0], "stateRewards": ["", 1, 1, 1, 15, -76, 52, -32, 14, -57, 37, 49, 1, -4, -3, 6, 83, -76, 25, 9, 36, -1, -17, -1, 4, 4, -2, -22, -21, 58, -15, -57, 49, -24], "withholdReward": false, "trial_id": "mdp_trial_32", "block": "test", "trialIndex": 35, "score": -18.55, "costs": -1.55, "simulationMode": [null, null, null, null, null], "rewards": [-1, 4, 4, -2, -22], "path": ["0", "0", "23", "24", "25", "26", "27"], "rt": [3171, 466, 202, 442, 238], "actions": ["left", "left", "left", "up", "up"], "actionTimes": [5281, 6267, 6986, 7939, 8689], "queries": {"click": {"state": {"target": ["15"], "time": [2894]}, "edge": {"target": [], "time": []}}, "mouseover": {"state": {"target": ["12", "15", "13"], "time": [2486, 2601, 3498]}, "edge": {"target": [], "time": []}}, "mouseout": {"state": {"target": ["0", "12", "15", "13", "21", "22", "12"], "time": [1901, 2498, 3448, 3530, 17653, 17701, 18067]}, "edge": {"target": [], "time": []}}}, "displayed_time": "16.12", "trialTime": 18368, "trial_type": "mouselab-mdp", "trial_index": 46, "time_elapsed": 1235039, "internal_node_id": "0.0-4.0-1.0-31.0"}}, {"uniqueid": "w84114670:a23072496", "current_trial": 47, "dateTime": 1691160696563, "trialdata": {"revealed_states": [], "clicked_states": ["11"], "num_clicks_accrued": [0, 0, 0, 0, 0, 0, 0, 0, 0, 0, 0, 0, 0], "stateRewards": ["", -2, -1, -6, -14, -55, 78, -13, 11, 14, -71, 59, 2, 2, 6, -6, 9, 38, 14, 7, 85, 11, 68, 1, -4, -1, -3, -63, -85, 9, -2, 63, -86, -10], "withholdReward": false, "trial_id": "mdp_trial_33", "block": "test", "trialIndex": 36, "score": 58.85, "costs": -2.15, "simulationMode": [null, null, null, null, null], "rewards": [-2, -1, -6, 11, 59], "path": ["0", "0", "1", "2", "3", "8", "11"], "rt": [4337, 315, 110, 150, 105], "actions": ["up", "up", "up", "left", "left"], "actionTimes": [5361, 6193, 6804, 7461, 8083], "queries": {"click": {"state": {"target": ["11"], "time": [1788]}, "edge": {"target": [], "time": []}}, "mouseover": {"state": {"target": ["11", "30"], "time": [1476, 2526]}, "edge": {"target": [], "time": []}}, "mouseout": {"state": {"target": ["0", "11", "11", "30", "15", "17", "16", "6", "7", "23", "31", "32", "32", "30", "31"], "time": [1394, 1879, 2408, 2576, 17344, 18595, 18694, 20712, 20761, 20794, 21046, 21227, 21292, 21327, 21361]}, "edge": {"target": [], "time": []}}}, "displayed_time": "15.03", "trialTime": 21849, "trial_type": "mouselab-mdp", "trial_index": 47, "time_elapsed": 1257060, "internal_node_id": "0.0-4.0-1.0-32.0"}}, {"uniqueid": "w84114670:a23072496", "current_trial": 48, "dateTime": 1691160717567, "trialdata": {"revealed_states": [], "clicked_states": ["6"], "num_clicks_accrued": [0, 0, 0, 0, 0, 0, 0, 0, 0, 0, 0, 0, 0], "stateRewards": ["", -2, -1, -4, -15, -14, -67, 32, -3, -59, 63, 31, 2, -1, -7, -15, 71, -66, -27, -3, -54, -39, 72, 2, 1, 1, -13, 77, -40, 35, -9, 35, 75, 57], "withholdReward": false, "trial_id": "mdp_trial_34", "block": "test", "trialIndex": 37, "score": -50.15, "costs": -2.15, "simulationMode": [null, null, null, null, null], "rewards": [2, -1, -7, -3, -39], "path": ["0", "0", "12", "13", "14", "19", "21"], "rt": [6437, 103, 34, 120, 136], "actions": ["right", "right", "right", "down", "down"], "actionTimes": [8266, 8888, 9436, 10089, 10737], "queries": {"click": {"state": {"target": ["6"], "time": [2661]}, "edge": {"target": [], "time": []}}, "mouseover": {"state": {"target": ["7", "6"], "time": [2170, 2486]}, "edge": {"target": [], "time": []}}, "mouseout": {"state": {"target": ["31", "23", "7", "6", "6", "18", "12", "0", "23", "24", "25", "33", "30", "31"], "time": [417, 1151, 2219, 3367, 18605, 18701, 19037, 19065, 19084, 19115, 19605, 20488, 20535, 20585]}, "edge": {"target": [], "time": []}}}, "displayed_time": "15.84", "trialTime": 20829, "trial_type": "mouselab-mdp", "trial_index": 48, "time_elapsed": 1278064, "internal_node_id": "0.0-4.0-1.0-33.0"}}, {"uniqueid": "w84114670:a23072496", "current_trial": 49, "dateTime": 1691160735377, "trialdata": {"revealed_states": [], "clicked_states": ["33"], "num_clicks_accrued": [0, 0, 0, 0, 0, 0, 0, 0, 0, 0, 0, 0, 0], "stateRewards": ["", -2, -3, -6, -7, 9, 16, 65, 5, -41, 20, -25, -1, -4, 1, -11, -49, -4, 71, 1, 39, -62, 52, -2, -3, 7, -9, -28, -70, 84, 8, 24, -58, 82], "withholdReward": false, "trial_id": "mdp_trial_35", "block": "test", "trialIndex": 38, "score": 89.85, "costs": -2.15, "simulationMode": [null, null, null, null, null], "rewards": [-2, -3, 7, 8, 82], "path": ["0", "0", "23", "24", "25", "30", "33"], "rt": [4721, 338, 167, 230, 192], "actions": ["left", "left", "left", "down", "left"], "actionTimes": [5888, 6743, 7423, 8169, 8881], "queries": {"click": {"state": {"target": ["33"], "time": [1947]}, "edge": {"target": [], "time": []}}, "mouseover": {"state": {"target": ["23", "30", "33", "33", "32", "31"], "time": [1373, 1473, 1521, 1823, 5373, 5490]}, "edge": {"target": [], "time": []}}, "mouseout": {"state": {"target": ["31", "30", "0", "23", "30", "33", "33", "32", "31", "31"], "time": [406, 538, 957, 1403, 1487, 1553, 2719, 5424, 5539, 17231]}, "edge": {"target": [], "time": []}}}, "displayed_time": "15.12", "trialTime": 17642, "trial_type": "mouselab-mdp", "trial_index": 49, "time_elapsed": 1295874, "internal_node_id": "0.0-4.0-1.0-34.0"}}, {"uniqueid": "w84114670:a23072496", "current_trial": 50, "dateTime": 1691160754332, "trialdata": {"revealed_states": [], "clicked_states": ["21"], "num_clicks_accrued": [0, 0, 0, 0, 0, 0, 0, 0, 0, 0, 0, 0, 0], "stateRewards": ["", -2, -3, 7, -13, 60, 9, 37, -6, 37, 20, 1, 2, -2, -8, 6, -80, -31, -10, -7, 70, -65, -44, -1, 1, 7, 6, -11, 73, -85, 16, -21, 47, 34], "withholdReward": false, "trial_id": "mdp_trial_36", "block": "test", "trialIndex": 39, "score": 23.85, "costs": -2.15, "simulationMode": [null, null, null, null, null], "rewards": [-2, -3, 7, -13, 37], "path": ["0", "0", "1", "2", "3", "4", "7"], "rt": [5945, 121, 493, 283, 763], "actions": ["up", "up", "up", "right", "down"], "actionTimes": [7203, 7835, 8841, 9631, 10911], "queries": {"click": {"state": {"target": ["21"], "time": [2075]}, "edge": {"target": [], "time": []}}, "mouseover": {"state": {"target": ["21"], "time": [1901]}, "edge": {"target": [], "time": []}}, "mouseout": {"state": {"target": ["0", "21"], "time": [1581, 5415]}, "edge": {"target": [], "time": []}}}, "displayed_time": "15.27", "trialTime": 18717, "trial_type": "mouselab-mdp", "trial_index": 50, "time_elapsed": 1314828, "internal_node_id": "0.0-4.0-1.0-35.0"}}, {"uniqueid": "w84114670:a23072496", "current_trial": 51, "dateTime": 1691160774966, "trialdata": {"revealed_states": [], "clicked_states": ["27"], "num_clicks_accrued": [0, 0, 0, 0, 0, 0, 0, 0, 0, 0, 0, 0, 0], "stateRewards": ["", -2, 4, -7, -3, -76, 39, -28, 10, 14, 12, 60, 2, -3, 6, -10, 88, -34, -41, -3, 72, -13, -56, 1, 3, 2, 8, -51, 23, -57, 1, 14, -46, -16], "withholdReward": false, "trial_id": "mdp_trial_37", "block": "test", "trialIndex": 40, "score": -41.15, "costs": -2.15, "simulationMode": [null, null, null, null, null], "rewards": [2, -3, 6, -10, -34], "path": ["0", "0", "12", "13", "14", "15", "17"], "rt": [4909, 18, 60, 188, 386], "actions": ["right", "right", "right", "up", "right"], "actionTimes": [8089, 8610, 9205, 9899, 10797], "queries": {"click": {"state": {"target": ["27"], "time": [3938]}, "edge": {"target": [], "time": []}}, "mouseover": {"state": {"target": ["28", "27", "26"], "time": [3514, 3713, 6876]}, "edge": {"target": [], "time": []}}, "mouseout": {"state": {"target": ["23", "24", "28", "27", "26", "29", "24", "23"], "time": [429, 477, 3544, 6861, 6891, 19498, 19963, 20012]}, "edge": {"target": [], "time": []}}}, "displayed_time": "17.19", "trialTime": 20449, "trial_type": "mouselab-mdp", "trial_index": 51, "time_elapsed": 1335464, "internal_node_id": "0.0-4.0-1.0-36.0"}}, {"uniqueid": "w84114670:a23072496", "current_trial": 52, "dateTime": 1691160792567, "trialdata": {"revealed_states": [], "clicked_states": ["32"], "num_clicks_accrued": [0, 0, 0, 0, 0, 0, 0, 0, 0, 0, 0, 0, 0], "stateRewards": ["", -1, -3, 1, 13, -64, -29, 12, -4, -33, 50, 56, 2, -3, 4, 11, -64, -58, -55, 12, 47, 38, -25, -2, 2, 5, -15, 85, 7, 84, 10, 8, 57, 26], "withholdReward": false, "trial_id": "mdp_trial_38", "block": "test", "trialIndex": 41, "score": 69.85, "costs": -2.15, "simulationMode": [null, null, null, null, null], "rewards": [-2, 2, 5, 10, 57], "path": ["0", "0", "23", "24", "25", "30", "32"], "rt": [4495, 107, 115, 173, 144], "actions": ["left", "left", "left", "down", "down"], "actionTimes": [5695, 6316, 6941, 7632, 8285], "queries": {"click": {"state": {"target": ["32"], "time": [1969]}, "edge": {"target": [], "time": []}}, "mouseover": {"state": {"target": ["31", "30", "32"], "time": [1494, 1526, 1811]}, "edge": {"target": [], "time": []}}, "mouseout": {"state": {"target": ["0", "31", "30", "32"], "time": [1443, 1507, 1542, 4310]}, "edge": {"target": [], "time": []}}}, "displayed_time": "15.21", "trialTime": 17416, "trial_type": "mouselab-mdp", "trial_index": 52, "time_elapsed": 1353063, "internal_node_id": "0.0-4.0-1.0-37.0"}}, {"uniqueid": "w84114670:a23072496", "current_trial": 53, "dateTime": 1691160819282, "trialdata": {"revealed_states": [], "clicked_states": ["11"], "num_clicks_accrued": [0, 0, 0, 0, 0, 0, 0, 0, 0, 0, 0, 0, 0], "stateRewards": ["", 1, 3, 1, -13, 52, -28, 67, -14, 3, 63, -70, -1, -4, 7, -11, -10, 47, -18, 6, 69, -9, -61, 2, 3, -6, 10, 63, -34, 40, -6, -79, -35, -32], "withholdReward": false, "trial_id": "mdp_trial_39", "block": "test", "trialIndex": 42, "score": -3.1500000000000004, "costs": -2.15, "simulationMode": [null, null, null, null, null], "rewards": [-1, -4, 7, 6, -9], "path": ["0", "0", "12", "13", "14", "19", "21"], "rt": [7826, 1563, 239, 103, 72], "actions": ["right", "right", "right", "down", "down"], "actionTimes": [9445, 11523, 12262, 12880, 13463], "queries": {"click": {"state": {"target": ["11"], "time": [2715]}, "edge": {"target": [], "time": []}}, "mouseover": {"state": {"target": ["11", "10", "1", "0"], "time": [2395, 6862, 6942, 7395]}, "edge": {"target": [], "time": []}}, "mouseout": {"state": {"target": ["0", "11", "10", "1", "0", "1", "4", "30", "25", "26", "28", "10", "2", "4", "5", "4", "7"], "time": [1991, 6561, 6893, 7042, 20645, 20691, 21558, 22026, 22093, 22425, 22476, 22746, 23545, 23625, 26244, 26272, 26307]}, "edge": {"target": [], "time": []}}}, "displayed_time": "15.62", "trialTime": 26531, "trial_type": "mouselab-mdp", "trial_index": 53, "time_elapsed": 1379779, "internal_node_id": "0.0-4.0-1.0-38.0"}}, {"uniqueid": "w84114670:a23072496", "current_trial": 54, "dateTime": 1691160850303, "trialdata": {"revealed_states": [], "clicked_states": [], "num_clicks_accrued": [0, 0, 0, 0, 0, 0, 0, 0, 0, 0, 0, 0, 0], "stateRewards": ["", 2, 4, -6, -13, -75, -81, 30, 7, 5, 59, -65, -1, -1, 7, 14, -38, 36, -41, 1, -54, -5, 64, 2, -1, 5, 6, -19, 79, 11, 16, -33, -50, 58], "withholdReward": false, "trial_id": "mdp_trial_40", "block": "test", "trialIndex": 43, "score": -7, "costs": 0, "simulationMode": [null, null, null, null, null], "rewards": [2, -1, 5, 6, -19], "path": ["0", "0", "23", "24", "25", "26", "27"], "rt": [8129, 1113, 122, 1298, 592], "actions": ["left", "left", "left", "up", "up"], "actionTimes": [22672, 24304, 24929, 26738, 27850], "queries": {"click": {"state": {"target": [], "time": []}, "edge": {"target": [], "time": []}}, "mouseover": {"state": {"target": ["17", "15", "13"], "time": [17724, 20192, 20425]}, "edge": {"target": [], "time": []}}, "mouseout": {"state": {"target": ["4", "5", "5", "2", "1", "0", "17", "15", "13", "20"], "time": [241, 291, 693, 759, 1290, 16189, 20125, 20323, 30461, 30522]}, "edge": {"target": [], "time": []}}}, "displayed_time": "28.55", "trialTime": 30833, "trial_type": "mouselab-mdp", "trial_index": 54, "time_elapsed": 1410800, "internal_node_id": "0.0-4.0-1.0-39.0"}}, {"uniqueid": "w84114670:a23072496", "current_trial": 55, "dateTime": 1691160913027, "trialdata": {"rt": 62717, "response": {"Q0": "$-2 to $2", "Q1": "$-32 to $32", "Q2": "$-88 to $88", "Q3": "The cost for clicking on nodes varied between nodes.", "Q4": "Slightly motivated"}, "question_order": [0, 1, 2, 3, 4], "trial_id": "final_quiz_control", "trial_type": "survey-multi-choice", "trial_index": 55, "time_elapsed": 1473524, "internal_node_id": "0.0-4.0-2.0"}}, {"uniqueid": "w84114670:a23072496", "current_trial": 56, "dateTime": 1691161077076, "trialdata": {"rt": 164042, "response": {"Q0": "I would click on a node and if it has a postive(green number) l go towards that one. If the node is in the red l choose another way to get to one of the outside nodes. ", "Q1": "I don't think my strategy improved because l kept getting bad (red) nodes. ", "Q2": "I found it difficult because even when l chose to go to a node that was in the green l would get cash deducted. "}, "trial_id": "self_report_control", "trial_type": "survey-text", "trial_index": 56, "time_elapsed": 1637574, "internal_node_id": "0.0-4.0-3.0"}}, {"uniqueid": "w84114670:a23072496", "current_trial": 57, "dateTime": 1691161147392, "trialdata": {"rt": 70311, "response": {"Q0": "Agree", "Q1": "Neither disagree nor agree", "Q2": "Agree", "Q3": "Strongly agree", "Q4": "Disagree", "Q5": "Disagree", "Q6": "Agree"}, "question_order": [0, 1, 2, 3, 4, 5, 6], "trial_id": "self_report_2", "trial_type": "survey-multi-choice", "trial_index": 57, "time_elapsed": 1707890, "internal_node_id": "0.0-4.0-4.0"}}, {"uniqueid": "w84114670:a23072496", "current_trial": 58, "dateTime": 1691161170243, "trialdata": {"rt": 22839, "response": {"gender": "female", "age": "33", "colorblind": "0", "effort": "0"}, "trial_type": "survey-html-form", "trial_index": 58, "time_elapsed": 1730740, "internal_node_id": "0.0-4.0-5.0"}}, {"uniqueid": "w84114670:a23072496", "current_trial": 59, "dateTime": 1691161274807, "trialdata": {"rt": 104557, "response": {"Q0": "The explanations were simple but the game was hard when it came to determining the right node to click on. ", "Q1": "No, I have never encountered this game before. ", "Q2": ""}, "trial_type": "survey-text", "trial_index": 59, "time_elapsed": 1835305, "internal_node_id": "0.0-4.0-6.0"}}, {"uniqueid": "w84114670:a23072496", "current_trial": 60, "dateTime": 1691161276908, "trialdata": {"rt": 2088, "stimulus": "Press 'Finish HIT' in order to reach the completion code. Once the data has been saved, you will receive the code either in this window or in the original browser window where you started the experiment.\n", "response": 0, "trial_type": "html-button-response", "trial_index": 60, "time_elapsed": 1837405, "internal_node_id": "0.0-5.0"}}, {"uniqueid": "w84114670:a23072496", "current_trial": 61, "dateTime": 1691161277919, "trialdata": {"success": true, "trial_type": "fullscreen", "trial_index": 61, "time_elapsed": 1838417, "internal_node_id": "0.0-6.0"}}], "questiondata": {"params": {"CODE": "C6DMOQA6", "MIN_TIME": 14, "inspectCost": 1, "startTime": "Fri Aug 04 2023 16:30:35 GMT+0200 (South Africa Standard Time)", "bonusRate": 0.002, "variance": "1_2_4_8_44", "branching": "31123"}, "final_score": 29.3}, "eventdata": [{"eventtype": "initialized", "value": null, "timestamp": 1691159433590, "interval": 0}, {"eventtype": "window_resize", "value": [1440, 821], "timestamp": 1691159433590, "interval": 0}, {"eventtype": "window_resize", "value": [1440, 821], "timestamp": 1691159434879, "interval": 1289}, {"eventtype": "window_resize", "value": [1440, 900], "timestamp": 1691159442423, "interval": 7544}, {"eventtype": "focus", "value": "off", "timestamp": 1691159980615, "interval": 538192}, {"eventtype": "focus", "value": "on", "timestamp": 1691159980785, "interval": 170}, {"eventtype": "window_resize", "value": [1440, 821], "timestamp": 1691159980828, "interval": 43}, {"eventtype": "window_resize", "value": [1440, 900], "timestamp": 1691159983076, "interval": 2248}, {"eventtype": "window_resize", "value": [1440, 769], "timestamp": 1691161277143, "interval": 1294067}], "useragent": "Mozilla/5.0 (Macintosh; Intel Mac OS X 10_15_7) AppleWebKit/537.36 (KHTML, like Gecko) Chrome/115.0.0.0 Safari/537.36", "mode": "live", "id": "w84114670:a23072496", "status": "user data saved", "Beginhit": "2023-08-04 14:30:27.735042", "Beginexp": "2023-08-04 14:30:44.330391", "Endhit": "2023-08-04 15:01:19.857036", "psiturkStatus": 3, "browser": "<redacted>", "platform": "macos", "language": "en-GB"}