{"condition": 0, "counterbalance": 0, "assignmentId": "a90656673", "workerId": "w75641843", "hitId": "h26547662", "currenttrial": 55, "bonus": 0, "data": [{"uniqueid": "w75641843:a90656673", "current_trial": 0, "dateTime": 1693564790872, "trialdata": {"success": true, "trial_type": "fullscreen", "trial_index": 0, "time_elapsed": 5381, "internal_node_id": "0.0-0.0"}}, {"uniqueid": "w75641843:a90656673", "current_trial": 1, "dateTime": 1693564800511, "trialdata": {"view_history": [{"page_index": 0, "viewing_time": 9629}], "rt": 9630, "trial_id": "exp_instructions_control", "trial_type": "instructions", "trial_index": 1, "time_elapsed": 15020, "internal_node_id": "0.0-1.0"}}, {"uniqueid": "w75641843:a90656673", "current_trial": 2, "dateTime": 1693564953998, "trialdata": {"view_history": [{"page_index": 0, "viewing_time": 36746}, {"page_index": 1, "viewing_time": 71416}, {"page_index": 2, "viewing_time": 17984}, {"page_index": 3, "viewing_time": 27336}], "rt": 153483, "trial_id": "mouselab_instructions_1_control", "trial_type": "instructions", "trial_index": 2, "time_elapsed": 168507, "internal_node_id": "0.0-2.0-1.0"}}, {"uniqueid": "w75641843:a90656673", "current_trial": 3, "dateTime": 1693564990575, "trialdata": {"revealed_states": [], "clicked_states": ["12", "13", "14", "15", "17"], "num_clicks_accrued": [0, 0, 0, 0, 0, 0, 0, 0, 0, 0, 0, 0, 0], "stateRewards": ["", -10, 10, 10, 10, -10, -10, -10, -10, 10, 10, -10, -10, 10, 10, -10, 10, 10, -10, -10, 10, -10, 10, -10, -10, -10, -10, 10, -10, -10, -10, 10, -10, -10], "withholdReward": false, "trial_id": "practice_1", "block": "test", "trialIndex": 0, "score": 11, "costs": -2.5, "simulationMode": [null, null, null, null, null], "rewards": [-10, 10, 10, -10, 10], "path": ["0", "0", "12", "13", "14", "15", "17"], "rt": [22605, 20, 383, 827, 527], "actions": ["right", "right", "right", "up", "right"], "actionTimes": [25742, 26310, 27221, 28581, 29637], "queries": {"click": {"state": {"target": ["12", "13", "14", "15", "17"], "time": [8950, 11147, 13277, 15380, 17233]}, "edge": {"target": [], "time": []}}, "mouseover": {"state": {"target": ["12", "13", "14", "15", "17", "0"], "time": [6147, 9369, 11968, 14596, 16445, 24395]}, "edge": {"target": [], "time": []}}, "mouseout": {"state": {"target": ["0", "12", "13", "14", "15", "17", "0"], "time": [1447, 9303, 11797, 14396, 16220, 17966, 24627]}, "edge": {"target": [], "time": []}}}, "displayed_time": "30.16", "trialTime": 35965, "trial_type": "mouselab-mdp", "trial_index": 3, "time_elapsed": 205084, "internal_node_id": "0.0-2.0-2.0-0.0"}}, {"uniqueid": "w75641843:a90656673", "current_trial": 4, "dateTime": 1693565017863, "trialdata": {"revealed_states": [], "clicked_states": ["23", "25", "26", "24", "29"], "num_clicks_accrued": [0, 0, 0, 0, 0, 0, 0, 0, 0, 0, 0, 0, 0], "stateRewards": ["", 10, 10, 10, -10, 10, 10, 10, -10, 10, 10, 10, 10, -10, 10, -10, -10, 10, -10, -10, -10, 10, 10, 10, 10, -10, -10, -10, -10, 10, -10, -10, 10, -10], "withholdReward": false, "trial_id": "practice_2", "block": "test", "trialIndex": 1, "score": -9, "costs": -2.5, "simulationMode": [null, null, null, null, null], "rewards": [10, -10, 10, -10, -10], "path": ["0", "0", "12", "13", "14", "19", "20"], "rt": [16587, 1813, 242, 457, 499], "actions": ["right", "right", "right", "down", "right"], "actionTimes": [19060, 21403, 22179, 23187, 24219], "queries": {"click": {"state": {"target": ["23", "25", "26", "24", "29"], "time": [5889, 7959, 9753, 11041, 12696]}, "edge": {"target": [], "time": []}}, "mouseover": {"state": {"target": ["23", "24", "25", "24", "26", "24", "29", "23", "0"], "time": [4685, 6183, 7217, 8700, 9349, 10581, 12299, 13763, 14033]}, "edge": {"target": [], "time": []}}, "mouseout": {"state": {"target": ["21", "0", "23", "24", "25", "24", "26", "24", "25", "29", "24", "23"], "time": [1183, 1448, 6123, 7183, 8639, 9266, 10412, 11895, 12067, 13448, 13704, 13882]}, "edge": {"target": [], "time": []}}}, "displayed_time": "24.76", "trialTime": 26843, "trial_type": "mouselab-mdp", "trial_index": 4, "time_elapsed": 232371, "internal_node_id": "0.0-2.0-2.0-1.0"}}, {"uniqueid": "w75641843:a90656673", "current_trial": 5, "dateTime": 1693565055046, "trialdata": {"view_history": [{"page_index": 0, "viewing_time": 29036}, {"page_index": 1, "viewing_time": 8143}], "rt": 37180, "trial_id": "mouselab_instructions_2_control", "trial_type": "instructions", "trial_index": 5, "time_elapsed": 269555, "internal_node_id": "0.0-2.0-3.0"}}, {"uniqueid": "w75641843:a90656673", "current_trial": 6, "dateTime": 1693565083231, "trialdata": {"rt": 28180, "response": {"Q0": "The cost for clicking on nodes may vary between nodes.", "Q1": "The better I perform the higher my bonus will be.", "Q2": "No, the amount of cash at each node of the web may be different each time.", "Q3": "To get the highest total score.", "Q4": "Only before moving the spider.", "Q5": "3 seconds"}, "question_order": [0, 1, 2, 3, 4, 5], "correct": {"Q0": "The cost for clicking on nodes may vary between nodes.", "Q1": "The better I perform the higher my bonus will be.", "Q2": "No, the amount of cash at each node of the web may be different each time.", "Q3": "To get the highest total score.", "Q4": "Only before moving the spider.", "Q5": "3 seconds"}, "trial_id": "mouselab_quiz_control", "trial_type": "survey-multi-choice", "trial_index": 6, "time_elapsed": 297740, "internal_node_id": "0.0-2.0-4.0"}}, {"uniqueid": "w75641843:a90656673", "current_trial": 7, "dateTime": 1693565089871, "trialdata": {"rt": 6630, "response": {"Q0": "No"}, "question_order": [0], "trial_id": "repeat_check", "trial_type": "survey-multi-choice", "trial_index": 7, "time_elapsed": 304379, "internal_node_id": "0.0-4.0-0.0"}}, {"uniqueid": "w75641843:a90656673", "current_trial": 8, "dateTime": 1693565100734, "trialdata": {"rt": 10857, "stimulus": "\n<h1> Get ready to start the game! </h1>\n\nThank you for reading the instructions. Get ready start with the 40 rounds of this game.\n<br><br>\nIf you need to take a break, feel free to take one after the end of a round, before continuing to the next one.\n<br><br>\nRemember, the more money the spider gets, the bigger your bonus will be!\n<br><br>\n<div style='text-align: center;'>Press <code>space</code> to begin.</div>\n\n<br><br>\n(If, at any point, the <code>space</code> key does not take you to the next page, click once on the text and try again.)", "response": " ", "trial_id": "mdp_ready", "trial_type": "html-keyboard-response", "trial_index": 8, "time_elapsed": 315243, "internal_node_id": "0.0-6.0-0.0"}}, {"uniqueid": "w75641843:a90656673", "current_trial": 9, "dateTime": 1693565126815, "trialdata": {"revealed_states": [], "clicked_states": ["23", "24", "25", "26"], "num_clicks_accrued": [0, 0, 0, 0, 0, 0, 0, 0, 0, 0, 0, 0, 0], "stateRewards": ["", -1, -1, 4, -16, -75, 81, -51, -7, -84, 73, -30, -2, 1, -3, -16, -77, 33, 14, 1, 45, 87, -66, 2, 2, -5, -7, -19, -17, 79, -3, 8, 49, 47], "withholdReward": false, "trial_id": "mdp_trial_1", "block": "test", "trialIndex": 2, "score": -94.6, "costs": -5.6, "simulationMode": [null, null, null, null, null], "rewards": [-1, -1, 4, -16, -75], "path": ["0", "0", "1", "2", "3", "4", "5"], "rt": [14777, 426, 728, 411, 588], "actions": ["up", "up", "up", "right", "up"], "actionTimes": [17242, 18217, 19465, 20409, 21545], "queries": {"click": {"state": {"target": ["23", "24", "25", "26"], "time": [4254, 6366, 8366, 11261]}, "edge": {"target": [], "time": []}}, "mouseover": {"state": {"target": ["0", "23", "24", "25", "26", "23", "0", "12", "1"], "time": [3462, 3622, 4752, 7017, 9947, 12287, 12434, 13761, 14745]}, "edge": {"target": [], "time": []}}, "mouseout": {"state": {"target": ["23", "0", "23", "24", "25", "26", "23", "0", "12", "1"], "time": [1345, 3492, 4663, 6848, 9787, 12011, 12374, 12466, 14695, 15795]}, "edge": {"target": [], "time": []}}}, "displayed_time": "22.08", "trialTime": 25617, "trial_type": "mouselab-mdp", "trial_index": 9, "time_elapsed": 341323, "internal_node_id": "0.0-6.0-1.0-0.0"}}, {"uniqueid": "w75641843:a90656673", "current_trial": 10, "dateTime": 1693565148023, "trialdata": {"revealed_states": [], "clicked_states": [], "num_clicks_accrued": [0, 0, 0, 0, 0, 0, 0, 0, 0, 0, 0, 0, 0], "stateRewards": ["", 2, -4, -4, 13, -80, 62, 13, -11, 57, -13, -44, 1, 4, 3, -4, -29, -88, 15, 16, -58, 68, -45, -1, -3, -1, -9, -44, -86, -19, -7, -36, 59, 66], "withholdReward": false, "trial_id": "mdp_trial_2", "block": "test", "trialIndex": 3, "score": -34, "costs": 0, "simulationMode": [null, null, null, null, null], "rewards": [1, 4, 3, 16, -58], "path": ["0", "0", "12", "13", "14", "19", "20"], "rt": [9754, 677, 456, 614, 842], "actions": ["right", "right", "right", "down", "right"], "actionTimes": [13181, 14380, 15372, 16532, 17892], "queries": {"click": {"state": {"target": [], "time": []}, "edge": {"target": [], "time": []}}, "mouseover": {"state": {"target": ["0", "12", "0"], "time": [6926, 7391, 10256]}, "edge": {"target": [], "time": []}}, "mouseout": {"state": {"target": ["0", "0", "12"], "time": [3083, 6978, 10074]}, "edge": {"target": [], "time": []}}}, "displayed_time": "18.44", "trialTime": 20756, "trial_type": "mouselab-mdp", "trial_index": 10, "time_elapsed": 362531, "internal_node_id": "0.0-6.0-1.0-1.0"}}, {"uniqueid": "w75641843:a90656673", "current_trial": 11, "dateTime": 1693565172982, "trialdata": {"revealed_states": [], "clicked_states": ["1", "2", "3", "8", "9"], "num_clicks_accrued": [0, 0, 0, 0, 0, 0, 0, 0, 0, 0, 0, 0, 0], "stateRewards": ["", 1, 4, 7, -16, -84, -6, -46, -12, -7, -49, -26, -1, 2, -4, 2, 22, 37, -64, 1, 88, -13, -10, 1, -4, -2, 5, 2, -10, -34, 9, 66, 55, 38], "withholdReward": false, "trial_id": "mdp_trial_3", "block": "test", "trialIndex": 4, "score": -57, "costs": -7, "simulationMode": [null, null, null, null, null], "rewards": [1, 4, 7, -16, -46], "path": ["0", "0", "1", "2", "3", "4", "7"], "rt": [15848, 185, 248, 386, 441], "actions": ["up", "up", "up", "right", "down"], "actionTimes": [18950, 19684, 20476, 21397, 22373], "queries": {"click": {"state": {"target": ["1", "2", "3", "8", "9"], "time": [5126, 8138, 10155, 12538, 15285]}, "edge": {"target": [], "time": []}}, "mouseover": {"state": {"target": ["1", "2", "3", "4", "8", "9", "3"], "time": [4673, 5811, 8485, 10948, 12072, 14305, 16290]}, "edge": {"target": [], "time": []}}, "mouseout": {"state": {"target": ["0", "1", "2", "3", "3", "4", "8", "8", "9", "3"], "time": [2256, 5596, 8395, 10293, 10726, 11839, 12643, 14108, 16095, 16321]}, "edge": {"target": [], "time": []}}}, "displayed_time": "22.90", "trialTime": 24516, "trial_type": "mouselab-mdp", "trial_index": 11, "time_elapsed": 387491, "internal_node_id": "0.0-6.0-1.0-2.0"}}, {"uniqueid": "w75641843:a90656673", "current_trial": 12, "dateTime": 1693565191774, "trialdata": {"revealed_states": [], "clicked_states": [], "num_clicks_accrued": [0, 0, 0, 0, 0, 0, 0, 0, 0, 0, 0, 0, 0], "stateRewards": ["", 2, -2, -8, 9, -20, 55, -58, 14, 42, 2, 36, 1, -3, -5, 5, -58, 57, 60, 16, 57, 30, -70, -2, 1, 3, 10, 59, 23, 77, -13, -26, 88, -72], "withholdReward": false, "trial_id": "mdp_trial_4", "block": "test", "trialIndex": 5, "score": -37, "costs": 0, "simulationMode": [null, null, null, null, null], "rewards": [-2, 1, 3, -13, -26], "path": ["0", "0", "23", "24", "25", "30", "31"], "rt": [8731, 481, 268, 472, 545], "actions": ["left", "left", "left", "down", "right"], "actionTimes": [11486, 12492, 13309, 14301, 15365], "queries": {"click": {"state": {"target": [], "time": []}, "edge": {"target": [], "time": []}}, "mouseover": {"state": {"target": ["12", "13", "14", "13", "12"], "time": [4744, 4780, 4836, 5459, 6060]}, "edge": {"target": [], "time": []}}, "mouseout": {"state": {"target": ["12", "13", "14", "13", "12"], "time": [4775, 4809, 5194, 5877, 8794]}, "edge": {"target": [], "time": []}}}, "displayed_time": "16.76", "trialTime": 18348, "trial_type": "mouselab-mdp", "trial_index": 12, "time_elapsed": 406283, "internal_node_id": "0.0-6.0-1.0-3.0"}}, {"uniqueid": "w75641843:a90656673", "current_trial": 13, "dateTime": 1693565211838, "trialdata": {"revealed_states": [], "clicked_states": [], "num_clicks_accrued": [0, 0, 0, 0, 0, 0, 0, 0, 0, 0, 0, 0, 0], "stateRewards": ["", -2, 2, 3, -7, 76, 63, 21, 15, 35, -8, -44, 1, 1, -2, -12, 23, 24, 76, -9, 46, 66, -49, -2, -1, 7, 12, 40, -71, -45, -6, 38, -49, 46], "withholdReward": false, "trial_id": "mdp_trial_5", "block": "test", "trialIndex": 6, "score": 57, "costs": 0, "simulationMode": [null, null, null, null, null], "rewards": [1, 1, -2, -9, 66], "path": ["0", "0", "12", "13", "14", "19", "21"], "rt": [5183, 463, 887, 475, 456], "actions": ["right", "right", "right", "down", "down"], "actionTimes": [8496, 9488, 10920, 11920, 12919], "queries": {"click": {"state": {"target": [], "time": []}, "edge": {"target": [], "time": []}}, "mouseover": {"state": {"target": [], "time": []}, "edge": {"target": [], "time": []}}, "mouseout": {"state": {"target": ["0"], "time": [2636]}, "edge": {"target": [], "time": []}}}, "displayed_time": "17.32", "trialTime": 19607, "trial_type": "mouselab-mdp", "trial_index": 13, "time_elapsed": 426347, "internal_node_id": "0.0-6.0-1.0-4.0"}}, {"uniqueid": "w75641843:a90656673", "current_trial": 14, "dateTime": 1693565231910, "trialdata": {"revealed_states": [], "clicked_states": ["12", "13", "14", "19", "21"], "num_clicks_accrued": [0, 0, 0, 0, 0, 0, 0, 0, 0, 0, 0, 0, 0], "stateRewards": ["", -2, -3, 7, -13, 60, 9, 37, -6, 37, 20, 1, 2, -2, -8, 6, -80, -31, -10, -7, 70, -65, -44, -1, 1, 7, 6, -11, 73, -85, 16, -21, 47, 34], "withholdReward": false, "trial_id": "mdp_trial_6", "block": "test", "trialIndex": 7, "score": -10, "costs": -7, "simulationMode": [null, null, null, null, null], "rewards": [-2, -3, 7, -6, 1], "path": ["0", "0", "1", "2", "3", "8", "11"], "rt": [12311, 280, 218, 295, 223], "actions": ["up", "up", "up", "left", "left"], "actionTimes": [14401, 15209, 15976, 16808, 17568], "queries": {"click": {"state": {"target": ["12", "13", "14", "19", "21"], "time": [3895, 5469, 7382, 9021, 11476]}, "edge": {"target": [], "time": []}}, "mouseover": {"state": {"target": ["12", "13", "12", "13", "14", "19", "21", "0"], "time": [3165, 3314, 3614, 4708, 6222, 8651, 11347, 12838]}, "edge": {"target": [], "time": []}}, "mouseout": {"state": {"target": ["0", "12", "13", "12", "12", "13", "14", "19", "21"], "time": [1734, 3247, 3565, 3976, 4168, 6184, 8619, 11230, 11606]}, "edge": {"target": [], "time": []}}}, "displayed_time": "18.10", "trialTime": 19608, "trial_type": "mouselab-mdp", "trial_index": 14, "time_elapsed": 446418, "internal_node_id": "0.0-6.0-1.0-5.0"}}, {"uniqueid": "w75641843:a90656673", "current_trial": 15, "dateTime": 1693565251863, "trialdata": {"revealed_states": [], "clicked_states": ["23", "24", "12", "13"], "num_clicks_accrued": [0, 0, 0, 0, 0, 0, 0, 0, 0, 0, 0, 0, 0], "stateRewards": ["", -1, 2, 6, 11, 21, -21, -21, -6, 48, -71, 88, -1, -3, 3, 7, 64, 2, 9, -4, 37, -67, 72, 2, 2, -8, -8, -10, 71, -40, -3, 73, 80, 47], "withholdReward": false, "trial_id": "mdp_trial_7", "block": "test", "trialIndex": 8, "score": 43.4, "costs": -5.6, "simulationMode": [null, null, null, null, null], "rewards": [-1, 2, 6, -6, 48], "path": ["0", "0", "1", "2", "3", "8", "9"], "rt": [11104, 278, 200, 442, 318], "actions": ["up", "up", "up", "left", "up"], "actionTimes": [13464, 14279, 15000, 15960, 16815], "queries": {"click": {"state": {"target": ["23", "24", "12", "13"], "time": [3540, 5612, 8164, 10244]}, "edge": {"target": [], "time": []}}, "mouseover": {"state": {"target": ["23", "24", "25", "12", "13"], "time": [3238, 3888, 6469, 7871, 8458]}, "edge": {"target": [], "time": []}}, "mouseout": {"state": {"target": ["0", "23", "24", "25", "24", "23", "12", "13"], "time": [3040, 3779, 6239, 6502, 7672, 7771, 8400, 11049]}, "edge": {"target": [], "time": []}}}, "displayed_time": "17.36", "trialTime": 19504, "trial_type": "mouselab-mdp", "trial_index": 15, "time_elapsed": 466371, "internal_node_id": "0.0-6.0-1.0-6.0"}}, {"uniqueid": "w75641843:a90656673", "current_trial": 16, "dateTime": 1693565276270, "trialdata": {"revealed_states": [], "clicked_states": ["1", "2", "3", "4", "7"], "num_clicks_accrued": [0, 0, 0, 0, 0, 0, 0, 0, 0, 0, 0, 0, 0], "stateRewards": ["", 2, -4, -8, -15, 71, -43, -41, 7, -17, 20, 67, -1, -1, -4, 6, 37, -24, -47, 9, 34, 57, 45, 1, 2, -4, -5, -23, 88, -5, 13, -40, 43, 44], "withholdReward": false, "trial_id": "mdp_trial_8", "block": "test", "trialIndex": 9, "score": 30, "costs": -7, "simulationMode": [null, null, null, null, null], "rewards": [-1, -1, -4, 6, 37], "path": ["0", "0", "12", "13", "14", "15", "16"], "rt": [14882, 576, 268, 369, 212], "actions": ["right", "right", "right", "up", "up"], "actionTimes": [18035, 19147, 19954, 20859, 21602], "queries": {"click": {"state": {"target": ["1", "2", "3", "4", "7"], "time": [5288, 7655, 10225, 12377, 14751]}, "edge": {"target": [], "time": []}}, "mouseover": {"state": {"target": ["1", "2", "3", "4", "7", "7"], "time": [4931, 7381, 9680, 11242, 13118, 14360]}, "edge": {"target": [], "time": []}}, "mouseout": {"state": {"target": ["0", "1", "2", "2", "3", "3", "4", "7", "7"], "time": [2613, 6317, 8230, 9530, 10835, 11071, 13003, 13402, 15013]}, "edge": {"target": [], "time": []}}}, "displayed_time": "22.14", "trialTime": 23938, "trial_type": "mouselab-mdp", "trial_index": 16, "time_elapsed": 490779, "internal_node_id": "0.0-6.0-1.0-7.0"}}, {"uniqueid": "w75641843:a90656673", "current_trial": 17, "dateTime": 1693565295991, "trialdata": {"revealed_states": [], "clicked_states": ["12", "13", "14"], "num_clicks_accrued": [0, 0, 0, 0, 0, 0, 0, 0, 0, 0, 0, 0, 0], "stateRewards": ["", 1, 1, -7, -9, -44, 24, -83, -15, 44, -24, 72, -2, -3, 4, -5, 57, 55, 29, -11, 22, 12, -25, -1, 2, 7, 12, 33, -8, 47, -4, 8, 50, -4], "withholdReward": false, "trial_id": "mdp_trial_9", "block": "test", "trialIndex": 10, "score": 7.800000000000001, "costs": -4.199999999999999, "simulationMode": [null, null, null, null, null], "rewards": [-1, 2, 7, -4, 8], "path": ["0", "0", "23", "24", "25", "30", "31"], "rt": [8641, 255, 165, 401, 440], "actions": ["left", "left", "left", "down", "right"], "actionTimes": [12166, 12980, 13660, 14580, 15533], "queries": {"click": {"state": {"target": ["12", "13", "14"], "time": [5224, 7377, 9497]}, "edge": {"target": [], "time": []}}, "mouseover": {"state": {"target": ["12", "13", "14", "22"], "time": [4756, 6236, 7798, 9918]}, "edge": {"target": [], "time": []}}, "mouseout": {"state": {"target": ["1", "12", "13", "14"], "time": [2704, 6050, 7657, 9832]}, "edge": {"target": [], "time": []}}}, "displayed_time": "17.53", "trialTime": 19284, "trial_type": "mouselab-mdp", "trial_index": 17, "time_elapsed": 510500, "internal_node_id": "0.0-6.0-1.0-8.0"}}, {"uniqueid": "w75641843:a90656673", "current_trial": 18, "dateTime": 1693565318319, "trialdata": {"revealed_states": [], "clicked_states": ["2", "3", "4", "5"], "num_clicks_accrued": [0, 0, 0, 0, 0, 0, 0, 0, 0, 0, 0, 0, 0], "stateRewards": ["", -1, 4, 3, 12, -27, 34, -33, 3, -63, 1, 6, 2, 2, -6, -11, -77, -85, 68, -6, 51, 81, -60, -2, -2, 1, 15, 20, 15, 68, -10, -14, 6, -4], "withholdReward": false, "trial_id": "mdp_trial_10", "block": "test", "trialIndex": 11, "score": -22.6, "costs": -5.6, "simulationMode": [null, null, null, null, null], "rewards": [-2, -2, 1, -10, -4], "path": ["0", "0", "23", "24", "25", "30", "33"], "rt": [13078, 503, 242, 407, 432], "actions": ["left", "left", "left", "down", "left"], "actionTimes": [15881, 16928, 17704, 18632, 19600], "queries": {"click": {"state": {"target": ["2", "3", "4", "5"], "time": [4735, 6854, 9509, 11710]}, "edge": {"target": [], "time": []}}, "mouseover": {"state": {"target": ["1", "2", "3", "1", "4", "5", "7"], "time": [4078, 4313, 5660, 7665, 9212, 9913, 12564]}, "edge": {"target": [], "time": []}}, "mouseout": {"state": {"target": ["22", "12", "0", "1", "2", "3", "2", "1", "2", "4", "5", "4", "7"], "time": [1732, 2045, 2110, 4178, 5515, 7391, 7626, 8894, 8944, 9717, 12384, 12532, 13077]}, "edge": {"target": [], "time": []}}}, "displayed_time": "20.11", "trialTime": 21888, "trial_type": "mouselab-mdp", "trial_index": 18, "time_elapsed": 532828, "internal_node_id": "0.0-6.0-1.0-9.0"}}, {"uniqueid": "w75641843:a90656673", "current_trial": 19, "dateTime": 1693565340255, "trialdata": {"revealed_states": [], "clicked_states": ["23", "24", "25", "26", "27"], "num_clicks_accrued": [0, 0, 0, 0, 0, 0, 0, 0, 0, 0, 0, 0, 0], "stateRewards": ["", -2, 4, -5, -12, 85, -24, -18, -15, -78, -22, 26, -1, -1, 2, 14, -45, 52, -23, 7, -33, 24, -6, -2, -4, 5, -7, -16, 36, -39, 5, 71, -87, -23], "withholdReward": false, "trial_id": "mdp_trial_11", "block": "test", "trialIndex": 12, "score": 24, "costs": -7, "simulationMode": [null, null, null, null, null], "rewards": [-1, -1, 2, 7, 24], "path": ["0", "0", "12", "13", "14", "19", "21"], "rt": [13357, 147, 182, 388, 407], "actions": ["right", "right", "right", "down", "down"], "actionTimes": [15958, 16623, 17325, 18253, 19198], "queries": {"click": {"state": {"target": ["23", "24", "25", "26", "27"], "time": [3714, 5771, 7819, 9946, 12068]}, "edge": {"target": [], "time": []}}, "mouseover": {"state": {"target": ["23", "24", "25", "26", "27", "28", "23"], "time": [3422, 3908, 6232, 8218, 10446, 12442, 14237]}, "edge": {"target": [], "time": []}}, "mouseout": {"state": {"target": ["1", "23", "24", "25", "26", "27", "28", "23"], "time": [1754, 3876, 6171, 8075, 10234, 12328, 12532, 14286]}, "edge": {"target": [], "time": []}}}, "displayed_time": "19.74", "trialTime": 21485, "trial_type": "mouselab-mdp", "trial_index": 19, "time_elapsed": 554763, "internal_node_id": "0.0-6.0-1.0-10.0"}}, {"uniqueid": "w75641843:a90656673", "current_trial": 20, "dateTime": 1693565359982, "trialdata": {"revealed_states": [], "clicked_states": [], "num_clicks_accrued": [0, 0, 0, 0, 0, 0, 0, 0, 0, 0, 0, 0, 0], "stateRewards": ["", -2, -1, -1, 5, -54, -87, 35, 2, -8, 20, -22, 1, 3, 6, 13, -75, -32, -55, -3, 56, 62, -22, -1, -4, -1, -7, -51, 84, 70, 7, -15, 5, 55], "withholdReward": false, "trial_id": "mdp_trial_12", "block": "test", "trialIndex": 13, "score": -9, "costs": 0, "simulationMode": [null, null, null, null, null], "rewards": [1, 3, 6, 13, -32], "path": ["0", "0", "12", "13", "14", "15", "17"], "rt": [2286, 240, 150, 924, 666], "actions": ["right", "right", "right", "up", "right"], "actionTimes": [5532, 6300, 6988, 8444, 9628], "queries": {"click": {"state": {"target": [], "time": []}, "edge": {"target": [], "time": []}}, "mouseover": {"state": {"target": [], "time": []}, "edge": {"target": [], "time": []}}, "mouseout": {"state": {"target": ["0"], "time": [2015]}, "edge": {"target": [], "time": []}}}, "displayed_time": "17.25", "trialTime": 19276, "trial_type": "mouselab-mdp", "trial_index": 20, "time_elapsed": 574490, "internal_node_id": "0.0-6.0-1.0-11.0"}}, {"uniqueid": "w75641843:a90656673", "current_trial": 21, "dateTime": 1693565380830, "trialdata": {"revealed_states": [], "clicked_states": ["1", "2", "3", "8", "9"], "num_clicks_accrued": [0, 0, 0, 0, 0, 0, 0, 0, 0, 0, 0, 0, 0], "stateRewards": ["", -2, 3, 3, -14, 62, 36, 49, 16, 11, 17, -84, 2, -1, 6, 2, -82, -73, 49, -6, -87, 48, 50, -1, -2, -1, -16, -11, 37, -44, 4, 55, 73, -10], "withholdReward": false, "trial_id": "mdp_trial_13", "block": "test", "trialIndex": 14, "score": 24, "costs": -7, "simulationMode": [null, null, null, null, null], "rewards": [-2, 3, 3, 16, 11], "path": ["0", "0", "1", "2", "3", "8", "9"], "rt": [12497, 180, 216, 169, 336], "actions": ["up", "up", "up", "left", "up"], "actionTimes": [14445, 15157, 15901, 16613, 17461], "queries": {"click": {"state": {"target": ["1", "2", "3", "8", "9"], "time": [3275, 5369, 7299, 9346, 11612]}, "edge": {"target": [], "time": []}}, "mouseover": {"state": {"target": ["1", "2", "3", "4", "11", "8", "10", "9", "10"], "time": [2845, 3652, 5694, 7788, 8369, 8462, 10147, 10848, 12031]}, "edge": {"target": [], "time": []}}, "mouseout": {"state": {"target": ["0", "1", "2", "3", "4", "11", "8", "10", "8", "9", "8", "10"], "time": [1578, 3512, 5606, 7617, 8029, 8401, 10029, 10474, 10583, 11903, 11999, 12127]}, "edge": {"target": [], "time": []}}}, "displayed_time": "18.00", "trialTime": 20389, "trial_type": "mouselab-mdp", "trial_index": 21, "time_elapsed": 595338, "internal_node_id": "0.0-6.0-1.0-12.0"}}, {"uniqueid": "w75641843:a90656673", "current_trial": 22, "dateTime": 1693565402022, "trialdata": {"revealed_states": [], "clicked_states": ["12", "13", "14", "15"], "num_clicks_accrued": [0, 0, 0, 0, 0, 0, 0, 0, 0, 0, 0, 0, 0], "stateRewards": ["", -1, 1, 8, -8, -49, 62, -78, 16, 28, -81, 78, -2, -3, -1, -4, 67, 49, -2, -13, -16, -39, 83, 1, -4, 4, -5, -20, 7, 84, 7, -32, -59, 19], "withholdReward": false, "trial_id": "mdp_trial_14", "block": "test", "trialIndex": 15, "score": 21.4, "costs": -5.6, "simulationMode": [null, null, null, null, null], "rewards": [1, -4, 4, 7, 19], "path": ["0", "0", "23", "24", "25", "30", "33"], "rt": [11937, 370, 232, 425, 547], "actions": ["left", "left", "left", "down", "left"], "actionTimes": [14505, 15417, 16161, 17105, 18193], "queries": {"click": {"state": {"target": ["12", "13", "14", "15"], "time": [4359, 6441, 8534, 11133]}, "edge": {"target": [], "time": []}}, "mouseover": {"state": {"target": ["12", "13", "14", "14", "15", "13", "12"], "time": [3958, 5362, 6663, 7024, 10858, 12775, 12957]}, "edge": {"target": [], "time": []}}, "mouseout": {"state": {"target": ["12", "13", "14", "14", "15", "13", "12"], "time": [5031, 6630, 6830, 10758, 11574, 12857, 13097]}, "edge": {"target": [], "time": []}}}, "displayed_time": "18.74", "trialTime": 20713, "trial_type": "mouselab-mdp", "trial_index": 22, "time_elapsed": 616530, "internal_node_id": "0.0-6.0-1.0-13.0"}}, {"uniqueid": "w75641843:a90656673", "current_trial": 23, "dateTime": 1693565429352, "trialdata": {"revealed_states": [], "clicked_states": ["23", "24", "25", "26", "27"], "num_clicks_accrued": [0, 0, 0, 0, 0, 0, 0, 0, 0, 0, 0, 0, 0], "stateRewards": ["", -2, 1, -3, -16, -39, -52, 30, -7, -41, -59, 11, 2, 1, 8, 2, -11, -26, -42, -13, 87, -59, -48, -1, -1, -1, 16, -79, 31, 50, -1, -84, 34, -82], "withholdReward": false, "trial_id": "mdp_trial_15", "block": "test", "trialIndex": 16, "score": 78, "costs": -7, "simulationMode": [null, null, null, null, null], "rewards": [2, 1, 8, -13, 87], "path": ["0", "0", "12", "13", "14", "19", "20"], "rt": [15285, 1093, 314, 612, 444], "actions": ["right", "right", "right", "down", "right"], "actionTimes": [18936, 20560, 21392, 22520, 23504], "queries": {"click": {"state": {"target": ["23", "24", "25", "26", "27"], "time": [5318, 7383, 9829, 12822, 15702]}, "edge": {"target": [], "time": []}}, "mouseover": {"state": {"target": ["23", "24", "25", "26", "27"], "time": [5006, 5522, 7651, 10100, 15105]}, "edge": {"target": [], "time": []}}, "mouseout": {"state": {"target": ["0", "23", "24", "25", "26", "26", "26", "27"], "time": [2453, 5481, 7618, 10037, 12952, 13732, 14854, 15930]}, "edge": {"target": [], "time": []}}}, "displayed_time": "24.02", "trialTime": 26841, "trial_type": "mouselab-mdp", "trial_index": 23, "time_elapsed": 643860, "internal_node_id": "0.0-6.0-1.0-14.0"}}, {"uniqueid": "w75641843:a90656673", "current_trial": 24, "dateTime": 1693565452815, "trialdata": {"revealed_states": [], "clicked_states": ["12", "14", "20", "22", "21"], "num_clicks_accrued": [0, 0, 0, 0, 0, 0, 0, 0, 0, 0, 0, 0, 0], "stateRewards": ["", 1, 1, 6, -14, -40, 37, 16, -13, 33, -68, 49, 2, 4, 3, 6, 55, 27, 32, 10, -65, 20, -87, 2, 1, -6, -5, -42, 12, 29, -8, 16, 76, -33], "withholdReward": false, "trial_id": "mdp_trial_16", "block": "test", "trialIndex": 17, "score": 21, "costs": -7, "simulationMode": [null, null, null, null, null], "rewards": [1, 1, 6, -13, 33], "path": ["0", "0", "1", "2", "3", "8", "9"], "rt": [13728, 1065, 76, 800, 374], "actions": ["up", "up", "up", "left", "up"], "actionTimes": [16198, 17798, 18414, 19750, 20662], "queries": {"click": {"state": {"target": ["12", "14", "20", "22", "21"], "time": [4163, 6339, 8819, 11196, 13324]}, "edge": {"target": [], "time": []}}, "mouseover": {"state": {"target": ["12", "13", "14", "20", "19", "22", "21", "21"], "time": [3813, 4483, 4826, 8512, 9088, 9208, 11871, 12276]}, "edge": {"target": [], "time": []}}, "mouseout": {"state": {"target": ["12", "13", "14", "20", "19", "22", "21", "21"], "time": [4421, 4655, 8468, 9029, 9176, 11786, 11930, 13552]}, "edge": {"target": [], "time": []}}}, "displayed_time": "21.21", "trialTime": 23014, "trial_type": "mouselab-mdp", "trial_index": 24, "time_elapsed": 667323, "internal_node_id": "0.0-6.0-1.0-15.0"}}, {"uniqueid": "w75641843:a90656673", "current_trial": 25, "dateTime": 1693565479039, "trialdata": {"revealed_states": [], "clicked_states": ["12", "14", "17", "16", "18"], "num_clicks_accrued": [0, 0, 0, 0, 0, 0, 0, 0, 0, 0, 0, 0, 0], "stateRewards": ["", 1, 1, 5, 6, -29, -7, 3, -16, 9, -46, 65, -1, 4, -1, -16, -63, -77, -87, 8, 80, -50, 43, -1, -1, -5, 5, -38, -71, -62, 9, 81, -50, -52], "withholdReward": false, "trial_id": "mdp_trial_17", "block": "test", "trialIndex": 18, "score": 76, "costs": -7, "simulationMode": [null, null, null, null, null], "rewards": [-1, -1, -5, 9, 81], "path": ["0", "0", "23", "24", "25", "30", "31"], "rt": [14420, 405, 249, 491, 497], "actions": ["left", "left", "left", "down", "right"], "actionTimes": [18370, 19314, 20091, 21098, 22130], "queries": {"click": {"state": {"target": ["12", "14", "17", "16", "18"], "time": [5535, 7958, 10000, 12504, 14615]}, "edge": {"target": [], "time": []}}, "mouseover": {"state": {"target": ["12", "13", "14", "19", "20", "17", "15", "16", "18", "13"], "time": [5001, 6456, 7667, 8404, 9062, 9543, 11058, 12117, 13154, 15209]}, "edge": {"target": [], "time": []}}, "mouseout": {"state": {"target": ["0", "12", "13", "14", "19", "20", "17", "15", "16", "18", "13"], "time": [4869, 6287, 7585, 8226, 8860, 9141, 10915, 11984, 12696, 15121, 15242]}, "edge": {"target": [], "time": []}}}, "displayed_time": "22.68", "trialTime": 25762, "trial_type": "mouselab-mdp", "trial_index": 25, "time_elapsed": 693547, "internal_node_id": "0.0-6.0-1.0-16.0"}}, {"uniqueid": "w75641843:a90656673", "current_trial": 26, "dateTime": 1693565501879, "trialdata": {"revealed_states": [], "clicked_states": ["1", "2", "3", "4", "6"], "num_clicks_accrued": [0, 0, 0, 0, 0, 0, 0, 0, 0, 0, 0, 0, 0], "stateRewards": ["", -1, 1, -1, 2, 19, 85, -18, 2, -3, -26, 36, 2, 4, 7, -9, -18, 70, 72, -5, 35, -20, -28, 1, -2, -4, -3, -59, -11, -63, -2, -72, 59, -69], "withholdReward": false, "trial_id": "mdp_trial_18", "block": "test", "trialIndex": 19, "score": 79, "costs": -7, "simulationMode": [null, null, null, null, null], "rewards": [-1, 1, -1, 2, 85], "path": ["0", "0", "1", "2", "3", "4", "6"], "rt": [13213, 577, 163, 225, 146], "actions": ["up", "up", "up", "right", "right"], "actionTimes": [15985, 17097, 17801, 18569, 19257], "queries": {"click": {"state": {"target": ["1", "2", "3", "4", "6"], "time": [5062, 7087, 9190, 11202, 13567]}, "edge": {"target": [], "time": []}}, "mouseover": {"state": {"target": ["1", "2", "3", "4", "6", "6"], "time": [4784, 5395, 7381, 10122, 12064, 12266]}, "edge": {"target": [], "time": []}}, "mouseout": {"state": {"target": ["0", "1", "2", "3", "4", "6", "6"], "time": [2249, 5288, 7318, 9954, 11978, 12151, 13981]}, "edge": {"target": [], "time": []}}}, "displayed_time": "19.78", "trialTime": 22385, "trial_type": "mouselab-mdp", "trial_index": 26, "time_elapsed": 716388, "internal_node_id": "0.0-6.0-1.0-17.0"}}, {"uniqueid": "w75641843:a90656673", "current_trial": 27, "dateTime": 1693565526159, "trialdata": {"revealed_states": [], "clicked_states": ["11", "10", "9", "1"], "num_clicks_accrued": [0, 0, 0, 0, 0, 0, 0, 0, 0, 0, 0, 0, 0], "stateRewards": ["", -2, -1, -3, -1, -78, -6, 2, -1, 22, -88, 32, 2, 2, -7, -8, -51, -17, 54, 2, -44, 54, 75, 2, -2, -8, -15, -29, 12, -67, 15, -1, -47, -47], "withholdReward": false, "trial_id": "mdp_trial_19", "block": "test", "trialIndex": 20, "score": 19.4, "costs": -5.6, "simulationMode": [null, null, null, null, null], "rewards": [-2, -1, -3, -1, 32], "path": ["0", "0", "1", "2", "3", "8", "11"], "rt": [12003, 161, 142, 148, 566], "actions": ["up", "up", "up", "left", "left"], "actionTimes": [17610, 18298, 18978, 19658, 20747], "queries": {"click": {"state": {"target": ["11", "10", "9", "1"], "time": [7657, 9801, 11864, 14672]}, "edge": {"target": [], "time": []}}, "mouseover": {"state": {"target": ["1", "4", "6", "4", "3", "8", "11", "10", "8", "9", "2", "1"], "time": [6217, 6300, 6767, 6800, 6868, 6977, 7049, 8576, 10043, 10192, 12971, 13255]}, "edge": {"target": [], "time": []}}, "mouseout": {"state": {"target": ["1", "1", "4", "6", "4", "3", "8", "11", "10", "8", "9", "2", "1"], "time": [933, 6245, 6334, 6795, 6832, 6950, 7004, 8326, 10012, 10105, 12686, 13142, 15659]}, "edge": {"target": [], "time": []}}}, "displayed_time": "21.29", "trialTime": 23818, "trial_type": "mouselab-mdp", "trial_index": 27, "time_elapsed": 740667, "internal_node_id": "0.0-6.0-1.0-18.0"}}, {"uniqueid": "w75641843:a90656673", "current_trial": 28, "dateTime": 1693565549319, "trialdata": {"revealed_states": [], "clicked_states": ["25", "28", "27", "29"], "num_clicks_accrued": [0, 0, 0, 0, 0, 0, 0, 0, 0, 0, 0, 0, 0], "stateRewards": ["", 1, -1, 8, -3, 38, 85, -20, -4, 8, 23, 73, 2, -4, 6, -13, 44, 7, -28, -11, -77, 45, -69, 1, -1, -7, -11, 75, -51, -87, 7, 36, -53, -26], "withholdReward": false, "trial_id": "mdp_trial_20", "block": "test", "trialIndex": 21, "score": 51.4, "costs": -5.6, "simulationMode": [null, null, null, null, null], "rewards": [1, -1, -7, -11, 75], "path": ["0", "0", "23", "24", "25", "26", "27"], "rt": [11242, 40, 246, 310, 183], "actions": ["left", "left", "left", "up", "up"], "actionTimes": [15709, 16268, 17053, 17909, 18621], "queries": {"click": {"state": {"target": ["25", "28", "27", "29"], "time": [7124, 9210, 11258, 13426]}, "edge": {"target": [], "time": []}}, "mouseover": {"state": {"target": ["0", "23", "24", "25", "28", "26", "27", "26", "29"], "time": [5838, 5896, 5929, 6105, 7579, 9511, 9659, 11666, 11816]}, "edge": {"target": [], "time": []}}, "mouseout": {"state": {"target": ["0", "23", "24", "25", "28", "26", "27", "26"], "time": [5869, 5925, 6072, 7354, 9478, 9543, 11574, 11714]}, "edge": {"target": [], "time": []}}}, "displayed_time": "19.16", "trialTime": 22685, "trial_type": "mouselab-mdp", "trial_index": 28, "time_elapsed": 763827, "internal_node_id": "0.0-6.0-1.0-19.0"}}, {"uniqueid": "w75641843:a90656673", "current_trial": 29, "dateTime": 1693565570263, "trialdata": {"revealed_states": [], "clicked_states": ["16", "17", "14", "18"], "num_clicks_accrued": [0, 0, 0, 0, 0, 0, 0, 0, 0, 0, 0, 0, 0], "stateRewards": ["", -2, -1, 3, -3, 71, -58, -21, 7, -10, -75, -37, 2, 4, -1, -12, -79, -29, -48, 3, -41, -10, -30, -1, -2, 1, -15, 13, 66, 22, -1, -42, -86, -55], "withholdReward": false, "trial_id": "mdp_trial_21", "block": "test", "trialIndex": 22, "score": -63.6, "costs": -5.6, "simulationMode": [null, null, null, null, null], "rewards": [-1, -2, 1, -1, -55], "path": ["0", "0", "23", "24", "25", "30", "33"], "rt": [10658, 267, 268, 384, 611], "actions": ["left", "left", "left", "down", "left"], "actionTimes": [13396, 14204, 15012, 15932, 17084], "queries": {"click": {"state": {"target": ["16", "17", "14", "18"], "time": [4441, 6529, 8505, 10609]}, "edge": {"target": [], "time": []}}, "mouseover": {"state": {"target": ["18", "16", "17", "14", "18"], "time": [3732, 4066, 5204, 6954, 8963]}, "edge": {"target": [], "time": []}}, "mouseout": {"state": {"target": ["29", "26", "24", "23", "0", "18", "16", "17", "14", "18"], "time": [1715, 1748, 1782, 1815, 3516, 3800, 5005, 6839, 8760, 11314]}, "edge": {"target": [], "time": []}}}, "displayed_time": "17.62", "trialTime": 20476, "trial_type": "mouselab-mdp", "trial_index": 29, "time_elapsed": 784771, "internal_node_id": "0.0-6.0-1.0-20.0"}}, {"uniqueid": "w75641843:a90656673", "current_trial": 30, "dateTime": 1693565595959, "trialdata": {"revealed_states": [], "clicked_states": ["23", "28", "27", "29"], "num_clicks_accrued": [0, 0, 0, 0, 0, 0, 0, 0, 0, 0, 0, 0, 0], "stateRewards": ["", 2, 4, 4, -8, -36, -33, 38, 16, -51, 57, 57, 1, 3, 4, -6, 45, 68, 87, 1, 63, 24, -55, -2, 2, -6, -13, -63, -50, 8, 2, 80, 6, 60], "withholdReward": false, "trial_id": "mdp_trial_22", "block": "test", "trialIndex": 23, "score": 66.4, "costs": -5.6, "simulationMode": [null, null, null, null, null], "rewards": [1, 3, 4, 1, 63], "path": ["0", "0", "12", "13", "14", "19", "20"], "rt": [15448, 673, 249, 445, 479], "actions": ["right", "right", "right", "down", "right"], "actionTimes": [18681, 19889, 20656, 21625, 22625], "queries": {"click": {"state": {"target": ["23", "28", "27", "29"], "time": [5463, 8125, 10773, 13567]}, "edge": {"target": [], "time": []}}, "mouseover": {"state": {"target": ["23", "24", "25", "28", "26", "27", "29", "25", "25"], "time": [5135, 5848, 6002, 7783, 8422, 10449, 11178, 14048, 16416]}, "edge": {"target": [], "time": []}}, "mouseout": {"state": {"target": ["23", "24", "25", "28", "26", "27", "29", "29", "25", "25"], "time": [5788, 5941, 7667, 8333, 10350, 11006, 13669, 13902, 14080, 16582]}, "edge": {"target": [], "time": []}}}, "displayed_time": "23.16", "trialTime": 25224, "trial_type": "mouselab-mdp", "trial_index": 30, "time_elapsed": 810467, "internal_node_id": "0.0-6.0-1.0-21.0"}}, {"uniqueid": "w75641843:a90656673", "current_trial": 31, "dateTime": 1693565614871, "trialdata": {"revealed_states": [], "clicked_states": [], "num_clicks_accrued": [0, 0, 0, 0, 0, 0, 0, 0, 0, 0, 0, 0, 0], "stateRewards": ["", -2, 1, -7, 9, 8, 25, 61, -7, -17, 69, -81, 1, 4, -4, -11, 16, 67, 44, 3, 6, -45, -54, -2, 3, 6, -11, -15, 32, -47, 3, -39, -6, -88], "withholdReward": false, "trial_id": "mdp_trial_23", "block": "test", "trialIndex": 24, "score": -50, "costs": 0, "simulationMode": [null, null, null, null, null], "rewards": [1, 4, -4, 3, -54], "path": ["0", "0", "12", "13", "14", "19", "22"], "rt": [6982, 318, 199, 461, 469], "actions": ["right", "right", "right", "down", "left"], "actionTimes": [10198, 11062, 11790, 12750, 13758], "queries": {"click": {"state": {"target": [], "time": []}, "edge": {"target": [], "time": []}}, "mouseover": {"state": {"target": ["1", "2"], "time": [6150, 6232]}, "edge": {"target": [], "time": []}}, "mouseout": {"state": {"target": ["1", "1"], "time": [2465, 6181]}, "edge": {"target": [], "time": []}}}, "displayed_time": "17.22", "trialTime": 18438, "trial_type": "mouselab-mdp", "trial_index": 31, "time_elapsed": 829379, "internal_node_id": "0.0-6.0-1.0-22.0"}}, {"uniqueid": "w75641843:a90656673", "current_trial": 32, "dateTime": 1693565632966, "trialdata": {"revealed_states": [], "clicked_states": [], "num_clicks_accrued": [0, 0, 0, 0, 0, 0, 0, 0, 0, 0, 0, 0, 0], "stateRewards": ["", -1, 2, -2, 5, 80, -61, -27, 12, 44, -26, -75, -2, -4, 1, -16, 42, -49, -50, 4, -44, 2, 80, -2, -2, 5, -2, 59, 10, 24, 7, -48, -86, -44], "withholdReward": false, "trial_id": "mdp_trial_24", "block": "test", "trialIndex": 25, "score": -15, "costs": 0, "simulationMode": [null, null, null, null, null], "rewards": [-1, 2, -2, 12, -26], "path": ["0", "0", "1", "2", "3", "8", "10"], "rt": [6349, 241, 148, 178, 348], "actions": ["up", "up", "up", "left", "down"], "actionTimes": [8694, 9470, 10150, 10870, 11750], "queries": {"click": {"state": {"target": [], "time": []}, "edge": {"target": [], "time": []}}, "mouseover": {"state": {"target": ["1", "2", "3", "7", "6"], "time": [3863, 3978, 4296, 5195, 5829]}, "edge": {"target": [], "time": []}}, "mouseout": {"state": {"target": ["2", "1", "1", "2", "3", "7", "6"], "time": [1522, 1629, 3929, 4028, 4962, 5728, 6662]}, "edge": {"target": [], "time": []}}}, "displayed_time": "16.35", "trialTime": 17581, "trial_type": "mouselab-mdp", "trial_index": 32, "time_elapsed": 847475, "internal_node_id": "0.0-6.0-1.0-23.0"}}, {"uniqueid": "w75641843:a90656673", "current_trial": 33, "dateTime": 1693565655462, "trialdata": {"revealed_states": [], "clicked_states": ["17", "16", "18"], "num_clicks_accrued": [0, 0, 0, 0, 0, 0, 0, 0, 0, 0, 0, 0, 0], "stateRewards": ["", 1, 2, 3, 16, 63, -25, 16, -4, -14, 82, -66, -1, -3, -3, -11, -14, 19, 46, 3, -34, -82, 66, -2, -3, 4, -5, -63, 77, -37, -1, -45, -41, 84], "withholdReward": false, "trial_id": "mdp_trial_25", "block": "test", "trialIndex": 26, "score": 23.8, "costs": -4.199999999999999, "simulationMode": [null, null, null, null, null], "rewards": [-1, -3, -3, -11, 46], "path": ["0", "0", "12", "13", "14", "15", "18"], "rt": [10227, 598, 461, 404, 500], "actions": ["right", "right", "right", "up", "left"], "actionTimes": [15032, 16168, 17160, 18096, 19216], "queries": {"click": {"state": {"target": ["17", "16", "18"], "time": [6445, 8477, 10726]}, "edge": {"target": [], "time": []}}, "mouseover": {"state": {"target": ["12", "15", "17", "16", "18", "12", "12"], "time": [5214, 5308, 6108, 6737, 9293, 13307, 13590]}, "edge": {"target": [], "time": []}}, "mouseout": {"state": {"target": ["1", "0", "12", "15", "17", "16", "18", "18", "12"], "time": [4040, 5182, 5242, 5625, 6617, 8852, 10807, 11050, 13541]}, "edge": {"target": [], "time": []}}}, "displayed_time": "19.74", "trialTime": 21992, "trial_type": "mouselab-mdp", "trial_index": 33, "time_elapsed": 869971, "internal_node_id": "0.0-6.0-1.0-24.0"}}, {"uniqueid": "w75641843:a90656673", "current_trial": 34, "dateTime": 1693565678183, "trialdata": {"revealed_states": [], "clicked_states": ["31", "32", "33"], "num_clicks_accrued": [0, 0, 0, 0, 0, 0, 0, 0, 0, 0, 0, 0, 0], "stateRewards": ["", -2, -1, -6, -14, -55, 78, -13, 11, 14, -71, 59, 2, 2, 6, -6, 9, 38, 14, 7, 85, 11, 68, 1, -4, -1, -3, -63, -85, 9, -2, 63, -86, -10], "withholdReward": false, "trial_id": "mdp_trial_26", "block": "test", "trialIndex": 27, "score": 52.8, "costs": -4.199999999999999, "simulationMode": [null, null, null, null, null], "rewards": [1, -4, -1, -2, 63], "path": ["0", "0", "23", "24", "25", "30", "31"], "rt": [8976, 273, 320, 493, 598], "actions": ["left", "left", "left", "down", "right"], "actionTimes": [13713, 14521, 15369, 16385, 17529], "queries": {"click": {"state": {"target": ["31", "32", "33"], "time": [6671, 9174, 11367]}, "edge": {"target": [], "time": []}}, "mouseover": {"state": {"target": ["23", "31", "31", "32", "33", "31"], "time": [5816, 5964, 6165, 8864, 9817, 11715]}, "edge": {"target": [], "time": []}}, "mouseout": {"state": {"target": ["12", "23", "31", "31", "32", "33", "31"], "time": [3730, 5845, 6031, 7166, 9336, 11667, 11761]}, "edge": {"target": [], "time": []}}}, "displayed_time": "18.74", "trialTime": 22137, "trial_type": "mouselab-mdp", "trial_index": 34, "time_elapsed": 892691, "internal_node_id": "0.0-6.0-1.0-25.0"}}, {"uniqueid": "w75641843:a90656673", "current_trial": 35, "dateTime": 1693565699911, "trialdata": {"revealed_states": [], "clicked_states": ["28", "27", "29"], "num_clicks_accrued": [0, 0, 0, 0, 0, 0, 0, 0, 0, 0, 0, 0, 0], "stateRewards": ["", -1, 4, -3, 3, 57, -61, 5, -11, 23, -1, 34, -2, -4, -1, -13, 27, 38, -36, 4, -45, 21, 88, 1, -2, -1, 1, -69, -5, -78, -12, -9, 38, -54], "withholdReward": false, "trial_id": "mdp_trial_27", "block": "test", "trialIndex": 28, "score": 13.8, "costs": -4.199999999999999, "simulationMode": [null, null, null, null, null], "rewards": [-2, -4, -1, 4, 21], "path": ["0", "0", "12", "13", "14", "19", "21"], "rt": [12834, 433, 351, 1110, 410], "actions": ["right", "right", "right", "down", "down"], "actionTimes": [14995, 15955, 16827, 18459, 19403], "queries": {"click": {"state": {"target": ["28", "27", "29"], "time": [4528, 6536, 8561]}, "edge": {"target": [], "time": []}}, "mouseover": {"state": {"target": ["23", "24", "28", "27", "29", "25", "24", "23", "0", "12", "12"], "time": [3742, 3853, 4141, 5091, 7605, 9020, 11919, 12123, 12236, 12373, 12789]}, "edge": {"target": [], "time": []}}, "mouseout": {"state": {"target": ["0", "23", "24", "28", "27", "29", "25", "24", "23", "0", "12", "12"], "time": [3708, 3823, 3890, 4849, 6870, 8848, 11890, 11948, 12207, 12322, 12489, 13289]}, "edge": {"target": [], "time": []}}}, "displayed_time": "19.93", "trialTime": 21243, "trial_type": "mouselab-mdp", "trial_index": 35, "time_elapsed": 914419, "internal_node_id": "0.0-6.0-1.0-26.0"}}, {"uniqueid": "w75641843:a90656673", "current_trial": 36, "dateTime": 1693565718255, "trialdata": {"revealed_states": [], "clicked_states": ["7", "6", "5", "3"], "num_clicks_accrued": [0, 0, 0, 0, 0, 0, 0, 0, 0, 0, 0, 0, 0], "stateRewards": ["", 2, -3, -5, 5, 11, -9, -33, 6, 67, 6, -30, -1, -2, -6, 13, 55, 13, 72, -14, 75, 21, -66, -2, -4, 6, 15, -1, -35, 60, 2, 51, -73, 12], "withholdReward": false, "trial_id": "mdp_trial_28", "block": "test", "trialIndex": 29, "score": 53.4, "costs": -5.6, "simulationMode": [null, null, null, null, null], "rewards": [-1, -2, -6, 13, 55], "path": ["0", "0", "12", "13", "14", "15", "16"], "rt": [11020, 153, 157, 263, 87], "actions": ["right", "right", "right", "up", "up"], "actionTimes": [12927, 13631, 14311, 15111, 15743], "queries": {"click": {"state": {"target": ["7", "6", "5", "3"], "time": [3382, 5381, 7453, 10443]}, "edge": {"target": [], "time": []}}, "mouseover": {"state": {"target": ["7", "6", "5", "3"], "time": [2882, 3956, 5893, 9982]}, "edge": {"target": [], "time": []}}, "mouseout": {"state": {"target": ["12", "7", "6", "5", "3"], "time": [1031, 3627, 5568, 7921, 11136]}, "edge": {"target": [], "time": []}}}, "displayed_time": "16.29", "trialTime": 17847, "trial_type": "mouselab-mdp", "trial_index": 36, "time_elapsed": 932763, "internal_node_id": "0.0-6.0-1.0-27.0"}}, {"uniqueid": "w75641843:a90656673", "current_trial": 37, "dateTime": 1693565735823, "trialdata": {"revealed_states": [], "clicked_states": [], "num_clicks_accrued": [0, 0, 0, 0, 0, 0, 0, 0, 0, 0, 0, 0, 0], "stateRewards": ["", 1, -2, -8, -3, 31, -84, -55, -14, 15, -58, 17, -2, -3, 7, 7, -12, 48, 67, 4, -44, -68, 46, 2, 3, -5, -7, 76, 27, 5, 11, 57, 52, 59], "withholdReward": false, "trial_id": "mdp_trial_29", "block": "test", "trialIndex": 30, "score": -38, "costs": 0, "simulationMode": [null, null, null, null, null], "rewards": [-2, -3, 7, 4, -44], "path": ["0", "0", "12", "13", "14", "19", "20"], "rt": [5853, 148, 229, 333, 315], "actions": ["right", "right", "right", "down", "right"], "actionTimes": [7644, 8324, 9084, 9940, 10764], "queries": {"click": {"state": {"target": [], "time": []}, "edge": {"target": [], "time": []}}, "mouseover": {"state": {"target": ["12", "13", "14", "17", "14"], "time": [3216, 3399, 3800, 4299, 5248]}, "edge": {"target": [], "time": []}}, "mouseout": {"state": {"target": ["2", "1", "12", "13", "14", "17"], "time": [965, 1115, 3282, 3499, 4165, 5033]}, "edge": {"target": [], "time": []}}}, "displayed_time": "15.79", "trialTime": 17084, "trial_type": "mouselab-mdp", "trial_index": 37, "time_elapsed": 950331, "internal_node_id": "0.0-6.0-1.0-28.0"}}, {"uniqueid": "w75641843:a90656673", "current_trial": 38, "dateTime": 1693565757687, "trialdata": {"revealed_states": [], "clicked_states": ["31", "32", "33", "24"], "num_clicks_accrued": [0, 0, 0, 0, 0, 0, 0, 0, 0, 0, 0, 0, 0], "stateRewards": ["", -2, -3, -5, 8, 27, 11, 43, -6, -24, -87, 69, -2, 1, 1, 9, 19, 48, -37, 9, -14, 45, 62, 1, 2, 1, 16, -81, -41, 22, 4, -6, -63, 47], "withholdReward": false, "trial_id": "mdp_trial_30", "block": "test", "trialIndex": 31, "score": 49.4, "costs": -5.6, "simulationMode": [null, null, null, null, null], "rewards": [1, 2, 1, 4, 47], "path": ["0", "0", "23", "24", "25", "30", "33"], "rt": [12870, 88, 402, 365, 576], "actions": ["left", "left", "left", "down", "left"], "actionTimes": [14809, 15441, 16369, 17257, 18370], "queries": {"click": {"state": {"target": ["31", "32", "33", "24"], "time": [3102, 5263, 7358, 11149]}, "edge": {"target": [], "time": []}}, "mouseover": {"state": {"target": ["0", "31", "32", "33", "33", "25", "28", "23", "24"], "time": [2429, 2760, 4057, 5486, 5778, 9060, 10060, 10475, 10976]}, "edge": {"target": [], "time": []}}, "mouseout": {"state": {"target": ["14", "13", "12", "0", "31", "31", "32", "33", "33", "25", "28", "23", "24", "24"], "time": [942, 992, 1125, 2459, 3290, 3733, 5373, 5519, 8679, 9909, 10275, 10827, 11280, 11394]}, "edge": {"target": [], "time": []}}}, "displayed_time": "18.90", "trialTime": 21377, "trial_type": "mouselab-mdp", "trial_index": 38, "time_elapsed": 972195, "internal_node_id": "0.0-6.0-1.0-29.0"}}, {"uniqueid": "w75641843:a90656673", "current_trial": 39, "dateTime": 1693565778719, "trialdata": {"revealed_states": [], "clicked_states": ["17", "16", "18", "13"], "num_clicks_accrued": [0, 0, 0, 0, 0, 0, 0, 0, 0, 0, 0, 0, 0], "stateRewards": ["", -1, 3, 1, -7, 56, 76, 57, 3, 11, -9, 14, 1, -2, 2, 8, -77, -3, 79, -5, 88, 24, -66, -2, -1, 7, -7, -30, 14, -76, 11, -36, 28, -6], "withholdReward": false, "trial_id": "mdp_trial_31", "block": "test", "trialIndex": 32, "score": 82.4, "costs": -5.6, "simulationMode": [null, null, null, null, null], "rewards": [1, -2, 2, 8, 79], "path": ["0", "0", "12", "13", "14", "15", "18"], "rt": [13100, 307, 173, 299, 346], "actions": ["right", "right", "right", "up", "left"], "actionTimes": [14871, 15711, 16431, 17279, 18159], "queries": {"click": {"state": {"target": ["17", "16", "18", "13"], "time": [4254, 7300, 9517, 12091]}, "edge": {"target": [], "time": []}}, "mouseover": {"state": {"target": ["13", "14", "17", "14", "15", "16", "18", "13"], "time": [3568, 3627, 3917, 6701, 6928, 6995, 7721, 10101]}, "edge": {"target": [], "time": []}}, "mouseout": {"state": {"target": ["0", "13", "14", "17", "14", "15", "16", "16", "18"], "time": [1900, 3597, 3684, 5020, 6900, 6967, 7405, 7545, 10012]}, "edge": {"target": [], "time": []}}}, "displayed_time": "18.71", "trialTime": 20535, "trial_type": "mouselab-mdp", "trial_index": 39, "time_elapsed": 993227, "internal_node_id": "0.0-6.0-1.0-30.0"}}, {"uniqueid": "w75641843:a90656673", "current_trial": 40, "dateTime": 1693565798247, "trialdata": {"revealed_states": [], "clicked_states": ["14", "18", "16", "17"], "num_clicks_accrued": [0, 0, 0, 0, 0, 0, 0, 0, 0, 0, 0, 0, 0], "stateRewards": ["", 2, 4, -3, 16, -58, 30, -35, 11, -60, 47, 27, -2, -1, -7, -16, 23, -70, 68, -10, -65, -43, -34, -2, 1, 7, 9, -63, 34, -31, -8, -12, -86, 59], "withholdReward": false, "trial_id": "mdp_trial_32", "block": "test", "trialIndex": 33, "score": 36.4, "costs": -5.6, "simulationMode": [null, null, null, null, null], "rewards": [-2, -1, -7, -16, 68], "path": ["0", "0", "12", "13", "14", "15", "18"], "rt": [11798, 154, 144, 343, 518], "actions": ["right", "right", "right", "up", "left"], "actionTimes": [14006, 14686, 15358, 16228, 17270], "queries": {"click": {"state": {"target": ["14", "18", "16", "17"], "time": [5197, 7292, 9483, 11653]}, "edge": {"target": [], "time": []}}, "mouseover": {"state": {"target": ["13", "14", "18", "16", "17"], "time": [4426, 4708, 5589, 7755, 9895]}, "edge": {"target": [], "time": []}}, "mouseout": {"state": {"target": ["13", "12", "13", "14", "18", "16", "17"], "time": [1441, 1539, 4557, 5438, 7559, 9724, 12249]}, "edge": {"target": [], "time": []}}}, "displayed_time": "17.81", "trialTime": 19022, "trial_type": "mouselab-mdp", "trial_index": 40, "time_elapsed": 1012755, "internal_node_id": "0.0-6.0-1.0-31.0"}}, {"uniqueid": "w75641843:a90656673", "current_trial": 41, "dateTime": 1693565820135, "trialdata": {"revealed_states": [], "clicked_states": ["31", "33", "32"], "num_clicks_accrued": [0, 0, 0, 0, 0, 0, 0, 0, 0, 0, 0, 0, 0], "stateRewards": ["", 1, -1, 1, -14, -10, 67, -28, -11, 72, 40, -65, -1, 1, 1, -2, 8, -55, 34, -10, 61, 33, -15, 2, -4, 7, 4, -75, 63, -21, -16, 61, 19, 21], "withholdReward": false, "trial_id": "mdp_trial_33", "block": "test", "trialIndex": 34, "score": 45.8, "costs": -4.199999999999999, "simulationMode": [null, null, null, null, null], "rewards": [2, -4, 7, -16, 61], "path": ["0", "0", "23", "24", "25", "30", "31"], "rt": [12220, 1056, 351, 460, 678], "actions": ["left", "left", "left", "down", "right"], "actionTimes": [14910, 16494, 17382, 18390, 19598], "queries": {"click": {"state": {"target": ["31", "33", "32"], "time": [5491, 7572, 9651]}, "edge": {"target": [], "time": []}}, "mouseover": {"state": {"target": ["23", "31", "30", "33", "32", "31", "24", "23", "0", "23", "23"], "time": [4932, 5269, 5803, 5872, 7928, 12051, 12369, 12602, 12969, 13201, 13685]}, "edge": {"target": [], "time": []}}, "mouseout": {"state": {"target": ["19", "22", "0", "23", "31", "31", "30", "33", "33", "32", "31", "24", "23", "0", "23"], "time": [1702, 1751, 4903, 4960, 5597, 5739, 5838, 7773, 7895, 10305, 12145, 12569, 12652, 13068, 13368]}, "edge": {"target": [], "time": []}}}, "displayed_time": "20.15", "trialTime": 21390, "trial_type": "mouselab-mdp", "trial_index": 41, "time_elapsed": 1034643, "internal_node_id": "0.0-6.0-1.0-32.0"}}, {"uniqueid": "w75641843:a90656673", "current_trial": 42, "dateTime": 1693565839159, "trialdata": {"revealed_states": [], "clicked_states": [], "num_clicks_accrued": [0, 0, 0, 0, 0, 0, 0, 0, 0, 0, 0, 0, 0], "stateRewards": ["", -1, 4, -8, 12, 14, 69, -8, 5, -72, -14, 56, -1, -1, -1, 9, 67, 19, 11, -9, -88, -58, 3, 2, -4, -8, 4, 62, 77, -74, 5, -31, 65, 88], "withholdReward": false, "trial_id": "mdp_trial_34", "block": "test", "trialIndex": 35, "score": -14, "costs": 0, "simulationMode": [null, null, null, null, null], "rewards": [-1, 4, -8, 5, -14], "path": ["0", "0", "1", "2", "3", "8", "10"], "rt": [5918, 171, 163, 109, 264], "actions": ["up", "up", "up", "left", "down"], "actionTimes": [9338, 10050, 10722, 11370, 12178], "queries": {"click": {"state": {"target": [], "time": []}, "edge": {"target": [], "time": []}}, "mouseover": {"state": {"target": ["1", "7"], "time": [6325, 6385]}, "edge": {"target": [], "time": []}}, "mouseout": {"state": {"target": ["23", "0", "1"], "time": [2406, 2606, 6356]}, "edge": {"target": [], "time": []}}}, "displayed_time": "17.42", "trialTime": 18538, "trial_type": "mouselab-mdp", "trial_index": 42, "time_elapsed": 1053668, "internal_node_id": "0.0-6.0-1.0-33.0"}}, {"uniqueid": "w75641843:a90656673", "current_trial": 43, "dateTime": 1693565859503, "trialdata": {"revealed_states": [], "clicked_states": ["18", "16", "17", "20"], "num_clicks_accrued": [0, 0, 0, 0, 0, 0, 0, 0, 0, 0, 0, 0, 0], "stateRewards": ["", 1, -3, -1, 9, -34, -40, 22, -7, 45, 53, -11, 2, 4, 5, 15, 21, 37, -49, -3, 80, -28, -34, 1, -3, 1, 1, -40, -6, -5, -16, -85, -86, 59], "withholdReward": false, "trial_id": "mdp_trial_35", "block": "test", "trialIndex": 36, "score": 82.4, "costs": -5.6, "simulationMode": [null, null, null, null, null], "rewards": [2, 4, 5, -3, 80], "path": ["0", "0", "12", "13", "14", "19", "20"], "rt": [12431, 195, 204, 399, 604], "actions": ["right", "right", "right", "down", "right"], "actionTimes": [14276, 15004, 15740, 16668, 17780], "queries": {"click": {"state": {"target": ["18", "16", "17", "20"], "time": [3577, 5691, 7834, 10985]}, "edge": {"target": [], "time": []}}, "mouseover": {"state": {"target": ["18", "16", "17", "20"], "time": [3302, 3915, 6330, 10785]}, "edge": {"target": [], "time": []}}, "mouseout": {"state": {"target": ["7", "1", "18", "16", "17", "20"], "time": [984, 1136, 3767, 6122, 8189, 11091]}, "edge": {"target": [], "time": []}}}, "displayed_time": "18.32", "trialTime": 19844, "trial_type": "mouselab-mdp", "trial_index": 43, "time_elapsed": 1074012, "internal_node_id": "0.0-6.0-1.0-34.0"}}, {"uniqueid": "w75641843:a90656673", "current_trial": 44, "dateTime": 1693565882991, "trialdata": {"revealed_states": [], "clicked_states": ["16", "21", "20", "22"], "num_clicks_accrued": [0, 0, 0, 0, 0, 0, 0, 0, 0, 0, 0, 0, 0], "stateRewards": ["", 2, 4, -6, -13, -75, -81, 30, 7, 5, 59, -65, -1, -1, 7, 14, -38, 36, -41, 1, -54, -5, 64, 2, -1, 5, 6, -19, 79, 11, 16, -33, -50, 58], "withholdReward": false, "trial_id": "mdp_trial_36", "block": "test", "trialIndex": 37, "score": 64.4, "costs": -5.6, "simulationMode": [null, null, null, null, null], "rewards": [-1, -1, 7, 1, 64], "path": ["0", "0", "12", "13", "14", "19", "22"], "rt": [14171, 134, 251, 418, 486], "actions": ["right", "right", "right", "down", "left"], "actionTimes": [16940, 17612, 18396, 19341, 20380], "queries": {"click": {"state": {"target": ["16", "21", "20", "22"], "time": [5002, 7162, 11000, 13594]}, "edge": {"target": [], "time": []}}, "mouseover": {"state": {"target": ["18", "15", "16", "14", "19", "21", "20", "22"], "time": [4281, 4316, 4631, 5496, 5591, 5805, 10780, 13331]}, "edge": {"target": [], "time": []}}, "mouseout": {"state": {"target": ["14", "13", "12", "18", "15", "16", "14", "19", "21", "20", "22", "22"], "time": [1814, 1864, 1979, 4312, 4364, 5405, 5558, 5683, 10697, 12084, 13701, 14187]}, "edge": {"target": [], "time": []}}}, "displayed_time": "20.91", "trialTime": 22980, "trial_type": "mouselab-mdp", "trial_index": 44, "time_elapsed": 1097499, "internal_node_id": "0.0-6.0-1.0-35.0"}}, {"uniqueid": "w75641843:a90656673", "current_trial": 45, "dateTime": 1693565904816, "trialdata": {"revealed_states": [], "clicked_states": ["31", "32", "27", "28", "29"], "num_clicks_accrued": [0, 0, 0, 0, 0, 0, 0, 0, 0, 0, 0, 0, 0], "stateRewards": ["", -2, 2, -5, -6, 10, -66, -58, -10, -11, -63, -70, -1, -4, -5, 7, 66, -64, -43, -3, 45, -37, 4, -2, -2, -6, -4, -30, 33, 43, 15, -32, -65, -59], "withholdReward": false, "trial_id": "mdp_trial_37", "block": "test", "trialIndex": 38, "score": 22, "costs": -7, "simulationMode": [null, null, null, null, null], "rewards": [-2, -2, -6, -4, 43], "path": ["0", "0", "23", "24", "25", "26", "29"], "rt": [13196, 580, 131, 286, 158], "actions": ["left", "left", "left", "up", "left"], "actionTimes": [15836, 16948, 17612, 18452, 19164], "queries": {"click": {"state": {"target": ["31", "32", "27", "28", "29"], "time": [4026, 6137, 8259, 10649, 13506]}, "edge": {"target": [], "time": []}}, "mouseover": {"state": {"target": ["31", "30", "32", "30", "25", "26", "26", "27", "28", "26", "29"], "time": [3625, 4553, 4677, 6502, 6568, 6694, 6790, 6999, 10441, 12691, 13258]}, "edge": {"target": [], "time": []}}, "mouseout": {"state": {"target": ["0", "31", "30", "32", "30", "25", "26", "26", "27", "28", "28", "26"], "time": [2140, 4433, 4586, 6348, 6535, 6631, 6727, 6908, 9258, 10728, 12558, 12821]}, "edge": {"target": [], "time": []}}}, "displayed_time": "19.70", "trialTime": 21316, "trial_type": "mouselab-mdp", "trial_index": 45, "time_elapsed": 1119324, "internal_node_id": "0.0-6.0-1.0-36.0"}}, {"uniqueid": "w75641843:a90656673", "current_trial": 46, "dateTime": 1693565923623, "trialdata": {"revealed_states": [], "clicked_states": ["32"], "num_clicks_accrued": [0, 0, 0, 0, 0, 0, 0, 0, 0, 0, 0, 0, 0], "stateRewards": ["", 1, 1, -5, 10, -31, 73, 14, -8, -23, 63, -70, -1, 2, 8, 7, 25, -59, 27, -10, -40, -71, -15, -2, 3, -8, -5, -19, 77, -34, 7, 67, 63, 19], "withholdReward": false, "trial_id": "mdp_trial_38", "block": "test", "trialIndex": 39, "score": 61.6, "costs": -1.4, "simulationMode": [null, null, null, null, null], "rewards": [-2, 3, -8, 7, 63], "path": ["0", "0", "23", "24", "25", "30", "32"], "rt": [5772, 153, 202, 405, 941], "actions": ["left", "left", "left", "down", "down"], "actionTimes": [8903, 9591, 10326, 11270, 12767], "queries": {"click": {"state": {"target": ["32"], "time": [4668]}, "edge": {"target": [], "time": []}}, "mouseover": {"state": {"target": ["31", "32", "31"], "time": [4075, 4260, 7258]}, "edge": {"target": [], "time": []}}, "mouseout": {"state": {"target": ["29", "23", "0", "12", "12", "0", "31", "32", "31"], "time": [1825, 1874, 1895, 1917, 2174, 3909, 4142, 5044, 7441]}, "edge": {"target": [], "time": []}}}, "displayed_time": "17.13", "trialTime": 18310, "trial_type": "mouselab-mdp", "trial_index": 46, "time_elapsed": 1138132, "internal_node_id": "0.0-6.0-1.0-37.0"}}, {"uniqueid": "w75641843:a90656673", "current_trial": 47, "dateTime": 1693565949895, "trialdata": {"revealed_states": [], "clicked_states": ["5", "6", "9", "11", "10"], "num_clicks_accrued": [0, 0, 0, 0, 0, 0, 0, 0, 0, 0, 0, 0, 0], "stateRewards": ["", 2, 4, 7, 7, -79, -2, -21, -5, -53, 47, -21, 1, -3, -1, 7, 83, 7, 84, -7, 80, -37, 69, 2, -4, 5, 2, 4, -20, -30, 7, 71, 44, -81], "withholdReward": false, "trial_id": "mdp_trial_39", "block": "test", "trialIndex": 40, "score": 48, "costs": -7, "simulationMode": [null, null, null, null, null], "rewards": [2, 4, 7, -5, 47], "path": ["0", "0", "1", "2", "3", "8", "10"], "rt": [15235, 91, 209, 327, 444], "actions": ["up", "up", "up", "left", "down"], "actionTimes": [19903, 20543, 21295, 22160, 23160], "queries": {"click": {"state": {"target": ["5", "6", "9", "11", "10"], "time": [7229, 9406, 11500, 13994, 16900]}, "edge": {"target": [], "time": []}}, "mouseover": {"state": {"target": ["1", "2", "3", "4", "5", "6", "4", "9", "11", "10"], "time": [6251, 6309, 6451, 6507, 6734, 7908, 9705, 9952, 13632, 16566]}, "edge": {"target": [], "time": []}}, "mouseout": {"state": {"target": ["0", "0", "1", "2", "3", "4", "5", "6", "4", "9", "11"], "time": [3834, 4707, 6280, 6366, 6479, 6600, 7788, 9671, 9770, 12146, 14273]}, "edge": {"target": [], "time": []}}}, "displayed_time": "23.69", "trialTime": 25759, "trial_type": "mouselab-mdp", "trial_index": 47, "time_elapsed": 1164404, "internal_node_id": "0.0-6.0-1.0-38.0"}}, {"uniqueid": "w75641843:a90656673", "current_trial": 48, "dateTime": 1693565975319, "trialdata": {"revealed_states": [], "clicked_states": ["18", "16", "17", "20", "21"], "num_clicks_accrued": [0, 0, 0, 0, 0, 0, 0, 0, 0, 0, 0, 0, 0], "stateRewards": ["", -2, -4, 6, 14, -34, 49, 36, -8, -3, 32, -4, 1, -2, 1, -8, -20, -71, -57, -7, -86, -62, -16, -2, -3, -5, 11, 23, -21, 53, 5, -5, 85, 73], "withholdReward": false, "trial_id": "mdp_trial_40", "block": "test", "trialIndex": 41, "score": -17, "costs": -7, "simulationMode": [null, null, null, null, null], "rewards": [-2, -3, -5, 5, -5], "path": ["0", "0", "23", "24", "25", "30", "31"], "rt": [16047, 269, 243, 289, 330], "actions": ["left", "left", "left", "down", "right"], "actionTimes": [19113, 19921, 20697, 21513, 22369], "queries": {"click": {"state": {"target": ["18", "16", "17", "20", "21"], "time": [5567, 7631, 10054, 13350, 16215]}, "edge": {"target": [], "time": []}}, "mouseover": {"state": {"target": ["1", "18", "16", "15", "14", "17", "20", "21"], "time": [3105, 5228, 5987, 8138, 8410, 9794, 12727, 15727]}, "edge": {"target": [], "time": []}}, "mouseout": {"state": {"target": ["10", "1", "18", "16", "15", "14", "17", "20", "21"], "time": [1977, 4879, 5808, 8073, 8232, 8565, 10266, 13981, 16524]}, "edge": {"target": [], "time": []}}}, "displayed_time": "22.89", "trialTime": 24913, "trial_type": "mouselab-mdp", "trial_index": 48, "time_elapsed": 1189828, "internal_node_id": "0.0-6.0-1.0-39.0"}}, {"uniqueid": "w75641843:a90656673", "current_trial": 49, "dateTime": 1693566037968, "trialdata": {"rt": 62641, "response": {"Q0": "$-2 to $2", "Q1": "$-16 to $16", "Q2": "$-88 to $88", "Q3": "The cost was always $1.4.", "Q4": "Very motivated"}, "question_order": [0, 1, 2, 3, 4], "trial_id": "final_quiz_control", "trial_type": "survey-multi-choice", "trial_index": 49, "time_elapsed": 1252476, "internal_node_id": "0.0-6.0-2.0"}}, {"uniqueid": "w75641843:a90656673", "current_trial": 50, "dateTime": 1693566222024, "trialdata": {"rt": 184045, "response": {"Q0": "Initially just chose a path and looked at the values. ", "Q1": "Eventually realised the end steps had the highest values so began to choose those to view. If no high value ones found I just chose another random path and hoped it was better", "Q2": "It took me a while to notice that the highest/lowest values were at the end steps"}, "trial_id": "self_report_control", "trial_type": "survey-text", "trial_index": 50, "time_elapsed": 1436533, "internal_node_id": "0.0-6.0-3.0"}}, {"uniqueid": "w75641843:a90656673", "current_trial": 51, "dateTime": 1693566250008, "trialdata": {"rt": 27976, "response": {"gender": "female", "age": "64", "colorblind": "0", "effort": "0"}, "trial_type": "survey-html-form", "trial_index": 51, "time_elapsed": 1464517, "internal_node_id": "0.0-6.0-4.0"}}, {"uniqueid": "w75641843:a90656673", "current_trial": 52, "dateTime": 1693566288312, "trialdata": {"rt": 38289, "response": {"Q0": "No it was pretty clear", "Q1": "No", "Q2": ""}, "trial_type": "survey-text", "trial_index": 52, "time_elapsed": 1502820, "internal_node_id": "0.0-6.0-5.0"}}, {"uniqueid": "w75641843:a90656673", "current_trial": 53, "dateTime": 1693566328856, "trialdata": {"rt": 40531, "stimulus": "<h1>Completion Code Instructions (1/2)</h1>\n<br><br><br><br>\nYou have reached the end of the experiment! The completion code consists of two parts: (1) a code with 2 characters (2) a code with 6 characters. On this page, you will receive the second part of the code. The first part of the completion code will be on the next page.\n<br><br>\nThe second part of your completion code is: <b>EWEK22</b>\n<br><br>\nPlease note this down. Then, press 'Finish HIT' in order to find the first part of your completion code. Once the data has been saved, you will receive this code either in this window or in the original browser window where you started the experiment.\n", "response": 0, "trial_type": "html-button-response", "trial_index": 53, "time_elapsed": 1543365, "internal_node_id": "0.0-6.0-6.0"}}, {"uniqueid": "w75641843:a90656673", "current_trial": 54, "dateTime": 1693566329866, "trialdata": {"success": true, "trial_type": "fullscreen", "trial_index": 54, "time_elapsed": 1544374, "internal_node_id": "0.0-7.0"}}], "questiondata": {"params": {"CODE": "C6DMOQA6", "MIN_TIME": 14, "inspectCost": 1, "startTime": "Fri Sep 01 2023 11:39:44 GMT+0100 (British Summer Time)", "bonusRate": 0.002, "variance": "1_2_4_8_44", "branching": "31123"}, "final_score": 773.2}, "eventdata": [{"eventtype": "initialized", "value": null, "timestamp": 1693564784512, "interval": 0}, {"eventtype": "window_resize", "value": [1024, 767], "timestamp": 1693564784512, "interval": 0}, {"eventtype": "window_resize", "value": [1024, 767], "timestamp": 1693564784824, "interval": 312}, {"eventtype": "window_resize", "value": [1920, 1080], "timestamp": 1693564790109, "interval": 5285}, {"eventtype": "window_resize", "value": [1024, 767], "timestamp": 1693566329119, "interval": 1539010}], "useragent": "Mozilla/5.0 (Windows NT 10.0; Win64; x64) AppleWebKit/537.36 (KHTML, like Gecko) Chrome/116.0.0.0 Safari/537.36", "mode": "live", "id": "w75641843:a90656673", "status": "user data saved", "Beginhit": "2023-09-01 10:40:04.159314", "Beginexp": "2023-09-01 10:40:11.94048", "Endhit": "2023-09-01 11:05:51.408262", "psiturkStatus": 3, "browser": "<redacted>", "platform": "windows", "language": "en-GB"}