{"condition": 0, "counterbalance": 0, "assignmentId": "a99025591", "workerId": "w18826734", "hitId": "h58691098", "currenttrial": 55, "bonus": 0, "data": [{"uniqueid": "w18826734:a99025591", "current_trial": 0, "dateTime": 1693389187152, "trialdata": {"success": true, "trial_type": "fullscreen", "trial_index": 0, "time_elapsed": 17048, "internal_node_id": "0.0-0.0"}}, {"uniqueid": "w18826734:a99025591", "current_trial": 1, "dateTime": 1693389230790, "trialdata": {"view_history": [{"page_index": 0, "viewing_time": 43635}], "rt": 43635, "trial_id": "exp_instructions_control", "trial_type": "instructions", "trial_index": 1, "time_elapsed": 60686, "internal_node_id": "0.0-1.0"}}, {"uniqueid": "w18826734:a99025591", "current_trial": 2, "dateTime": 1693389461909, "trialdata": {"view_history": [{"page_index": 0, "viewing_time": 74662}, {"page_index": 1, "viewing_time": 76200}, {"page_index": 2, "viewing_time": 34872}, {"page_index": 3, "viewing_time": 45384}], "rt": 231118, "trial_id": "mouselab_instructions_1_control", "trial_type": "instructions", "trial_index": 2, "time_elapsed": 291805, "internal_node_id": "0.0-2.0-1.0"}}, {"uniqueid": "w18826734:a99025591", "current_trial": 3, "dateTime": 1693389478606, "trialdata": {"revealed_states": [], "clicked_states": [], "num_clicks_accrued": [0, 0, 0, 0, 0, 0, 0, 0, 0, 0, 0, 0, 0], "stateRewards": ["", -10, -10, -10, 10, -10, -10, -10, -10, -10, -10, -10, 10, -10, 10, 10, 10, -10, -10, 10, 10, 10, -10, -10, -10, -10, 10, 10, 10, 10, -10, 10, -10, 10], "withholdReward": false, "trial_id": "practice_1", "block": "test", "trialIndex": 0, "score": 33.5, "costs": 0, "simulationMode": [null, null, null, null, null], "rewards": [10, -10, 10, 10, 10], "path": ["0", "0", "12", "13", "14", "15", "16"], "rt": [3811, 1540, 203, 704, 391], "actions": ["right", "right", "right", "up", "up"], "actionTimes": [6524, 8555, 9251, 10451, 11339], "queries": {"click": {"state": {"target": [], "time": []}, "edge": {"target": [], "time": []}}, "mouseover": {"state": {"target": ["32"], "time": [3296]}, "edge": {"target": [], "time": []}}, "mouseout": {"state": {"target": ["0"], "time": [2930]}, "edge": {"target": [], "time": []}}}, "displayed_time": "11.83", "trialTime": 15059, "trial_type": "mouselab-mdp", "trial_index": 3, "time_elapsed": 308502, "internal_node_id": "0.0-2.0-2.0-0.0"}}, {"uniqueid": "w18826734:a99025591", "current_trial": 4, "dateTime": 1693389489534, "trialdata": {"revealed_states": [], "clicked_states": [], "num_clicks_accrued": [0, 0, 0, 0, 0, 0, 0, 0, 0, 0, 0, 0, 0], "stateRewards": ["", 10, -10, 10, 10, -10, 10, -10, 10, 10, 10, 10, 10, -10, -10, 10, -10, 10, 10, 10, 10, -10, 10, 10, -10, -10, -10, -10, -10, 10, -10, -10, -10, -10], "withholdReward": false, "trial_id": "practice_2", "block": "test", "trialIndex": 1, "score": 33.5, "costs": 0, "simulationMode": [null, null, null, null, null], "rewards": [10, -10, 10, 10, 10], "path": ["0", "0", "1", "2", "3", "8", "11"], "rt": [1330, 759, 245, 767, 565], "actions": ["up", "up", "up", "left", "left"], "actionTimes": [4073, 5329, 6065, 7338, 8401], "queries": {"click": {"state": {"target": [], "time": []}, "edge": {"target": [], "time": []}}, "mouseover": {"state": {"target": ["0"], "time": [2803]}, "edge": {"target": [], "time": []}}, "mouseout": {"state": {"target": ["32", "0", "0"], "time": [1901, 2085, 2835]}, "edge": {"target": [], "time": []}}}, "displayed_time": "8.90", "trialTime": 10809, "trial_type": "mouselab-mdp", "trial_index": 4, "time_elapsed": 319429, "internal_node_id": "0.0-2.0-2.0-1.0"}}, {"uniqueid": "w18826734:a99025591", "current_trial": 5, "dateTime": 1693389539677, "trialdata": {"view_history": [{"page_index": 0, "viewing_time": 38190}, {"page_index": 1, "viewing_time": 11952}], "rt": 50142, "trial_id": "mouselab_instructions_2_control", "trial_type": "instructions", "trial_index": 5, "time_elapsed": 369573, "internal_node_id": "0.0-2.0-3.0"}}, {"uniqueid": "w18826734:a99025591", "current_trial": 6, "dateTime": 1693389908598, "trialdata": {"rt": 368919, "response": {"Q0": "The cost for clicking on nodes may vary between nodes.", "Q1": "The better I perform the higher my bonus will be.", "Q2": "No, the amount of cash at each node of the web may be different each time.", "Q3": "To get the highest total score.", "Q4": "Only before moving the spider.", "Q5": "3 seconds"}, "question_order": [0, 1, 2, 3, 4, 5], "correct": {"Q0": "The cost for clicking on nodes may vary between nodes.", "Q1": "The better I perform the higher my bonus will be.", "Q2": "No, the amount of cash at each node of the web may be different each time.", "Q3": "To get the highest total score.", "Q4": "Only before moving the spider.", "Q5": "3 seconds"}, "trial_id": "mouselab_quiz_control", "trial_type": "survey-multi-choice", "trial_index": 6, "time_elapsed": 738494, "internal_node_id": "0.0-2.0-4.0"}}, {"uniqueid": "w18826734:a99025591", "current_trial": 7, "dateTime": 1693389917478, "trialdata": {"rt": 8875, "response": {"Q0": "No"}, "question_order": [0], "trial_id": "repeat_check", "trial_type": "survey-multi-choice", "trial_index": 7, "time_elapsed": 747374, "internal_node_id": "0.0-4.0-0.0"}}, {"uniqueid": "w18826734:a99025591", "current_trial": 8, "dateTime": 1693389930902, "trialdata": {"rt": 13421, "stimulus": "\n<h1> Get ready to start the game! </h1>\n\nThank you for reading the instructions. Get ready start with the 40 rounds of this game.\n<br><br>\nIf you need to take a break, feel free to take one after the end of a round, before continuing to the next one.\n<br><br>\nRemember, the more money the spider gets, the bigger your bonus will be!\n<br><br>\n<div style='text-align: center;'>Press <code>space</code> to begin.</div>\n\n<br><br>\n(If, at any point, the <code>space</code> key does not take you to the next page, click once on the text and try again.)", "response": " ", "trial_id": "mdp_ready", "trial_type": "html-keyboard-response", "trial_index": 8, "time_elapsed": 760798, "internal_node_id": "0.0-6.0-0.0"}}, {"uniqueid": "w18826734:a99025591", "current_trial": 9, "dateTime": 1693389950366, "trialdata": {"revealed_states": [], "clicked_states": [], "num_clicks_accrued": [0, 0, 0, 0, 0, 0, 0, 0, 0, 0, 0, 0, 0], "stateRewards": ["", -2, 2, 5, -14, -56, 64, 84, -5, 52, 39, 85, -2, 1, 7, 8, 21, 29, -78, -9, -10, -69, 10, -2, -1, -7, 15, 72, 20, 41, -2, 52, 80, 22], "withholdReward": false, "trial_id": "mdp_trial_1", "block": "test", "trialIndex": 2, "score": 77, "costs": 0, "simulationMode": [null, null, null, null, null], "rewards": [-2, -1, -7, 15, 72], "path": ["0", "0", "23", "24", "25", "26", "27"], "rt": [1622, 48, 545, 591, 195], "actions": ["left", "left", "left", "up", "up"], "actionTimes": [4725, 5277, 6357, 7437, 8141], "queries": {"click": {"state": {"target": [], "time": []}, "edge": {"target": [], "time": []}}, "mouseover": {"state": {"target": ["0", "12", "13", "12"], "time": [3161, 3211, 3427, 3479]}, "edge": {"target": [], "time": []}}, "mouseout": {"state": {"target": ["11", "23", "0", "0", "12", "13"], "time": [1894, 1944, 3107, 3178, 3244, 3444]}, "edge": {"target": [], "time": []}}}, "displayed_time": "17.11", "trialTime": 19333, "trial_type": "mouselab-mdp", "trial_index": 9, "time_elapsed": 780262, "internal_node_id": "0.0-6.0-1.0-0.0"}}, {"uniqueid": "w18826734:a99025591", "current_trial": 10, "dateTime": 1693389969239, "trialdata": {"revealed_states": [], "clicked_states": [], "num_clicks_accrued": [0, 0, 0, 0, 0, 0, 0, 0, 0, 0, 0, 0, 0], "stateRewards": ["", 1, 1, -6, -2, 7, 77, 3, 16, -16, 66, 31, -1, 3, -8, -6, 33, -50, -48, 7, -60, -66, 36, 2, -3, 3, -7, -12, -61, -79, -4, 8, 74, -70], "withholdReward": false, "trial_id": "mdp_trial_2", "block": "test", "trialIndex": 3, "score": 43, "costs": 0, "simulationMode": [null, null, null, null, null], "rewards": [1, 1, -6, 16, 31], "path": ["0", "0", "1", "2", "3", "8", "11"], "rt": [1131, 208, 132, 1121, 2017], "actions": ["up", "up", "up", "left", "left"], "actionTimes": [3073, 3769, 4409, 6049, 8561], "queries": {"click": {"state": {"target": [], "time": []}, "edge": {"target": [], "time": []}}, "mouseover": {"state": {"target": ["12", "13"], "time": [1993, 2043]}, "edge": {"target": [], "time": []}}, "mouseout": {"state": {"target": ["12", "0", "12", "13", "12"], "time": [1193, 1259, 2026, 2243, 14043]}, "edge": {"target": [], "time": []}}}, "displayed_time": "15.94", "trialTime": 18738, "trial_type": "mouselab-mdp", "trial_index": 10, "time_elapsed": 799135, "internal_node_id": "0.0-6.0-1.0-1.0"}}, {"uniqueid": "w18826734:a99025591", "current_trial": 11, "dateTime": 1693389987470, "trialdata": {"revealed_states": [], "clicked_states": [], "num_clicks_accrued": [0, 0, 0, 0, 0, 0, 0, 0, 0, 0, 0, 0, 0], "stateRewards": ["", -2, -3, -3, 9, 79, 67, 22, -15, -56, 27, -85, -2, 4, -4, -15, -20, -32, 60, 15, 71, 57, 17, 1, 2, -8, 15, -37, -81, 82, 15, 21, -3, 2], "withholdReward": false, "trial_id": "mdp_trial_3", "block": "test", "trialIndex": 4, "score": 70, "costs": 0, "simulationMode": [null, null, null, null, null], "rewards": [-2, 4, -4, 15, 57], "path": ["0", "0", "12", "13", "14", "19", "21"], "rt": [2099, 804, 240, 586, 702], "actions": ["right", "right", "right", "down", "down"], "actionTimes": [4477, 5789, 6525, 7621, 8821], "queries": {"click": {"state": {"target": [], "time": []}, "edge": {"target": [], "time": []}}, "mouseover": {"state": {"target": ["12", "12"], "time": [2434, 2700]}, "edge": {"target": [], "time": []}}, "mouseout": {"state": {"target": ["12", "12"], "time": [1633, 2467]}, "edge": {"target": [], "time": []}}}, "displayed_time": "16.38", "trialTime": 18093, "trial_type": "mouselab-mdp", "trial_index": 11, "time_elapsed": 817366, "internal_node_id": "0.0-6.0-1.0-2.0"}}, {"uniqueid": "w18826734:a99025591", "current_trial": 12, "dateTime": 1693390007166, "trialdata": {"revealed_states": [], "clicked_states": [], "num_clicks_accrued": [0, 0, 0, 0, 0, 0, 0, 0, 0, 0, 0, 0, 0], "stateRewards": ["", 2, -3, -2, 14, -4, 85, 46, 15, -28, 41, 31, -1, -1, -1, 5, 62, 79, 57, 12, -73, -64, 86, -1, 1, -3, -5, 68, 11, -32, 8, -80, -21, -56], "withholdReward": false, "trial_id": "mdp_trial_4", "block": "test", "trialIndex": 5, "score": -16, "costs": 0, "simulationMode": [null, null, null, null, null], "rewards": [-1, 1, -3, 8, -21], "path": ["0", "0", "23", "24", "25", "30", "32"], "rt": [2038, 601, 181, 641, 252], "actions": ["left", "left", "left", "down", "down"], "actionTimes": [3707, 4819, 5499, 6659, 7403], "queries": {"click": {"state": {"target": [], "time": []}, "edge": {"target": [], "time": []}}, "mouseover": {"state": {"target": [], "time": []}, "edge": {"target": [], "time": []}}, "mouseout": {"state": {"target": ["12"], "time": [818]}, "edge": {"target": [], "time": []}}}, "displayed_time": "15.67", "trialTime": 19539, "trial_type": "mouselab-mdp", "trial_index": 12, "time_elapsed": 837062, "internal_node_id": "0.0-6.0-1.0-3.0"}}, {"uniqueid": "w18826734:a99025591", "current_trial": 13, "dateTime": 1693390054863, "trialdata": {"revealed_states": [], "clicked_states": [], "num_clicks_accrued": [0, 0, 0, 0, 0, 0, 0, 0, 0, 0, 0, 0, 0], "stateRewards": ["", 1, -4, -6, -1, -21, 17, -72, 10, 77, 67, -46, -1, 4, -2, 14, -66, -49, -45, -15, -52, 23, -67, 2, -2, -2, 15, -3, 45, -64, 5, -44, 83, 61], "withholdReward": false, "trial_id": "mdp_trial_5", "block": "test", "trialIndex": 6, "score": -45, "costs": 0, "simulationMode": [null, null, null, null, null], "rewards": [1, -4, -6, 10, -46], "path": ["0", "0", "1", "2", "3", "8", "11"], "rt": [1439, 251, 270, 263, 168], "actions": ["up", "up", "up", "left", "left"], "actionTimes": [5166, 5909, 6677, 7437, 8093], "queries": {"click": {"state": {"target": [], "time": []}, "edge": {"target": [], "time": []}}, "mouseover": {"state": {"target": [], "time": []}, "edge": {"target": [], "time": []}}, "mouseout": {"state": {"target": ["0", "0", "1", "7"], "time": [3590, 23774, 24890, 24957]}, "edge": {"target": [], "time": []}}}, "displayed_time": "17.73", "trialTime": 47542, "trial_type": "mouselab-mdp", "trial_index": 13, "time_elapsed": 884759, "internal_node_id": "0.0-6.0-1.0-4.0"}}, {"uniqueid": "w18826734:a99025591", "current_trial": 14, "dateTime": 1693390074727, "trialdata": {"revealed_states": [], "clicked_states": [], "num_clicks_accrued": [0, 0, 0, 0, 0, 0, 0, 0, 0, 0, 0, 0, 0], "stateRewards": ["", 1, -1, 1, 13, 31, -56, 72, 2, 41, 5, 63, -2, -3, -2, 3, -71, -26, 52, 13, -31, 24, -67, 2, -2, 5, 4, 66, 43, 72, 9, 86, -26, 44], "withholdReward": false, "trial_id": "mdp_trial_6", "block": "test", "trialIndex": 7, "score": -42, "costs": 0, "simulationMode": [null, null, null, null, null], "rewards": [1, -1, 1, 13, -56], "path": ["0", "0", "1", "2", "3", "4", "6"], "rt": [1497, 310, 165, 387, 143], "actions": ["up", "up", "up", "right", "right"], "actionTimes": [4594, 5402, 6074, 6962, 7618], "queries": {"click": {"state": {"target": [], "time": []}, "edge": {"target": [], "time": []}}, "mouseover": {"state": {"target": ["0", "12", "13", "1"], "time": [3141, 3240, 3724, 3790]}, "edge": {"target": [], "time": []}}, "mouseout": {"state": {"target": ["6", "1", "24", "0", "12", "13", "1"], "time": [1974, 2107, 2209, 3207, 3274, 3758, 3840]}, "edge": {"target": [], "time": []}}}, "displayed_time": "17.10", "trialTime": 19706, "trial_type": "mouselab-mdp", "trial_index": 14, "time_elapsed": 904623, "internal_node_id": "0.0-6.0-1.0-5.0"}}, {"uniqueid": "w18826734:a99025591", "current_trial": 15, "dateTime": 1693390092830, "trialdata": {"revealed_states": [], "clicked_states": [], "num_clicks_accrued": [0, 0, 0, 0, 0, 0, 0, 0, 0, 0, 0, 0, 0], "stateRewards": ["", -1, -2, 8, -6, -79, -6, 87, 9, -5, -66, -38, 2, 2, 5, -6, -82, 74, 85, -8, 67, -30, -15, 1, -2, -2, -2, 87, 64, 49, 7, 2, -38, -9], "withholdReward": false, "trial_id": "mdp_trial_7", "block": "test", "trialIndex": 8, "score": -7, "costs": 0, "simulationMode": [null, null, null, null, null], "rewards": [-1, -2, 8, -6, -6], "path": ["0", "0", "1", "2", "3", "4", "6"], "rt": [5543, 151, 534, 195, 24], "actions": ["up", "up", "up", "right", "right"], "actionTimes": [8076, 8747, 9780, 10491, 11003], "queries": {"click": {"state": {"target": [], "time": []}, "edge": {"target": [], "time": []}}, "mouseover": {"state": {"target": ["0", "22", "22", "12"], "time": [2561, 2678, 3109, 5661]}, "edge": {"target": [], "time": []}}, "mouseout": {"state": {"target": ["0", "22", "22", "12"], "time": [2594, 2744, 3844, 5678]}, "edge": {"target": [], "time": []}}}, "displayed_time": "16.53", "trialTime": 17947, "trial_type": "mouselab-mdp", "trial_index": 15, "time_elapsed": 922726, "internal_node_id": "0.0-6.0-1.0-6.0"}}, {"uniqueid": "w18826734:a99025591", "current_trial": 16, "dateTime": 1693390110214, "trialdata": {"revealed_states": [], "clicked_states": [], "num_clicks_accrued": [0, 0, 0, 0, 0, 0, 0, 0, 0, 0, 0, 0, 0], "stateRewards": ["", -2, -1, 3, -3, 71, -58, -21, 7, -10, -75, -37, 2, 4, -1, -12, -79, -29, -48, 3, -41, -10, -30, -1, -2, 1, -15, 13, 66, 22, -1, -42, -86, -55], "withholdReward": false, "trial_id": "mdp_trial_8", "block": "test", "trialIndex": 9, "score": -2, "costs": 0, "simulationMode": [null, null, null, null, null], "rewards": [2, 4, -1, 3, -10], "path": ["0", "0", "12", "13", "14", "19", "21"], "rt": [1246, 61, 102, 896, 127], "actions": ["right", "right", "right", "down", "down"], "actionTimes": [3030, 3606, 4198, 5590, 6222], "queries": {"click": {"state": {"target": [], "time": []}, "edge": {"target": [], "time": []}}, "mouseover": {"state": {"target": [], "time": []}, "edge": {"target": [], "time": []}}, "mouseout": {"state": {"target": ["0"], "time": [1632]}, "edge": {"target": [], "time": []}}}, "displayed_time": "15.79", "trialTime": 17230, "trial_type": "mouselab-mdp", "trial_index": 16, "time_elapsed": 940110, "internal_node_id": "0.0-6.0-1.0-7.0"}}, {"uniqueid": "w18826734:a99025591", "current_trial": 17, "dateTime": 1693390127990, "trialdata": {"revealed_states": [], "clicked_states": [], "num_clicks_accrued": [0, 0, 0, 0, 0, 0, 0, 0, 0, 0, 0, 0, 0], "stateRewards": ["", 1, -2, 4, 7, -43, -83, -60, -5, -86, -80, 83, -1, -2, 6, 11, -15, 21, 13, 9, 29, -49, 11, -1, 4, -6, -11, 87, 40, 63, -8, -39, -11, 62], "withholdReward": false, "trial_id": "mdp_trial_9", "block": "test", "trialIndex": 10, "score": 73, "costs": 0, "simulationMode": [null, null, null, null, null], "rewards": [-1, 4, -6, -11, 87], "path": ["0", "0", "23", "24", "25", "26", "27"], "rt": [1113, 126, 1020, 224, 138], "actions": ["left", "left", "left", "up", "up"], "actionTimes": [3231, 3863, 5391, 6127, 6775], "queries": {"click": {"state": {"target": [], "time": []}, "edge": {"target": [], "time": []}}, "mouseover": {"state": {"target": [], "time": []}, "edge": {"target": [], "time": []}}, "mouseout": {"state": {"target": ["0"], "time": [1585]}, "edge": {"target": [], "time": []}}}, "displayed_time": "16.12", "trialTime": 17615, "trial_type": "mouselab-mdp", "trial_index": 17, "time_elapsed": 957886, "internal_node_id": "0.0-6.0-1.0-8.0"}}, {"uniqueid": "w18826734:a99025591", "current_trial": 18, "dateTime": 1693390146255, "trialdata": {"revealed_states": [], "clicked_states": [], "num_clicks_accrued": [0, 0, 0, 0, 0, 0, 0, 0, 0, 0, 0, 0, 0], "stateRewards": ["", 2, -1, 1, 10, -52, 86, -22, -2, -14, -63, 38, 1, 3, 7, -8, 11, -32, -27, 9, -71, 40, -87, -2, -1, 5, -7, 12, 31, -57, 13, 86, -58, 29], "withholdReward": false, "trial_id": "mdp_trial_10", "block": "test", "trialIndex": 11, "score": 7, "costs": 0, "simulationMode": [null, null, null, null, null], "rewards": [-2, -1, 5, -7, 12], "path": ["0", "0", "23", "24", "25", "26", "27"], "rt": [1133, 289, 129, 271, 152], "actions": ["left", "left", "left", "up", "up"], "actionTimes": [3365, 4174, 4813, 5605, 6253], "queries": {"click": {"state": {"target": [], "time": []}, "edge": {"target": [], "time": []}}, "mouseover": {"state": {"target": ["0", "12"], "time": [2267, 2350]}, "edge": {"target": [], "time": []}}, "mouseout": {"state": {"target": ["0", "0", "0", "12"], "time": [1616, 2241, 2300, 17351]}, "edge": {"target": [], "time": []}}}, "displayed_time": "16.23", "trialTime": 18094, "trial_type": "mouselab-mdp", "trial_index": 18, "time_elapsed": 976151, "internal_node_id": "0.0-6.0-1.0-9.0"}}, {"uniqueid": "w18826734:a99025591", "current_trial": 19, "dateTime": 1693390163151, "trialdata": {"revealed_states": [], "clicked_states": [], "num_clicks_accrued": [0, 0, 0, 0, 0, 0, 0, 0, 0, 0, 0, 0, 0], "stateRewards": ["", -1, -4, -1, -11, 43, 69, 39, 4, 17, -20, -82, -2, -1, 4, 8, -79, 24, -79, 11, 36, 64, 41, 2, 4, -1, 11, -79, -47, 75, -3, 63, -36, -19], "withholdReward": false, "trial_id": "mdp_trial_11", "block": "test", "trialIndex": 12, "score": 91, "costs": 0, "simulationMode": [null, null, null, null, null], "rewards": [2, 4, -1, 11, 75], "path": ["0", "0", "23", "24", "25", "26", "29"], "rt": [1367, 686, 368, 238, 144], "actions": ["left", "left", "left", "up", "left"], "actionTimes": [3178, 4354, 5218, 5954, 6594], "queries": {"click": {"state": {"target": [], "time": []}, "edge": {"target": [], "time": []}}, "mouseover": {"state": {"target": [], "time": []}, "edge": {"target": [], "time": []}}, "mouseout": {"state": {"target": ["12", "0"], "time": [1299, 1849]}, "edge": {"target": [], "time": []}}}, "displayed_time": "15.81", "trialTime": 16738, "trial_type": "mouselab-mdp", "trial_index": 19, "time_elapsed": 993047, "internal_node_id": "0.0-6.0-1.0-10.0"}}, {"uniqueid": "w18826734:a99025591", "current_trial": 20, "dateTime": 1693390180887, "trialdata": {"revealed_states": [], "clicked_states": [], "num_clicks_accrued": [0, 0, 0, 0, 0, 0, 0, 0, 0, 0, 0, 0, 0], "stateRewards": ["", 1, 4, 7, -16, -84, -6, -46, -12, -7, -49, -26, -1, 2, -4, 2, 22, 37, -64, 1, 88, -13, -10, 1, -4, -2, 5, 2, -10, -34, 9, 66, 55, 38], "withholdReward": false, "trial_id": "mdp_trial_12", "block": "test", "trialIndex": 13, "score": -10, "costs": 0, "simulationMode": [null, null, null, null, null], "rewards": [1, -4, -2, 5, -10], "path": ["0", "0", "23", "24", "25", "26", "28"], "rt": [1291, 137, 2431, 665, 347], "actions": ["left", "left", "left", "up", "right"], "actionTimes": [3427, 4074, 7018, 8186, 9034], "queries": {"click": {"state": {"target": [], "time": []}, "edge": {"target": [], "time": []}}, "mouseover": {"state": {"target": ["12"], "time": [2219]}, "edge": {"target": [], "time": []}}, "mouseout": {"state": {"target": ["12", "12"], "time": [1669, 2236]}, "edge": {"target": [], "time": []}}}, "displayed_time": "16.14", "trialTime": 17578, "trial_type": "mouselab-mdp", "trial_index": 20, "time_elapsed": 1010783, "internal_node_id": "0.0-6.0-1.0-11.0"}}, {"uniqueid": "w18826734:a99025591", "current_trial": 21, "dateTime": 1693390199007, "trialdata": {"revealed_states": [], "clicked_states": [], "num_clicks_accrued": [0, 0, 0, 0, 0, 0, 0, 0, 0, 0, 0, 0, 0], "stateRewards": ["", -2, 2, 3, -7, 76, 63, 21, 15, 35, -8, -44, 1, 1, -2, -12, 23, 24, 76, -9, 46, 66, -49, -2, -1, 7, 12, 40, -71, -45, -6, 38, -49, 46], "withholdReward": false, "trial_id": "mdp_trial_13", "block": "test", "trialIndex": 14, "score": -29, "costs": 0, "simulationMode": [null, null, null, null, null], "rewards": [-2, -1, 7, 12, -45], "path": ["0", "0", "23", "24", "25", "26", "29"], "rt": [1222, 262, 73, 594, 726], "actions": ["left", "left", "left", "up", "left"], "actionTimes": [3323, 4091, 4651, 5755, 6971], "queries": {"click": {"state": {"target": [], "time": []}, "edge": {"target": [], "time": []}}, "mouseover": {"state": {"target": ["0"], "time": [2143]}, "edge": {"target": [], "time": []}}, "mouseout": {"state": {"target": ["0", "0", "13", "9"], "time": [1793, 2160, 8076, 13576]}, "edge": {"target": [], "time": []}}}, "displayed_time": "16.10", "trialTime": 17955, "trial_type": "mouselab-mdp", "trial_index": 21, "time_elapsed": 1028903, "internal_node_id": "0.0-6.0-1.0-12.0"}}, {"uniqueid": "w18826734:a99025591", "current_trial": 22, "dateTime": 1693390217311, "trialdata": {"revealed_states": [], "clicked_states": [], "num_clicks_accrued": [0, 0, 0, 0, 0, 0, 0, 0, 0, 0, 0, 0, 0], "stateRewards": ["", 1, 2, -5, 14, 54, -14, -25, 16, -5, -87, 78, -1, 1, 3, -3, 52, 53, 53, -10, 73, -69, -48, 2, 3, 1, 8, -62, -7, 85, 7, 82, 52, -28], "withholdReward": false, "trial_id": "mdp_trial_14", "block": "test", "trialIndex": 15, "score": 92, "costs": 0, "simulationMode": [null, null, null, null, null], "rewards": [1, 2, -5, 16, 78], "path": ["0", "0", "1", "2", "3", "8", "11"], "rt": [1213, 21, 304, 368, 100], "actions": ["up", "up", "up", "left", "left"], "actionTimes": [3855, 4375, 5191, 6055, 6671], "queries": {"click": {"state": {"target": [], "time": []}, "edge": {"target": [], "time": []}}, "mouseover": {"state": {"target": ["0", "12", "1"], "time": [2686, 2736, 3052]}, "edge": {"target": [], "time": []}}, "mouseout": {"state": {"target": ["23", "31", "0", "0", "12", "1", "28"], "time": [1436, 1686, 1769, 2703, 3019, 3069, 8202]}, "edge": {"target": [], "time": []}}}, "displayed_time": "16.64", "trialTime": 18135, "trial_type": "mouselab-mdp", "trial_index": 22, "time_elapsed": 1047207, "internal_node_id": "0.0-6.0-1.0-13.0"}}, {"uniqueid": "w18826734:a99025591", "current_trial": 23, "dateTime": 1693390234983, "trialdata": {"revealed_states": [], "clicked_states": [], "num_clicks_accrued": [0, 0, 0, 0, 0, 0, 0, 0, 0, 0, 0, 0, 0], "stateRewards": ["", -2, -4, 2, 10, -17, 18, 73, 11, -32, 23, -13, -2, -4, 7, 12, -25, 66, -23, 15, 40, -76, -9, 1, 2, -7, -5, -20, 24, 3, -5, 16, -73, 70], "withholdReward": false, "trial_id": "mdp_trial_15", "block": "test", "trialIndex": 16, "score": -6, "costs": 0, "simulationMode": [null, null, null, null, null], "rewards": [-2, -4, 2, 11, -13], "path": ["0", "0", "1", "2", "3", "8", "11"], "rt": [961, 391, 132, 346, 128], "actions": ["up", "up", "up", "left", "left"], "actionTimes": [3285, 4189, 4813, 5661, 6293], "queries": {"click": {"state": {"target": [], "time": []}, "edge": {"target": [], "time": []}}, "mouseover": {"state": {"target": ["0"], "time": [2337]}, "edge": {"target": [], "time": []}}, "mouseout": {"state": {"target": ["31", "21", "21", "0", "0"], "time": [1513, 1563, 1630, 1896, 2363]}, "edge": {"target": [], "time": []}}}, "displayed_time": "16.33", "trialTime": 17501, "trial_type": "mouselab-mdp", "trial_index": 23, "time_elapsed": 1064879, "internal_node_id": "0.0-6.0-1.0-14.0"}}, {"uniqueid": "w18826734:a99025591", "current_trial": 24, "dateTime": 1693390252127, "trialdata": {"revealed_states": [], "clicked_states": [], "num_clicks_accrued": [0, 0, 0, 0, 0, 0, 0, 0, 0, 0, 0, 0, 0], "stateRewards": ["", -1, -3, -7, -4, -85, -70, 79, 8, 84, -66, 42, 2, -2, -3, -16, -54, -66, 68, -3, 21, -14, 7, -2, -1, -3, -8, 75, 80, 86, -7, -84, 73, -16], "withholdReward": false, "trial_id": "mdp_trial_16", "block": "test", "trialIndex": 17, "score": -85, "costs": 0, "simulationMode": [null, null, null, null, null], "rewards": [-1, -3, -7, -4, -70], "path": ["0", "0", "1", "2", "3", "4", "6"], "rt": [1085, 182, 5, 679, 176], "actions": ["up", "up", "up", "right", "right"], "actionTimes": [2585, 3273, 3793, 5001, 5665], "queries": {"click": {"state": {"target": [], "time": []}, "edge": {"target": [], "time": []}}, "mouseover": {"state": {"target": [], "time": []}, "edge": {"target": [], "time": []}}, "mouseout": {"state": {"target": ["0"], "time": [1587]}, "edge": {"target": [], "time": []}}}, "displayed_time": "15.50", "trialTime": 16969, "trial_type": "mouselab-mdp", "trial_index": 24, "time_elapsed": 1082023, "internal_node_id": "0.0-6.0-1.0-15.0"}}, {"uniqueid": "w18826734:a99025591", "current_trial": 25, "dateTime": 1693390268839, "trialdata": {"revealed_states": [], "clicked_states": [], "num_clicks_accrued": [0, 0, 0, 0, 0, 0, 0, 0, 0, 0, 0, 0, 0], "stateRewards": ["", -2, -1, -1, 5, -54, -87, 35, 2, -8, 20, -22, 1, 3, 6, 13, -75, -32, -55, -3, 56, 62, -22, -1, -4, -1, -7, -51, 84, 70, 7, -15, 5, 55], "withholdReward": false, "trial_id": "mdp_trial_17", "block": "test", "trialIndex": 18, "score": -10, "costs": 0, "simulationMode": [null, null, null, null, null], "rewards": [-2, -1, -1, 2, -8], "path": ["0", "0", "1", "2", "3", "8", "9"], "rt": [1230, 203, 39, 465, 402], "actions": ["up", "up", "up", "left", "up"], "actionTimes": [2572, 3284, 3820, 4796, 5716], "queries": {"click": {"state": {"target": [], "time": []}, "edge": {"target": [], "time": []}}, "mouseover": {"state": {"target": ["12"], "time": [1463]}, "edge": {"target": [], "time": []}}, "mouseout": {"state": {"target": ["0", "12"], "time": [1446, 1480]}, "edge": {"target": [], "time": []}}}, "displayed_time": "15.34", "trialTime": 16540, "trial_type": "mouselab-mdp", "trial_index": 25, "time_elapsed": 1098735, "internal_node_id": "0.0-6.0-1.0-16.0"}}, {"uniqueid": "w18826734:a99025591", "current_trial": 26, "dateTime": 1693390286183, "trialdata": {"revealed_states": [], "clicked_states": [], "num_clicks_accrued": [0, 0, 0, 0, 0, 0, 0, 0, 0, 0, 0, 0, 0], "stateRewards": ["", -2, -3, -7, 7, -54, -69, -4, -14, -77, 22, 40, -2, -1, 5, 6, -35, 50, -60, 10, -28, 75, 57, 1, -4, -2, 2, 68, 34, -18, 12, 3, -21, -43], "withholdReward": false, "trial_id": "mdp_trial_18", "block": "test", "trialIndex": 19, "score": -27, "costs": 0, "simulationMode": [null, null, null, null, null], "rewards": [-2, -1, 5, 6, -35], "path": ["0", "0", "12", "13", "14", "15", "16"], "rt": [1029, 161, 14, 369, 805], "actions": ["right", "right", "right", "up", "up"], "actionTimes": [2509, 3181, 3701, 4606, 5925], "queries": {"click": {"state": {"target": [], "time": []}, "edge": {"target": [], "time": []}}, "mouseover": {"state": {"target": [], "time": []}, "edge": {"target": [], "time": []}}, "mouseout": {"state": {"target": ["12", "0"], "time": [651, 1496]}, "edge": {"target": [], "time": []}}}, "displayed_time": "15.48", "trialTime": 17173, "trial_type": "mouselab-mdp", "trial_index": 26, "time_elapsed": 1116079, "internal_node_id": "0.0-6.0-1.0-17.0"}}, {"uniqueid": "w18826734:a99025591", "current_trial": 27, "dateTime": 1693390307783, "trialdata": {"revealed_states": [], "clicked_states": [], "num_clicks_accrued": [0, 0, 0, 0, 0, 0, 0, 0, 0, 0, 0, 0, 0], "stateRewards": ["", 2, -3, -5, 5, 11, -9, -33, 6, 67, 6, -30, -1, -2, -6, 13, 55, 13, 72, -14, 75, 21, -66, -2, -4, 6, 15, -1, -35, 60, 2, 51, -73, 12], "withholdReward": false, "trial_id": "mdp_trial_19", "block": "test", "trialIndex": 20, "score": -30, "costs": 0, "simulationMode": [null, null, null, null, null], "rewards": [2, -3, -5, 6, -30], "path": ["0", "0", "1", "2", "3", "8", "11"], "rt": [1803, 100, 218, 582, 818], "actions": ["up", "up", "up", "left", "left"], "actionTimes": [3311, 3903, 4639, 5719, 7055], "queries": {"click": {"state": {"target": [], "time": []}, "edge": {"target": [], "time": []}}, "mouseover": {"state": {"target": ["0", "12"], "time": [1516, 1585]}, "edge": {"target": [], "time": []}}, "mouseout": {"state": {"target": ["0", "0", "0", "12", "12"], "time": [701, 1232, 1552, 1618, 19809]}, "edge": {"target": [], "time": []}}}, "displayed_time": "15.51", "trialTime": 21423, "trial_type": "mouselab-mdp", "trial_index": 27, "time_elapsed": 1137679, "internal_node_id": "0.0-6.0-1.0-18.0"}}, {"uniqueid": "w18826734:a99025591", "current_trial": 28, "dateTime": 1693390326423, "trialdata": {"revealed_states": [], "clicked_states": [], "num_clicks_accrued": [0, 0, 0, 0, 0, 0, 0, 0, 0, 0, 0, 0, 0], "stateRewards": ["", 2, 3, -3, 12, -43, 81, -82, -15, 58, -7, -75, -1, -1, 3, -5, 50, -25, -8, 4, 66, 65, -66, 2, -4, 2, -1, -10, 10, 37, 11, 88, -37, 8], "withholdReward": false, "trial_id": "mdp_trial_20", "block": "test", "trialIndex": 21, "score": 70, "costs": 0, "simulationMode": [null, null, null, null, null], "rewards": [-1, -1, 3, 4, 65], "path": ["0", "0", "12", "13", "14", "19", "21"], "rt": [1377, 306, 114, 497, 681], "actions": ["right", "right", "right", "down", "down"], "actionTimes": [3719, 4535, 5143, 6160, 7343], "queries": {"click": {"state": {"target": [], "time": []}, "edge": {"target": [], "time": []}}, "mouseover": {"state": {"target": ["0", "12", "13", "12"], "time": [2351, 2411, 2528, 2761]}, "edge": {"target": [], "time": []}}, "mouseout": {"state": {"target": ["0", "0", "12", "13", "12", "12", "0"], "time": [2347, 2377, 2460, 2695, 16129, 17227, 17377]}, "edge": {"target": [], "time": []}}}, "displayed_time": "16.34", "trialTime": 18455, "trial_type": "mouselab-mdp", "trial_index": 28, "time_elapsed": 1156319, "internal_node_id": "0.0-6.0-1.0-19.0"}}, {"uniqueid": "w18826734:a99025591", "current_trial": 29, "dateTime": 1693390344423, "trialdata": {"revealed_states": [], "clicked_states": [], "num_clicks_accrued": [0, 0, 0, 0, 0, 0, 0, 0, 0, 0, 0, 0, 0], "stateRewards": ["", -1, 4, -3, 3, 57, -61, 5, -11, 23, -1, 34, -2, -4, -1, -13, 27, 38, -36, 4, -45, 21, 88, 1, -2, -1, 1, -69, -5, -78, -12, -9, 38, -54], "withholdReward": false, "trial_id": "mdp_trial_21", "block": "test", "trialIndex": 22, "score": 18, "costs": 0, "simulationMode": [null, null, null, null, null], "rewards": [-2, -4, -1, 4, 21], "path": ["0", "0", "12", "13", "14", "19", "21"], "rt": [1276, 390, 155, 833, 186], "actions": ["right", "right", "right", "down", "down"], "actionTimes": [3574, 4462, 5110, 6454, 7157], "queries": {"click": {"state": {"target": [], "time": []}, "edge": {"target": [], "time": []}}, "mouseover": {"state": {"target": ["0", "12", "19"], "time": [2321, 2353, 2453]}, "edge": {"target": [], "time": []}}, "mouseout": {"state": {"target": ["12", "0", "0", "12", "19"], "time": [1803, 1936, 2337, 2370, 9487]}, "edge": {"target": [], "time": []}}}, "displayed_time": "16.30", "trialTime": 17798, "trial_type": "mouselab-mdp", "trial_index": 29, "time_elapsed": 1174318, "internal_node_id": "0.0-6.0-1.0-20.0"}}, {"uniqueid": "w18826734:a99025591", "current_trial": 30, "dateTime": 1693390361351, "trialdata": {"revealed_states": [], "clicked_states": [], "num_clicks_accrued": [0, 0, 0, 0, 0, 0, 0, 0, 0, 0, 0, 0, 0], "stateRewards": ["", 1, 4, -8, -13, -13, -87, -77, -10, -44, 54, 42, 2, -3, -4, 12, -9, -80, 52, 9, 84, -2, -65, 1, -4, -5, -6, 8, 80, 32, 13, -59, -5, -13], "withholdReward": false, "trial_id": "mdp_trial_22", "block": "test", "trialIndex": 23, "score": 2, "costs": 0, "simulationMode": [null, null, null, null, null], "rewards": [2, -3, -4, 9, -2], "path": ["0", "0", "12", "13", "14", "19", "21"], "rt": [1175, 43, 541, 579, 224], "actions": ["right", "right", "right", "down", "down"], "actionTimes": [2669, 3204, 4253, 5341, 6053], "queries": {"click": {"state": {"target": [], "time": []}, "edge": {"target": [], "time": []}}, "mouseover": {"state": {"target": ["12"], "time": [1544]}, "edge": {"target": [], "time": []}}, "mouseout": {"state": {"target": ["22", "12", "12"], "time": [843, 1026, 1577]}, "edge": {"target": [], "time": []}}}, "displayed_time": "15.49", "trialTime": 16733, "trial_type": "mouselab-mdp", "trial_index": 30, "time_elapsed": 1191246, "internal_node_id": "0.0-6.0-1.0-21.0"}}, {"uniqueid": "w18826734:a99025591", "current_trial": 31, "dateTime": 1693390379303, "trialdata": {"revealed_states": [], "clicked_states": [], "num_clicks_accrued": [0, 0, 0, 0, 0, 0, 0, 0, 0, 0, 0, 0, 0], "stateRewards": ["", 2, -4, -8, -15, 71, -43, -41, 7, -17, 20, 67, -1, -1, -4, 6, 37, -24, -47, 9, 34, 57, 45, 1, 2, -4, -5, -23, 88, -5, 13, -40, 43, 44], "withholdReward": false, "trial_id": "mdp_trial_23", "block": "test", "trialIndex": 24, "score": 37, "costs": 0, "simulationMode": [null, null, null, null, null], "rewards": [-1, -1, -4, 6, 37], "path": ["0", "0", "12", "13", "14", "15", "16"], "rt": [1348, 5, 144, 326, 133], "actions": ["right", "right", "right", "up", "up"], "actionTimes": [2900, 3396, 4052, 4884, 5508], "queries": {"click": {"state": {"target": [], "time": []}, "edge": {"target": [], "time": []}}, "mouseover": {"state": {"target": ["12"], "time": [1606]}, "edge": {"target": [], "time": []}}, "mouseout": {"state": {"target": ["12", "12", "13", "14", "17", "25"], "time": [939, 1623, 12657, 12722, 12789, 13325]}, "edge": {"target": [], "time": []}}}, "displayed_time": "15.55", "trialTime": 17764, "trial_type": "mouselab-mdp", "trial_index": 31, "time_elapsed": 1209198, "internal_node_id": "0.0-6.0-1.0-22.0"}}, {"uniqueid": "w18826734:a99025591", "current_trial": 32, "dateTime": 1693390397287, "trialdata": {"revealed_states": [], "clicked_states": [], "num_clicks_accrued": [0, 0, 0, 0, 0, 0, 0, 0, 0, 0, 0, 0, 0], "stateRewards": ["", -2, 4, -3, -13, 63, -36, 62, 11, 78, 34, -51, 2, -2, 8, -6, -40, -18, 31, 9, 64, 39, 79, 1, 4, -4, 15, -12, 76, 73, -10, -77, 86, -4], "withholdReward": false, "trial_id": "mdp_trial_24", "block": "test", "trialIndex": 25, "score": -38, "costs": 0, "simulationMode": [null, null, null, null, null], "rewards": [2, -2, 8, -6, -40], "path": ["0", "0", "12", "13", "14", "15", "16"], "rt": [1020, 497, 145, 262, 80], "actions": ["right", "right", "right", "up", "up"], "actionTimes": [2836, 3828, 4492, 5244, 5811], "queries": {"click": {"state": {"target": [], "time": []}, "edge": {"target": [], "time": []}}, "mouseover": {"state": {"target": ["0"], "time": [1831]}, "edge": {"target": [], "time": []}}, "mouseout": {"state": {"target": ["14", "0", "0", "32", "29", "25"], "time": [1012, 1479, 1896, 10813, 16429, 16496]}, "edge": {"target": [], "time": []}}}, "displayed_time": "15.82", "trialTime": 17788, "trial_type": "mouselab-mdp", "trial_index": 32, "time_elapsed": 1227182, "internal_node_id": "0.0-6.0-1.0-23.0"}}, {"uniqueid": "w18826734:a99025591", "current_trial": 33, "dateTime": 1693390414775, "trialdata": {"revealed_states": [], "clicked_states": [], "num_clicks_accrued": [0, 0, 0, 0, 0, 0, 0, 0, 0, 0, 0, 0, 0], "stateRewards": ["", 1, 2, 2, -15, -84, 28, -26, 13, 31, 86, 30, -2, 1, -1, -8, 66, -40, -1, -10, -32, 57, -17, 1, 2, -2, 9, -23, 77, 85, 12, -32, -62, -35], "withholdReward": false, "trial_id": "mdp_trial_25", "block": "test", "trialIndex": 26, "score": 18, "costs": 0, "simulationMode": [null, null, null, null, null], "rewards": [1, 2, 2, -15, 28], "path": ["0", "0", "1", "2", "3", "4", "6"], "rt": [1124, 254, 192, 324, 171], "actions": ["up", "up", "up", "right", "right"], "actionTimes": [2914, 3659, 4347, 5179, 5842], "queries": {"click": {"state": {"target": [], "time": []}, "edge": {"target": [], "time": []}}, "mouseover": {"state": {"target": ["12"], "time": [1920]}, "edge": {"target": [], "time": []}}, "mouseout": {"state": {"target": ["24", "25", "25", "24", "23", "12", "1"], "time": [636, 669, 1003, 1069, 1186, 2169, 11719]}, "edge": {"target": [], "time": []}}}, "displayed_time": "15.79", "trialTime": 17283, "trial_type": "mouselab-mdp", "trial_index": 33, "time_elapsed": 1244670, "internal_node_id": "0.0-6.0-1.0-24.0"}}, {"uniqueid": "w18826734:a99025591", "current_trial": 34, "dateTime": 1693390432127, "trialdata": {"revealed_states": [], "clicked_states": [], "num_clicks_accrued": [0, 0, 0, 0, 0, 0, 0, 0, 0, 0, 0, 0, 0], "stateRewards": ["", 1, -2, -8, -13, 4, 34, -84, -4, -49, 88, -70, -1, 3, -4, 10, -77, 13, -34, 15, -21, -16, 27, 1, -2, 8, -8, -6, 38, -26, 6, -15, 66, -3], "withholdReward": false, "trial_id": "mdp_trial_26", "block": "test", "trialIndex": 27, "score": -18, "costs": 0, "simulationMode": [null, null, null, null, null], "rewards": [1, -2, -8, -13, 4], "path": ["0", "0", "1", "2", "3", "4", "5"], "rt": [964, 172, 146, 399, 765], "actions": ["up", "up", "up", "right", "up"], "actionTimes": [2863, 3551, 4191, 5095, 6360], "queries": {"click": {"state": {"target": [], "time": []}, "edge": {"target": [], "time": []}}, "mouseover": {"state": {"target": ["0", "12"], "time": [1908, 2178]}, "edge": {"target": [], "time": []}}, "mouseout": {"state": {"target": ["12", "12", "0", "0", "0", "12", "26"], "time": [1227, 1328, 1394, 1477, 1945, 2194, 7995]}, "edge": {"target": [], "time": []}}}, "displayed_time": "15.90", "trialTime": 17160, "trial_type": "mouselab-mdp", "trial_index": 34, "time_elapsed": 1262022, "internal_node_id": "0.0-6.0-1.0-25.0"}}, {"uniqueid": "w18826734:a99025591", "current_trial": 35, "dateTime": 1693390450064, "trialdata": {"revealed_states": [], "clicked_states": [], "num_clicks_accrued": [0, 0, 0, 0, 0, 0, 0, 0, 0, 0, 0, 0, 0], "stateRewards": ["", -2, -4, -6, 12, -58, -70, -80, 2, 16, -88, -62, 1, 2, -5, 11, 77, -35, -44, -5, 18, -83, 87, 1, -3, -5, 13, -44, -21, -86, 10, -52, 8, 29], "withholdReward": false, "trial_id": "mdp_trial_27", "block": "test", "trialIndex": 28, "score": -38, "costs": 0, "simulationMode": [null, null, null, null, null], "rewards": [1, -3, -5, 13, -44], "path": ["0", "0", "23", "24", "25", "26", "27"], "rt": [1092, 112, 168, 213, 128], "actions": ["left", "left", "left", "up", "up"], "actionTimes": [3203, 3818, 4475, 5203, 5818], "queries": {"click": {"state": {"target": [], "time": []}, "edge": {"target": [], "time": []}}, "mouseover": {"state": {"target": ["0"], "time": [2129]}, "edge": {"target": [], "time": []}}, "mouseout": {"state": {"target": ["12", "0"], "time": [1438, 2221]}, "edge": {"target": [], "time": []}}}, "displayed_time": "16.11", "trialTime": 17724, "trial_type": "mouselab-mdp", "trial_index": 35, "time_elapsed": 1279960, "internal_node_id": "0.0-6.0-1.0-26.0"}}, {"uniqueid": "w18826734:a99025591", "current_trial": 36, "dateTime": 1693390467727, "trialdata": {"revealed_states": [], "clicked_states": [], "num_clicks_accrued": [0, 0, 0, 0, 0, 0, 0, 0, 0, 0, 0, 0, 0], "stateRewards": ["", -2, 4, -7, -3, -76, 39, -28, 10, 14, 12, 60, 2, -3, 6, -10, 88, -34, -41, -3, 72, -13, -56, 1, 3, 2, 8, -51, 23, -57, 1, 14, -46, -16], "withholdReward": false, "trial_id": "mdp_trial_28", "block": "test", "trialIndex": 29, "score": -54, "costs": 0, "simulationMode": [null, null, null, null, null], "rewards": [2, -3, 6, -3, -56], "path": ["0", "0", "12", "13", "14", "19", "22"], "rt": [962, 129, 632, 593, 253], "actions": ["right", "right", "right", "down", "left"], "actionTimes": [3248, 3879, 5015, 6127, 6887], "queries": {"click": {"state": {"target": [], "time": []}, "edge": {"target": [], "time": []}}, "mouseover": {"state": {"target": ["12", "12", "0"], "time": [2365, 2532, 2582]}, "edge": {"target": [], "time": []}}, "mouseout": {"state": {"target": ["0", "12", "12"], "time": [2332, 2382, 2549]}, "edge": {"target": [], "time": []}}}, "displayed_time": "16.29", "trialTime": 17447, "trial_type": "mouselab-mdp", "trial_index": 36, "time_elapsed": 1297623, "internal_node_id": "0.0-6.0-1.0-27.0"}}, {"uniqueid": "w18826734:a99025591", "current_trial": 37, "dateTime": 1693390484863, "trialdata": {"revealed_states": [], "clicked_states": [], "num_clicks_accrued": [0, 0, 0, 0, 0, 0, 0, 0, 0, 0, 0, 0, 0], "stateRewards": ["", 1, -2, -3, 14, -42, -87, -37, -11, -50, 33, -44, -2, 4, -7, 13, 48, -75, -66, 12, 23, -2, 82, 1, -4, 3, 12, 51, -15, -26, -11, -52, -29, 82], "withholdReward": false, "trial_id": "mdp_trial_29", "block": "test", "trialIndex": 30, "score": -77, "costs": 0, "simulationMode": [null, null, null, null, null], "rewards": [1, -2, -3, 14, -87], "path": ["0", "0", "1", "2", "3", "4", "6"], "rt": [1253, 34, 43, 589, 97], "actions": ["up", "up", "up", "right", "right"], "actionTimes": [2162, 2706, 3266, 4378, 4986], "queries": {"click": {"state": {"target": [], "time": []}, "edge": {"target": [], "time": []}}, "mouseover": {"state": {"target": [], "time": []}, "edge": {"target": [], "time": []}}, "mouseout": {"state": {"target": ["0", "0", "23"], "time": [918, 7788, 15888]}, "edge": {"target": [], "time": []}}}, "displayed_time": "14.91", "trialTime": 16922, "trial_type": "mouselab-mdp", "trial_index": 37, "time_elapsed": 1314759, "internal_node_id": "0.0-6.0-1.0-28.0"}}, {"uniqueid": "w18826734:a99025591", "current_trial": 38, "dateTime": 1693390502375, "trialdata": {"revealed_states": [], "clicked_states": [], "num_clicks_accrued": [0, 0, 0, 0, 0, 0, 0, 0, 0, 0, 0, 0, 0], "stateRewards": ["", -2, 2, 2, -6, 9, 37, 50, -13, -7, -18, -75, -2, -4, 4, 7, 23, -57, -66, -7, -81, -48, -76, 1, 1, -8, 1, 51, -2, 70, 14, 59, 71, -37], "withholdReward": false, "trial_id": "mdp_trial_30", "block": "test", "trialIndex": 31, "score": -7, "costs": 0, "simulationMode": [null, null, null, null, null], "rewards": [1, 1, -8, 1, -2], "path": ["0", "0", "23", "24", "25", "26", "28"], "rt": [1172, 25, 244, 757, 43], "actions": ["left", "left", "left", "up", "right"], "actionTimes": [3048, 3576, 4312, 5576, 6112], "queries": {"click": {"state": {"target": [], "time": []}, "edge": {"target": [], "time": []}}, "mouseover": {"state": {"target": ["12", "19", "20", "19"], "time": [1885, 1950, 2016, 2216]}, "edge": {"target": [], "time": []}}, "mouseout": {"state": {"target": ["12", "12", "19", "20", "19", "22"], "time": [1283, 1902, 1983, 2183, 2234, 8533]}, "edge": {"target": [], "time": []}}}, "displayed_time": "15.88", "trialTime": 17296, "trial_type": "mouselab-mdp", "trial_index": 38, "time_elapsed": 1332270, "internal_node_id": "0.0-6.0-1.0-29.0"}}, {"uniqueid": "w18826734:a99025591", "current_trial": 39, "dateTime": 1693390519759, "trialdata": {"revealed_states": [], "clicked_states": [], "num_clicks_accrued": [0, 0, 0, 0, 0, 0, 0, 0, 0, 0, 0, 0, 0], "stateRewards": ["", 2, 1, -3, 7, 46, 11, -36, 16, 71, 5, 1, 2, -2, -8, -3, -4, 6, 55, 7, 68, -54, 2, 1, 1, 6, -6, 42, -4, -84, -11, -65, 63, 25], "withholdReward": false, "trial_id": "mdp_trial_31", "block": "test", "trialIndex": 32, "score": -55, "costs": 0, "simulationMode": [null, null, null, null, null], "rewards": [2, -2, -8, 7, -54], "path": ["0", "0", "12", "13", "14", "19", "21"], "rt": [1033, 170, 134, 621, 112], "actions": ["right", "right", "right", "down", "down"], "actionTimes": [2876, 3580, 4228, 5348, 5972], "queries": {"click": {"state": {"target": [], "time": []}, "edge": {"target": [], "time": []}}, "mouseover": {"state": {"target": ["22", "19"], "time": [1892, 1926]}, "edge": {"target": [], "time": []}}, "mouseout": {"state": {"target": ["30", "31", "0", "22", "19"], "time": [1158, 1209, 1642, 1909, 7494]}, "edge": {"target": [], "time": []}}}, "displayed_time": "15.84", "trialTime": 17156, "trial_type": "mouselab-mdp", "trial_index": 39, "time_elapsed": 1349655, "internal_node_id": "0.0-6.0-1.0-30.0"}}, {"uniqueid": "w18826734:a99025591", "current_trial": 40, "dateTime": 1693390537159, "trialdata": {"revealed_states": [], "clicked_states": [], "num_clicks_accrued": [0, 0, 0, 0, 0, 0, 0, 0, 0, 0, 0, 0, 0], "stateRewards": ["", -1, 4, -6, -5, -22, -38, -38, -2, -56, 88, 14, -1, -1, -7, -6, 61, -60, 21, 11, 57, 31, -30, -2, -2, 6, -9, -44, -70, -44, -15, 34, 16, -78], "withholdReward": false, "trial_id": "mdp_trial_32", "block": "test", "trialIndex": 33, "score": 83, "costs": 0, "simulationMode": [null, null, null, null, null], "rewards": [-1, 4, -6, -2, 88], "path": ["0", "0", "1", "2", "3", "8", "10"], "rt": [1034, 127, 221, 409, 132], "actions": ["up", "up", "up", "left", "down"], "actionTimes": [2978, 3610, 4338, 5242, 5866], "queries": {"click": {"state": {"target": [], "time": []}, "edge": {"target": [], "time": []}}, "mouseover": {"state": {"target": ["22", "19"], "time": [1998, 2032]}, "edge": {"target": [], "time": []}}, "mouseout": {"state": {"target": ["22", "19"], "time": [2015, 2048]}, "edge": {"target": [], "time": []}}}, "displayed_time": "15.95", "trialTime": 17162, "trial_type": "mouselab-mdp", "trial_index": 40, "time_elapsed": 1367055, "internal_node_id": "0.0-6.0-1.0-31.0"}}, {"uniqueid": "w18826734:a99025591", "current_trial": 41, "dateTime": 1693390554423, "trialdata": {"revealed_states": [], "clicked_states": [], "num_clicks_accrued": [0, 0, 0, 0, 0, 0, 0, 0, 0, 0, 0, 0, 0], "stateRewards": ["", -1, -4, 8, 8, -68, 47, 24, -7, -61, 49, -69, -1, -1, 8, -7, 42, 1, -45, -11, 10, -63, -6, 1, 4, 6, -16, 79, -37, -58, -12, 81, 18, -53], "withholdReward": false, "trial_id": "mdp_trial_33", "block": "test", "trialIndex": 34, "score": -65, "costs": 0, "simulationMode": [null, null, null, null, null], "rewards": [-1, -4, 8, -7, -61], "path": ["0", "0", "1", "2", "3", "8", "9"], "rt": [1218, 215, 226, 356, 90], "actions": ["up", "up", "up", "left", "up"], "actionTimes": [2980, 3708, 4436, 5300, 5900], "queries": {"click": {"state": {"target": [], "time": []}, "edge": {"target": [], "time": []}}, "mouseover": {"state": {"target": ["12"], "time": [1792]}, "edge": {"target": [], "time": []}}, "mouseout": {"state": {"target": ["19", "12", "0", "12"], "time": [1041, 1242, 1565, 1808]}, "edge": {"target": [], "time": []}}}, "displayed_time": "15.76", "trialTime": 17036, "trial_type": "mouselab-mdp", "trial_index": 41, "time_elapsed": 1384319, "internal_node_id": "0.0-6.0-1.0-32.0"}}, {"uniqueid": "w18826734:a99025591", "current_trial": 42, "dateTime": 1693390571463, "trialdata": {"revealed_states": [], "clicked_states": [], "num_clicks_accrued": [0, 0, 0, 0, 0, 0, 0, 0, 0, 0, 0, 0, 0], "stateRewards": ["", 1, -2, -2, 10, -31, -77, 35, 9, -47, 8, 48, -2, 1, -4, -3, -26, -50, 43, -11, 76, -38, 17, 1, -1, 6, 10, 15, -9, 12, -8, 85, 11, -55], "withholdReward": false, "trial_id": "mdp_trial_34", "block": "test", "trialIndex": 35, "score": 14, "costs": 0, "simulationMode": [null, null, null, null, null], "rewards": [1, -2, -2, 9, 8], "path": ["0", "0", "1", "2", "3", "8", "10"], "rt": [984, 144, 454, 112, 31], "actions": ["up", "up", "up", "left", "down"], "actionTimes": [2310, 2942, 3886, 4494, 5022], "queries": {"click": {"state": {"target": [], "time": []}, "edge": {"target": [], "time": []}}, "mouseover": {"state": {"target": [], "time": []}, "edge": {"target": [], "time": []}}, "mouseout": {"state": {"target": ["13", "12", "0"], "time": [546, 813, 1332]}, "edge": {"target": [], "time": []}}}, "displayed_time": "15.33", "trialTime": 16814, "trial_type": "mouselab-mdp", "trial_index": 42, "time_elapsed": 1401359, "internal_node_id": "0.0-6.0-1.0-33.0"}}, {"uniqueid": "w18826734:a99025591", "current_trial": 43, "dateTime": 1693390588824, "trialdata": {"revealed_states": [], "clicked_states": [], "num_clicks_accrued": [0, 0, 0, 0, 0, 0, 0, 0, 0, 0, 0, 0, 0], "stateRewards": ["", -1, 2, -6, 6, -82, -19, -39, -16, -83, 11, -33, -2, -2, 4, -6, -82, -1, -19, -6, -10, -67, -41, -2, 1, -7, 16, -23, -78, -52, 14, 31, -71, 74], "withholdReward": false, "trial_id": "mdp_trial_35", "block": "test", "trialIndex": 36, "score": -18, "costs": 0, "simulationMode": [null, null, null, null, null], "rewards": [-1, 2, -6, 6, -19], "path": ["0", "0", "1", "2", "3", "4", "6"], "rt": [1140, 153, 62, 272, 66], "actions": ["up", "up", "up", "right", "right"], "actionTimes": [2831, 3487, 4063, 4823, 5383], "queries": {"click": {"state": {"target": [], "time": []}, "edge": {"target": [], "time": []}}, "mouseover": {"state": {"target": ["0", "12"], "time": [1816, 1883]}, "edge": {"target": [], "time": []}}, "mouseout": {"state": {"target": ["0", "0"], "time": [1333, 1833]}, "edge": {"target": [], "time": []}}}, "displayed_time": "15.69", "trialTime": 17127, "trial_type": "mouselab-mdp", "trial_index": 43, "time_elapsed": 1418719, "internal_node_id": "0.0-6.0-1.0-34.0"}}, {"uniqueid": "w18826734:a99025591", "current_trial": 44, "dateTime": 1693390606376, "trialdata": {"revealed_states": [], "clicked_states": [], "num_clicks_accrued": [0, 0, 0, 0, 0, 0, 0, 0, 0, 0, 0, 0, 0], "stateRewards": ["", 1, 2, 3, 16, 63, -25, 16, -4, -14, 82, -66, -1, -3, -3, -11, -14, 19, 46, 3, -34, -82, 66, -2, -3, 4, -5, -63, 77, -37, -1, -45, -41, 84], "withholdReward": false, "trial_id": "mdp_trial_36", "block": "test", "trialIndex": 37, "score": -64, "costs": 0, "simulationMode": [null, null, null, null, null], "rewards": [1, 2, 3, -4, -66], "path": ["0", "0", "1", "2", "3", "8", "11"], "rt": [804, 96, 199, 28, 110], "actions": ["up", "up", "up", "left", "left"], "actionTimes": [2724, 3315, 4003, 4547, 5163], "queries": {"click": {"state": {"target": [], "time": []}, "edge": {"target": [], "time": []}}, "mouseover": {"state": {"target": ["22"], "time": [2002]}, "edge": {"target": [], "time": []}}, "mouseout": {"state": {"target": ["12", "23", "0", "22"], "time": [1185, 1435, 1926, 2085]}, "edge": {"target": [], "time": []}}}, "displayed_time": "15.92", "trialTime": 17332, "trial_type": "mouselab-mdp", "trial_index": 44, "time_elapsed": 1436271, "internal_node_id": "0.0-6.0-1.0-35.0"}}, {"uniqueid": "w18826734:a99025591", "current_trial": 45, "dateTime": 1693390623968, "trialdata": {"revealed_states": [], "clicked_states": [], "num_clicks_accrued": [0, 0, 0, 0, 0, 0, 0, 0, 0, 0, 0, 0, 0], "stateRewards": ["", -2, -4, -8, 8, 63, -50, -19, -7, -17, -31, 31, 1, 3, -5, 12, -35, -63, -29, -4, -17, -75, -79, -2, -3, -2, 8, -3, -85, 10, -2, -82, -82, 56], "withholdReward": false, "trial_id": "mdp_trial_37", "block": "test", "trialIndex": 38, "score": -18, "costs": 0, "simulationMode": [null, null, null, null, null], "rewards": [1, 3, -5, 12, -29], "path": ["0", "0", "12", "13", "14", "15", "18"], "rt": [1145, 511, 79, 441, 51], "actions": ["right", "right", "right", "up", "left"], "actionTimes": [3361, 4360, 4928, 5856, 6400], "queries": {"click": {"state": {"target": [], "time": []}, "edge": {"target": [], "time": []}}, "mouseover": {"state": {"target": ["0", "12"], "time": [2281, 2331]}, "edge": {"target": [], "time": []}}, "mouseout": {"state": {"target": ["12", "0", "12"], "time": [1363, 2314, 2364]}, "edge": {"target": [], "time": []}}}, "displayed_time": "16.22", "trialTime": 17353, "trial_type": "mouselab-mdp", "trial_index": 45, "time_elapsed": 1453863, "internal_node_id": "0.0-6.0-1.0-36.0"}}, {"uniqueid": "w18826734:a99025591", "current_trial": 46, "dateTime": 1693390640880, "trialdata": {"revealed_states": [], "clicked_states": [], "num_clicks_accrued": [0, 0, 0, 0, 0, 0, 0, 0, 0, 0, 0, 0, 0], "stateRewards": ["", 2, -1, -1, -9, -81, -30, 55, -6, 78, 25, 62, 2, 4, -1, 9, -85, 1, -19, 1, -60, 12, -34, 1, 4, -1, -13, -24, -16, -83, -8, 16, 43, 9], "withholdReward": false, "trial_id": "mdp_trial_38", "block": "test", "trialIndex": 39, "score": 72, "costs": 0, "simulationMode": [null, null, null, null, null], "rewards": [2, -1, -1, -6, 78], "path": ["0", "0", "1", "2", "3", "8", "9"], "rt": [1328, 223, 99, 362, 7], "actions": ["up", "up", "up", "left", "up"], "actionTimes": [2750, 3486, 4078, 4942, 5454], "queries": {"click": {"state": {"target": [], "time": []}, "edge": {"target": [], "time": []}}, "mouseover": {"state": {"target": ["12", "13"], "time": [1432, 1519]}, "edge": {"target": [], "time": []}}, "mouseout": {"state": {"target": ["13", "12", "12", "13"], "time": [744, 811, 1478, 1528]}, "edge": {"target": [], "time": []}}}, "displayed_time": "15.42", "trialTime": 16679, "trial_type": "mouselab-mdp", "trial_index": 46, "time_elapsed": 1470776, "internal_node_id": "0.0-6.0-1.0-37.0"}}, {"uniqueid": "w18826734:a99025591", "current_trial": 47, "dateTime": 1693390659823, "trialdata": {"revealed_states": [], "clicked_states": [], "num_clicks_accrued": [0, 0, 0, 0, 0, 0, 0, 0, 0, 0, 0, 0, 0], "stateRewards": ["", -1, -4, -6, -15, 21, -67, -63, 9, 51, 69, -14, -1, 3, 8, -8, 39, 72, 63, 15, 19, 47, 15, 1, 4, 5, 16, -18, 34, 35, -14, -80, 40, 1], "withholdReward": false, "trial_id": "mdp_trial_39", "block": "test", "trialIndex": 40, "score": 49, "costs": 0, "simulationMode": [null, null, null, null, null], "rewards": [-1, -4, -6, 9, 51], "path": ["0", "0", "1", "2", "3", "8", "9"], "rt": [936, 361, 142, 501, 116], "actions": ["up", "up", "up", "left", "up"], "actionTimes": [2576, 3455, 4103, 5095, 5727], "queries": {"click": {"state": {"target": [], "time": []}, "edge": {"target": [], "time": []}}, "mouseover": {"state": {"target": ["12"], "time": [1793]}, "edge": {"target": [], "time": []}}, "mouseout": {"state": {"target": ["13", "12", "0", "12"], "time": [859, 976, 1743, 1809]}, "edge": {"target": [], "time": []}}}, "displayed_time": "15.64", "trialTime": 18703, "trial_type": "mouselab-mdp", "trial_index": 47, "time_elapsed": 1489719, "internal_node_id": "0.0-6.0-1.0-38.0"}}, {"uniqueid": "w18826734:a99025591", "current_trial": 48, "dateTime": 1693390678527, "trialdata": {"revealed_states": [], "clicked_states": [], "num_clicks_accrued": [0, 0, 0, 0, 0, 0, 0, 0, 0, 0, 0, 0, 0], "stateRewards": ["", -2, 2, -5, 1, 42, -63, -58, -6, 2, 16, 81, -2, 4, 7, -10, 33, 3, -33, -2, -52, -84, -27, 2, -3, -3, 15, -74, -14, -5, -5, -84, 79, -31], "withholdReward": false, "trial_id": "mdp_trial_40", "block": "test", "trialIndex": 41, "score": -9, "costs": 0, "simulationMode": [null, null, null, null, null], "rewards": [-2, 2, -5, -6, 2], "path": ["0", "0", "1", "2", "3", "8", "9"], "rt": [868, 24, 114, 593, 78], "actions": ["up", "up", "up", "left", "up"], "actionTimes": [2874, 3409, 4033, 5129, 5697], "queries": {"click": {"state": {"target": [], "time": []}, "edge": {"target": [], "time": []}}, "mouseover": {"state": {"target": [], "time": []}, "edge": {"target": [], "time": []}}, "mouseout": {"state": {"target": ["0"], "time": [1584]}, "edge": {"target": [], "time": []}}}, "displayed_time": "16.01", "trialTime": 18465, "trial_type": "mouselab-mdp", "trial_index": 48, "time_elapsed": 1508423, "internal_node_id": "0.0-6.0-1.0-39.0"}}, {"uniqueid": "w18826734:a99025591", "current_trial": 49, "dateTime": 1693390756559, "trialdata": {"rt": 78029, "response": {"Q0": "$-2 to $2", "Q1": "$-32 to $32", "Q2": "$-32 to $32", "Q3": "There was no cost for clicking on nodes.", "Q4": "Very motivated"}, "question_order": [0, 1, 2, 3, 4], "trial_id": "final_quiz_control", "trial_type": "survey-multi-choice", "trial_index": 49, "time_elapsed": 1586455, "internal_node_id": "0.0-6.0-2.0"}}, {"uniqueid": "w18826734:a99025591", "current_trial": 50, "dateTime": 1693390999033, "trialdata": {"rt": 242452, "response": {"Q0": "I MOVED THE SPIDER TO THE DIRECTION THAT HAD MORE POSITIVE AMOUNTS.", "Q1": "YES, I CHANGED THE DIRRECTION AFTER DISCOVERING THAT THE AMOUNT WAS NEGATIVE ON THE DIRECTION THAT I WAS MOVING TO", "Q2": "IT WAS DIFFICULT TO PREDICT WHICH SIDE HAD A POSITIVE AMOUNT"}, "trial_id": "self_report_control", "trial_type": "survey-text", "trial_index": 50, "time_elapsed": 1828928, "internal_node_id": "0.0-6.0-3.0"}}, {"uniqueid": "w18826734:a99025591", "current_trial": 51, "dateTime": 1693391025687, "trialdata": {"rt": 26651, "response": {"gender": "female", "age": "33", "colorblind": "0", "effort": "0"}, "trial_type": "survey-html-form", "trial_index": 51, "time_elapsed": 1855583, "internal_node_id": "0.0-6.0-4.0"}}, {"uniqueid": "w18826734:a99025591", "current_trial": 52, "dateTime": 1693391070471, "trialdata": {"rt": 44780, "response": {"Q0": "EVERYTHING WAS EASY TO UNDERSTAND", "Q1": "NO", "Q2": ""}, "trial_type": "survey-text", "trial_index": 52, "time_elapsed": 1900367, "internal_node_id": "0.0-6.0-5.0"}}, {"uniqueid": "w18826734:a99025591", "current_trial": 53, "dateTime": 1693391106143, "trialdata": {"rt": 35669, "stimulus": "<h1>Completion Code Instructions (1/2)</h1>\n<br><br><br><br>\nYou have reached the end of the experiment! The completion code consists of two parts: (1) a code with 2 characters (2) a code with 6 characters. On this page, you will receive the second part of the code. The first part of the completion code will be on the next page.\n<br><br>\nThe second part of your completion code is: <b>EWEK22</b>\n<br><br>\nPlease note this down. Then, press 'Finish HIT' in order to find the first part of your completion code. Once the data has been saved, you will receive this code either in this window or in the original browser window where you started the experiment.\n", "response": 0, "trial_type": "html-button-response", "trial_index": 53, "time_elapsed": 1936039, "internal_node_id": "0.0-6.0-6.0"}}, {"uniqueid": "w18826734:a99025591", "current_trial": 54, "dateTime": 1693391107146, "trialdata": {"success": true, "trial_type": "fullscreen", "trial_index": 54, "time_elapsed": 1937042, "internal_node_id": "0.0-7.0"}}], "questiondata": {"params": {"CODE": "C6DMOQA6", "MIN_TIME": 14, "inspectCost": 1, "startTime": "Wed Aug 30 2023 11:52:39 GMT+0200 (South Africa Standard Time)", "bonusRate": 0.002, "variance": "1_2_4_8_44", "branching": "31123"}, "final_score": 46}, "eventdata": [{"eventtype": "initialized", "value": null, "timestamp": 1693389155402, "interval": 0}, {"eventtype": "window_resize", "value": [782, 973], "timestamp": 1693389155402, "interval": 0}, {"eventtype": "window_resize", "value": [782, 973], "timestamp": 1693389159080, "interval": 3678}, {"eventtype": "focus", "value": "on", "timestamp": 1693389171837, "interval": 12757}, {"eventtype": "window_resize", "value": [1147, 973], "timestamp": 1693389177807, "interval": 5970}, {"eventtype": "window_resize", "value": [1148, 973], "timestamp": 1693389178103, "interval": 296}, {"eventtype": "window_resize", "value": [1920, 1080], "timestamp": 1693389186394, "interval": 8291}, {"eventtype": "window_resize", "value": [1148, 973], "timestamp": 1693389219102, "interval": 32708}, {"eventtype": "focus", "value": "off", "timestamp": 1693390758004, "interval": 1538902}, {"eventtype": "focus", "value": "on", "timestamp": 1693390791876, "interval": 33872}, {"eventtype": "focus", "value": "off", "timestamp": 1693390848445, "interval": 56569}, {"eventtype": "focus", "value": "on", "timestamp": 1693390922409, "interval": 73964}, {"eventtype": "window_resize", "value": [1134, 966], "timestamp": 1693390926480, "interval": 4071}], "useragent": "Mozilla/5.0 (Windows NT 10.0; Win64; x64) AppleWebKit/537.36 (KHTML, like Gecko) Chrome/116.0.0.0 Safari/537.36", "mode": "live", "id": "w18826734:a99025591", "status": "user data saved", "Beginhit": "2023-08-30 09:50:59.778624", "Beginexp": "2023-08-30 09:53:07.332227", "Endhit": "2023-08-30 10:25:08.844603", "psiturkStatus": 3, "browser": "<redacted>", "platform": "windows", "language": "en-US"}