{"condition": 0, "counterbalance": 0, "assignmentId": "a75128829", "workerId": "w65890100", "hitId": "h60737782", "currenttrial": 61, "bonus": 0, "data": [{"uniqueid": "w65890100:a75128829", "current_trial": 0, "dateTime": 1693568456784, "trialdata": {"success": true, "trial_type": "fullscreen", "trial_index": 0, "time_elapsed": 11743, "internal_node_id": "0.0-0.0"}}, {"uniqueid": "w65890100:a75128829", "current_trial": 1, "dateTime": 1693568495116, "trialdata": {"view_history": [{"page_index": 0, "viewing_time": 38317}], "rt": 38318, "trial_id": "exp_instructions_control", "trial_type": "instructions", "trial_index": 1, "time_elapsed": 50076, "internal_node_id": "0.0-1.0"}}, {"uniqueid": "w65890100:a75128829", "current_trial": 2, "dateTime": 1693568657499, "trialdata": {"view_history": [{"page_index": 0, "viewing_time": 61062}, {"page_index": 1, "viewing_time": 59665}, {"page_index": 2, "viewing_time": 17183}, {"page_index": 3, "viewing_time": 24472}], "rt": 162382, "trial_id": "mouselab_instructions_1_control", "trial_type": "instructions", "trial_index": 2, "time_elapsed": 212459, "internal_node_id": "0.0-2.0-1.0"}}, {"uniqueid": "w65890100:a75128829", "current_trial": 3, "dateTime": 1693568681931, "trialdata": {"revealed_states": [], "clicked_states": [], "num_clicks_accrued": [0, 0, 0, 0, 0, 0, 0, 0, 0, 0, 0, 0, 0], "stateRewards": ["", 10, -10, 10, -10, -10, 10, -10, 10, -10, 10, 10, -10, -10, 10, 10, -10, -10, 10, -10, 10, -10, -10, 10, -10, -10, -10, -10, -10, -10, 10, -10, 10, -10], "withholdReward": false, "trial_id": "practice_1", "block": "test", "trialIndex": 0, "score": -6.5, "costs": 0, "simulationMode": [null, null, null, null, null], "rewards": [-10, -10, 10, 10, -10], "path": ["0", "0", "12", "13", "14", "15", "16"], "rt": [1978, 653, 171, 572, 729], "actions": ["right", "right", "right", "up", "up"], "actionTimes": [7378, 8549, 9234, 10318, 11558], "queries": {"click": {"state": {"target": [], "time": []}, "edge": {"target": [], "time": []}}, "mouseover": {"state": {"target": ["12", "13", "14"], "time": [5995, 6011, 6044]}, "edge": {"target": [], "time": []}}, "mouseout": {"state": {"target": ["13", "14", "17", "13", "12", "12", "13"], "time": [529, 579, 4096, 4495, 4562, 6010, 6027]}, "edge": {"target": [], "time": []}}}, "displayed_time": "12.06", "trialTime": 24163, "trial_type": "mouselab-mdp", "trial_index": 3, "time_elapsed": 236890, "internal_node_id": "0.0-2.0-2.0-0.0"}}, {"uniqueid": "w65890100:a75128829", "current_trial": 4, "dateTime": 1693568698828, "trialdata": {"revealed_states": [], "clicked_states": [], "num_clicks_accrued": [0, 0, 0, 0, 0, 0, 0, 0, 0, 0, 0, 0, 0], "stateRewards": ["", 10, 10, 10, -10, -10, 10, -10, -10, -10, -10, -10, -10, -10, 10, 10, 10, 10, -10, -10, -10, 10, 10, -10, -10, 10, 10, -10, -10, -10, 10, -10, 10, 10], "withholdReward": false, "trial_id": "practice_2", "block": "test", "trialIndex": 1, "score": 13.5, "costs": 0, "simulationMode": [null, null, null, null, null], "rewards": [10, 10, 10, -10, -10], "path": ["0", "0", "1", "2", "3", "4", "5"], "rt": [1068, 1436, 2426, 957, 295], "actions": ["up", "up", "up", "right", "up"], "actionTimes": [4229, 6157, 9097, 10561, 11349], "queries": {"click": {"state": {"target": [], "time": []}, "edge": {"target": [], "time": []}}, "mouseover": {"state": {"target": ["0", "12"], "time": [3338, 3386]}, "edge": {"target": [], "time": []}}, "mouseout": {"state": {"target": ["14", "13", "0", "12", "20"], "time": [2304, 2387, 3371, 3402, 15654]}, "edge": {"target": [], "time": []}}}, "displayed_time": "11.84", "trialTime": 16787, "trial_type": "mouselab-mdp", "trial_index": 4, "time_elapsed": 253787, "internal_node_id": "0.0-2.0-2.0-1.0"}}, {"uniqueid": "w65890100:a75128829", "current_trial": 5, "dateTime": 1693568738318, "trialdata": {"view_history": [{"page_index": 0, "viewing_time": 26644}, {"page_index": 1, "viewing_time": 12843}], "rt": 39487, "trial_id": "mouselab_instructions_2_control", "trial_type": "instructions", "trial_index": 5, "time_elapsed": 293278, "internal_node_id": "0.0-2.0-3.0"}}, {"uniqueid": "w65890100:a75128829", "current_trial": 6, "dateTime": 1693568774251, "trialdata": {"rt": 35926, "response": {"Q0": "The cost for clicking on nodes may vary between nodes.", "Q1": "The better I perform the higher my bonus will be.", "Q2": "No, the amount of cash at each node of the web may be different each time.", "Q3": "To click on the least number of nodes.", "Q4": "Only after moving the spider.", "Q5": "3 seconds"}, "question_order": [0, 1, 2, 3, 4, 5], "correct": {"Q0": "The cost for clicking on nodes may vary between nodes.", "Q1": "The better I perform the higher my bonus will be.", "Q2": "No, the amount of cash at each node of the web may be different each time.", "Q3": "To get the highest total score.", "Q4": "Only before moving the spider.", "Q5": "3 seconds"}, "trial_id": "mouselab_quiz_control", "trial_type": "survey-multi-choice", "trial_index": 6, "time_elapsed": 329211, "internal_node_id": "0.0-2.0-4.0"}}, {"uniqueid": "w65890100:a75128829", "current_trial": 7, "dateTime": 1693568784662, "trialdata": {"success": true, "trial_type": "fullscreen", "trial_index": 7, "time_elapsed": 339622, "internal_node_id": "0.0-2.1-0.1-0.1"}}, {"uniqueid": "w65890100:a75128829", "current_trial": 8, "dateTime": 1693568886994, "trialdata": {"view_history": [{"page_index": 0, "viewing_time": 37911}, {"page_index": 1, "viewing_time": 44129}, {"page_index": 2, "viewing_time": 8570}, {"page_index": 3, "viewing_time": 11719}], "rt": 102330, "trial_id": "mouselab_instructions_1_control", "trial_type": "instructions", "trial_index": 8, "time_elapsed": 441954, "internal_node_id": "0.0-2.1-1.1"}}, {"uniqueid": "w65890100:a75128829", "current_trial": 9, "dateTime": 1693568899398, "trialdata": {"revealed_states": [], "clicked_states": [], "num_clicks_accrued": [0, 0, 0, 0, 0, 0, 0, 0, 0, 0, 0, 0, 0], "stateRewards": ["", 10, -10, 10, -10, -10, 10, -10, 10, -10, 10, 10, -10, -10, 10, 10, -10, -10, 10, -10, 10, -10, -10, 10, -10, -10, -10, -10, -10, -10, 10, -10, 10, -10], "withholdReward": false, "trial_id": "practice_1", "block": "test", "trialIndex": 2, "score": 13.5, "costs": 0, "simulationMode": [null, null, null, null, null], "rewards": [10, -10, -10, 10, 10], "path": ["0", "0", "23", "24", "25", "30", "32"], "rt": [2499, 273, 320, 133, 123], "actions": ["left", "left", "left", "down", "down"], "actionTimes": [5395, 6181, 7010, 7639, 8280], "queries": {"click": {"state": {"target": [], "time": []}, "edge": {"target": [], "time": []}}, "mouseover": {"state": {"target": [], "time": []}, "edge": {"target": [], "time": []}}, "mouseout": {"state": {"target": ["12", "0"], "time": [1071, 11207]}, "edge": {"target": [], "time": []}}}, "displayed_time": "8.79", "trialTime": 12249, "trial_type": "mouselab-mdp", "trial_index": 9, "time_elapsed": 454357, "internal_node_id": "0.0-2.1-2.1-0.1"}}, {"uniqueid": "w65890100:a75128829", "current_trial": 10, "dateTime": 1693568911186, "trialdata": {"revealed_states": [], "clicked_states": [], "num_clicks_accrued": [0, 0, 0, 0, 0, 0, 0, 0, 0, 0, 0, 0, 0], "stateRewards": ["", 10, 10, 10, -10, -10, 10, -10, -10, -10, -10, -10, -10, -10, 10, 10, 10, 10, -10, -10, -10, 10, 10, -10, -10, 10, 10, -10, -10, -10, 10, -10, 10, 10], "withholdReward": false, "trial_id": "practice_2", "block": "test", "trialIndex": 3, "score": 13.5, "costs": 0, "simulationMode": [null, null, null, null, null], "rewards": [10, 10, 10, -10, -10], "path": ["0", "0", "1", "2", "3", "8", "11"], "rt": [1489, 41, 136, 100, 38], "actions": ["up", "up", "up", "left", "left"], "actionTimes": [6299, 6834, 7476, 8076, 8630], "queries": {"click": {"state": {"target": [], "time": []}, "edge": {"target": [], "time": []}}, "mouseover": {"state": {"target": [], "time": []}, "edge": {"target": [], "time": []}}, "mouseout": {"state": {"target": ["0", "0"], "time": [858, 10757]}, "edge": {"target": [], "time": []}}}, "displayed_time": "9.16", "trialTime": 11657, "trial_type": "mouselab-mdp", "trial_index": 10, "time_elapsed": 466146, "internal_node_id": "0.0-2.1-2.1-1.1"}}, {"uniqueid": "w65890100:a75128829", "current_trial": 11, "dateTime": 1693568918997, "trialdata": {"view_history": [{"page_index": 0, "viewing_time": 6347}, {"page_index": 1, "viewing_time": 1459}], "rt": 7807, "trial_id": "mouselab_instructions_2_control", "trial_type": "instructions", "trial_index": 11, "time_elapsed": 473957, "internal_node_id": "0.0-2.1-3.1"}}, {"uniqueid": "w65890100:a75128829", "current_trial": 12, "dateTime": 1693568950624, "trialdata": {"rt": 31623, "response": {"Q0": "The cost for clicking on nodes may vary between nodes.", "Q1": "The better I perform the higher my bonus will be.", "Q2": "No, the amount of cash at each node of the web may be different each time.", "Q3": "To get the highest total score.", "Q4": "Only before moving the spider.", "Q5": "3 seconds"}, "question_order": [0, 1, 2, 3, 4, 5], "correct": {"Q0": "The cost for clicking on nodes may vary between nodes.", "Q1": "The better I perform the higher my bonus will be.", "Q2": "No, the amount of cash at each node of the web may be different each time.", "Q3": "To get the highest total score.", "Q4": "Only before moving the spider.", "Q5": "3 seconds"}, "trial_id": "mouselab_quiz_control", "trial_type": "survey-multi-choice", "trial_index": 12, "time_elapsed": 505584, "internal_node_id": "0.0-2.1-4.1"}}, {"uniqueid": "w65890100:a75128829", "current_trial": 13, "dateTime": 1693568959541, "trialdata": {"rt": 8911, "response": {"Q0": "No"}, "question_order": [0], "trial_id": "repeat_check", "trial_type": "survey-multi-choice", "trial_index": 13, "time_elapsed": 514501, "internal_node_id": "0.0-4.0-0.0"}}, {"uniqueid": "w65890100:a75128829", "current_trial": 14, "dateTime": 1693568968947, "trialdata": {"rt": 9399, "stimulus": "\n<h1> Get ready to start the game! </h1>\n\nThank you for reading the instructions. Get ready start with the 40 rounds of this game.\n<br><br>\nIf you need to take a break, feel free to take one after the end of a round, before continuing to the next one.\n<br><br>\nRemember, the more money the spider gets, the bigger your bonus will be!\n<br><br>\n<div style='text-align: center;'>Press <code>space</code> to begin.</div>\n\n<br><br>\n(If, at any point, the <code>space</code> key does not take you to the next page, click once on the text and try again.)", "response": " ", "trial_id": "mdp_ready", "trial_type": "html-keyboard-response", "trial_index": 14, "time_elapsed": 523907, "internal_node_id": "0.0-6.0-0.0"}}, {"uniqueid": "w65890100:a75128829", "current_trial": 15, "dateTime": 1693568988318, "trialdata": {"revealed_states": [], "clicked_states": [], "num_clicks_accrued": [0, 0, 0, 0, 0, 0, 0, 0, 0, 0, 0, 0, 0], "stateRewards": ["", -1, 2, 6, 11, 21, -21, -21, -6, 48, -71, 88, -1, -3, 3, 7, 64, 2, 9, -4, 37, -67, 72, 2, 2, -8, -8, -10, 71, -40, -3, 73, 80, 47], "withholdReward": false, "trial_id": "mdp_trial_1", "block": "test", "trialIndex": 4, "score": 89, "costs": 0, "simulationMode": [null, null, null, null, null], "rewards": [-1, 2, 6, -6, 88], "path": ["0", "0", "1", "2", "3", "8", "11"], "rt": [552, 112, 527, 69, 116], "actions": ["up", "up", "up", "left", "left"], "actionTimes": [2625, 3248, 4279, 4854, 5468], "queries": {"click": {"state": {"target": [], "time": []}, "edge": {"target": [], "time": []}}, "mouseover": {"state": {"target": [], "time": []}, "edge": {"target": [], "time": []}}, "mouseout": {"state": {"target": ["0"], "time": [8152]}, "edge": {"target": [], "time": []}}}, "displayed_time": "16.08", "trialTime": 19234, "trial_type": "mouselab-mdp", "trial_index": 15, "time_elapsed": 543278, "internal_node_id": "0.0-6.0-1.0-0.0"}}, {"uniqueid": "w65890100:a75128829", "current_trial": 16, "dateTime": 1693569006205, "trialdata": {"revealed_states": [], "clicked_states": [], "num_clicks_accrued": [0, 0, 0, 0, 0, 0, 0, 0, 0, 0, 0, 0, 0], "stateRewards": ["", 1, 2, -3, 6, -88, 74, -45, 7, -46, 40, -77, 1, -4, 4, 3, 22, -25, -59, 8, -83, 19, -60, -1, -1, -1, -8, 26, -29, 64, -7, -88, -51, -55], "withholdReward": false, "trial_id": "mdp_trial_2", "block": "test", "trialIndex": 5, "score": -74, "costs": 0, "simulationMode": [null, null, null, null, null], "rewards": [1, -4, 4, 8, -83], "path": ["0", "0", "12", "13", "14", "19", "20"], "rt": [671, 99, 245, 8, 9], "actions": ["right", "right", "right", "down", "right"], "actionTimes": [2649, 3244, 4006, 4503, 5038], "queries": {"click": {"state": {"target": [], "time": []}, "edge": {"target": [], "time": []}}, "mouseover": {"state": {"target": [], "time": []}, "edge": {"target": [], "time": []}}, "mouseout": {"state": {"target": ["0", "0", "0"], "time": [1880, 6611, 13112]}, "edge": {"target": [], "time": []}}}, "displayed_time": "15.98", "trialTime": 17747, "trial_type": "mouselab-mdp", "trial_index": 16, "time_elapsed": 561164, "internal_node_id": "0.0-6.0-1.0-1.0"}}, {"uniqueid": "w65890100:a75128829", "current_trial": 17, "dateTime": 1693569023389, "trialdata": {"revealed_states": [], "clicked_states": [], "num_clicks_accrued": [0, 0, 0, 0, 0, 0, 0, 0, 0, 0, 0, 0, 0], "stateRewards": ["", 1, 2, 7, 13, 88, -71, 27, 3, 60, 5, -53, -2, 2, -6, -1, -30, 79, 47, -4, -14, 46, 68, 1, 1, 8, 10, -14, 86, 48, -11, -67, -44, 5], "withholdReward": false, "trial_id": "mdp_trial_3", "block": "test", "trialIndex": 6, "score": 111, "costs": 0, "simulationMode": [null, null, null, null, null], "rewards": [1, 2, 7, 13, 88], "path": ["0", "0", "1", "2", "3", "4", "5"], "rt": [3871, 44, 123, 479, 39], "actions": ["up", "up", "up", "right", "up"], "actionTimes": [4775, 5331, 5942, 6914, 7459], "queries": {"click": {"state": {"target": [], "time": []}, "edge": {"target": [], "time": []}}, "mouseover": {"state": {"target": ["0", "0", "0"], "time": [2468, 2551, 2785]}, "edge": {"target": [], "time": []}}, "mouseout": {"state": {"target": ["0", "0", "0", "0", "0"], "time": [804, 2518, 2584, 9034, 15702]}, "edge": {"target": [], "time": []}}}, "displayed_time": "14.90", "trialTime": 17040, "trial_type": "mouselab-mdp", "trial_index": 17, "time_elapsed": 578348, "internal_node_id": "0.0-6.0-1.0-2.0"}}, {"uniqueid": "w65890100:a75128829", "current_trial": 18, "dateTime": 1693569041506, "trialdata": {"revealed_states": [], "clicked_states": [], "num_clicks_accrued": [0, 0, 0, 0, 0, 0, 0, 0, 0, 0, 0, 0, 0], "stateRewards": ["", -2, -2, -7, -13, -10, 49, -68, -1, 84, 70, 88, 1, 4, 4, 12, -57, 25, 30, 8, -1, -77, 57, 2, 3, 2, 3, -18, -80, 23, -15, -41, 70, 11], "withholdReward": false, "trial_id": "mdp_trial_4", "block": "test", "trialIndex": 7, "score": -70, "costs": 0, "simulationMode": [null, null, null, null, null], "rewards": [2, 3, 2, 3, -80], "path": ["0", "0", "23", "24", "25", "26", "28"], "rt": [1368, 480, 235, 83, 8], "actions": ["left", "left", "left", "up", "right"], "actionTimes": [3514, 4505, 5259, 5843, 6351], "queries": {"click": {"state": {"target": [], "time": []}, "edge": {"target": [], "time": []}}, "mouseover": {"state": {"target": [], "time": []}, "edge": {"target": [], "time": []}}, "mouseout": {"state": {"target": ["0", "0", "0"], "time": [1541, 7558, 11161]}, "edge": {"target": [], "time": []}}}, "displayed_time": "16.15", "trialTime": 17964, "trial_type": "mouselab-mdp", "trial_index": 18, "time_elapsed": 596465, "internal_node_id": "0.0-6.0-1.0-3.0"}}, {"uniqueid": "w65890100:a75128829", "current_trial": 19, "dateTime": 1693569059965, "trialdata": {"revealed_states": [], "clicked_states": ["1", "12"], "num_clicks_accrued": [0, 0, 0, 0, 0, 0, 0, 0, 0, 0, 0, 0, 0], "stateRewards": ["", -2, 1, -7, -8, -37, -76, -87, 11, 30, -63, 80, -1, 4, 2, -1, 42, 17, 52, -3, -75, -80, -68, 2, -3, -5, -15, -48, 82, 24, -7, 5, -22, -71], "withholdReward": false, "trial_id": "mdp_trial_5", "block": "test", "trialIndex": 8, "score": 0.1999999999999993, "costs": -2.8, "simulationMode": [null, null, null, null, null], "rewards": [2, -3, -5, -15, 24], "path": ["0", "0", "23", "24", "25", "26", "29"], "rt": [6554, 131, 159, 372, 119], "actions": ["left", "left", "left", "up", "left"], "actionTimes": [7663, 8312, 8971, 9852, 10465], "queries": {"click": {"state": {"target": ["1", "12"], "time": [3828, 6132]}, "edge": {"target": [], "time": []}}, "mouseover": {"state": {"target": ["1", "12", "0"], "time": [3680, 4629, 6446]}, "edge": {"target": [], "time": []}}, "mouseout": {"state": {"target": ["0", "1", "12", "0"], "time": [1009, 4480, 6430, 6462]}, "edge": {"target": [], "time": []}}}, "displayed_time": "15.11", "trialTime": 18311, "trial_type": "mouselab-mdp", "trial_index": 19, "time_elapsed": 614924, "internal_node_id": "0.0-6.0-1.0-4.0"}}, {"uniqueid": "w65890100:a75128829", "current_trial": 20, "dateTime": 1693569079648, "trialdata": {"revealed_states": [], "clicked_states": ["1", "2", "10"], "num_clicks_accrued": [0, 0, 0, 0, 0, 0, 0, 0, 0, 0, 0, 0, 0], "stateRewards": ["", -2, 2, -5, 1, 42, -63, -58, -6, 2, 16, 81, -2, 4, 7, -10, 33, 3, -33, -2, -52, -84, -27, 2, -3, -3, 15, -74, -14, -5, -5, -84, 79, -31], "withholdReward": false, "trial_id": "mdp_trial_6", "block": "test", "trialIndex": 9, "score": 0.8000000000000007, "costs": -4.199999999999999, "simulationMode": [null, null, null, null, null, null], "rewards": [-2, 2, -5, -6, 16], "path": ["0", "0", "1", "2", "3", "8", "10"], "rt": [5668, 1466, 6, 1010, 85, 16], "actions": ["left", "up", "up", "up", "left", "down"], "actionTimes": [9953, 11422, 11949, 13469, 14060, 14574], "queries": {"click": {"state": {"target": ["1", "2", "10"], "time": [5125, 6780, 8543]}, "edge": {"target": [], "time": []}}, "mouseover": {"state": {"target": ["1", "2", "10", "1"], "time": [4625, 5658, 7441, 11307]}, "edge": {"target": [], "time": []}}, "mouseout": {"state": {"target": ["1", "2", "1", "0", "1", "2", "10", "2", "1", "1"], "time": [3174, 3258, 3674, 4509, 5391, 7291, 8824, 11192, 11491, 16608]}, "edge": {"target": [], "time": []}}}, "displayed_time": "18.29", "trialTime": 19524, "trial_type": "mouselab-mdp", "trial_index": 20, "time_elapsed": 634608, "internal_node_id": "0.0-6.0-1.0-5.0"}}, {"uniqueid": "w65890100:a75128829", "current_trial": 21, "dateTime": 1693569097281, "trialdata": {"revealed_states": [], "clicked_states": [], "num_clicks_accrued": [0, 0, 0, 0, 0, 0, 0, 0, 0, 0, 0, 0, 0], "stateRewards": ["", -2, -3, -6, -7, 9, 16, 65, 5, -41, 20, -25, -1, -4, 1, -11, -49, -4, 71, 1, 39, -62, 52, -2, -3, 7, -9, -28, -70, 84, 8, 24, -58, 82], "withholdReward": false, "trial_id": "mdp_trial_7", "block": "test", "trialIndex": 10, "score": 49, "costs": 0, "simulationMode": [null, null, null, null, null], "rewards": [-1, -4, 1, 1, 52], "path": ["0", "0", "12", "13", "14", "19", "22"], "rt": [801, 480, 52, 89, 62], "actions": ["right", "right", "right", "down", "left"], "actionTimes": [3546, 4540, 5111, 5700, 6258], "queries": {"click": {"state": {"target": [], "time": []}, "edge": {"target": [], "time": []}}, "mouseover": {"state": {"target": [], "time": []}, "edge": {"target": [], "time": []}}, "mouseout": {"state": {"target": ["1", "0"], "time": [2427, 7294]}, "edge": {"target": [], "time": []}}}, "displayed_time": "16.75", "trialTime": 17491, "trial_type": "mouselab-mdp", "trial_index": 21, "time_elapsed": 652240, "internal_node_id": "0.0-6.0-1.0-6.0"}}, {"uniqueid": "w65890100:a75128829", "current_trial": 22, "dateTime": 1693569113598, "trialdata": {"revealed_states": [], "clicked_states": [], "num_clicks_accrued": [0, 0, 0, 0, 0, 0, 0, 0, 0, 0, 0, 0, 0], "stateRewards": ["", -2, 2, -4, -4, -59, 88, 62, -3, 69, -15, -34, 1, -2, -5, 7, -54, -20, 78, -16, -74, -53, -21, 2, -4, 2, 13, -8, -44, 26, 9, 72, 4, 17], "withholdReward": false, "trial_id": "mdp_trial_8", "block": "test", "trialIndex": 11, "score": 62, "costs": 0, "simulationMode": [null, null, null, null, null], "rewards": [-2, 2, -4, -3, 69], "path": ["0", "0", "1", "2", "3", "8", "9"], "rt": [303, 381, 102, 71, 32], "actions": ["up", "up", "up", "left", "up"], "actionTimes": [1364, 2239, 2842, 3413, 3956], "queries": {"click": {"state": {"target": [], "time": []}, "edge": {"target": [], "time": []}}, "mouseover": {"state": {"target": [], "time": []}, "edge": {"target": [], "time": []}}, "mouseout": {"state": {"target": ["0", "0"], "time": [949, 4939]}, "edge": {"target": [], "time": []}}}, "displayed_time": "15.06", "trialTime": 16156, "trial_type": "mouselab-mdp", "trial_index": 22, "time_elapsed": 668557, "internal_node_id": "0.0-6.0-1.0-7.0"}}, {"uniqueid": "w65890100:a75128829", "current_trial": 23, "dateTime": 1693569131424, "trialdata": {"revealed_states": [], "clicked_states": [], "num_clicks_accrued": [0, 0, 0, 0, 0, 0, 0, 0, 0, 0, 0, 0, 0], "stateRewards": ["", -2, -3, -3, 9, 79, 67, 22, -15, -56, 27, -85, -2, 4, -4, -15, -20, -32, 60, 15, 71, 57, 17, 1, 2, -8, 15, -37, -81, 82, 15, 21, -3, 2], "withholdReward": false, "trial_id": "mdp_trial_9", "block": "test", "trialIndex": 12, "score": -71, "costs": 0, "simulationMode": [null, null, null, null, null], "rewards": [1, 2, -8, 15, -81], "path": ["0", "0", "23", "24", "25", "26", "28"], "rt": [723, 10, 35, 390, 517], "actions": ["left", "left", "left", "up", "right"], "actionTimes": [3328, 3834, 4376, 5280, 6307], "queries": {"click": {"state": {"target": [], "time": []}, "edge": {"target": [], "time": []}}, "mouseover": {"state": {"target": [], "time": []}, "edge": {"target": [], "time": []}}, "mouseout": {"state": {"target": ["1", "0"], "time": [1988, 7206]}, "edge": {"target": [], "time": []}}}, "displayed_time": "16.61", "trialTime": 17665, "trial_type": "mouselab-mdp", "trial_index": 23, "time_elapsed": 686384, "internal_node_id": "0.0-6.0-1.0-8.0"}}, {"uniqueid": "w65890100:a75128829", "current_trial": 24, "dateTime": 1693569147600, "trialdata": {"revealed_states": [], "clicked_states": [], "num_clicks_accrued": [0, 0, 0, 0, 0, 0, 0, 0, 0, 0, 0, 0, 0], "stateRewards": ["", -1, 3, 8, 10, -86, 61, -36, 10, 17, -60, 24, -1, -3, 3, 11, 50, 60, 33, -3, -20, 58, -6, 1, -4, -4, 13, -70, -71, 43, 14, 52, 82, -11], "withholdReward": false, "trial_id": "mdp_trial_10", "block": "test", "trialIndex": 13, "score": 81, "costs": 0, "simulationMode": [null, null, null, null, null], "rewards": [-1, 3, 8, 10, 61], "path": ["0", "0", "1", "2", "3", "4", "6"], "rt": [474, 478, 94, 343, 1415], "actions": ["up", "up", "up", "right", "right"], "actionTimes": [1568, 2547, 3146, 3995, 5917], "queries": {"click": {"state": {"target": [], "time": []}, "edge": {"target": [], "time": []}}, "mouseover": {"state": {"target": [], "time": []}, "edge": {"target": [], "time": []}}, "mouseout": {"state": {"target": ["0", "0", "0"], "time": [984, 6718, 8468]}, "edge": {"target": [], "time": []}}}, "displayed_time": "15.10", "trialTime": 16005, "trial_type": "mouselab-mdp", "trial_index": 24, "time_elapsed": 702560, "internal_node_id": "0.0-6.0-1.0-9.0"}}, {"uniqueid": "w65890100:a75128829", "current_trial": 25, "dateTime": 1693569163613, "trialdata": {"revealed_states": [], "clicked_states": [], "num_clicks_accrued": [0, 0, 0, 0, 0, 0, 0, 0, 0, 0, 0, 0, 0], "stateRewards": ["", -2, 1, -8, 12, -65, -79, 16, 7, -80, -17, -45, -2, 2, -5, -2, -85, 23, -4, -7, 48, 27, -76, 2, 3, 5, 2, 43, 71, -13, 7, -49, 59, -31], "withholdReward": false, "trial_id": "mdp_trial_11", "block": "test", "trialIndex": 14, "score": -47, "costs": 0, "simulationMode": [null, null, null, null, null], "rewards": [-2, 1, -8, 7, -45], "path": ["0", "0", "1", "2", "3", "8", "11"], "rt": [499, 429, 87, 121, 150], "actions": ["up", "up", "up", "left", "left"], "actionTimes": [1649, 2589, 3178, 3797, 4460], "queries": {"click": {"state": {"target": [], "time": []}, "edge": {"target": [], "time": []}}, "mouseover": {"state": {"target": [], "time": []}, "edge": {"target": [], "time": []}}, "mouseout": {"state": {"target": ["0", "0"], "time": [1027, 5389]}, "edge": {"target": [], "time": []}}}, "displayed_time": "15.15", "trialTime": 15841, "trial_type": "mouselab-mdp", "trial_index": 25, "time_elapsed": 718572, "internal_node_id": "0.0-6.0-1.0-10.0"}}, {"uniqueid": "w65890100:a75128829", "current_trial": 26, "dateTime": 1693569179798, "trialdata": {"revealed_states": [], "clicked_states": [], "num_clicks_accrued": [0, 0, 0, 0, 0, 0, 0, 0, 0, 0, 0, 0, 0], "stateRewards": ["", -2, -1, -1, 5, -54, -87, 35, 2, -8, 20, -22, 1, 3, 6, 13, -75, -32, -55, -3, 56, 62, -22, -1, -4, -1, -7, -51, 84, 70, 7, -15, 5, 55], "withholdReward": false, "trial_id": "mdp_trial_12", "block": "test", "trialIndex": 15, "score": -52, "costs": 0, "simulationMode": [null, null, null, null, null], "rewards": [1, 3, 6, 13, -75], "path": ["0", "0", "12", "13", "14", "15", "16"], "rt": [1173, 82, 2, 324, 32], "actions": ["right", "right", "right", "up", "up"], "actionTimes": [2340, 2924, 3426, 4281, 4821], "queries": {"click": {"state": {"target": [], "time": []}, "edge": {"target": [], "time": []}}, "mouseover": {"state": {"target": [], "time": []}, "edge": {"target": [], "time": []}}, "mouseout": {"state": {"target": ["0", "0", "0"], "time": [1046, 5905, 10588]}, "edge": {"target": [], "time": []}}}, "displayed_time": "15.17", "trialTime": 16008, "trial_type": "mouselab-mdp", "trial_index": 26, "time_elapsed": 734758, "internal_node_id": "0.0-6.0-1.0-11.0"}}, {"uniqueid": "w65890100:a75128829", "current_trial": 27, "dateTime": 1693569197792, "trialdata": {"revealed_states": [], "clicked_states": [], "num_clicks_accrued": [0, 0, 0, 0, 0, 0, 0, 0, 0, 0, 0, 0, 0], "stateRewards": ["", -2, -2, -3, -6, -15, -11, 41, -12, -63, -76, 2, -2, -3, 8, 9, -36, -2, -18, -16, -32, -85, -17, -2, 1, 5, -16, 82, 35, -88, -1, 80, -82, -20], "withholdReward": false, "trial_id": "mdp_trial_13", "block": "test", "trialIndex": 16, "score": 83, "costs": 0, "simulationMode": [null, null, null, null, null], "rewards": [-2, 1, 5, -1, 80], "path": ["0", "0", "23", "24", "25", "30", "31"], "rt": [792, 97, 29, 235, 200], "actions": ["left", "left", "left", "down", "right"], "actionTimes": [3771, 4375, 4921, 5661, 6377], "queries": {"click": {"state": {"target": [], "time": []}, "edge": {"target": [], "time": []}}, "mouseover": {"state": {"target": [], "time": []}, "edge": {"target": [], "time": []}}, "mouseout": {"state": {"target": ["0"], "time": [2154]}, "edge": {"target": [], "time": []}}}, "displayed_time": "16.98", "trialTime": 17822, "trial_type": "mouselab-mdp", "trial_index": 27, "time_elapsed": 752752, "internal_node_id": "0.0-6.0-1.0-12.0"}}, {"uniqueid": "w65890100:a75128829", "current_trial": 28, "dateTime": 1693569220687, "trialdata": {"revealed_states": [], "clicked_states": [], "num_clicks_accrued": [0, 0, 0, 0, 0, 0, 0, 0, 0, 0, 0, 0, 0], "stateRewards": ["", 2, 3, 8, 14, 69, -27, 17, 2, -71, -65, -10, 2, -3, 7, 8, 65, -10, 65, -12, 73, -12, 13, -2, -2, 6, 10, -79, -69, -18, 10, -85, 67, 74], "withholdReward": false, "trial_id": "mdp_trial_14", "block": "test", "trialIndex": 17, "score": 0, "costs": 0, "simulationMode": [null, null, null, null, null], "rewards": [2, 3, 8, 14, -27], "path": ["0", "0", "1", "2", "3", "4", "6"], "rt": [373, 20, 46, 477, 118], "actions": ["up", "up", "up", "right", "right"], "actionTimes": [1114, 1627, 2185, 3182, 3789], "queries": {"click": {"state": {"target": [], "time": []}, "edge": {"target": [], "time": []}}, "mouseover": {"state": {"target": [], "time": []}, "edge": {"target": [], "time": []}}, "mouseout": {"state": {"target": ["0", "0"], "time": [21504, 22337]}, "edge": {"target": [], "time": []}}}, "displayed_time": "14.74", "trialTime": 22713, "trial_type": "mouselab-mdp", "trial_index": 28, "time_elapsed": 775646, "internal_node_id": "0.0-6.0-1.0-13.0"}}, {"uniqueid": "w65890100:a75128829", "current_trial": 29, "dateTime": 1693569237378, "trialdata": {"revealed_states": [], "clicked_states": [], "num_clicks_accrued": [0, 0, 0, 0, 0, 0, 0, 0, 0, 0, 0, 0, 0], "stateRewards": ["", -1, -2, -1, -10, -57, 73, -72, -16, 75, -14, -46, -2, -3, -7, -1, -61, -60, 76, -4, 50, 4, 14, 2, 2, -7, 12, -65, -32, 15, -8, -76, -25, -61], "withholdReward": false, "trial_id": "mdp_trial_15", "block": "test", "trialIndex": 18, "score": -34, "costs": 0, "simulationMode": [null, null, null, null, null], "rewards": [-1, -2, -1, -16, -14], "path": ["0", "0", "1", "2", "3", "8", "10"], "rt": [483, 57, 492, 90, 45], "actions": ["up", "up", "up", "left", "down"], "actionTimes": [1639, 2197, 3181, 3778, 4318], "queries": {"click": {"state": {"target": [], "time": []}, "edge": {"target": [], "time": []}}, "mouseover": {"state": {"target": [], "time": []}, "edge": {"target": [], "time": []}}, "mouseout": {"state": {"target": [], "time": []}, "edge": {"target": [], "time": []}}}, "displayed_time": "15.16", "trialTime": 16505, "trial_type": "mouselab-mdp", "trial_index": 29, "time_elapsed": 792337, "internal_node_id": "0.0-6.0-1.0-14.0"}}, {"uniqueid": "w65890100:a75128829", "current_trial": 30, "dateTime": 1693569253382, "trialdata": {"revealed_states": [], "clicked_states": [], "num_clicks_accrued": [0, 0, 0, 0, 0, 0, 0, 0, 0, 0, 0, 0, 0], "stateRewards": ["", -2, -4, -2, -13, -15, 87, -19, -6, -80, 30, 12, 1, 1, -8, 2, 55, 56, 15, 11, -68, -7, 55, -2, 3, -3, -3, 48, 62, 4, 1, -3, 69, -33], "withholdReward": false, "trial_id": "mdp_trial_16", "block": "test", "trialIndex": 19, "score": 52, "costs": 0, "simulationMode": [null, null, null, null, null], "rewards": [1, 1, -8, 2, 56], "path": ["0", "0", "12", "13", "14", "15", "17"], "rt": [232, 34, 8, 288, 458], "actions": ["right", "right", "right", "up", "right"], "actionTimes": [1314, 1846, 2370, 3165, 4137], "queries": {"click": {"state": {"target": [], "time": []}, "edge": {"target": [], "time": []}}, "mouseover": {"state": {"target": [], "time": []}, "edge": {"target": [], "time": []}}, "mouseout": {"state": {"target": ["0", "0", "0", "0"], "time": [10492, 11443, 13827, 14894]}, "edge": {"target": [], "time": []}}}, "displayed_time": "15.08", "trialTime": 15815, "trial_type": "mouselab-mdp", "trial_index": 30, "time_elapsed": 808342, "internal_node_id": "0.0-6.0-1.0-15.0"}}, {"uniqueid": "w65890100:a75128829", "current_trial": 31, "dateTime": 1693569269915, "trialdata": {"revealed_states": [], "clicked_states": [], "num_clicks_accrued": [0, 0, 0, 0, 0, 0, 0, 0, 0, 0, 0, 0, 0], "stateRewards": ["", -1, 4, -8, 12, 14, 69, -8, 5, -72, -14, 56, -1, -1, -1, 9, 67, 19, 11, -9, -88, -58, 3, 2, -4, -8, 4, 62, 77, -74, 5, -31, 65, 88], "withholdReward": false, "trial_id": "mdp_trial_17", "block": "test", "trialIndex": 20, "score": -72, "costs": 0, "simulationMode": [null, null, null, null, null], "rewards": [-1, 4, -8, 5, -72], "path": ["0", "0", "1", "2", "3", "8", "9"], "rt": [532, 283, 66, 250, 414], "actions": ["up", "up", "up", "left", "up"], "actionTimes": [2055, 2842, 3407, 4175, 5106], "queries": {"click": {"state": {"target": [], "time": []}, "edge": {"target": [], "time": []}}, "mouseover": {"state": {"target": [], "time": []}, "edge": {"target": [], "time": []}}, "mouseout": {"state": {"target": ["0"], "time": [14025]}, "edge": {"target": [], "time": []}}}, "displayed_time": "15.53", "trialTime": 16346, "trial_type": "mouselab-mdp", "trial_index": 31, "time_elapsed": 824874, "internal_node_id": "0.0-6.0-1.0-16.0"}}, {"uniqueid": "w65890100:a75128829", "current_trial": 32, "dateTime": 1693569286359, "trialdata": {"revealed_states": [], "clicked_states": [], "num_clicks_accrued": [0, 0, 0, 0, 0, 0, 0, 0, 0, 0, 0, 0, 0], "stateRewards": ["", 2, -4, -8, -15, 71, -43, -41, 7, -17, 20, 67, -1, -1, -4, 6, 37, -24, -47, 9, 34, 57, 45, 1, 2, -4, -5, -23, 88, -5, 13, -40, 43, 44], "withholdReward": false, "trial_id": "mdp_trial_18", "block": "test", "trialIndex": 21, "score": -68, "costs": 0, "simulationMode": [null, null, null, null, null], "rewards": [2, -4, -8, -15, -43], "path": ["0", "0", "1", "2", "3", "4", "6"], "rt": [370, 22, 21, 31, 16], "actions": ["up", "up", "up", "right", "right"], "actionTimes": [1719, 2232, 2781, 3325, 3875], "queries": {"click": {"state": {"target": [], "time": []}, "edge": {"target": [], "time": []}}, "mouseover": {"state": {"target": [], "time": []}, "edge": {"target": [], "time": []}}, "mouseout": {"state": {"target": ["0"], "time": [4959]}, "edge": {"target": [], "time": []}}}, "displayed_time": "15.35", "trialTime": 16259, "trial_type": "mouselab-mdp", "trial_index": 32, "time_elapsed": 841318, "internal_node_id": "0.0-6.0-1.0-17.0"}}, {"uniqueid": "w65890100:a75128829", "current_trial": 33, "dateTime": 1693569302618, "trialdata": {"revealed_states": [], "clicked_states": [], "num_clicks_accrued": [0, 0, 0, 0, 0, 0, 0, 0, 0, 0, 0, 0, 0], "stateRewards": ["", -1, 3, 1, -7, 56, 76, 57, 3, 11, -9, 14, 1, -2, 2, 8, -77, -3, 79, -5, 88, 24, -66, -2, -1, 7, -7, -30, 14, -76, 11, -36, 28, -6], "withholdReward": false, "trial_id": "mdp_trial_19", "block": "test", "trialIndex": 22, "score": 84, "costs": 0, "simulationMode": [null, null, null, null, null], "rewards": [1, -2, 2, -5, 88], "path": ["0", "0", "12", "13", "14", "19", "20"], "rt": [418, 88, 94, 60, 56], "actions": ["right", "right", "right", "down", "right"], "actionTimes": [1470, 2049, 2654, 3220, 3782], "queries": {"click": {"state": {"target": [], "time": []}, "edge": {"target": [], "time": []}}, "mouseover": {"state": {"target": [], "time": []}, "edge": {"target": [], "time": []}}, "mouseout": {"state": {"target": ["0", "0", "22", "19", "30", "31"], "time": [925, 4658, 7493, 9443, 12809, 12843]}, "edge": {"target": [], "time": []}}}, "displayed_time": "15.05", "trialTime": 16068, "trial_type": "mouselab-mdp", "trial_index": 33, "time_elapsed": 857577, "internal_node_id": "0.0-6.0-1.0-18.0"}}, {"uniqueid": "w65890100:a75128829", "current_trial": 34, "dateTime": 1693569322366, "trialdata": {"revealed_states": [], "clicked_states": [], "num_clicks_accrued": [0, 0, 0, 0, 0, 0, 0, 0, 0, 0, 0, 0, 0], "stateRewards": ["", 1, 2, 2, -15, -84, 28, -26, 13, 31, 86, 30, -2, 1, -1, -8, 66, -40, -1, -10, -32, 57, -17, 1, 2, -2, 9, -23, 77, 85, 12, -32, -62, -35], "withholdReward": false, "trial_id": "mdp_trial_20", "block": "test", "trialIndex": 23, "score": -36, "costs": 0, "simulationMode": [null, null, null, null, null], "rewards": [1, 2, 2, -15, -26], "path": ["0", "0", "1", "2", "3", "4", "7"], "rt": [322, 68, 1292, 184, 94], "actions": ["up", "up", "up", "right", "down"], "actionTimes": [4563, 5124, 6931, 7624, 8217], "queries": {"click": {"state": {"target": [], "time": []}, "edge": {"target": [], "time": []}}, "mouseover": {"state": {"target": [], "time": []}, "edge": {"target": [], "time": []}}, "mouseout": {"state": {"target": ["0", "0"], "time": [573, 4304]}, "edge": {"target": [], "time": []}}}, "displayed_time": "18.24", "trialTime": 19545, "trial_type": "mouselab-mdp", "trial_index": 34, "time_elapsed": 877325, "internal_node_id": "0.0-6.0-1.0-19.0"}}, {"uniqueid": "w65890100:a75128829", "current_trial": 35, "dateTime": 1693569339197, "trialdata": {"revealed_states": [], "clicked_states": ["13", "24", "14"], "num_clicks_accrued": [0, 0, 0, 0, 0, 0, 0, 0, 0, 0, 0, 0, 0], "stateRewards": ["", -1, -4, -1, -5, -28, -23, -15, -15, -38, 59, -87, 2, 2, -5, 9, -55, -39, -71, -6, 85, -85, -11, -1, -2, 5, -10, 1, 25, 41, -4, 69, -35, 86], "withholdReward": false, "trial_id": "mdp_trial_21", "block": "test", "trialIndex": 24, "score": -63.2, "costs": -4.199999999999999, "simulationMode": [null, null, null, null, null, null], "rewards": [-1, -4, -1, -15, -38], "path": ["0", "0", "1", "2", "3", "8", "9"], "rt": [7314, 2437, 30, 28, 5, 4], "actions": ["right", "up", "up", "up", "left", "up"], "actionTimes": [9131, 11570, 12093, 12623, 13134, 13650], "queries": {"click": {"state": {"target": ["13", "24", "14"], "time": [2696, 4238, 7822]}, "edge": {"target": [], "time": []}}, "mouseover": {"state": {"target": ["12", "13", "14", "12", "24", "23", "23", "0", "12", "14", "20", "19"], "time": [2246, 2329, 2963, 3246, 3829, 4995, 5946, 6962, 7197, 7597, 10063, 10079]}, "edge": {"target": [], "time": []}}, "mouseout": {"state": {"target": ["3", "2", "1", "0", "12", "13", "14", "13", "12", "24", "23", "23", "0", "12", "14", "14", "20", "19"], "time": [563, 595, 1196, 2195, 2295, 2896, 3046, 3213, 3280, 4979, 5029, 6947, 7114, 7379, 7885, 8028, 10078, 10094]}, "edge": {"target": [], "time": []}}}, "displayed_time": "15.82", "trialTime": 16635, "trial_type": "mouselab-mdp", "trial_index": 35, "time_elapsed": 894157, "internal_node_id": "0.0-6.0-1.0-20.0"}}, {"uniqueid": "w65890100:a75128829", "current_trial": 36, "dateTime": 1693569357347, "trialdata": {"revealed_states": [], "clicked_states": [], "num_clicks_accrued": [0, 0, 0, 0, 0, 0, 0, 0, 0, 0, 0, 0, 0], "stateRewards": ["", 1, 1, -6, -2, 7, 77, 3, 16, -16, 66, 31, -1, 3, -8, -6, 33, -50, -48, 7, -60, -66, 36, 2, -3, 3, -7, -12, -61, -79, -4, 8, 74, -70], "withholdReward": false, "trial_id": "mdp_trial_22", "block": "test", "trialIndex": 25, "score": -60, "costs": 0, "simulationMode": [null, null, null, null, null], "rewards": [-1, 3, -8, -6, -48], "path": ["0", "0", "12", "13", "14", "15", "18"], "rt": [363, 120, 37, 4, 45], "actions": ["right", "right", "right", "up", "left"], "actionTimes": [3425, 4033, 4567, 5101, 5657], "queries": {"click": {"state": {"target": [], "time": []}, "edge": {"target": [], "time": []}}, "mouseover": {"state": {"target": [], "time": []}, "edge": {"target": [], "time": []}}, "mouseout": {"state": {"target": ["0"], "time": [6596]}, "edge": {"target": [], "time": []}}}, "displayed_time": "17.06", "trialTime": 17969, "trial_type": "mouselab-mdp", "trial_index": 36, "time_elapsed": 912307, "internal_node_id": "0.0-6.0-1.0-21.0"}}, {"uniqueid": "w65890100:a75128829", "current_trial": 37, "dateTime": 1693569375172, "trialdata": {"revealed_states": [], "clicked_states": [], "num_clicks_accrued": [0, 0, 0, 0, 0, 0, 0, 0, 0, 0, 0, 0, 0], "stateRewards": ["", -2, 4, -5, -12, 85, -24, -18, -15, -78, -22, 26, -1, -1, 2, 14, -45, 52, -23, 7, -33, 24, -6, -2, -4, 5, -7, -16, 36, -39, 5, 71, -87, -23], "withholdReward": false, "trial_id": "mdp_trial_23", "block": "test", "trialIndex": 26, "score": 70, "costs": 0, "simulationMode": [null, null, null, null, null], "rewards": [-2, 4, -5, -12, 85], "path": ["0", "0", "1", "2", "3", "4", "5"], "rt": [278, 549, 460, 2108, 1453], "actions": ["up", "up", "up", "right", "up"], "actionTimes": [2897, 3942, 4919, 7518, 9480], "queries": {"click": {"state": {"target": [], "time": []}, "edge": {"target": [], "time": []}}, "mouseover": {"state": {"target": [], "time": []}, "edge": {"target": [], "time": []}}, "mouseout": {"state": {"target": ["0", "0", "1", "2", "2", "3", "3", "2", "3"], "time": [2225, 9993, 10041, 10124, 10391, 10523, 11208, 11675, 11741]}, "edge": {"target": [], "time": []}}}, "displayed_time": "16.62", "trialTime": 17624, "trial_type": "mouselab-mdp", "trial_index": 37, "time_elapsed": 930131, "internal_node_id": "0.0-6.0-1.0-22.0"}}, {"uniqueid": "w65890100:a75128829", "current_trial": 38, "dateTime": 1693569395796, "trialdata": {"revealed_states": [], "clicked_states": [], "num_clicks_accrued": [0, 0, 0, 0, 0, 0, 0, 0, 0, 0, 0, 0, 0], "stateRewards": ["", 1, -2, -8, -13, 4, 34, -84, -4, -49, 88, -70, -1, 3, -4, 10, -77, 13, -34, 15, -21, -16, 27, 1, -2, 8, -8, -6, 38, -26, 6, -15, 66, -3], "withholdReward": false, "trial_id": "mdp_trial_24", "block": "test", "trialIndex": 27, "score": -7, "costs": 0, "simulationMode": [null, null, null, null, null], "rewards": [1, -2, 8, -8, -6], "path": ["0", "0", "23", "24", "25", "26", "27"], "rt": [725, 133, 159, 269, 71], "actions": ["left", "left", "left", "up", "up"], "actionTimes": [5854, 6505, 7165, 7940, 8526], "queries": {"click": {"state": {"target": [], "time": []}, "edge": {"target": [], "time": []}}, "mouseover": {"state": {"target": [], "time": []}, "edge": {"target": [], "time": []}}, "mouseout": {"state": {"target": ["3", "2", "1", "0", "0"], "time": [1205, 1236, 2320, 3453, 9372]}, "edge": {"target": [], "time": []}}}, "displayed_time": "19.13", "trialTime": 20394, "trial_type": "mouselab-mdp", "trial_index": 38, "time_elapsed": 950755, "internal_node_id": "0.0-6.0-1.0-23.0"}}, {"uniqueid": "w65890100:a75128829", "current_trial": 39, "dateTime": 1693569418318, "trialdata": {"revealed_states": [], "clicked_states": [], "num_clicks_accrued": [0, 0, 0, 0, 0, 0, 0, 0, 0, 0, 0, 0, 0], "stateRewards": ["", 2, 4, 4, -8, -36, -33, 38, 16, -51, 57, 57, 1, 3, 4, -6, 45, 68, 87, 1, 63, 24, -55, -2, 2, -6, -13, -63, -50, 8, 2, 80, 6, 60], "withholdReward": false, "trial_id": "mdp_trial_25", "block": "test", "trialIndex": 28, "score": 2, "costs": 0, "simulationMode": [null, null, null, null, null], "rewards": [-2, 2, -6, 2, 6], "path": ["0", "0", "23", "24", "25", "30", "32"], "rt": [837, 885, 587, 375, 1928], "actions": ["left", "left", "left", "down", "down"], "actionTimes": [7969, 9352, 10455, 11343, 13762], "queries": {"click": {"state": {"target": [], "time": []}, "edge": {"target": [], "time": []}}, "mouseover": {"state": {"target": [], "time": []}, "edge": {"target": [], "time": []}}, "mouseout": {"state": {"target": ["0", "1", "0"], "time": [2732, 4133, 12449]}, "edge": {"target": [], "time": []}}}, "displayed_time": "21.13", "trialTime": 22313, "trial_type": "mouselab-mdp", "trial_index": 39, "time_elapsed": 973278, "internal_node_id": "0.0-6.0-1.0-24.0"}}, {"uniqueid": "w65890100:a75128829", "current_trial": 40, "dateTime": 1693569435853, "trialdata": {"revealed_states": [], "clicked_states": [], "num_clicks_accrued": [0, 0, 0, 0, 0, 0, 0, 0, 0, 0, 0, 0, 0], "stateRewards": ["", 2, -3, -5, 5, 11, -9, -33, 6, 67, 6, -30, -1, -2, -6, 13, 55, 13, 72, -14, 75, 21, -66, -2, -4, 6, 15, -1, -35, 60, 2, 51, -73, 12], "withholdReward": false, "trial_id": "mdp_trial_26", "block": "test", "trialIndex": 29, "score": 75, "costs": 0, "simulationMode": [null, null, null, null, null], "rewards": [-2, -4, 6, 15, 60], "path": ["0", "0", "23", "24", "25", "26", "29"], "rt": [6288, 137, 30, 17, 29], "actions": ["left", "left", "left", "up", "left"], "actionTimes": [7557, 8189, 8715, 9252, 9798], "queries": {"click": {"state": {"target": [], "time": []}, "edge": {"target": [], "time": []}}, "mouseover": {"state": {"target": ["23", "23"], "time": [3651, 4055]}, "edge": {"target": [], "time": []}}, "mouseout": {"state": {"target": ["0", "23", "23", "12", "1", "0"], "time": [3619, 3817, 10503, 13820, 16853, 17003]}, "edge": {"target": [], "time": []}}}, "displayed_time": "15.27", "trialTime": 17316, "trial_type": "mouselab-mdp", "trial_index": 40, "time_elapsed": 990812, "internal_node_id": "0.0-6.0-1.0-25.0"}}, {"uniqueid": "w65890100:a75128829", "current_trial": 41, "dateTime": 1693569452204, "trialdata": {"revealed_states": [], "clicked_states": ["12", "1"], "num_clicks_accrued": [0, 0, 0, 0, 0, 0, 0, 0, 0, 0, 0, 0, 0], "stateRewards": ["", 2, 4, 7, -6, -76, -81, 2, 5, -66, -3, 36, -2, -4, 6, -2, -69, 4, -49, -6, 67, 38, -67, 2, 1, 1, 6, -68, -21, 52, -16, -16, 6, -70], "withholdReward": false, "trial_id": "mdp_trial_27", "block": "test", "trialIndex": 30, "score": 6.199999999999999, "costs": -2.8, "simulationMode": [null, null, null, null, null], "rewards": [2, 4, 7, -6, 2], "path": ["0", "0", "1", "2", "3", "4", "7"], "rt": [5457, 239, 95, 289, 57], "actions": ["up", "up", "up", "right", "down"], "actionTimes": [6360, 7109, 7698, 8474, 9058], "queries": {"click": {"state": {"target": ["12", "1"], "time": [1674, 3945]}, "edge": {"target": [], "time": []}}, "mouseover": {"state": {"target": ["12", "13", "1", "23", "23"], "time": [1453, 2818, 3785, 4517, 4651]}, "edge": {"target": [], "time": []}}, "mouseout": {"state": {"target": ["12", "12", "13", "1", "23", "23", "1", "1", "0", "1"], "time": [2035, 2502, 3670, 4217, 4634, 6751, 6969, 10002, 10967, 12534]}, "edge": {"target": [], "time": []}}}, "displayed_time": "14.90", "trialTime": 16118, "trial_type": "mouselab-mdp", "trial_index": 41, "time_elapsed": 1007164, "internal_node_id": "0.0-6.0-1.0-26.0"}}, {"uniqueid": "w65890100:a75128829", "current_trial": 42, "dateTime": 1693569468258, "trialdata": {"revealed_states": [], "clicked_states": [], "num_clicks_accrued": [0, 0, 0, 0, 0, 0, 0, 0, 0, 0, 0, 0, 0], "stateRewards": ["", -2, -3, 1, -7, 39, -67, 16, 5, -20, 73, 66, -1, 4, 5, -3, 23, -68, -87, -8, 3, -3, 17, 1, -4, -2, -13, -32, 34, 61, -5, -11, -18, 12], "withholdReward": false, "trial_id": "mdp_trial_28", "block": "test", "trialIndex": 31, "score": -21, "costs": 0, "simulationMode": [null, null, null, null, null], "rewards": [1, -4, -2, -5, -11], "path": ["0", "0", "23", "24", "25", "30", "31"], "rt": [833, 299, 1035, 186, 252], "actions": ["left", "left", "left", "down", "right"], "actionTimes": [1759, 2563, 4125, 4800, 5568], "queries": {"click": {"state": {"target": [], "time": []}, "edge": {"target": [], "time": []}}, "mouseover": {"state": {"target": [], "time": []}, "edge": {"target": [], "time": []}}, "mouseout": {"state": {"target": ["1", "28", "28", "26", "24", "31"], "time": [564, 2845, 5796, 6181, 11191, 12798]}, "edge": {"target": [], "time": []}}}, "displayed_time": "14.93", "trialTime": 15833, "trial_type": "mouselab-mdp", "trial_index": 42, "time_elapsed": 1023217, "internal_node_id": "0.0-6.0-1.0-27.0"}}, {"uniqueid": "w65890100:a75128829", "current_trial": 43, "dateTime": 1693569485138, "trialdata": {"revealed_states": [], "clicked_states": [], "num_clicks_accrued": [0, 0, 0, 0, 0, 0, 0, 0, 0, 0, 0, 0, 0], "stateRewards": ["", -1, 2, -2, 13, -56, -28, 10, 14, 53, -80, -29, 1, -3, -3, -14, 14, 9, -40, -9, 18, 18, 48, 1, 1, 1, -9, 64, -39, -9, 7, -52, -78, 7], "withholdReward": false, "trial_id": "mdp_trial_29", "block": "test", "trialIndex": 32, "score": 4, "costs": 0, "simulationMode": [null, null, null, null, null], "rewards": [1, -3, -3, -9, 18], "path": ["0", "0", "12", "13", "14", "19", "21"], "rt": [593, 65, 29, 567, 168], "actions": ["right", "right", "right", "down", "down"], "actionTimes": [1891, 2450, 2996, 4088, 4785], "queries": {"click": {"state": {"target": [], "time": []}, "edge": {"target": [], "time": []}}, "mouseover": {"state": {"target": [], "time": []}, "edge": {"target": [], "time": []}}, "mouseout": {"state": {"target": ["24", "23", "0", "0", "0", "0"], "time": [268, 300, 333, 2516, 3049, 3208]}, "edge": {"target": [], "time": []}}}, "displayed_time": "15.30", "trialTime": 16634, "trial_type": "mouselab-mdp", "trial_index": 43, "time_elapsed": 1040097, "internal_node_id": "0.0-6.0-1.0-28.0"}}, {"uniqueid": "w65890100:a75128829", "current_trial": 44, "dateTime": 1693569503503, "trialdata": {"revealed_states": [], "clicked_states": [], "num_clicks_accrued": [0, 0, 0, 0, 0, 0, 0, 0, 0, 0, 0, 0, 0], "stateRewards": ["", -1, -3, -7, -4, -85, -70, 79, 8, 84, -66, 42, 2, -2, -3, -16, -54, -66, 68, -3, 21, -14, 7, -2, -1, -3, -8, 75, 80, 86, -7, -84, 73, -16], "withholdReward": false, "trial_id": "mdp_trial_30", "block": "test", "trialIndex": 33, "score": 66, "costs": 0, "simulationMode": [null, null, null, null, null], "rewards": [-2, -1, -3, -8, 80], "path": ["0", "0", "23", "24", "25", "26", "28"], "rt": [504, 55, 20, 83, 147], "actions": ["left", "left", "left", "up", "right"], "actionTimes": [3344, 3918, 4431, 5028, 5693], "queries": {"click": {"state": {"target": [], "time": []}, "edge": {"target": [], "time": []}}, "mouseover": {"state": {"target": ["0"], "time": [2944]}, "edge": {"target": [], "time": []}}, "mouseout": {"state": {"target": ["0", "0"], "time": [2661, 6295]}, "edge": {"target": [], "time": []}}}, "displayed_time": "16.84", "trialTime": 18128, "trial_type": "mouselab-mdp", "trial_index": 44, "time_elapsed": 1058463, "internal_node_id": "0.0-6.0-1.0-29.0"}}, {"uniqueid": "w65890100:a75128829", "current_trial": 45, "dateTime": 1693569520267, "trialdata": {"revealed_states": [], "clicked_states": [], "num_clicks_accrued": [0, 0, 0, 0, 0, 0, 0, 0, 0, 0, 0, 0, 0], "stateRewards": ["", -1, 3, -4, -14, 78, 67, 2, 13, -32, 28, 39, -2, 1, -4, -4, -4, -42, -86, 11, 64, -29, -32, -1, -4, 2, -7, 5, 68, -61, 2, -21, 85, 50], "withholdReward": false, "trial_id": "mdp_trial_31", "block": "test", "trialIndex": 34, "score": 50, "costs": 0, "simulationMode": [null, null, null, null, null], "rewards": [-1, 3, -4, 13, 39], "path": ["0", "0", "1", "2", "3", "8", "11"], "rt": [695, 34, 63, 346, 25], "actions": ["up", "up", "up", "left", "left"], "actionTimes": [1925, 2470, 3065, 3932, 4460], "queries": {"click": {"state": {"target": [], "time": []}, "edge": {"target": [], "time": []}}, "mouseover": {"state": {"target": [], "time": []}, "edge": {"target": [], "time": []}}, "mouseout": {"state": {"target": ["0"], "time": [5769]}, "edge": {"target": [], "time": []}}}, "displayed_time": "15.23", "trialTime": 16515, "trial_type": "mouselab-mdp", "trial_index": 45, "time_elapsed": 1075227, "internal_node_id": "0.0-6.0-1.0-30.0"}}, {"uniqueid": "w65890100:a75128829", "current_trial": 46, "dateTime": 1693569536404, "trialdata": {"revealed_states": [], "clicked_states": [], "num_clicks_accrued": [0, 0, 0, 0, 0, 0, 0, 0, 0, 0, 0, 0, 0], "stateRewards": ["", -1, -4, -1, -11, 43, 69, 39, 4, 17, -20, -82, -2, -1, 4, 8, -79, 24, -79, 11, 36, 64, 41, 2, 4, -1, 11, -79, -47, 75, -3, 63, -36, -19], "withholdReward": false, "trial_id": "mdp_trial_32", "block": "test", "trialIndex": 35, "score": 33, "costs": 0, "simulationMode": [null, null, null, null, null], "rewards": [-2, -1, 4, 8, 24], "path": ["0", "0", "12", "13", "14", "15", "17"], "rt": [959, 57, 21, 399, 208], "actions": ["right", "right", "right", "up", "right"], "actionTimes": [1511, 2069, 2600, 3510, 4219], "queries": {"click": {"state": {"target": [], "time": []}, "edge": {"target": [], "time": []}}, "mouseover": {"state": {"target": [], "time": []}, "edge": {"target": [], "time": []}}, "mouseout": {"state": {"target": ["0"], "time": [3043]}, "edge": {"target": [], "time": []}}}, "displayed_time": "14.55", "trialTime": 15880, "trial_type": "mouselab-mdp", "trial_index": 46, "time_elapsed": 1091363, "internal_node_id": "0.0-6.0-1.0-31.0"}}, {"uniqueid": "w65890100:a75128829", "current_trial": 47, "dateTime": 1693569553590, "trialdata": {"revealed_states": [], "clicked_states": ["23", "1", "13"], "num_clicks_accrued": [0, 0, 0, 0, 0, 0, 0, 0, 0, 0, 0, 0, 0], "stateRewards": ["", 1, 4, -8, -5, -15, -7, 21, 13, -30, 40, -65, 1, 1, 5, -14, 35, 27, -38, -11, 36, -58, -47, -2, 4, -3, 13, -16, -49, 22, 15, -56, -44, -10], "withholdReward": false, "trial_id": "mdp_trial_33", "block": "test", "trialIndex": 36, "score": -49.2, "costs": -4.199999999999999, "simulationMode": [null, null, null, null, null], "rewards": [1, 1, 5, -14, -38], "path": ["0", "0", "12", "13", "14", "15", "18"], "rt": [10108, 354, 125, 103, 102], "actions": ["right", "right", "right", "up", "left"], "actionTimes": [11529, 12381, 13018, 13645, 14263], "queries": {"click": {"state": {"target": ["23", "1", "13"], "time": [3222, 5237, 7301]}, "edge": {"target": [], "time": []}}, "mouseover": {"state": {"target": ["23", "23", "24", "1", "12", "13", "0", "0"], "time": [2693, 3061, 3711, 5127, 5825, 7092, 9776, 10227]}, "edge": {"target": [], "time": []}}, "mouseout": {"state": {"target": ["0", "23", "23", "24", "23", "1", "12", "13", "0", "0"], "time": [2660, 2744, 3527, 4732, 4811, 5542, 7061, 7559, 9911, 10259]}, "edge": {"target": [], "time": []}}}, "displayed_time": "15.42", "trialTime": 16915, "trial_type": "mouselab-mdp", "trial_index": 47, "time_elapsed": 1108550, "internal_node_id": "0.0-6.0-1.0-32.0"}}, {"uniqueid": "w65890100:a75128829", "current_trial": 48, "dateTime": 1693569570478, "trialdata": {"revealed_states": [], "clicked_states": [], "num_clicks_accrued": [0, 0, 0, 0, 0, 0, 0, 0, 0, 0, 0, 0, 0], "stateRewards": ["", -1, 2, -6, 6, -82, -19, -39, -16, -83, 11, -33, -2, -2, 4, -6, -82, -1, -19, -6, -10, -67, -41, -2, 1, -7, 16, -23, -78, -52, 14, 31, -71, 74], "withholdReward": false, "trial_id": "mdp_trial_34", "block": "test", "trialIndex": 37, "score": -81, "costs": 0, "simulationMode": [null, null, null, null, null], "rewards": [-1, 2, -6, 6, -82], "path": ["0", "0", "1", "2", "3", "4", "5"], "rt": [376, 22, 51, 390, 57], "actions": ["up", "up", "up", "right", "up"], "actionTimes": [2090, 2631, 3194, 4115, 4681], "queries": {"click": {"state": {"target": [], "time": []}, "edge": {"target": [], "time": []}}, "mouseover": {"state": {"target": [], "time": []}, "edge": {"target": [], "time": []}}, "mouseout": {"state": {"target": ["0"], "time": [2140]}, "edge": {"target": [], "time": []}}}, "displayed_time": "15.71", "trialTime": 16653, "trial_type": "mouselab-mdp", "trial_index": 48, "time_elapsed": 1125438, "internal_node_id": "0.0-6.0-1.0-33.0"}}, {"uniqueid": "w65890100:a75128829", "current_trial": 49, "dateTime": 1693569586178, "trialdata": {"revealed_states": [], "clicked_states": [], "num_clicks_accrued": [0, 0, 0, 0, 0, 0, 0, 0, 0, 0, 0, 0, 0], "stateRewards": ["", -1, -3, -5, -14, -13, -47, 79, 8, -60, -64, 41, -1, 2, 3, 13, -46, 61, -79, -11, -64, -65, 23, 1, -2, 6, -14, 46, 32, 21, 7, 75, -66, 15], "withholdReward": false, "trial_id": "mdp_trial_35", "block": "test", "trialIndex": 38, "score": -65, "costs": 0, "simulationMode": [null, null, null, null, null], "rewards": [-1, -3, -5, 8, -64], "path": ["0", "0", "1", "2", "3", "8", "10"], "rt": [590, 8, 17, 49, 421], "actions": ["up", "up", "up", "left", "down"], "actionTimes": [1329, 1856, 2382, 2948, 3886], "queries": {"click": {"state": {"target": [], "time": []}, "edge": {"target": [], "time": []}}, "mouseover": {"state": {"target": ["23", "24"], "time": [1080, 1115]}, "edge": {"target": [], "time": []}}, "mouseout": {"state": {"target": ["0", "23", "24", "24", "23", "0"], "time": [1073, 1098, 1147, 3532, 4264, 4436]}, "edge": {"target": [], "time": []}}}, "displayed_time": "14.74", "trialTime": 15459, "trial_type": "mouselab-mdp", "trial_index": 49, "time_elapsed": 1141138, "internal_node_id": "0.0-6.0-1.0-34.0"}}, {"uniqueid": "w65890100:a75128829", "current_trial": 50, "dateTime": 1693569603333, "trialdata": {"revealed_states": [], "clicked_states": ["1", "2", "3"], "num_clicks_accrued": [0, 0, 0, 0, 0, 0, 0, 0, 0, 0, 0, 0, 0], "stateRewards": ["", -1, 4, -3, 3, 57, -61, 5, -11, 23, -1, 34, -2, -4, -1, -13, 27, 38, -36, 4, -45, 21, 88, 1, -2, -1, 1, -69, -5, -78, -12, -9, 38, -54], "withholdReward": false, "trial_id": "mdp_trial_36", "block": "test", "trialIndex": 39, "score": -16.2, "costs": -4.199999999999999, "simulationMode": [null, null, null, null, null], "rewards": [-1, 4, -3, -11, -1], "path": ["0", "0", "1", "2", "3", "8", "10"], "rt": [7583, 289, 235, 80, 88], "actions": ["up", "up", "up", "left", "down"], "actionTimes": [9054, 9839, 10567, 11145, 11736], "queries": {"click": {"state": {"target": ["1", "2", "3"], "time": [2197, 5101, 7058]}, "edge": {"target": [], "time": []}}, "mouseover": {"state": {"target": ["1", "2", "2", "2", "7", "2", "3"], "time": [2048, 2899, 3365, 3715, 4480, 4949, 6098]}, "edge": {"target": [], "time": []}}, "mouseout": {"state": {"target": ["0", "0", "1", "2", "2", "2", "7", "2", "3", "2", "0", "1", "10"], "time": [148, 1833, 2581, 3215, 3665, 3980, 4583, 5948, 7264, 7314, 13849, 13863, 13915]}, "edge": {"target": [], "time": []}}}, "displayed_time": "15.47", "trialTime": 16881, "trial_type": "mouselab-mdp", "trial_index": 50, "time_elapsed": 1158292, "internal_node_id": "0.0-6.0-1.0-35.0"}}, {"uniqueid": "w65890100:a75128829", "current_trial": 51, "dateTime": 1693569619748, "trialdata": {"revealed_states": [], "clicked_states": ["12", "13", "14"], "num_clicks_accrued": [0, 0, 0, 0, 0, 0, 0, 0, 0, 0, 0, 0, 0], "stateRewards": ["", -2, 4, 3, 5, -61, 4, 30, 1, -47, 83, 10, 1, 4, 7, -14, 19, -74, -83, 6, -2, -2, -65, -1, -2, 4, -11, 12, -1, -68, 11, -38, -28, 66], "withholdReward": false, "trial_id": "mdp_trial_37", "block": "test", "trialIndex": 40, "score": 11.8, "costs": -4.199999999999999, "simulationMode": [null, null, null, null, null, null], "rewards": [1, 4, 7, 6, -2], "path": ["0", "0", "12", "13", "14", "19", "21"], "rt": [6854, 597, 89, 82, 320, 114], "actions": ["right", "right", "right", "right", "down", "down"], "actionTimes": [8042, 8641, 9263, 9873, 10712, 11321], "queries": {"click": {"state": {"target": ["12", "13", "14"], "time": [2778, 4738, 6712]}, "edge": {"target": [], "time": []}}, "mouseover": {"state": {"target": ["12", "13", "12", "13", "14", "14", "14"], "time": [1740, 2157, 2657, 3107, 4990, 5257, 5640]}, "edge": {"target": [], "time": []}}, "mouseout": {"state": {"target": ["8", "7", "12", "13", "12", "13", "14", "14", "14", "13", "12"], "time": [306, 707, 2108, 2591, 3073, 4957, 5007, 5323, 8540, 8589, 10422]}, "edge": {"target": [], "time": []}}}, "displayed_time": "15.19", "trialTime": 16172, "trial_type": "mouselab-mdp", "trial_index": 51, "time_elapsed": 1174708, "internal_node_id": "0.0-6.0-1.0-36.0"}}, {"uniqueid": "w65890100:a75128829", "current_trial": 52, "dateTime": 1693569636341, "trialdata": {"revealed_states": [], "clicked_states": ["12", "13", "14", "15"], "num_clicks_accrued": [0, 0, 0, 0, 0, 0, 0, 0, 0, 0, 0, 0, 0], "stateRewards": ["", 1, -3, -2, 14, 49, -40, -39, 2, 26, -61, 73, 1, -4, -8, 12, 79, 29, -65, -13, 55, -26, 27, -1, 3, 3, 9, -17, -60, -18, -8, 35, -88, 69], "withholdReward": false, "trial_id": "mdp_trial_38", "block": "test", "trialIndex": 41, "score": -69.6, "costs": -5.6, "simulationMode": [null, null, null, null, null], "rewards": [1, -4, -8, 12, -65], "path": ["0", "0", "12", "13", "14", "15", "18"], "rt": [9033, 108, 15, 311, 95], "actions": ["right", "right", "right", "up", "left"], "actionTimes": [10319, 10939, 11479, 12326, 12925], "queries": {"click": {"state": {"target": ["12", "13", "14", "15"], "time": [2927, 4775, 6518, 8366]}, "edge": {"target": [], "time": []}}, "mouseover": {"state": {"target": ["12", "12", "12", "12", "13", "14", "15", "18", "18"], "time": [1580, 2132, 2497, 2797, 3263, 5529, 6813, 8963, 9497]}, "edge": {"target": [], "time": []}}, "mouseout": {"state": {"target": ["13", "12", "12", "12", "12", "13", "14", "15", "18", "18", "13", "13", "12"], "time": [314, 1732, 2279, 2529, 3230, 5296, 6746, 8697, 9046, 10479, 10878, 10961, 12012]}, "edge": {"target": [], "time": []}}}, "displayed_time": "15.29", "trialTime": 16372, "trial_type": "mouselab-mdp", "trial_index": 52, "time_elapsed": 1191300, "internal_node_id": "0.0-6.0-1.0-37.0"}}, {"uniqueid": "w65890100:a75128829", "current_trial": 53, "dateTime": 1693569653834, "trialdata": {"revealed_states": [], "clicked_states": [], "num_clicks_accrued": [0, 0, 0, 0, 0, 0, 0, 0, 0, 0, 0, 0, 0], "stateRewards": ["", -1, 1, -6, -1, 80, 23, 2, -11, 73, -81, 59, 1, 3, 5, -1, -26, 28, -3, 16, -59, -13, -50, -2, -2, 2, 15, -50, 86, 17, -4, 37, 35, 44], "withholdReward": false, "trial_id": "mdp_trial_39", "block": "test", "trialIndex": 42, "score": 38, "costs": 0, "simulationMode": [null, null, null, null, null], "rewards": [-2, -2, 2, -4, 44], "path": ["0", "0", "23", "24", "25", "30", "33"], "rt": [474, 51, 66, 50, 47], "actions": ["left", "left", "left", "down", "left"], "actionTimes": [2543, 3086, 3685, 4253, 4830], "queries": {"click": {"state": {"target": [], "time": []}, "edge": {"target": [], "time": []}}, "mouseover": {"state": {"target": [], "time": []}, "edge": {"target": [], "time": []}}, "mouseout": {"state": {"target": ["12", "0", "0", "0", "0", "0"], "time": [751, 1051, 1784, 3584, 3801, 5402]}, "edge": {"target": [], "time": []}}}, "displayed_time": "16.07", "trialTime": 17252, "trial_type": "mouselab-mdp", "trial_index": 53, "time_elapsed": 1208793, "internal_node_id": "0.0-6.0-1.0-38.0"}}, {"uniqueid": "w65890100:a75128829", "current_trial": 54, "dateTime": 1693569670485, "trialdata": {"revealed_states": [], "clicked_states": [], "num_clicks_accrued": [0, 0, 0, 0, 0, 0, 0, 0, 0, 0, 0, 0, 0], "stateRewards": ["", -2, 1, 6, -2, -10, -78, -69, 14, -15, 7, -1, 1, -1, -2, 13, 77, 32, 87, 5, -74, 30, -26, 1, 3, 4, 12, 39, 54, -43, 2, 10, 23, 13], "withholdReward": false, "trial_id": "mdp_trial_40", "block": "test", "trialIndex": 43, "score": 4, "costs": 0, "simulationMode": [null, null, null, null, null], "rewards": [-2, 1, 6, 14, -15], "path": ["0", "0", "1", "2", "3", "8", "9"], "rt": [252, 24, 15, 299, 58], "actions": ["up", "up", "up", "left", "up"], "actionTimes": [1464, 1983, 2523, 3341, 3916], "queries": {"click": {"state": {"target": [], "time": []}, "edge": {"target": [], "time": []}}, "mouseover": {"state": {"target": [], "time": []}, "edge": {"target": [], "time": []}}, "mouseout": {"state": {"target": [], "time": []}, "edge": {"target": [], "time": []}}}, "displayed_time": "15.21", "trialTime": 16395, "trial_type": "mouselab-mdp", "trial_index": 54, "time_elapsed": 1225444, "internal_node_id": "0.0-6.0-1.0-39.0"}}, {"uniqueid": "w65890100:a75128829", "current_trial": 55, "dateTime": 1693569712280, "trialdata": {"rt": 41789, "response": {"Q0": "$-2 to $2", "Q1": "$-16 to $16", "Q2": "$-32 to $32", "Q3": "The cost for clicking on nodes varied between nodes.", "Q4": "Neither motivated nor unmotivated"}, "question_order": [0, 1, 2, 3, 4], "trial_id": "final_quiz_control", "trial_type": "survey-multi-choice", "trial_index": 55, "time_elapsed": 1267240, "internal_node_id": "0.0-6.0-2.0"}}, {"uniqueid": "w65890100:a75128829", "current_trial": 56, "dateTime": 1693569846524, "trialdata": {"rt": 134235, "response": {"Q0": "in the beginning I did not use the reveal button no reveal the nodes as I just randomly tried to get points, but to the end started to use the nodes but did not make difference. Not so much of strategy used i will say. ", "Q1": "In the beginning i was using the same path, then every round i tried different path or some round i repeated paths to see if i will get money bonus, but it was not so good strategy, it is like gambling, you do not know what will come up . If I could have a chance I would look for nodes at the end and reveal them.", "Q2": "It is difficult to improve, because it is like in casino gambling, and you cannot predict what is under the nodes, and there is only 3 seconds when you can reveal some points and it does not help."}, "trial_id": "self_report_control", "trial_type": "survey-text", "trial_index": 56, "time_elapsed": 1401484, "internal_node_id": "0.0-6.0-3.0"}}, {"uniqueid": "w65890100:a75128829", "current_trial": 57, "dateTime": 1693569869351, "trialdata": {"rt": 22825, "response": {"gender": "male", "age": "29", "colorblind": "0", "effort": "0"}, "trial_type": "survey-html-form", "trial_index": 57, "time_elapsed": 1424311, "internal_node_id": "0.0-6.0-4.0"}}, {"uniqueid": "w65890100:a75128829", "current_trial": 58, "dateTime": 1693569902371, "trialdata": {"rt": 33016, "response": {"Q0": "In the beginning it was hard to understand, but after practice and repeating the reading i got full understanding. All good.", "Q1": "No I have not participated before.", "Q2": "Nothing :) Thanks"}, "trial_type": "survey-text", "trial_index": 58, "time_elapsed": 1457331, "internal_node_id": "0.0-6.0-5.0"}}, {"uniqueid": "w65890100:a75128829", "current_trial": 59, "dateTime": 1693569917351, "trialdata": {"rt": 14975, "stimulus": "<h1>Completion Code Instructions (1/2)</h1>\n<br><br><br><br>\nYou have reached the end of the experiment! The completion code consists of two parts: (1) a code with 2 characters (2) a code with 6 characters. On this page, you will receive the second part of the code. The first part of the completion code will be on the next page.\n<br><br>\nThe second part of your completion code is: <b>EWEK22</b>\n<br><br>\nPlease note this down. Then, press 'Finish HIT' in order to find the first part of your completion code. Once the data has been saved, you will receive this code either in this window or in the original browser window where you started the experiment.\n", "response": 0, "trial_type": "html-button-response", "trial_index": 59, "time_elapsed": 1472311, "internal_node_id": "0.0-6.0-6.0"}}, {"uniqueid": "w65890100:a75128829", "current_trial": 60, "dateTime": 1693569918355, "trialdata": {"success": true, "trial_type": "fullscreen", "trial_index": 60, "time_elapsed": 1473315, "internal_node_id": "0.0-7.0"}}], "questiondata": {"params": {"CODE": "C6DMOQA6", "MIN_TIME": 14, "inspectCost": 1, "startTime": "Fri Sep 01 2023 13:40:44 GMT+0200 (Central European Summer Time)", "bonusRate": 0.002, "variance": "1_2_4_8_44", "branching": "31123"}, "final_score": 15.8}, "eventdata": [{"eventtype": "initialized", "interval": 0, "timestamp": 1693568434884, "value": null}, {"eventtype": "window_resize", "interval": 0, "timestamp": 1693568434884, "value": [1032, 608]}, {"eventtype": "focus", "interval": 687, "timestamp": 1693568435571, "value": "on"}, {"eventtype": "window_resize", "interval": 21, "timestamp": 1693568435592, "value": [1032, 608]}, {"eventtype": "window_resize", "value": [1032, 608], "timestamp": 1693568444725, "interval": 9133}, {"eventtype": "window_resize", "value": [1280, 720], "timestamp": 1693568456013, "interval": 11288}, {"eventtype": "focus", "value": "off", "timestamp": 1693568781402, "interval": 325389}, {"eventtype": "focus", "value": "on", "timestamp": 1693568781403, "interval": 1}, {"eventtype": "window_resize", "value": [1032, 608], "timestamp": 1693568781610, "interval": 207}, {"eventtype": "window_resize", "value": [1280, 720], "timestamp": 1693568783879, "interval": 2269}, {"eventtype": "window_resize", "value": [1032, 608], "timestamp": 1693569917570, "interval": 1133691}], "useragent": "Mozilla/5.0 (Windows NT 10.0; Win64; x64) AppleWebKit/537.36 (KHTML, like Gecko) Chrome/116.0.0.0 Safari/537.36", "mode": "live", "id": "w65890100:a75128829", "status": "user data saved", "Beginhit": "2023-09-01 11:40:33.613553", "Beginexp": "2023-09-01 11:40:56.878848", "Endhit": "2023-09-01 12:05:18.856449", "psiturkStatus": 3, "browser": "<redacted>", "platform": "windows", "language": "en-US"}