{"condition": 1, "counterbalance": 0, "assignmentId": "a20504751", "workerId": "w46892774", "hitId": "h16506024", "currenttrial": 13, "bonus": 0, "data": [{"uniqueid": "w46892774:a20504751", "current_trial": 0, "dateTime": 1693660341006, "trialdata": {"success": true, "trial_type": "fullscreen", "trial_index": 0, "time_elapsed": 5272, "internal_node_id": "0.0-0.0"}}, {"uniqueid": "w46892774:a20504751", "current_trial": 1, "dateTime": 1693660353445, "trialdata": {"view_history": [{"page_index": 0, "viewing_time": 12435}], "rt": 12435, "trial_id": "exp_instructions_misaligned", "trial_type": "instructions", "trial_index": 1, "time_elapsed": 17711, "internal_node_id": "0.0-1.0"}}, {"uniqueid": "w46892774:a20504751", "current_trial": 2, "dateTime": 1693660528442, "trialdata": {"view_history": [{"page_index": 0, "viewing_time": 39729}, {"page_index": 1, "viewing_time": 86694}, {"page_index": 2, "viewing_time": 18136}, {"page_index": 3, "viewing_time": 30431}], "rt": 174990, "trial_id": "mouselab_instructions_1_misaligned", "trial_type": "instructions", "trial_index": 2, "time_elapsed": 192707, "internal_node_id": "0.0-2.0-1.0"}}, {"uniqueid": "w46892774:a20504751", "current_trial": 3, "dateTime": 1693660548776, "trialdata": {"revealed_states": [], "clicked_states": ["1"], "num_clicks_accrued": [0, 0, 0, 0, 0, 0, 0, 0, 0, 0, 0, 0, 0], "stateRewards": ["", -10, 10, 10, -10, -10, 10, 10, 10, 10, 10, -10, 10, 10, -10, 10, -10, 10, 10, -10, 10, -10, 10, 10, 10, 10, -10, -10, -10, 10, -10, 10, -10, -10], "withholdReward": false, "trial_id": "practice_1", "block": "test", "trialIndex": 0, "score": 13, "costs": -0.5, "simulationMode": [null, null, null, null, null], "rewards": [10, 10, 10, -10, -10], "path": ["0", "0", "23", "24", "25", "26", "27"], "rt": [5049, 182, 170, 1153, 126], "actions": ["left", "left", "left", "up", "up"], "actionTimes": [8456, 9147, 9836, 11502, 12142], "queries": {"click": {"state": {"target": ["1"], "time": [4974]}, "edge": {"target": [], "time": []}}, "mouseover": {"state": {"target": ["1"], "time": [4672]}, "edge": {"target": [], "time": []}}, "mouseout": {"state": {"target": ["22", "0", "1"], "time": [739, 4365, 5980]}, "edge": {"target": [], "time": []}}}, "displayed_time": "12.66", "trialTime": 19705, "trial_type": "mouselab-mdp", "trial_index": 3, "time_elapsed": 213040, "internal_node_id": "0.0-2.0-2.0-0.0"}}, {"uniqueid": "w46892774:a20504751", "current_trial": 4, "dateTime": 1693660567185, "trialdata": {"revealed_states": [], "clicked_states": [], "num_clicks_accrued": [0, 0, 0, 0, 0, 0, 0, 0, 0, 0, 0, 0, 0], "stateRewards": ["", 10, -10, -10, -10, 10, 10, 10, -10, 10, 10, 10, -10, -10, 10, -10, 10, 10, -10, 10, -10, -10, 10, -10, -10, 10, 10, 10, 10, -10, 10, -10, 10, 10], "withholdReward": false, "trial_id": "practice_2", "block": "test", "trialIndex": 1, "score": -6.5, "costs": 0, "simulationMode": [null, null, null, null, null], "rewards": [-10, -10, 10, 10, -10], "path": ["0", "0", "12", "13", "14", "19", "20"], "rt": [1645, 414, 491, 1513, 734], "actions": ["right", "right", "right", "down", "right"], "actionTimes": [5767, 6701, 7710, 9748, 11001], "queries": {"click": {"state": {"target": [], "time": []}, "edge": {"target": [], "time": []}}, "mouseover": {"state": {"target": ["31"], "time": [4534]}, "edge": {"target": [], "time": []}}, "mouseout": {"state": {"target": ["31", "0", "31", "0", "18", "13", "22", "15"], "time": [3071, 4490, 4689, 15135, 15386, 15463, 15511, 16153]}, "edge": {"target": [], "time": []}}}, "displayed_time": "11.52", "trialTime": 18106, "trial_type": "mouselab-mdp", "trial_index": 4, "time_elapsed": 231449, "internal_node_id": "0.0-2.0-2.0-1.0"}}, {"uniqueid": "w46892774:a20504751", "current_trial": 5, "dateTime": 1693660593224, "trialdata": {"view_history": [{"page_index": 0, "viewing_time": 21007}, {"page_index": 1, "viewing_time": 5021}], "rt": 26028, "trial_id": "mouselab_instructions_2_misaligned", "trial_type": "instructions", "trial_index": 5, "time_elapsed": 257490, "internal_node_id": "0.0-2.0-3.0"}}, {"uniqueid": "w46892774:a20504751", "current_trial": 6, "dateTime": 1693660641111, "trialdata": {"rt": 47883, "response": {"Q0": "The cost for clicking on nodes may vary between nodes.", "Q1": "The better I perform the higher my bonus will be.", "Q2": "No, the amount of cash at each node of the web may be different each time.", "Q3": "To get the highest total score.", "Q4": "Any time during the round.", "Q5": "3 seconds"}, "question_order": [0, 1, 2, 3, 4, 5], "correct": {"Q0": "The cost for clicking on nodes may vary between nodes.", "Q1": "The better I perform the higher my bonus will be.", "Q2": "No, the amount of cash at each node of the web may be different each time.", "Q3": "To get the highest total score.", "Q4": "Only before moving the spider.", "Q5": "3 seconds"}, "trial_id": "mouselab_quiz_misaligned", "trial_type": "survey-multi-choice", "trial_index": 6, "time_elapsed": 305377, "internal_node_id": "0.0-2.0-4.0"}}, {"uniqueid": "w46892774:a20504751", "current_trial": 7, "dateTime": 1693660646417, "trialdata": {"success": true, "trial_type": "fullscreen", "trial_index": 7, "time_elapsed": 310682, "internal_node_id": "0.0-2.1-0.1-0.1"}}, {"uniqueid": "w46892774:a20504751", "current_trial": 8, "dateTime": 1693660682264, "trialdata": {"view_history": [{"page_index": 0, "viewing_time": 10683}, {"page_index": 1, "viewing_time": 7241}, {"page_index": 2, "viewing_time": 9967}, {"page_index": 3, "viewing_time": 7948}], "rt": 35840, "trial_id": "mouselab_instructions_1_misaligned", "trial_type": "instructions", "trial_index": 8, "time_elapsed": 346530, "internal_node_id": "0.0-2.1-1.1"}}, {"uniqueid": "w46892774:a20504751", "current_trial": 9, "dateTime": 1693660698798, "trialdata": {"revealed_states": [], "clicked_states": ["1"], "num_clicks_accrued": [0, 0, 0, 0, 0, 0, 0, 0, 0, 0, 0, 0, 0], "stateRewards": ["", -10, 10, 10, -10, -10, 10, 10, 10, 10, 10, -10, 10, 10, -10, 10, -10, 10, 10, -10, 10, -10, 10, 10, 10, 10, -10, -10, -10, 10, -10, 10, -10, -10], "withholdReward": false, "trial_id": "practice_1", "block": "test", "trialIndex": 2, "score": 13, "costs": -0.5, "simulationMode": [null, null, null, null, null], "rewards": [10, 10, -10, 10, -10], "path": ["0", "0", "12", "13", "14", "15", "16"], "rt": [4990, 266, 257, 256, 35], "actions": ["right", "right", "right", "up", "up"], "actionTimes": [9331, 10109, 10884, 11665, 12228], "queries": {"click": {"state": {"target": ["1"], "time": [6753]}, "edge": {"target": [], "time": []}}, "mouseover": {"state": {"target": ["1", "1"], "time": [6232, 6531]}, "edge": {"target": [], "time": []}}, "mouseout": {"state": {"target": ["21", "1", "1", "1", "0"], "time": [2996, 6257, 7140, 7758, 13895]}, "edge": {"target": [], "time": []}}}, "displayed_time": "12.74", "trialTime": 16247, "trial_type": "mouselab-mdp", "trial_index": 9, "time_elapsed": 363062, "internal_node_id": "0.0-2.1-2.1-0.1"}}, {"uniqueid": "w46892774:a20504751", "current_trial": 10, "dateTime": 1693660714763, "trialdata": {"revealed_states": [], "clicked_states": [], "num_clicks_accrued": [0, 0, 0, 0, 0, 0, 0, 0, 0, 0, 0, 0, 0], "stateRewards": ["", 10, -10, -10, -10, 10, 10, 10, -10, 10, 10, 10, -10, -10, 10, -10, 10, 10, -10, 10, -10, -10, 10, -10, -10, 10, 10, 10, 10, -10, 10, -10, 10, 10], "withholdReward": false, "trial_id": "practice_2", "block": "test", "trialIndex": 3, "score": -6.5, "costs": 0, "simulationMode": [null, null, null, null, null], "rewards": [10, -10, -10, -10, 10], "path": ["0", "0", "1", "2", "3", "8", "9"], "rt": [3415, 190, 1165, 1115, 877], "actions": ["up", "up", "up", "left", "up"], "actionTimes": [6396, 7109, 8784, 10417, 11811], "queries": {"click": {"state": {"target": [], "time": []}, "edge": {"target": [], "time": []}}, "mouseover": {"state": {"target": [], "time": []}, "edge": {"target": [], "time": []}}, "mouseout": {"state": {"target": ["14", "13", "12", "0", "22", "20"], "time": [2133, 2237, 2405, 3609, 13404, 13427]}, "edge": {"target": [], "time": []}}}, "displayed_time": "12.33", "trialTime": 15660, "trial_type": "mouselab-mdp", "trial_index": 10, "time_elapsed": 379027, "internal_node_id": "0.0-2.1-2.1-1.1"}}, {"uniqueid": "w46892774:a20504751", "current_trial": 11, "dateTime": 1693660735500, "trialdata": {"view_history": [{"page_index": 0, "viewing_time": 18048}, {"page_index": 1, "viewing_time": 2676}], "rt": 20724, "trial_id": "mouselab_instructions_2_misaligned", "trial_type": "instructions", "trial_index": 11, "time_elapsed": 399765, "internal_node_id": "0.0-2.1-3.1"}}, {"uniqueid": "w46892774:a20504751", "current_trial": 12, "dateTime": 1693660770021, "trialdata": {"rt": 34519, "response": {"Q0": "The cost for clicking on nodes may vary between nodes.", "Q1": "No.", "Q2": "No, the amount of cash at each node of the web may be different each time.", "Q3": "To get the highest total score.", "Q4": "Any time during the round.", "Q5": "3 seconds"}, "question_order": [0, 1, 2, 3, 4, 5], "correct": {"Q0": "The cost for clicking on nodes may vary between nodes.", "Q1": "The better I perform the higher my bonus will be.", "Q2": "No, the amount of cash at each node of the web may be different each time.", "Q3": "To get the highest total score.", "Q4": "Only before moving the spider.", "Q5": "3 seconds"}, "trial_id": "mouselab_quiz_misaligned", "trial_type": "survey-multi-choice", "trial_index": 12, "time_elapsed": 434287, "internal_node_id": "0.0-2.1-4.1"}}], "questiondata": {"params": {"CODE": "C6DMOQA6", "MIN_TIME": 14, "inspectCost": 1, "startTime": "Sat Sep 02 2023 14:12:15 GMT+0100 (British Summer Time)", "bonusRate": 0.002, "variance": "1_2_4_8_44", "branching": "31123"}}, "eventdata": [{"eventtype": "initialized", "value": null, "timestamp": 1693660334534, "interval": 0}, {"eventtype": "window_resize", "value": [1366, 670], "timestamp": 1693660334534, "interval": 0}, {"eventtype": "window_resize", "value": [1366, 670], "timestamp": 1693660334852, "interval": 318}, {"eventtype": "window_resize", "value": [1366, 768], "timestamp": 1693660340323, "interval": 5471}, {"eventtype": "focus", "value": "off", "timestamp": 1693660643142, "interval": 302819}, {"eventtype": "focus", "value": "on", "timestamp": 1693660643142, "interval": 0}, {"eventtype": "window_resize", "value": [1366, 670], "timestamp": 1693660643365, "interval": 223}, {"eventtype": "window_resize", "value": [1366, 768], "timestamp": 1693660645628, "interval": 2263}, {"eventtype": "focus", "value": "off", "timestamp": 1693660773226, "interval": 127598}], "useragent": "Mozilla/5.0 (Windows NT 10.0; Win64; x64) AppleWebKit/537.36 (KHTML, like Gecko) Chrome/116.0.0.0 Safari/537.36", "mode": "live", "id": "w46892774:a20504751", "status": "user data saved", "Beginhit": "2023-09-02 13:12:12.917466", "Beginexp": "2023-09-02 13:12:20.660587", "Endhit": null, "psiturkStatus": 6, "browser": "<redacted>", "platform": "windows", "language": "en-GB", "excludeReason": "quizfail"}