{"condition": 0, "counterbalance": 0, "assignmentId": "a64347200", "workerId": "w14788080", "hitId": "h98331856", "currenttrial": 67, "bonus": 0, "data": [{"uniqueid": "w14788080:a64347200", "current_trial": 0, "dateTime": 1691142268756, "trialdata": {"success": true, "trial_type": "fullscreen", "trial_index": 0, "time_elapsed": 2415, "internal_node_id": "0.0-0.0"}}, {"uniqueid": "w14788080:a64347200", "current_trial": 1, "dateTime": 1691142281594, "trialdata": {"view_history": [{"page_index": 0, "viewing_time": 12833}], "rt": 12833, "trial_id": "exp_instructions_control", "trial_type": "instructions", "trial_index": 1, "time_elapsed": 15253, "internal_node_id": "0.0-1.0"}}, {"uniqueid": "w14788080:a64347200", "current_trial": 2, "dateTime": 1691142284190, "trialdata": {"success": true, "trial_type": "fullscreen", "trial_index": 2, "time_elapsed": 17849, "internal_node_id": "0.0-2.0-0.0"}}, {"uniqueid": "w14788080:a64347200", "current_trial": 3, "dateTime": 1691142429962, "trialdata": {"view_history": [{"page_index": 0, "viewing_time": 33417}, {"page_index": 1, "viewing_time": 36224}, {"page_index": 2, "viewing_time": 72712}, {"page_index": 3, "viewing_time": 3416}], "rt": 145769, "trial_id": "mouselab_instructions_1_control", "trial_type": "instructions", "trial_index": 3, "time_elapsed": 163621, "internal_node_id": "0.0-2.0-1.0"}}, {"uniqueid": "w14788080:a64347200", "current_trial": 4, "dateTime": 1691142495398, "trialdata": {"revealed_states": [], "clicked_states": ["26", "13", "15", "16", "3", "2", "23", "12", "14", "19", "22", "30", "25", "1"], "num_clicks_accrued": [0, 0, 0, 0, 0, 0, 0, 0, 0, 0, 0, 0, 0], "stateRewards": ["", -10, 10, -10, 10, -10, -10, 10, -10, 10, -10, -10, 10, 10, -10, 10, -10, -10, -10, 10, -10, -10, -10, 10, 10, -10, -10, 10, -10, -10, 10, -10, 10, 10], "withholdReward": false, "trial_id": "practice_1", "block": "test", "trialIndex": 0, "score": -13.5, "costs": -7, "simulationMode": [null, null, null, null, null], "rewards": [10, 10, -10, -10, -10], "path": ["0", "0", "23", "24", "25", "26", "28"], "rt": [46469, 139, 59, 3261, 6487], "actions": ["left", "left", "left", "up", "right"], "actionTimes": [49329, 49966, 50518, 54287, 61263], "queries": {"click": {"state": {"target": ["26", "13", "15", "16", "3", "2", "23", "12", "14", "19", "22", "30", "25", "1"], "time": [5749, 8675, 10259, 11571, 14123, 15500, 19895, 21779, 23299, 24340, 25363, 27084, 28235, 30339]}, "edge": {"target": [], "time": []}}, "mouseover": {"state": {"target": ["23", "24", "26", "23", "0", "12", "13", "18", "15", "16", "2", "3", "2", "1", "0", "1", "23", "0", "12", "12", "13", "14", "19", "22", "31", "30", "25", "24", "23", "0", "0", "1", "2", "1", "12", "1", "1", "1", "0", "23", "0", "0"], "time": [4594, 5262, 5612, 7029, 7262, 7742, 8372, 9591, 9874, 11208, 13679, 13912, 14758, 16275, 17029, 19291, 19712, 20491, 21074, 21556, 22362, 23024, 23977, 24991, 26225, 26679, 27991, 28674, 28725, 28843, 29529, 30212, 33307, 37445, 37762, 38963, 40192, 41041, 45328, 45928, 46363, 46713]}, "edge": {"target": [], "time": []}}, "mouseout": {"state": {"target": ["0", "0", "23", "24", "26", "23", "0", "12", "13", "18", "15", "16", "15", "2", "3", "3", "2", "1", "0", "2", "1", "23", "0", "12", "12", "13", "14", "19", "22", "31", "30", "25", "25", "24", "23", "0", "0", "1", "1", "2", "1", "12", "1", "1", "1", "0", "23", "0", "0", "23", "31", "24", "26", "26", "28"], "time": [2111, 4561, 4746, 5291, 6944, 7074, 7694, 7829, 9524, 9624, 10431, 12408, 13598, 13762, 14224, 14708, 16074, 16928, 17907, 19113, 19411, 20442, 21046, 21212, 22310, 22391, 23891, 24958, 26008, 26308, 27808, 28440, 28642, 28691, 28775, 28992, 29962, 31042, 32971, 34612, 37565, 37777, 39079, 40329, 44379, 45678, 46261, 46579, 46795, 55495, 57011, 57111, 57212, 58824, 61830]}, "edge": {"target": [], "time": []}}}, "displayed_time": "61.76", "trialTime": 64654, "trial_type": "mouselab-mdp", "trial_index": 4, "time_elapsed": 229056, "internal_node_id": "0.0-2.0-2.0-0.0"}}, {"uniqueid": "w14788080:a64347200", "current_trial": 5, "dateTime": 1691142548167, "trialdata": {"revealed_states": [], "clicked_states": ["2"], "num_clicks_accrued": [0, 0, 0, 0, 0, 0, 0, 0, 0, 0, 0, 0, 0], "stateRewards": ["", 10, 10, 10, -10, 10, 10, -10, 10, 10, -10, 10, 10, -10, 10, 10, 10, 10, 10, -10, -10, -10, -10, -10, -10, 10, 10, 10, 10, -10, -10, 10, -10, -10], "withholdReward": false, "trial_id": "practice_2", "block": "test", "trialIndex": 1, "score": 13, "costs": -0.5, "simulationMode": [null, null, null, null, null], "rewards": [10, 10, 10, -10, -10], "path": ["0", "0", "1", "2", "3", "4", "7"], "rt": [6363, 302, 20183, 3978, 5368], "actions": ["up", "up", "up", "right", "down"], "actionTimes": [10116, 10914, 31594, 36074, 41930], "queries": {"click": {"state": {"target": ["2"], "time": [5559]}, "edge": {"target": [], "time": []}}, "mouseover": {"state": {"target": ["1", "2", "1"], "time": [4848, 5215, 6110]}, "edge": {"target": [], "time": []}}, "mouseout": {"state": {"target": ["24", "23", "0", "0", "1", "2", "1", "2", "1", "0", "1", "2", "3", "3", "2", "1", "1", "2", "3", "8", "8", "2", "1", "2", "7"], "time": [1080, 1160, 2343, 4761, 4860, 6077, 7098, 18148, 18482, 19248, 19311, 19415, 30198, 32598, 34894, 35032, 37331, 37399, 37582, 37644, 38948, 40977, 46765, 46865, 51600]}, "edge": {"target": [], "time": []}}}, "displayed_time": "42.46", "trialTime": 52643, "trial_type": "mouselab-mdp", "trial_index": 5, "time_elapsed": 281825, "internal_node_id": "0.0-2.0-2.0-1.0"}}, {"uniqueid": "w14788080:a64347200", "current_trial": 6, "dateTime": 1691142662890, "trialdata": {"view_history": [{"page_index": 0, "viewing_time": 110416}, {"page_index": 1, "viewing_time": 4304}], "rt": 114720, "trial_id": "mouselab_instructions_2_control", "trial_type": "instructions", "trial_index": 6, "time_elapsed": 396549, "internal_node_id": "0.0-2.0-3.0"}}, {"uniqueid": "w14788080:a64347200", "current_trial": 7, "dateTime": 1691142728834, "trialdata": {"rt": 65942, "response": {"Q0": "There is no cost for clicking on nodes.", "Q1": "I will receive a $1 bonus if I perform well, otherwise I will receive no bonus.", "Q2": "No, the amount of cash at each node of the web may be different each time.", "Q3": "To click on the least number of nodes.", "Q4": "Only before moving the spider.", "Q5": "3 seconds"}, "question_order": [0, 1, 2, 3, 4, 5], "correct": {"Q0": "The cost for clicking on nodes may vary between nodes.", "Q1": "The better I perform the higher my bonus will be.", "Q2": "No, the amount of cash at each node of the web may be different each time.", "Q3": "To get the highest total score.", "Q4": "Only before moving the spider.", "Q5": "3 seconds"}, "trial_id": "mouselab_quiz_control", "trial_type": "survey-multi-choice", "trial_index": 7, "time_elapsed": 462493, "internal_node_id": "0.0-2.0-4.0"}}, {"uniqueid": "w14788080:a64347200", "current_trial": 8, "dateTime": 1691142753971, "trialdata": {"success": true, "trial_type": "fullscreen", "trial_index": 8, "time_elapsed": 487630, "internal_node_id": "0.0-2.1-0.1"}}, {"uniqueid": "w14788080:a64347200", "current_trial": 9, "dateTime": 1691142769969, "trialdata": {"view_history": [{"page_index": 0, "viewing_time": 8506}, {"page_index": 1, "viewing_time": 4000}, {"page_index": 2, "viewing_time": 1736}, {"page_index": 3, "viewing_time": 1752}], "rt": 15994, "trial_id": "mouselab_instructions_1_control", "trial_type": "instructions", "trial_index": 9, "time_elapsed": 503628, "internal_node_id": "0.0-2.1-1.1"}}, {"uniqueid": "w14788080:a64347200", "current_trial": 10, "dateTime": 1691142859750, "trialdata": {"revealed_states": [], "clicked_states": [], "num_clicks_accrued": [0, 0, 0, 0, 0, 0, 0, 0, 0, 0, 0, 0, 0], "stateRewards": ["", -10, 10, -10, 10, -10, -10, 10, -10, 10, -10, -10, 10, 10, -10, 10, -10, -10, -10, 10, -10, -10, -10, 10, 10, -10, -10, 10, -10, -10, 10, -10, 10, 10], "withholdReward": false, "trial_id": "practice_1", "block": "test", "trialIndex": 2, "score": 13.5, "costs": 0, "simulationMode": [null, null, null, null, null], "rewards": [10, 10, -10, 10, -10], "path": ["0", "0", "12", "13", "14", "15", "18"], "rt": [33312, 41, 264, 5931, 12699], "actions": ["right", "right", "right", "up", "left"], "actionTimes": [65248, 65781, 66537, 72981, 86174], "queries": {"click": {"state": {"target": [], "time": []}, "edge": {"target": [], "time": []}}, "mouseover": {"state": {"target": ["0", "0", "1", "1", "27", "28", "23", "0", "0", "0", "1", "2", "2", "7", "18", "7", "7", "23", "0"], "time": [41859, 46109, 50142, 51775, 52088, 52121, 52188, 52223, 53138, 54761, 57554, 57605, 58043, 59776, 61243, 62073, 62426, 63738, 64421]}, "edge": {"target": [], "time": []}}, "mouseout": {"state": {"target": ["0", "0", "23", "24", "25", "25", "26", "26", "24", "1", "0", "0", "0", "0", "1", "1", "27", "28", "23", "0", "0", "0", "1", "2", "2", "7", "18", "7", "7", "23", "0", "0", "13", "14", "15", "13", "12", "13", "15", "15", "13", "22", "0", "12", "15", "14", "13", "12", "0", "1", "23"], "time": [4108, 27471, 27504, 27541, 27556, 27824, 27854, 28358, 28421, 28908, 29475, 41187, 41938, 46859, 50171, 51789, 52105, 52138, 52205, 52460, 53172, 54821, 57571, 57655, 59559, 59890, 61993, 62126, 62854, 64376, 64771, 66022, 66288, 66905, 69025, 69143, 69543, 69676, 76093, 81354, 81494, 81554, 82625, 82654, 83309, 83639, 83688, 83759, 84388, 87659, 87809]}, "edge": {"target": [], "time": []}}}, "displayed_time": "86.67", "trialTime": 89653, "trial_type": "mouselab-mdp", "trial_index": 10, "time_elapsed": 593408, "internal_node_id": "0.0-2.1-2.1-0.1"}}, {"uniqueid": "w14788080:a64347200", "current_trial": 11, "dateTime": 1691142890598, "trialdata": {"revealed_states": [], "clicked_states": ["2", "15", "19", "25", "27"], "num_clicks_accrued": [0, 0, 0, 0, 0, 0, 0, 0, 0, 0, 0, 0, 0], "stateRewards": ["", 10, 10, 10, -10, 10, 10, -10, 10, 10, -10, 10, 10, -10, 10, 10, 10, 10, 10, -10, -10, -10, -10, -10, -10, 10, 10, 10, 10, -10, -10, 10, -10, -10], "withholdReward": false, "trial_id": "practice_2", "block": "test", "trialIndex": 3, "score": 11, "costs": -2.5, "simulationMode": [null, null, null, null, null], "rewards": [-10, -10, 10, 10, 10], "path": ["0", "0", "23", "24", "25", "26", "27"], "rt": [16497, 65, 59, 621, 1608], "actions": ["left", "left", "left", "up", "up"], "actionTimes": [20265, 20830, 21389, 22502, 24606], "queries": {"click": {"state": {"target": ["2", "15", "19", "25", "27"], "time": [7587, 9476, 12299, 14272, 16459]}, "edge": {"target": [], "time": []}}, "mouseover": {"state": {"target": ["1", "2", "7", "18", "15", "15", "16", "13", "14", "14", "19", "19", "22", "24", "25", "26", "27", "1", "18", "15", "17", "15"], "time": [7067, 7347, 8146, 8297, 8546, 8980, 10047, 11151, 11363, 11629, 11896, 12150, 13351, 13617, 13698, 14863, 15967, 17030, 17066, 17081, 17130, 17480]}, "edge": {"target": [], "time": []}}, "mouseout": {"state": {"target": ["12", "1", "0", "1", "2", "7", "18", "15", "15", "16", "13", "14", "14", "19", "19", "22", "24", "25", "26", "27", "27", "1", "18", "15", "17", "15", "14", "0", "28", "24", "31"], "time": [2966, 3182, 6799, 7284, 8113, 8196, 8513, 8613, 9914, 11002, 11330, 11431, 11884, 11947, 13280, 13414, 13668, 14663, 15451, 16649, 16964, 17052, 17080, 17113, 17385, 28618, 28717, 28867, 29129, 29696, 29767]}, "edge": {"target": [], "time": []}}}, "displayed_time": "25.10", "trialTime": 30726, "trial_type": "mouselab-mdp", "trial_index": 11, "time_elapsed": 624256, "internal_node_id": "0.0-2.1-2.1-1.1"}}, {"uniqueid": "w14788080:a64347200", "current_trial": 12, "dateTime": 1691142897665, "trialdata": {"view_history": [{"page_index": 0, "viewing_time": 2337}, {"page_index": 1, "viewing_time": 4728}], "rt": 7065, "trial_id": "mouselab_instructions_2_control", "trial_type": "instructions", "trial_index": 12, "time_elapsed": 631324, "internal_node_id": "0.0-2.1-3.1"}}, {"uniqueid": "w14788080:a64347200", "current_trial": 13, "dateTime": 1691142935842, "trialdata": {"rt": 38174, "response": {"Q0": "There is no cost for clicking on nodes.", "Q1": "I will receive a $1 bonus if I perform well, otherwise I will receive no bonus.", "Q2": "No, the amount of cash at each node of the web may be different each time.", "Q3": "To finish the game in the shortest amount of time.", "Q4": "Only before moving the spider.", "Q5": "10 seconds"}, "question_order": [0, 1, 2, 3, 4, 5], "correct": {"Q0": "The cost for clicking on nodes may vary between nodes.", "Q1": "The better I perform the higher my bonus will be.", "Q2": "No, the amount of cash at each node of the web may be different each time.", "Q3": "To get the highest total score.", "Q4": "Only before moving the spider.", "Q5": "3 seconds"}, "trial_id": "mouselab_quiz_control", "trial_type": "survey-multi-choice", "trial_index": 13, "time_elapsed": 669501, "internal_node_id": "0.0-2.1-4.1"}}, {"uniqueid": "w14788080:a64347200", "current_trial": 14, "dateTime": 1691142944402, "trialdata": {"success": true, "trial_type": "fullscreen", "trial_index": 14, "time_elapsed": 678061, "internal_node_id": "0.0-2.2-0.2"}}, {"uniqueid": "w14788080:a64347200", "current_trial": 15, "dateTime": 1691143057985, "trialdata": {"view_history": [{"page_index": 0, "viewing_time": 64963}, {"page_index": 1, "viewing_time": 20464}, {"page_index": 2, "viewing_time": 10104}, {"page_index": 3, "viewing_time": 18048}], "rt": 113579, "trial_id": "mouselab_instructions_1_control", "trial_type": "instructions", "trial_index": 15, "time_elapsed": 791644, "internal_node_id": "0.0-2.2-1.2"}}, {"uniqueid": "w14788080:a64347200", "current_trial": 16, "dateTime": 1691143077940, "trialdata": {"revealed_states": [], "clicked_states": ["3", "25", "15"], "num_clicks_accrued": [0, 0, 0, 0, 0, 0, 0, 0, 0, 0, 0, 0, 0], "stateRewards": ["", -10, 10, -10, 10, -10, -10, 10, -10, 10, -10, -10, 10, 10, -10, 10, -10, -10, -10, 10, -10, -10, -10, 10, 10, -10, -10, 10, -10, -10, 10, -10, 10, 10], "withholdReward": false, "trial_id": "practice_1", "block": "test", "trialIndex": 4, "score": 12, "costs": -1.5, "simulationMode": [null, null, null, null, null], "rewards": [10, 10, -10, 10, -10], "path": ["0", "0", "12", "13", "14", "15", "16"], "rt": [9955, 187, 81, 1041, 2869], "actions": ["right", "right", "right", "up", "up"], "actionTimes": [11388, 12066, 12642, 14185, 17547], "queries": {"click": {"state": {"target": ["3", "25", "15"], "time": [3895, 5679, 8213]}, "edge": {"target": [], "time": []}}, "mouseover": {"state": {"target": ["1", "2", "7", "2", "3", "10", "28", "25", "24", "12", "13", "15", "18", "0", "23"], "time": [2381, 2578, 2977, 3282, 3648, 4760, 4844, 5076, 6910, 7443, 7494, 7881, 9897, 10443, 11180]}, "edge": {"target": [], "time": []}}, "mouseout": {"state": {"target": ["1", "0", "1", "2", "7", "2", "3", "10", "28", "25", "24", "12", "13", "15", "18", "0", "23", "1", "18", "15", "18", "12"], "time": [596, 1783, 2482, 2915, 3148, 3527, 4693, 4794, 4894, 6826, 6927, 7477, 7560, 8227, 9912, 10581, 16082, 16381, 16461, 18695, 18831, 18948]}, "edge": {"target": [], "time": []}}}, "displayed_time": "18.06", "trialTime": 19834, "trial_type": "mouselab-mdp", "trial_index": 16, "time_elapsed": 811599, "internal_node_id": "0.0-2.2-2.2-0.2"}}, {"uniqueid": "w14788080:a64347200", "current_trial": 17, "dateTime": 1691143092603, "trialdata": {"revealed_states": [], "clicked_states": ["9"], "num_clicks_accrued": [0, 0, 0, 0, 0, 0, 0, 0, 0, 0, 0, 0, 0], "stateRewards": ["", 10, 10, 10, -10, 10, 10, -10, 10, 10, -10, 10, 10, -10, 10, 10, 10, 10, 10, -10, -10, -10, -10, -10, -10, 10, 10, 10, 10, -10, -10, 10, -10, -10], "withholdReward": false, "trial_id": "practice_2", "block": "test", "trialIndex": 5, "score": 53, "costs": -0.5, "simulationMode": [null, null, null, null, null], "rewards": [10, 10, 10, 10, 10], "path": ["0", "0", "1", "2", "3", "8", "9"], "rt": [4983, 57, 27, 564, 860], "actions": ["up", "up", "up", "left", "up"], "actionTimes": [7863, 8420, 8940, 10011, 11372], "queries": {"click": {"state": {"target": ["9"], "time": [5169]}, "edge": {"target": [], "time": []}}, "mouseover": {"state": {"target": ["3", "9", "8"], "time": [4449, 4849, 6111]}, "edge": {"target": [], "time": []}}, "mouseout": {"state": {"target": ["0", "0", "3", "9", "8"], "time": [2444, 4094, 4478, 5945, 7301]}, "edge": {"target": [], "time": []}}}, "displayed_time": "11.86", "trialTime": 14532, "trial_type": "mouselab-mdp", "trial_index": 17, "time_elapsed": 826261, "internal_node_id": "0.0-2.2-2.2-1.2"}}, {"uniqueid": "w14788080:a64347200", "current_trial": 18, "dateTime": 1691143100649, "trialdata": {"view_history": [{"page_index": 0, "viewing_time": 4149}, {"page_index": 1, "viewing_time": 3896}], "rt": 8045, "trial_id": "mouselab_instructions_2_control", "trial_type": "instructions", "trial_index": 18, "time_elapsed": 834308, "internal_node_id": "0.0-2.2-3.2"}}, {"uniqueid": "w14788080:a64347200", "current_trial": 19, "dateTime": 1691143166842, "trialdata": {"rt": 66190, "response": {"Q0": "The cost for clicking on nodes may vary between nodes.", "Q1": "The better I perform the higher my bonus will be.", "Q2": "No, the amount of cash at each node of the web may be different each time.", "Q3": "To get the highest total score.", "Q4": "Only before moving the spider.", "Q5": "3 seconds"}, "question_order": [0, 1, 2, 3, 4, 5], "correct": {"Q0": "The cost for clicking on nodes may vary between nodes.", "Q1": "The better I perform the higher my bonus will be.", "Q2": "No, the amount of cash at each node of the web may be different each time.", "Q3": "To get the highest total score.", "Q4": "Only before moving the spider.", "Q5": "3 seconds"}, "trial_id": "mouselab_quiz_control", "trial_type": "survey-multi-choice", "trial_index": 19, "time_elapsed": 900501, "internal_node_id": "0.0-2.2-4.2"}}, {"uniqueid": "w14788080:a64347200", "current_trial": 20, "dateTime": 1691143171315, "trialdata": {"rt": 4467, "stimulus": "\n<h1> Get ready to start the game! </h1>\n\nThank you for reading the instructions. Get ready start with the 40 rounds of this game.\n<br><br>\nIf you need to take a break, feel free to take one after the end of a round, before continuing to the next one.\n<br><br>\nRemember, the more money the spider gets, the bigger your bonus will be!\n<br><br>\n<div style='text-align: center;'>Press <code>space</code> to begin.</div>\n\n<br><br>\n(If, at any point, the <code>space</code> key does not take you to the next page, click once on the text and try again.)", "response": " ", "trial_id": "mdp_ready", "trial_type": "html-keyboard-response", "trial_index": 20, "time_elapsed": 904974, "internal_node_id": "0.0-4.0-0.0"}}, {"uniqueid": "w14788080:a64347200", "current_trial": 21, "dateTime": 1691143190094, "trialdata": {"revealed_states": [], "clicked_states": ["8"], "num_clicks_accrued": [0, 0, 0, 0, 0, 0, 0, 0, 0, 0, 0, 0, 0], "stateRewards": ["", -2, 1, 6, -2, -10, -78, -69, 14, -15, 7, -1, 1, -1, -2, 13, 77, 32, 87, 5, -74, 30, -26, 1, 3, 4, 12, 39, 54, -43, 2, 10, 23, 13], "withholdReward": false, "trial_id": "mdp_trial_1", "block": "test", "trialIndex": 6, "score": 16.6, "costs": -1.4, "simulationMode": [null, null, null, null, null], "rewards": [-2, 1, 6, 14, -1], "path": ["0", "0", "1", "2", "3", "8", "11"], "rt": [5783, 52, 187, 755, 385], "actions": ["up", "up", "up", "left", "left"], "actionTimes": [8198, 8748, 9467, 10716, 11596], "queries": {"click": {"state": {"target": ["8"], "time": [4897]}, "edge": {"target": [], "time": []}}, "mouseover": {"state": {"target": ["23", "10", "8", "3", "4", "4", "3"], "time": [3679, 4311, 4680, 6494, 6645, 7145, 7432]}, "edge": {"target": [], "time": []}}, "mouseout": {"state": {"target": ["3", "7", "23", "10", "8", "3", "4", "4", "3", "10", "23"], "time": [459, 613, 4064, 4379, 6460, 6563, 6877, 7347, 13144, 17432, 17494]}, "edge": {"target": [], "time": []}}}, "displayed_time": "16.41", "trialTime": 18636, "trial_type": "mouselab-mdp", "trial_index": 21, "time_elapsed": 923751, "internal_node_id": "0.0-4.0-1.0-0.0"}}, {"uniqueid": "w14788080:a64347200", "current_trial": 22, "dateTime": 1691143324971, "trialdata": {"revealed_states": [], "clicked_states": ["32", "9"], "num_clicks_accrued": [0, 0, 0, 0, 0, 0, 0, 0, 0, 0, 0, 0, 0], "stateRewards": ["", -1, 2, -2, 13, -56, -28, 10, 14, 53, -80, -29, 1, -3, -3, -14, 14, 9, -40, -9, 18, 18, 48, 1, 1, 1, -9, 64, -39, -9, 7, -52, -78, 7], "withholdReward": false, "trial_id": "mdp_trial_2", "block": "test", "trialIndex": 7, "score": 63.2, "costs": -2.8, "simulationMode": [null, null, null, null, null], "rewards": [-1, 2, -2, 14, 53], "path": ["0", "0", "1", "2", "3", "8", "9"], "rt": [8486, 64, 25, 956, 506], "actions": ["up", "up", "up", "left", "up"], "actionTimes": [127299, 127867, 128394, 129842, 130859], "queries": {"click": {"state": {"target": ["32", "9"], "time": [121135, 124335]}, "edge": {"target": [], "time": []}}, "mouseover": {"state": {"target": ["23", "24", "25", "33", "32", "30", "25", "26", "9", "8"], "time": [119905, 119934, 119967, 120334, 120850, 123384, 123500, 123587, 123853, 126551]}, "edge": {"target": [], "time": []}}, "mouseout": {"state": {"target": ["1", "3", "3", "0", "16", "15", "18", "1", "0", "23", "24", "25", "33", "32", "30", "25", "26", "9", "8", "23", "26", "26", "24", "23"], "time": [115886, 115933, 116070, 116318, 117917, 118035, 118100, 118184, 118652, 119920, 119951, 120267, 120368, 123283, 123467, 123551, 123684, 126502, 126584, 132555, 132988, 133051, 133335, 133385]}, "edge": {"target": [], "time": []}}}, "displayed_time": "132.81", "trialTime": 134720, "trial_type": "mouselab-mdp", "trial_index": 22, "time_elapsed": 1058629, "internal_node_id": "0.0-4.0-1.0-1.0"}}, {"uniqueid": "w14788080:a64347200", "current_trial": 23, "dateTime": 1691143343422, "trialdata": {"revealed_states": [], "clicked_states": [], "num_clicks_accrued": [0, 0, 0, 0, 0, 0, 0, 0, 0, 0, 0, 0, 0], "stateRewards": ["", 1, 2, 3, 16, 63, -25, 16, -4, -14, 82, -66, -1, -3, -3, -11, -14, 19, 46, 3, -34, -82, 66, -2, -3, 4, -5, -63, 77, -37, -1, -45, -41, 84], "withholdReward": false, "trial_id": "mdp_trial_3", "block": "test", "trialIndex": 8, "score": -32, "costs": 0, "simulationMode": [null, null, null, null, null], "rewards": [-1, -3, -3, -11, -14], "path": ["0", "0", "12", "13", "14", "15", "16"], "rt": [5984, 235, 142, 644, 1374], "actions": ["right", "right", "right", "up", "up"], "actionTimes": [8385, 9120, 9760, 10896, 12759], "queries": {"click": {"state": {"target": [], "time": []}, "edge": {"target": [], "time": []}}, "mouseover": {"state": {"target": ["12", "7", "5", "4"], "time": [4833, 5003, 5205, 6984]}, "edge": {"target": [], "time": []}}, "mouseout": {"state": {"target": ["0", "0", "12", "7", "5", "4", "18", "12"], "time": [1786, 4816, 4902, 5017, 6954, 7000, 14217, 14355]}, "edge": {"target": [], "time": []}}}, "displayed_time": "16.40", "trialTime": 18304, "trial_type": "mouselab-mdp", "trial_index": 23, "time_elapsed": 1077080, "internal_node_id": "0.0-4.0-1.0-2.0"}}, {"uniqueid": "w14788080:a64347200", "current_trial": 24, "dateTime": 1691143360445, "trialdata": {"revealed_states": [], "clicked_states": ["14", "16", "21"], "num_clicks_accrued": [0, 0, 0, 0, 0, 0, 0, 0, 0, 0, 0, 0, 0], "stateRewards": ["", -1, -1, 7, -15, -43, -21, -84, -9, -45, -66, 2, 1, -2, 2, 8, -27, 44, -52, -5, -84, 11, 53, 1, 4, -4, 16, 83, -82, -15, -16, 68, -43, 81], "withholdReward": false, "trial_id": "mdp_trial_4", "block": "test", "trialIndex": 9, "score": 2.8000000000000007, "costs": -4.199999999999999, "simulationMode": [null, null, null, null, null], "rewards": [1, -2, 2, -5, 11], "path": ["0", "0", "12", "13", "14", "19", "21"], "rt": [8306, 694, 46, 761, 22], "actions": ["right", "right", "right", "down", "down"], "actionTimes": [9661, 10853, 11388, 12653, 13164], "queries": {"click": {"state": {"target": ["14", "16", "21"], "time": [2585, 4314, 6561]}, "edge": {"target": [], "time": []}}, "mouseover": {"state": {"target": ["0", "12", "13", "14", "15", "16", "15", "19", "21"], "time": [1740, 1876, 2007, 2207, 2957, 3057, 5774, 5944, 6162]}, "edge": {"target": [], "time": []}}, "mouseout": {"state": {"target": ["0", "0", "12", "13", "14", "15", "16", "15", "14", "19", "21", "22"], "time": [1043, 1807, 1941, 2024, 2840, 2991, 5724, 5824, 5895, 5990, 15050, 16495]}, "edge": {"target": [], "time": []}}}, "displayed_time": "15.36", "trialTime": 16884, "trial_type": "mouselab-mdp", "trial_index": 24, "time_elapsed": 1094103, "internal_node_id": "0.0-4.0-1.0-3.0"}}, {"uniqueid": "w14788080:a64347200", "current_trial": 25, "dateTime": 1691143377414, "trialdata": {"revealed_states": [], "clicked_states": ["29", "17"], "num_clicks_accrued": [0, 0, 0, 0, 0, 0, 0, 0, 0, 0, 0, 0, 0], "stateRewards": ["", 1, -2, -8, -3, 31, -84, -55, -14, 15, -58, 17, -2, -3, 7, 7, -12, 48, 67, 4, -44, -68, 46, 2, 3, -5, -7, 76, 27, 5, 11, 57, 52, 59], "withholdReward": false, "trial_id": "mdp_trial_5", "block": "test", "trialIndex": 10, "score": 54.2, "costs": -2.8, "simulationMode": [null, null, null, null, null], "rewards": [-2, -3, 7, 7, 48], "path": ["0", "0", "12", "13", "14", "15", "17"], "rt": [8622, 143, 14, 477, 179], "actions": ["right", "right", "right", "up", "right"], "actionTimes": [9996, 10636, 11139, 12140, 12820], "queries": {"click": {"state": {"target": ["29", "17"], "time": [4280, 6992]}, "edge": {"target": [], "time": []}}, "mouseover": {"state": {"target": ["23", "31", "32", "33", "29", "26", "28", "1", "18", "15", "17", "15"], "time": [3258, 3290, 3324, 3527, 3876, 6291, 6324, 6357, 6406, 6640, 6741, 7924]}, "edge": {"target": [], "time": []}}, "mouseout": {"state": {"target": ["0", "23", "31", "32", "33", "29", "26", "28", "1", "18", "15", "17", "15", "14", "22"], "time": [710, 3275, 3307, 3406, 3556, 6278, 6323, 6340, 6373, 6574, 6691, 7740, 14823, 16010, 16128]}, "edge": {"target": [], "time": []}}}, "displayed_time": "15.38", "trialTime": 16836, "trial_type": "mouselab-mdp", "trial_index": 25, "time_elapsed": 1111071, "internal_node_id": "0.0-4.0-1.0-4.0"}}, {"uniqueid": "w14788080:a64347200", "current_trial": 26, "dateTime": 1691143423621, "trialdata": {"revealed_states": [], "clicked_states": ["5", "9", "3", "26", "15", "21", "30", "1"], "num_clicks_accrued": [0, 0, 0, 0, 0, 0, 0, 0, 0, 0, 0, 0, 0], "stateRewards": ["", 2, 4, 7, 7, -79, -2, -21, -5, -53, 47, -21, 1, -3, -1, 7, 83, 7, 84, -7, 80, -37, 69, 2, -4, 5, 2, 4, -20, -30, 7, 71, 44, -81], "withholdReward": false, "trial_id": "mdp_trial_6", "block": "test", "trialIndex": 11, "score": 42.8, "costs": -11.200000000000001, "simulationMode": [null, null, null, null, null], "rewards": [2, -4, 5, 7, 44], "path": ["0", "0", "23", "24", "25", "30", "32"], "rt": [29814, 35, 518, 4941, 115], "actions": ["left", "left", "left", "down", "down"], "actionTimes": [36135, 36671, 37704, 43144, 43752], "queries": {"click": {"state": {"target": ["5", "9", "3", "26", "15", "21", "30", "1"], "time": [8708, 10757, 12988, 16108, 18939, 21979, 24812, 29016]}, "edge": {"target": [], "time": []}}, "mouseover": {"state": {"target": ["0", "1", "2", "5", "9", "8", "3", "2", "10", "28", "26", "18", "15", "18", "12", "21", "31", "30", "33", "30", "31", "23", "0", "1", "28", "26", "26", "29"], "time": [7801, 7968, 8023, 8172, 9752, 11402, 11852, 15189, 15302, 15472, 15886, 18618, 18768, 19519, 21206, 21871, 24239, 24256, 24323, 24551, 27052, 27289, 28256, 28834, 31704, 31901, 32218, 33118]}, "edge": {"target": [], "time": []}}, "mouseout": {"state": {"target": ["23", "26", "23", "0", "0", "1", "2", "5", "9", "9", "8", "3", "2", "10", "28", "26", "18", "15", "15", "18", "12", "21", "31", "30", "33", "30", "31", "23", "0", "1", "1", "28", "26", "26", "29", "25", "26", "28"], "time": [2637, 2701, 5719, 6659, 7920, 7985, 8052, 9202, 10954, 11352, 11752, 15087, 15252, 15371, 15488, 18340, 18722, 18986, 19468, 19535, 21302, 24118, 24254, 24285, 24501, 27006, 27068, 27302, 28601, 29168, 31389, 31872, 32018, 33051, 39304, 40019, 40206, 44988]}, "edge": {"target": [], "time": []}}}, "displayed_time": "44.25", "trialTime": 46071, "trial_type": "mouselab-mdp", "trial_index": 26, "time_elapsed": 1157279, "internal_node_id": "0.0-4.0-1.0-5.0"}}, {"uniqueid": "w14788080:a64347200", "current_trial": 27, "dateTime": 1691143440501, "trialdata": {"revealed_states": [], "clicked_states": ["3", "6"], "num_clicks_accrued": [0, 0, 0, 0, 0, 0, 0, 0, 0, 0, 0, 0, 0], "stateRewards": ["", -2, -3, 8, -4, -30, 31, 69, 9, 66, 87, 64, -2, 2, 8, 5, 47, 16, -39, -8, -54, 51, -19, 1, -2, -2, -11, -25, -26, 43, -9, 19, -84, 86], "withholdReward": false, "trial_id": "mdp_trial_7", "block": "test", "trialIndex": 12, "score": 27.2, "costs": -2.8, "simulationMode": [null, null, null, null, null], "rewards": [-2, -3, 8, -4, 31], "path": ["0", "0", "1", "2", "3", "4", "6"], "rt": [7360, 62, 239, 426, 253], "actions": ["up", "up", "up", "right", "right"], "actionTimes": [9061, 9611, 10372, 11292, 12036], "queries": {"click": {"state": {"target": ["3", "6"], "time": [3345, 5879]}, "edge": {"target": [], "time": []}}, "mouseover": {"state": {"target": ["28", "26", "27", "10", "3", "8", "4", "6"], "time": [2420, 2532, 2652, 2721, 3101, 4115, 5281, 5332]}, "edge": {"target": [], "time": []}}, "mouseout": {"state": {"target": ["2", "7", "13", "12", "23", "28", "26", "27", "10", "3", "8", "3", "4", "6", "4"], "time": [398, 452, 666, 867, 1351, 2464, 2565, 2667, 2732, 3982, 5149, 5267, 5314, 7215, 13398]}, "edge": {"target": [], "time": []}}}, "displayed_time": "15.70", "trialTime": 16748, "trial_type": "mouselab-mdp", "trial_index": 27, "time_elapsed": 1174158, "internal_node_id": "0.0-4.0-1.0-6.0"}}, {"uniqueid": "w14788080:a64347200", "current_trial": 28, "dateTime": 1691143461469, "trialdata": {"revealed_states": [], "clicked_states": ["15", "8", "3", "4", "32"], "num_clicks_accrued": [0, 0, 0, 0, 0, 0, 0, 0, 0, 0, 0, 0, 0], "stateRewards": ["", 2, -1, 4, -9, -43, 7, 54, -13, 38, -40, -83, -1, 2, -8, -10, 34, -33, 11, -14, -79, 65, 26, 1, 2, 4, 10, 21, 1, 86, 4, -53, 28, -29], "withholdReward": false, "trial_id": "mdp_trial_8", "block": "test", "trialIndex": 13, "score": 32, "costs": -7, "simulationMode": [null, null, null, null, null], "rewards": [1, 2, 4, 4, 28], "path": ["0", "0", "23", "24", "25", "30", "32"], "rt": [13330, 520, 296, 648, 195], "actions": ["left", "left", "left", "down", "down"], "actionTimes": [15325, 16339, 17131, 18267, 18964], "queries": {"click": {"state": {"target": ["15", "8", "3", "4", "32"], "time": [3478, 6271, 8176, 10129, 12424]}, "edge": {"target": [], "time": []}}, "mouseover": {"state": {"target": ["0", "18", "15", "18", "2", "8", "8", "3", "3", "4", "7", "12", "0", "23", "24", "30", "32", "30"], "time": [1999, 2722, 3018, 4268, 4435, 4551, 5701, 6718, 6968, 8918, 10771, 11052, 11219, 11451, 11820, 12119, 12206, 12968]}, "edge": {"target": [], "time": []}}, "mouseout": {"state": {"target": ["4", "7", "1", "0", "0", "18", "15", "18", "2", "8", "8", "3", "3", "4", "7", "12", "0", "23", "24", "30", "32", "30", "30"], "time": [934, 967, 1084, 1403, 2541, 2751, 4235, 4285, 4485, 4668, 6685, 6818, 8885, 10702, 10853, 11106, 11252, 11785, 12056, 12168, 12486, 13151, 20067]}, "edge": {"target": [], "time": []}}}, "displayed_time": "19.45", "trialTime": 20819, "trial_type": "mouselab-mdp", "trial_index": 28, "time_elapsed": 1195127, "internal_node_id": "0.0-4.0-1.0-7.0"}}, {"uniqueid": "w14788080:a64347200", "current_trial": 29, "dateTime": 1691143482259, "trialdata": {"revealed_states": [], "clicked_states": ["26"], "num_clicks_accrued": [0, 0, 0, 0, 0, 0, 0, 0, 0, 0, 0, 0, 0], "stateRewards": ["", 1, 4, -4, 14, 35, 51, 19, -13, 54, 78, -74, -2, -1, -3, 13, -11, -42, -73, -15, -24, -3, -69, 2, -1, 5, 16, -27, 73, 58, 9, -60, 5, -60], "withholdReward": false, "trial_id": "mdp_trial_9", "block": "test", "trialIndex": 14, "score": -6.399999999999999, "costs": -1.4, "simulationMode": [null, null, null, null, null], "rewards": [2, -1, 5, 16, -27], "path": ["0", "0", "23", "24", "25", "26", "27"], "rt": [5182, 183, 220, 871, 5313], "actions": ["left", "left", "left", "up", "up"], "actionTimes": [8376, 9063, 9783, 11151, 16960], "queries": {"click": {"state": {"target": ["26"], "time": [5620]}, "edge": {"target": [], "time": []}}, "mouseover": {"state": {"target": ["10", "8", "1", "12", "28", "26", "26", "29"], "time": [4062, 4448, 4495, 4550, 4865, 4912, 5382, 6529]}, "edge": {"target": [], "time": []}}, "mouseout": {"state": {"target": ["0", "10", "8", "1", "12", "28", "26", "26", "29", "26", "24", "23", "0"], "time": [3995, 4079, 4464, 4512, 4564, 4895, 5229, 6345, 12429, 17545, 17728, 18083, 19598]}, "edge": {"target": [], "time": []}}}, "displayed_time": "17.50", "trialTime": 20657, "trial_type": "mouselab-mdp", "trial_index": 29, "time_elapsed": 1215918, "internal_node_id": "0.0-4.0-1.0-8.0"}}, {"uniqueid": "w14788080:a64347200", "current_trial": 30, "dateTime": 1691143502830, "trialdata": {"revealed_states": [], "clicked_states": [], "num_clicks_accrued": [0, 0, 0, 0, 0, 0, 0, 0, 0, 0, 0, 0, 0], "stateRewards": ["", -2, -3, 4, 1, 33, -53, 15, 9, -12, 61, -6, -2, 4, 6, -11, 47, -43, -7, -11, 46, 23, -28, -1, -1, 3, -10, 11, 76, -76, 10, 18, -38, 87], "withholdReward": false, "trial_id": "mdp_trial_10", "block": "test", "trialIndex": 15, "score": 67, "costs": 0, "simulationMode": [null, null, null, null, null], "rewards": [-1, -1, 3, -10, 76], "path": ["0", "0", "23", "24", "25", "26", "28"], "rt": [11499, 105, 73, 1195, 903], "actions": ["left", "left", "left", "up", "right"], "actionTimes": [13534, 14140, 14707, 16396, 17788], "queries": {"click": {"state": {"target": [], "time": []}, "edge": {"target": [], "time": []}}, "mouseover": {"state": {"target": ["1", "1", "1", "2", "1", "0", "3", "8", "8", "10", "24", "25"], "time": [2733, 2936, 4089, 4150, 4767, 4817, 5238, 6502, 6918, 11034, 11185, 11400]}, "edge": {"target": [], "time": []}}, "mouseout": {"state": {"target": ["12", "0", "1", "1", "1", "2", "1", "0", "3", "8", "8", "10", "24", "25", "30"], "time": [586, 1885, 2783, 4027, 4117, 4734, 4800, 4834, 6450, 6603, 11001, 11068, 11233, 19204, 19254]}, "edge": {"target": [], "time": []}}}, "displayed_time": "18.29", "trialTime": 20428, "trial_type": "mouselab-mdp", "trial_index": 30, "time_elapsed": 1236487, "internal_node_id": "0.0-4.0-1.0-9.0"}}, {"uniqueid": "w14788080:a64347200", "current_trial": 31, "dateTime": 1691143522501, "trialdata": {"revealed_states": [], "clicked_states": [], "num_clicks_accrued": [0, 0, 0, 0, 0, 0, 0, 0, 0, 0, 0, 0, 0], "stateRewards": ["", 1, 1, 1, -3, -7, -1, -41, -10, 20, -72, -63, 1, -4, -2, 2, -66, 30, -84, -2, 49, 23, 71, -1, -4, 4, -12, 67, 5, 18, -16, 88, 56, -5], "withholdReward": false, "trial_id": "mdp_trial_11", "block": "test", "trialIndex": 16, "score": -69, "costs": 0, "simulationMode": [null, null, null, null, null], "rewards": [1, -4, -2, 2, -66], "path": ["0", "0", "12", "13", "14", "15", "16"], "rt": [1522, 108, 10, 476, 2692], "actions": ["right", "right", "right", "up", "up"], "actionTimes": [4510, 5118, 5636, 6636, 9838], "queries": {"click": {"state": {"target": [], "time": []}, "edge": {"target": [], "time": []}}, "mouseover": {"state": {"target": ["0", "12"], "time": [3625, 3725]}, "edge": {"target": [], "time": []}}, "mouseout": {"state": {"target": ["0", "1", "0", "0", "0", "12", "12"], "time": [929, 1210, 1376, 2291, 3676, 3759, 18847]}, "edge": {"target": [], "time": []}}}, "displayed_time": "16.99", "trialTime": 19525, "trial_type": "mouselab-mdp", "trial_index": 31, "time_elapsed": 1256159, "internal_node_id": "0.0-4.0-1.0-10.0"}}, {"uniqueid": "w14788080:a64347200", "current_trial": 32, "dateTime": 1691143546550, "trialdata": {"revealed_states": [], "clicked_states": ["3", "6", "32"], "num_clicks_accrued": [0, 0, 0, 0, 0, 0, 0, 0, 0, 0, 0, 0, 0], "stateRewards": ["", 1, -2, -3, 14, -42, -87, -37, -11, -50, 33, -44, -2, 4, -7, 13, 48, -75, -66, 12, 23, -2, 82, 1, -4, 3, 12, 51, -15, -26, -11, -52, -29, 82], "withholdReward": false, "trial_id": "mdp_trial_12", "block": "test", "trialIndex": 17, "score": -69.2, "costs": -4.199999999999999, "simulationMode": [null, null, null, null, null], "rewards": [1, -2, -3, -11, -50], "path": ["0", "0", "1", "2", "3", "8", "9"], "rt": [10386, 132, 2, 3159, 3331], "actions": ["up", "up", "up", "left", "up"], "actionTimes": [12017, 12648, 13151, 16825, 20648], "queries": {"click": {"state": {"target": ["3", "6", "32"], "time": [3110, 5316, 8669]}, "edge": {"target": [], "time": []}}, "mouseover": {"state": {"target": ["1", "2", "3", "3", "4", "6", "7", "1", "24", "30", "32", "24"], "time": [2465, 2515, 2582, 2899, 3699, 4465, 7648, 7698, 7820, 7967, 8434, 9782]}, "edge": {"target": [], "time": []}}, "mouseout": {"state": {"target": ["0", "1", "2", "3", "3", "4", "6", "7", "1", "24", "30", "32", "24"], "time": [2432, 2498, 2549, 2632, 3682, 3765, 7582, 7665, 7731, 7865, 8053, 9582, 9949]}, "edge": {"target": [], "time": []}}}, "displayed_time": "21.17", "trialTime": 23897, "trial_type": "mouselab-mdp", "trial_index": 32, "time_elapsed": 1280207, "internal_node_id": "0.0-4.0-1.0-11.0"}}, {"uniqueid": "w14788080:a64347200", "current_trial": 33, "dateTime": 1691143580950, "trialdata": {"revealed_states": [], "clicked_states": ["13", "14", "15", "16", "17", "18", "19", "21", "22", "30"], "num_clicks_accrued": [0, 0, 0, 0, 0, 0, 0, 0, 0, 0, 0, 0, 0], "stateRewards": ["", -1, 2, -6, 6, -82, -19, -39, -16, -83, 11, -33, -2, -2, 4, -6, -82, -1, -19, -6, -10, -67, -41, -2, 1, -7, 16, -23, -78, -52, 14, 31, -71, 74], "withholdReward": false, "trial_id": "mdp_trial_13", "block": "test", "trialIndex": 18, "score": -79, "costs": -14.000000000000002, "simulationMode": [null, null, null, null, null], "rewards": [-2, 1, -7, 14, -71], "path": ["0", "0", "23", "24", "25", "30", "32"], "rt": [23677, 210, 85, 495, 23], "actions": ["left", "left", "left", "down", "down"], "actionTimes": [26004, 26707, 27300, 28292, 28803], "queries": {"click": {"state": {"target": ["13", "14", "15", "16", "17", "18", "19", "21", "22", "30"], "time": [3496, 5800, 7799, 10119, 12671, 15048, 17808, 19615, 21431, 23072]}, "edge": {"target": [], "time": []}}, "mouseover": {"state": {"target": ["12", "13", "14", "15", "16", "17", "17", "15", "18", "13", "19", "19", "21", "22", "30", "25"], "time": [2929, 3245, 4579, 6262, 9867, 12280, 12516, 14629, 14900, 17012, 17245, 17629, 18779, 20549, 22314, 24062]}, "edge": {"target": [], "time": []}}, "mouseout": {"state": {"target": ["23", "0", "12", "13", "13", "14", "15", "16", "17", "17", "15", "18", "13", "19", "19", "21", "22", "30"], "time": [599, 2899, 3180, 3501, 4296, 6229, 9696, 12198, 12384, 14596, 14829, 16981, 17029, 17280, 18612, 19996, 21864, 23929]}, "edge": {"target": [], "time": []}}}, "displayed_time": "29.33", "trialTime": 34244, "trial_type": "mouselab-mdp", "trial_index": 33, "time_elapsed": 1314607, "internal_node_id": "0.0-4.0-1.0-12.0"}}, {"uniqueid": "w14788080:a64347200", "current_trial": 34, "dateTime": 1691143598931, "trialdata": {"revealed_states": [], "clicked_states": [], "num_clicks_accrued": [0, 0, 0, 0, 0, 0, 0, 0, 0, 0, 0, 0, 0], "stateRewards": ["", 1, -1, 8, -3, 38, 85, -20, -4, 8, 23, 73, 2, -4, 6, -13, 44, 7, -28, -11, -77, 45, -69, 1, -1, -7, -11, 75, -51, -87, 7, 36, -53, -26], "withholdReward": false, "trial_id": "mdp_trial_14", "block": "test", "trialIndex": 19, "score": -105, "costs": 0, "simulationMode": [null, null, null, null, null], "rewards": [1, -1, -7, -11, -87], "path": ["0", "0", "23", "24", "25", "26", "29"], "rt": [1220, 161, 910, 1671, 1384], "actions": ["left", "left", "left", "up", "left"], "actionTimes": [2639, 3302, 4703, 6863, 8743], "queries": {"click": {"state": {"target": [], "time": []}, "edge": {"target": [], "time": []}}, "mouseover": {"state": {"target": [], "time": []}, "edge": {"target": [], "time": []}}, "mouseout": {"state": {"target": ["25", "24", "23", "0", "0", "1", "0"], "time": [773, 823, 907, 2125, 16457, 17143, 17208]}, "edge": {"target": [], "time": []}}}, "displayed_time": "15.42", "trialTime": 17822, "trial_type": "mouselab-mdp", "trial_index": 34, "time_elapsed": 1332590, "internal_node_id": "0.0-4.0-1.0-13.0"}}, {"uniqueid": "w14788080:a64347200", "current_trial": 35, "dateTime": 1691143624283, "trialdata": {"revealed_states": [], "clicked_states": ["3", "11", "9", "8", "4"], "num_clicks_accrued": [0, 0, 0, 0, 0, 0, 0, 0, 0, 0, 0, 0, 0], "stateRewards": ["", 1, 4, 5, 8, -55, -11, 8, 16, -37, 77, -22, -2, 3, -8, -10, 45, 87, -67, 4, 17, -33, -22, -1, -3, 7, 6, -39, -85, 75, -1, 7, -48, 45], "withholdReward": false, "trial_id": "mdp_trial_15", "block": "test", "trialIndex": 20, "score": 96, "costs": -7, "simulationMode": [null, null, null, null, null], "rewards": [1, 4, 5, 16, 77], "path": ["0", "0", "1", "2", "3", "8", "10"], "rt": [15280, 509, 28, 1200, 2075], "actions": ["up", "up", "up", "left", "down"], "actionTimes": [16563, 17571, 18090, 19811, 22386], "queries": {"click": {"state": {"target": ["3", "11", "9", "8", "4"], "time": [2208, 4640, 7199, 9615, 13302]}, "edge": {"target": [], "time": []}}, "mouseover": {"state": {"target": ["1", "2", "3", "3", "8", "11", "9", "8", "10", "3", "5", "4"], "time": [1631, 1694, 1728, 2029, 3028, 4399, 6814, 9397, 11027, 12677, 12761, 12977]}, "edge": {"target": [], "time": []}}, "mouseout": {"state": {"target": ["12", "0", "1", "2", "3", "3", "8", "11", "9", "8", "10", "3", "5", "4"], "time": [895, 1547, 1644, 1711, 1778, 2978, 3094, 6661, 9265, 10944, 12660, 12693, 12879, 13459]}, "edge": {"target": [], "time": []}}}, "displayed_time": "22.88", "trialTime": 25211, "trial_type": "mouselab-mdp", "trial_index": 35, "time_elapsed": 1357941, "internal_node_id": "0.0-4.0-1.0-14.0"}}, {"uniqueid": "w14788080:a64347200", "current_trial": 36, "dateTime": 1691143642637, "trialdata": {"revealed_states": [], "clicked_states": ["10", "7"], "num_clicks_accrued": [0, 0, 0, 0, 0, 0, 0, 0, 0, 0, 0, 0, 0], "stateRewards": ["", -1, 1, 6, -6, 70, 66, 67, -16, -75, -35, 37, -1, 4, 4, -6, 47, -9, 63, 15, 21, -63, 13, 1, 3, -6, 10, 79, -29, 18, -15, 9, -67, -19], "withholdReward": false, "trial_id": "mdp_trial_16", "block": "test", "trialIndex": 21, "score": 64.2, "costs": -2.8, "simulationMode": [null, null, null, null, null], "rewards": [-1, 1, 6, -6, 67], "path": ["0", "0", "1", "2", "3", "4", "7"], "rt": [7832, 163, 112, 889, 201], "actions": ["up", "up", "up", "right", "down"], "actionTimes": [11060, 11724, 12332, 13708, 14404], "queries": {"click": {"state": {"target": ["10", "7"], "time": [6001, 7993]}, "edge": {"target": [], "time": []}}, "mouseover": {"state": {"target": ["1", "1", "2", "2", "10", "2", "10", "2", "7", "4", "5"], "time": [3722, 4106, 4284, 4501, 5022, 5268, 5751, 6652, 6802, 8702, 8935]}, "edge": {"target": [], "time": []}}, "mouseout": {"state": {"target": ["4", "7", "1", "1", "1", "2", "2", "10", "2", "10", "2", "7", "4", "5"], "time": [603, 651, 2904, 3901, 4268, 4425, 4918, 5201, 5723, 6552, 6735, 8585, 8868, 15774]}, "edge": {"target": [], "time": []}}}, "displayed_time": "17.23", "trialTime": 18204, "trial_type": "mouselab-mdp", "trial_index": 36, "time_elapsed": 1376294, "internal_node_id": "0.0-4.0-1.0-15.0"}}, {"uniqueid": "w14788080:a64347200", "current_trial": 37, "dateTime": 1691143661621, "trialdata": {"revealed_states": [], "clicked_states": ["6", "17", "18", "21"], "num_clicks_accrued": [0, 0, 0, 0, 0, 0, 0, 0, 0, 0, 0, 0, 0], "stateRewards": ["", 1, -4, -4, 8, 1, -79, 68, -10, -79, 8, -74, -1, -3, -6, 14, 43, 23, 9, 5, -51, 63, 61, -2, 4, 6, -10, 69, -32, 57, 15, -80, -80, -77], "withholdReward": false, "trial_id": "mdp_trial_17", "block": "test", "trialIndex": 22, "score": 52.4, "costs": -5.6, "simulationMode": [null, null, null, null, null], "rewards": [-1, -3, -6, 5, 63], "path": ["0", "0", "12", "13", "14", "19", "21"], "rt": [12886, 65, 435, 445, 152], "actions": ["right", "right", "right", "down", "down"], "actionTimes": [14552, 15109, 16046, 16990, 17630], "queries": {"click": {"state": {"target": ["6", "17", "18", "21"], "time": [3243, 5186, 7931, 11665]}, "edge": {"target": [], "time": []}}, "mouseover": {"state": {"target": ["1", "4", "6", "15", "17", "17", "15", "18", "16", "15", "14", "19", "14", "19", "21"], "time": [2145, 2760, 3014, 3912, 4030, 4178, 7494, 7677, 9080, 10177, 10244, 10343, 10693, 11193, 11243]}, "edge": {"target": [], "time": []}}, "mouseout": {"state": {"target": ["4", "7", "1", "0", "0", "1", "4", "6", "15", "17", "17", "15", "18", "16", "15", "14", "19", "14", "19", "21"], "time": [462, 645, 709, 743, 1443, 2194, 2943, 3694, 4003, 4077, 7460, 7560, 7963, 10143, 10211, 10293, 10612, 11178, 11226, 13626]}, "edge": {"target": [], "time": []}}}, "displayed_time": "18.14", "trialTime": 18830, "trial_type": "mouselab-mdp", "trial_index": 37, "time_elapsed": 1395279, "internal_node_id": "0.0-4.0-1.0-16.0"}}, {"uniqueid": "w14788080:a64347200", "current_trial": 38, "dateTime": 1691143679197, "trialdata": {"revealed_states": [], "clicked_states": ["18", "17", "16"], "num_clicks_accrued": [0, 0, 0, 0, 0, 0, 0, 0, 0, 0, 0, 0, 0], "stateRewards": ["", 1, -1, 4, 5, -32, 18, 20, 6, -88, -74, 9, -2, 1, -2, -14, 34, -77, -38, -1, 80, -36, 73, 2, 3, -8, 10, -48, -73, -71, -11, -22, 20, 54], "withholdReward": false, "trial_id": "mdp_trial_18", "block": "test", "trialIndex": 23, "score": 12.8, "costs": -4.199999999999999, "simulationMode": [null, null, null, null, null], "rewards": [-2, 1, -2, -14, 34], "path": ["0", "0", "12", "13", "14", "15", "16"], "rt": [8805, 33, 14, 479, 140], "actions": ["right", "right", "right", "up", "up"], "actionTimes": [10138, 10673, 11209, 12202, 12833], "queries": {"click": {"state": {"target": ["18", "17", "16"], "time": [3917, 5878, 7814]}, "edge": {"target": [], "time": []}}, "mouseover": {"state": {"target": ["12", "13", "15", "18", "15", "17", "16"], "time": [1905, 2076, 3242, 3709, 5205, 5593, 6872]}, "edge": {"target": [], "time": []}}, "mouseout": {"state": {"target": ["21", "22", "0", "12", "13", "15", "18", "15", "17", "16", "18"], "time": [640, 737, 1871, 1973, 2788, 3588, 5122, 5355, 6289, 16005, 16138]}, "edge": {"target": [], "time": []}}}, "displayed_time": "15.34", "trialTime": 17417, "trial_type": "mouselab-mdp", "trial_index": 38, "time_elapsed": 1412855, "internal_node_id": "0.0-4.0-1.0-17.0"}}, {"uniqueid": "w14788080:a64347200", "current_trial": 39, "dateTime": 1691143695565, "trialdata": {"revealed_states": [], "clicked_states": ["3", "5", "9"], "num_clicks_accrued": [0, 0, 0, 0, 0, 0, 0, 0, 0, 0, 0, 0, 0], "stateRewards": ["", 2, 3, -6, -5, -3, 55, 40, 11, 61, 11, 51, 2, -4, -6, 9, -25, 29, -15, -6, 7, -77, -2, -2, -4, 1, 14, -43, -1, 56, -12, -54, 41, -74], "withholdReward": false, "trial_id": "mdp_trial_19", "block": "test", "trialIndex": 24, "score": 66.8, "costs": -4.199999999999999, "simulationMode": [null, null, null, null, null], "rewards": [2, 3, -6, 11, 61], "path": ["0", "0", "1", "2", "3", "8", "9"], "rt": [8512, 609, 117, 644, 415], "actions": ["up", "up", "up", "left", "up"], "actionTimes": [9987, 11089, 11697, 12850, 13762], "queries": {"click": {"state": {"target": ["3", "5", "9"], "time": [2493, 5229, 7094]}, "edge": {"target": [], "time": []}}, "mouseover": {"state": {"target": ["1", "2", "3", "4", "5", "9", "8", "28", "25", "33", "33"], "time": [1914, 1995, 2117, 4579, 5051, 6463, 7530, 7679, 7733, 7813, 8301]}, "edge": {"target": [], "time": []}}, "mouseout": {"state": {"target": ["13", "0", "1", "2", "3", "4", "5", "9", "8", "28", "25", "33"], "time": [497, 1245, 1963, 2046, 4563, 4647, 6146, 7479, 7546, 7719, 7783, 7830]}, "edge": {"target": [], "time": []}}}, "displayed_time": "15.48", "trialTime": 16209, "trial_type": "mouselab-mdp", "trial_index": 39, "time_elapsed": 1429223, "internal_node_id": "0.0-4.0-1.0-18.0"}}, {"uniqueid": "w14788080:a64347200", "current_trial": 40, "dateTime": 1691143713274, "trialdata": {"revealed_states": [], "clicked_states": ["11", "29", "28"], "num_clicks_accrued": [0, 0, 0, 0, 0, 0, 0, 0, 0, 0, 0, 0, 0], "stateRewards": ["", -1, -3, 4, -10, -5, 79, -87, -2, 53, 29, -20, -2, -1, -5, 10, 27, 86, 46, -16, -29, 40, 3, 2, 4, -1, -6, 37, 79, -29, 7, 86, -62, 29], "withholdReward": false, "trial_id": "mdp_trial_20", "block": "test", "trialIndex": 25, "score": 73.8, "costs": -4.199999999999999, "simulationMode": [null, null, null, null, null], "rewards": [2, 4, -1, -6, 79], "path": ["0", "0", "23", "24", "25", "26", "28"], "rt": [9183, 134, 105, 676, 134], "actions": ["left", "left", "left", "up", "right"], "actionTimes": [11505, 12129, 12736, 13904, 14528], "queries": {"click": {"state": {"target": ["11", "29", "28"], "time": [3461, 5940, 8013]}, "edge": {"target": [], "time": []}}, "mouseover": {"state": {"target": ["1", "2", "11", "27", "29", "26", "28", "27"], "time": [2761, 2861, 3164, 4594, 5793, 7128, 7793, 8660]}, "edge": {"target": [], "time": []}}, "mouseout": {"state": {"target": ["33", "30", "0", "1", "2", "11", "27", "29", "26", "28", "27", "28", "24"], "time": [762, 810, 1793, 2810, 2911, 4044, 5510, 7027, 7294, 8544, 11060, 16830, 16910]}, "edge": {"target": [], "time": []}}}, "displayed_time": "16.32", "trialTime": 17552, "trial_type": "mouselab-mdp", "trial_index": 40, "time_elapsed": 1446932, "internal_node_id": "0.0-4.0-1.0-19.0"}}, {"uniqueid": "w14788080:a64347200", "current_trial": 41, "dateTime": 1691143729838, "trialdata": {"revealed_states": [], "clicked_states": ["29"], "num_clicks_accrued": [0, 0, 0, 0, 0, 0, 0, 0, 0, 0, 0, 0, 0], "stateRewards": ["", -2, 2, -4, -4, -59, 88, 62, -3, 69, -15, -34, 1, -2, -5, 7, -54, -20, 78, -16, -74, -53, -21, 2, -4, 2, 13, -8, -44, 26, 9, 72, 4, 17], "withholdReward": false, "trial_id": "mdp_trial_21", "block": "test", "trialIndex": 26, "score": 37.6, "costs": -1.4, "simulationMode": [null, null, null, null, null], "rewards": [2, -4, 2, 13, 26], "path": ["0", "0", "23", "24", "25", "26", "29"], "rt": [4285, 107, 123, 459, 581], "actions": ["left", "left", "left", "up", "left"], "actionTimes": [6044, 6643, 7259, 8212, 9284], "queries": {"click": {"state": {"target": ["29"], "time": [3302]}, "edge": {"target": [], "time": []}}, "mouseover": {"state": {"target": ["23", "26", "29", "26", "28"], "time": [2602, 2735, 3068, 4003, 4237]}, "edge": {"target": [], "time": []}}, "mouseout": {"state": {"target": ["0", "23", "26", "29", "26"], "time": [2101, 2619, 2801, 3902, 4069]}, "edge": {"target": [], "time": []}}}, "displayed_time": "15.76", "trialTime": 16387, "trial_type": "mouselab-mdp", "trial_index": 41, "time_elapsed": 1463495, "internal_node_id": "0.0-4.0-1.0-20.0"}}, {"uniqueid": "w14788080:a64347200", "current_trial": 42, "dateTime": 1691143746859, "trialdata": {"revealed_states": [], "clicked_states": [], "num_clicks_accrued": [0, 0, 0, 0, 0, 0, 0, 0, 0, 0, 0, 0, 0], "stateRewards": ["", -1, 3, 8, 10, -86, 61, -36, 10, 17, -60, 24, -1, -3, 3, 11, 50, 60, 33, -3, -20, 58, -6, 1, -4, -4, 13, -70, -71, 43, 14, 52, 82, -11], "withholdReward": false, "trial_id": "mdp_trial_22", "block": "test", "trialIndex": 27, "score": 59, "costs": 0, "simulationMode": [null, null, null, null, null], "rewards": [1, -4, -4, 14, 52], "path": ["0", "0", "23", "24", "25", "30", "31"], "rt": [1029, 127, 1610, 3658, 108], "actions": ["left", "left", "left", "down", "right"], "actionTimes": [2377, 3008, 5113, 9272, 9873], "queries": {"click": {"state": {"target": [], "time": []}, "edge": {"target": [], "time": []}}, "mouseover": {"state": {"target": [], "time": []}, "edge": {"target": [], "time": []}}, "mouseout": {"state": {"target": ["28", "0", "23", "25", "24"], "time": [599, 3568, 3649, 6063, 12013]}, "edge": {"target": [], "time": []}}}, "displayed_time": "15.36", "trialTime": 16856, "trial_type": "mouselab-mdp", "trial_index": 42, "time_elapsed": 1480518, "internal_node_id": "0.0-4.0-1.0-21.0"}}, {"uniqueid": "w14788080:a64347200", "current_trial": 43, "dateTime": 1691143776413, "trialdata": {"revealed_states": [], "clicked_states": ["2", "9", "17", "20", "21", "22", "32", "31", "29", "28", "10"], "num_clicks_accrued": [0, 0, 0, 0, 0, 0, 0, 0, 0, 0, 0, 0, 0], "stateRewards": ["", -2, 4, 3, 5, -61, 4, 30, 1, -47, 83, 10, 1, 4, 7, -14, 19, -74, -83, 6, -2, -2, -65, -1, -2, 4, -11, 12, -1, -68, 11, -38, -28, 66], "withholdReward": false, "trial_id": "mdp_trial_23", "block": "test", "trialIndex": 28, "score": 73.6, "costs": -15.400000000000002, "simulationMode": [null, null, null, null, null], "rewards": [-2, 4, 3, 1, 83], "path": ["0", "0", "1", "2", "3", "8", "10"], "rt": [23746, 119, 271, 633, 115], "actions": ["up", "up", "up", "left", "down"], "actionTimes": [24721, 25344, 26128, 27257, 27872], "queries": {"click": {"state": {"target": ["2", "9", "17", "20", "21", "22", "32", "31", "29", "28", "10"], "time": [2003, 4732, 6843, 8749, 10621, 12517, 14284, 16157, 18021, 19925, 21741]}, "edge": {"target": [], "time": []}}, "mouseover": {"state": {"target": ["1", "2", "10", "8", "9", "3", "15", "17", "14", "19", "21", "20", "21", "21", "22", "31", "32", "31", "30", "25", "26", "29", "26", "28", "10", "10", "4", "7"], "time": [1541, 1672, 2623, 4172, 4410, 5473, 5656, 5923, 7423, 7539, 7673, 8189, 9289, 10023, 11206, 13227, 13411, 15073, 16640, 16706, 17074, 17411, 18673, 18794, 20606, 20990, 22640, 23057]}, "edge": {"target": [], "time": []}}, "mouseout": {"state": {"target": ["1", "2", "10", "8", "9", "3", "15", "17", "14", "19", "21", "20", "21", "21", "22", "31", "32", "31", "30", "25", "26", "29", "26", "28", "10", "10", "4"], "time": [1624, 2556, 4126, 4258, 5256, 5506, 5840, 7339, 7456, 7623, 7873, 9122, 9306, 11123, 12680, 13307, 14856, 16590, 16656, 16739, 17106, 18573, 18723, 20539, 20623, 21791, 22790]}, "edge": {"target": [], "time": []}}}, "displayed_time": "28.38", "trialTime": 29384, "trial_type": "mouselab-mdp", "trial_index": 43, "time_elapsed": 1510071, "internal_node_id": "0.0-4.0-1.0-22.0"}}, {"uniqueid": "w14788080:a64347200", "current_trial": 44, "dateTime": 1691143794709, "trialdata": {"revealed_states": [], "clicked_states": ["29", "28", "9"], "num_clicks_accrued": [0, 0, 0, 0, 0, 0, 0, 0, 0, 0, 0, 0, 0], "stateRewards": ["", -1, -4, -3, 1, -45, -67, -24, 14, 32, 22, 22, -1, 1, -5, -7, 72, 84, -79, -5, 19, -40, -2, -1, -2, 8, -3, 84, -25, -28, 11, 64, -66, 77], "withholdReward": false, "trial_id": "mdp_trial_24", "block": "test", "trialIndex": 29, "score": 33.8, "costs": -4.199999999999999, "simulationMode": [null, null, null, null, null], "rewards": [-1, -4, -3, 14, 32], "path": ["0", "0", "1", "2", "3", "8", "9"], "rt": [8232, 117, 2, 795, 109], "actions": ["up", "up", "up", "left", "up"], "actionTimes": [10572, 11195, 11693, 13019, 13627], "queries": {"click": {"state": {"target": ["29", "28", "9"], "time": [3840, 5672, 7476]}, "edge": {"target": [], "time": []}}, "mouseover": {"state": {"target": ["23", "24", "25", "29", "26", "28", "8", "9", "11"], "time": [3060, 3124, 3157, 3525, 5041, 5291, 6241, 6508, 8126]}, "edge": {"target": [], "time": []}}, "mouseout": {"state": {"target": ["7", "0", "23", "24", "25", "29", "29", "26", "28", "8", "9", "9", "11", "10", "1", "2", "7"], "time": [775, 1875, 3107, 3141, 3298, 4674, 4957, 5157, 6074, 6458, 7636, 7926, 14440, 14510, 15757, 16778, 17090]}, "edge": {"target": [], "time": []}}}, "displayed_time": "16.34", "trialTime": 18131, "trial_type": "mouselab-mdp", "trial_index": 44, "time_elapsed": 1528366, "internal_node_id": "0.0-4.0-1.0-23.0"}}, {"uniqueid": "w14788080:a64347200", "current_trial": 45, "dateTime": 1691143810261, "trialdata": {"revealed_states": [], "clicked_states": ["17"], "num_clicks_accrued": [0, 0, 0, 0, 0, 0, 0, 0, 0, 0, 0, 0, 0], "stateRewards": ["", -2, -2, -7, -13, -10, 49, -68, -1, 84, 70, 88, 1, 4, 4, 12, -57, 25, 30, 8, -1, -77, 57, 2, 3, 2, 3, -18, -80, 23, -15, -41, 70, 11], "withholdReward": false, "trial_id": "mdp_trial_25", "block": "test", "trialIndex": 30, "score": 44.6, "costs": -1.4, "simulationMode": [null, null, null, null, null], "rewards": [1, 4, 4, 12, 25], "path": ["0", "0", "12", "13", "14", "15", "17"], "rt": [3940, 574, 77, 724, 416], "actions": ["right", "right", "right", "up", "right"], "actionTimes": [4994, 6065, 6649, 7881, 8785], "queries": {"click": {"state": {"target": ["17"], "time": [2318]}, "edge": {"target": [], "time": []}}, "mouseover": {"state": {"target": ["12", "13", "17", "16"], "time": [1651, 1717, 2004, 2818]}, "edge": {"target": [], "time": []}}, "mouseout": {"state": {"target": ["1", "12", "13", "17", "16", "15", "22"], "time": [704, 1701, 1772, 2701, 9702, 9786, 9954]}, "edge": {"target": [], "time": []}}}, "displayed_time": "15.05", "trialTime": 15377, "trial_type": "mouselab-mdp", "trial_index": 45, "time_elapsed": 1543919, "internal_node_id": "0.0-4.0-1.0-24.0"}}, {"uniqueid": "w14788080:a64347200", "current_trial": 46, "dateTime": 1691143827355, "trialdata": {"revealed_states": [], "clicked_states": ["16", "18"], "num_clicks_accrued": [0, 0, 0, 0, 0, 0, 0, 0, 0, 0, 0, 0, 0], "stateRewards": ["", 1, -1, -7, -7, -22, 15, -13, 13, 26, -32, 38, -1, 1, -7, -4, 16, -62, 86, 12, -54, 56, 64, -2, -1, 6, 14, -57, 37, 62, -6, -25, 50, -70], "withholdReward": false, "trial_id": "mdp_trial_26", "block": "test", "trialIndex": 31, "score": 72.2, "costs": -2.8, "simulationMode": [null, null, null, null, null], "rewards": [-1, 1, -7, -4, 86], "path": ["0", "0", "12", "13", "14", "15", "18"], "rt": [6758, 24, 364, 465, 478], "actions": ["right", "right", "right", "up", "left"], "actionTimes": [8321, 8847, 9705, 10672, 11656], "queries": {"click": {"state": {"target": ["16", "18"], "time": [3293, 5545]}, "edge": {"target": [], "time": []}}, "mouseover": {"state": {"target": ["12", "18", "6", "6", "16", "18", "15", "17"], "time": [2140, 2275, 2656, 2859, 3140, 3973, 5889, 5939]}, "edge": {"target": [], "time": []}}, "mouseout": {"state": {"target": ["0", "12", "18", "6", "6", "16", "18", "15", "17", "19"], "time": [2107, 2172, 2289, 2759, 2922, 3722, 5873, 5923, 16239, 16375]}, "edge": {"target": [], "time": []}}}, "displayed_time": "15.56", "trialTime": 16927, "trial_type": "mouselab-mdp", "trial_index": 46, "time_elapsed": 1561013, "internal_node_id": "0.0-4.0-1.0-25.0"}}, {"uniqueid": "w14788080:a64347200", "current_trial": 47, "dateTime": 1691143843725, "trialdata": {"revealed_states": [], "clicked_states": ["27"], "num_clicks_accrued": [0, 0, 0, 0, 0, 0, 0, 0, 0, 0, 0, 0, 0], "stateRewards": ["", -1, 4, -8, 12, 14, 69, -8, 5, -72, -14, 56, -1, -1, -1, 9, 67, 19, 11, -9, -88, -58, 3, 2, -4, -8, 4, 62, 77, -74, 5, -31, 65, 88], "withholdReward": false, "trial_id": "mdp_trial_27", "block": "test", "trialIndex": 32, "score": 54.6, "costs": -1.4, "simulationMode": [null, null, null, null, null], "rewards": [2, -4, -8, 4, 62], "path": ["0", "0", "23", "24", "25", "26", "27"], "rt": [4675, 93, 210, 816, 372], "actions": ["left", "left", "left", "up", "up"], "actionTimes": [6102, 6685, 7389, 8708, 9581], "queries": {"click": {"state": {"target": ["27"], "time": [3480]}, "edge": {"target": [], "time": []}}, "mouseover": {"state": {"target": ["25", "26", "27", "9", "8"], "time": [2391, 3027, 3107, 4193, 4325]}, "edge": {"target": [], "time": []}}, "mouseout": {"state": {"target": ["12", "0", "25", "26", "27", "9", "8", "10", "10", "10"], "time": [1075, 1940, 2645, 3043, 3760, 4258, 4495, 11911, 14095, 14525]}, "edge": {"target": [], "time": []}}}, "displayed_time": "15.43", "trialTime": 16181, "trial_type": "mouselab-mdp", "trial_index": 47, "time_elapsed": 1577383, "internal_node_id": "0.0-4.0-1.0-26.0"}}, {"uniqueid": "w14788080:a64347200", "current_trial": 48, "dateTime": 1691143861180, "trialdata": {"revealed_states": [], "clicked_states": ["9"], "num_clicks_accrued": [0, 0, 0, 0, 0, 0, 0, 0, 0, 0, 0, 0, 0], "stateRewards": ["", -2, -1, -5, 10, -36, -70, 68, -9, 86, 71, -10, 2, -4, 7, -7, 66, 44, -66, -13, -69, 43, 15, -2, 2, 6, -13, 62, 57, 50, -10, -69, 42, -72], "withholdReward": false, "trial_id": "mdp_trial_28", "block": "test", "trialIndex": 33, "score": 53.6, "costs": -1.4, "simulationMode": [null, null, null, null, null], "rewards": [-2, 2, 6, -13, 62], "path": ["0", "0", "23", "24", "25", "26", "27"], "rt": [3866, 158, 4417, 1497, 361], "actions": ["left", "left", "left", "up", "up"], "actionTimes": [5048, 5704, 10616, 12616, 13472], "queries": {"click": {"state": {"target": ["9"], "time": [2470]}, "edge": {"target": [], "time": []}}, "mouseover": {"state": {"target": ["1", "3", "9", "8", "10"], "time": [1678, 1878, 2327, 2810, 3177]}, "edge": {"target": [], "time": []}}, "mouseout": {"state": {"target": ["2", "1", "1", "3", "9", "8", "10"], "time": [561, 592, 1743, 1926, 2794, 2860, 11179]}, "edge": {"target": [], "time": []}}}, "displayed_time": "15.18", "trialTime": 17255, "trial_type": "mouselab-mdp", "trial_index": 48, "time_elapsed": 1594838, "internal_node_id": "0.0-4.0-1.0-27.0"}}, {"uniqueid": "w14788080:a64347200", "current_trial": 49, "dateTime": 1691143877837, "trialdata": {"revealed_states": [], "clicked_states": ["27", "9", "10"], "num_clicks_accrued": [0, 0, 0, 0, 0, 0, 0, 0, 0, 0, 0, 0, 0], "stateRewards": ["", 2, 3, -1, 6, 44, -4, -59, -14, -3, 64, 16, 1, -3, 3, 6, 3, 49, 19, 3, -49, -14, -86, 1, 2, -3, -8, -33, 14, 32, -13, -77, -47, -67], "withholdReward": false, "trial_id": "mdp_trial_29", "block": "test", "trialIndex": 34, "score": 49.8, "costs": -4.199999999999999, "simulationMode": [null, null, null, null, null], "rewards": [2, 3, -1, -14, 64], "path": ["0", "0", "1", "2", "3", "8", "10"], "rt": [8719, 163, 110, 669, 2], "actions": ["up", "up", "up", "left", "down"], "actionTimes": [9783, 10464, 11072, 12248, 12748], "queries": {"click": {"state": {"target": ["27", "9", "10"], "time": [2949, 4811, 6821]}, "edge": {"target": [], "time": []}}, "mouseover": {"state": {"target": ["1", "2", "7", "2", "27", "27", "11", "9", "9", "8", "10", "2", "7", "15", "17", "17"], "time": [1477, 1728, 2095, 2212, 2531, 2744, 3428, 3495, 3845, 5328, 5478, 7295, 7444, 7747, 7861, 8227]}, "edge": {"target": [], "time": []}}, "mouseout": {"state": {"target": ["11", "0", "0", "1", "2", "7", "2", "27", "27", "11", "9", "9", "8", "10", "2", "7", "15", "17", "17", "15"], "time": [314, 577, 1328, 1544, 2081, 2197, 2228, 2544, 3379, 3447, 3516, 5244, 5395, 7244, 7378, 7579, 7828, 7945, 13712, 15798]}, "edge": {"target": [], "time": []}}}, "displayed_time": "15.06", "trialTime": 16480, "trial_type": "mouselab-mdp", "trial_index": 49, "time_elapsed": 1611494, "internal_node_id": "0.0-4.0-1.0-28.0"}}, {"uniqueid": "w14788080:a64347200", "current_trial": 50, "dateTime": 1691143894444, "trialdata": {"revealed_states": [], "clicked_states": ["5", "16", "21", "33"], "num_clicks_accrued": [0, 0, 0, 0, 0, 0, 0, 0, 0, 0, 0, 0, 0], "stateRewards": ["", -2, -3, -6, -7, 9, 16, 65, 5, -41, 20, -25, -1, -4, 1, -11, -49, -4, 71, 1, 39, -62, 52, -2, -3, 7, -9, -28, -70, 84, 8, 24, -58, 82], "withholdReward": false, "trial_id": "mdp_trial_30", "block": "test", "trialIndex": 35, "score": 86.4, "costs": -5.6, "simulationMode": [null, null, null, null, null], "rewards": [-2, -3, 7, 8, 82], "path": ["0", "0", "23", "24", "25", "30", "33"], "rt": [9703, 111, 262, 63, 650], "actions": ["left", "left", "left", "down", "left"], "actionTimes": [10761, 11360, 12111, 12680, 13832], "queries": {"click": {"state": {"target": ["5", "16", "21", "33"], "time": [2058, 4004, 5828, 8058]}, "edge": {"target": [], "time": []}}, "mouseover": {"state": {"target": ["1", "2", "3", "5", "6", "16", "16", "17", "20", "21", "19", "13", "1", "26", "33", "30", "24", "23"], "time": [1416, 1514, 1714, 1782, 2581, 2998, 3348, 4481, 4731, 4969, 6381, 6417, 6465, 6715, 7783, 8632, 8684, 8769]}, "edge": {"target": [], "time": []}}, "mouseout": {"state": {"target": ["18", "12", "1", "2", "3", "5", "5", "6", "16", "16", "17", "20", "21", "19", "13", "1", "26", "33", "30", "24", "23"], "time": [229, 598, 1465, 1531, 1748, 2208, 2465, 2920, 3065, 4415, 4631, 4765, 6131, 6398, 6433, 6481, 6798, 8567, 8648, 8732, 11714]}, "edge": {"target": [], "time": []}}}, "displayed_time": "15.06", "trialTime": 16407, "trial_type": "mouselab-mdp", "trial_index": 50, "time_elapsed": 1628102, "internal_node_id": "0.0-4.0-1.0-29.0"}}, {"uniqueid": "w14788080:a64347200", "current_trial": 51, "dateTime": 1691143912229, "trialdata": {"revealed_states": [], "clicked_states": ["27", "11"], "num_clicks_accrued": [0, 0, 0, 0, 0, 0, 0, 0, 0, 0, 0, 0, 0], "stateRewards": ["", -1, -3, -3, 1, -38, 2, -53, -2, -1, -81, 70, -1, 1, -5, -9, 46, 15, 35, -1, -22, 38, 59, -2, 4, -8, 13, 1, -83, -43, 4, 76, 13, 48], "withholdReward": false, "trial_id": "mdp_trial_31", "block": "test", "trialIndex": 36, "score": 58.2, "costs": -2.8, "simulationMode": [null, null, null, null, null], "rewards": [-1, -3, -3, -2, 70], "path": ["0", "0", "1", "2", "3", "8", "11"], "rt": [6189, 157, 386, 30, 90], "actions": ["up", "up", "up", "left", "left"], "actionTimes": [8597, 9243, 10139, 10667, 11260], "queries": {"click": {"state": {"target": ["27", "11"], "time": [3912, 5808]}, "edge": {"target": [], "time": []}}, "mouseover": {"state": {"target": ["26", "29", "27", "11", "9", "11", "8", "3", "4", "6"], "time": [3090, 3156, 3568, 4310, 4675, 5186, 6269, 6336, 6507, 6641]}, "edge": {"target": [], "time": []}}, "mouseout": {"state": {"target": ["0", "26", "29", "27", "11", "9", "11", "8", "3", "4", "6", "7"], "time": [2836, 3121, 3353, 4291, 4336, 5103, 6236, 6303, 6439, 6521, 16991, 17069]}, "edge": {"target": [], "time": []}}}, "displayed_time": "16.41", "trialTime": 17580, "trial_type": "mouselab-mdp", "trial_index": 51, "time_elapsed": 1645887, "internal_node_id": "0.0-4.0-1.0-30.0"}}, {"uniqueid": "w14788080:a64347200", "current_trial": 52, "dateTime": 1691143929719, "trialdata": {"revealed_states": [], "clicked_states": ["17"], "num_clicks_accrued": [0, 0, 0, 0, 0, 0, 0, 0, 0, 0, 0, 0, 0], "stateRewards": ["", -1, 3, 8, 9, -53, 20, -84, 2, -28, -62, -31, -1, -2, -7, 2, 51, 58, 45, -4, -17, -41, 36, 2, -2, -7, -15, 29, -54, -37, -16, -43, 65, -17], "withholdReward": false, "trial_id": "mdp_trial_32", "block": "test", "trialIndex": 37, "score": 48.6, "costs": -1.4, "simulationMode": [null, null, null, null, null], "rewards": [-1, -2, -7, 2, 58], "path": ["0", "0", "12", "13", "14", "15", "17"], "rt": [3936, 93, 19, 476, 168], "actions": ["right", "right", "right", "up", "right"], "actionTimes": [5826, 6417, 6928, 7937, 8609], "queries": {"click": {"state": {"target": ["17"], "time": [3118]}, "edge": {"target": [], "time": []}}, "mouseover": {"state": {"target": ["18", "15", "17", "15", "18"], "time": [2476, 2573, 2808, 3674, 3773]}, "edge": {"target": [], "time": []}}, "mouseout": {"state": {"target": ["7", "0", "0", "18", "15", "17", "15", "18", "1", "23", "1", "0"], "time": [393, 622, 1493, 2523, 2657, 3593, 3740, 3807, 10024, 10562, 16489, 16625]}, "edge": {"target": [], "time": []}}}, "displayed_time": "15.89", "trialTime": 17311, "trial_type": "mouselab-mdp", "trial_index": 52, "time_elapsed": 1663378, "internal_node_id": "0.0-4.0-1.0-31.0"}}, {"uniqueid": "w14788080:a64347200", "current_trial": 53, "dateTime": 1691143953277, "trialdata": {"revealed_states": [], "clicked_states": ["3", "5", "11", "32", "29"], "num_clicks_accrued": [0, 0, 0, 0, 0, 0, 0, 0, 0, 0, 0, 0, 0], "stateRewards": ["", 1, 2, -3, 6, -88, 74, -45, 7, -46, 40, -77, 1, -4, 4, 3, 22, -25, -59, 8, -83, 19, -60, -1, -1, -1, -8, 26, -29, 64, -7, -88, -51, -55], "withholdReward": false, "trial_id": "mdp_trial_33", "block": "test", "trialIndex": 38, "score": 46, "costs": -7, "simulationMode": [null, null, null, null, null], "rewards": [-1, -1, -1, -8, 64], "path": ["0", "0", "23", "24", "25", "26", "29"], "rt": [16758, 42, 184, 479, 826], "actions": ["left", "left", "left", "up", "left"], "actionTimes": [18008, 18543, 19223, 20200, 21527], "queries": {"click": {"state": {"target": ["3", "5", "11", "32", "29"], "time": [3653, 5909, 8525, 11061, 15165]}, "edge": {"target": [], "time": []}}, "mouseover": {"state": {"target": ["1", "2", "3", "5", "3", "5", "9", "11", "23", "31", "32", "31", "23", "24", "25", "33", "33", "29", "26", "28"], "time": [1850, 1900, 1967, 2504, 3352, 5653, 8018, 8234, 10425, 10536, 10855, 13068, 13506, 13668, 13935, 14184, 14521, 14952, 15855, 15936]}, "edge": {"target": [], "time": []}}, "mouseout": {"state": {"target": ["0", "1", "2", "3", "5", "3", "5", "9", "11", "23", "31", "32", "31", "23", "24", "25", "33", "33", "29", "26", "28"], "time": [601, 1884, 1934, 2151, 3000, 5535, 7950, 8068, 9168, 10467, 10552, 11434, 13417, 13555, 13885, 14151, 14217, 14637, 15818, 15902, 15970]}, "edge": {"target": [], "time": []}}}, "displayed_time": "22.02", "trialTime": 23376, "trial_type": "mouselab-mdp", "trial_index": 53, "time_elapsed": 1686934, "internal_node_id": "0.0-4.0-1.0-32.0"}}, {"uniqueid": "w14788080:a64347200", "current_trial": 54, "dateTime": 1691143971101, "trialdata": {"revealed_states": [], "clicked_states": ["20"], "num_clicks_accrued": [0, 0, 0, 0, 0, 0, 0, 0, 0, 0, 0, 0, 0], "stateRewards": ["", -1, 2, 6, 11, 21, -21, -21, -6, 48, -71, 88, -1, -3, 3, 7, 64, 2, 9, -4, 37, -67, 72, 2, 2, -8, -8, -10, 71, -40, -3, 73, 80, 47], "withholdReward": false, "trial_id": "mdp_trial_34", "block": "test", "trialIndex": 39, "score": -73.4, "costs": -1.4, "simulationMode": [null, null, null, null, null], "rewards": [-1, -3, 3, -4, -67], "path": ["0", "0", "12", "13", "14", "19", "21"], "rt": [3809, 617, 165, 640, 164], "actions": ["right", "right", "right", "down", "down"], "actionTimes": [5663, 6774, 7446, 8598, 9254], "queries": {"click": {"state": {"target": ["20"], "time": [2915]}, "edge": {"target": [], "time": []}}, "mouseover": {"state": {"target": ["1", "13", "20", "16", "16"], "time": [2190, 2407, 2761, 3476, 3727]}, "edge": {"target": [], "time": []}}, "mouseout": {"state": {"target": ["1", "13", "20", "16", "16", "16"], "time": [2275, 2439, 3223, 3558, 16705, 16940]}, "edge": {"target": [], "time": []}}}, "displayed_time": "15.86", "trialTime": 17621, "trial_type": "mouselab-mdp", "trial_index": 54, "time_elapsed": 1704758, "internal_node_id": "0.0-4.0-1.0-33.0"}}, {"uniqueid": "w14788080:a64347200", "current_trial": 55, "dateTime": 1691143988438, "trialdata": {"revealed_states": [], "clicked_states": ["15", "17"], "num_clicks_accrued": [0, 0, 0, 0, 0, 0, 0, 0, 0, 0, 0, 0, 0], "stateRewards": ["", -1, -4, -6, -15, 21, -67, -63, 9, 51, 69, -14, -1, 3, 8, -8, 39, 72, 63, 15, 19, 47, 15, 1, 4, 5, 16, -18, 34, 35, -14, -80, 40, 1], "withholdReward": false, "trial_id": "mdp_trial_35", "block": "test", "trialIndex": 40, "score": 71.2, "costs": -2.8, "simulationMode": [null, null, null, null, null], "rewards": [-1, 3, 8, -8, 72], "path": ["0", "0", "12", "13", "14", "15", "17"], "rt": [6334, 78, 255, 71, 297], "actions": ["right", "right", "right", "up", "right"], "actionTimes": [7894, 8486, 9231, 9814, 10607], "queries": {"click": {"state": {"target": ["15", "17"], "time": [2971, 4916]}, "edge": {"target": [], "time": []}}, "mouseover": {"state": {"target": ["12", "13", "15", "15", "17", "16", "7"], "time": [2224, 2442, 2596, 2793, 3375, 5414, 7310]}, "edge": {"target": [], "time": []}}, "mouseout": {"state": {"target": ["18", "12", "13", "15", "15", "17", "16", "7", "1", "23", "31"], "time": [824, 2391, 2477, 2624, 3308, 5055, 5425, 11708, 11791, 16091, 16141]}, "edge": {"target": [], "time": []}}}, "displayed_time": "15.56", "trialTime": 17128, "trial_type": "mouselab-mdp", "trial_index": 55, "time_elapsed": 1722095, "internal_node_id": "0.0-4.0-1.0-34.0"}}, {"uniqueid": "w14788080:a64347200", "current_trial": 56, "dateTime": 1691144010678, "trialdata": {"revealed_states": [], "clicked_states": ["29", "9"], "num_clicks_accrued": [0, 0, 0, 0, 0, 0, 0, 0, 0, 0, 0, 0, 0], "stateRewards": ["", 1, -3, -1, 9, -34, -40, 22, -7, 45, 53, -11, 2, 4, 5, 15, 21, 37, -49, -3, 80, -28, -34, 1, -3, 1, 1, -40, -6, -5, -16, -85, -86, 59], "withholdReward": false, "trial_id": "mdp_trial_36", "block": "test", "trialIndex": 41, "score": 32.2, "costs": -2.8, "simulationMode": [null, null, null, null, null], "rewards": [1, -3, -1, -7, 45], "path": ["0", "0", "1", "2", "3", "8", "9"], "rt": [5926, 204, 88, 521, 472], "actions": ["up", "up", "up", "left", "up"], "actionTimes": [7198, 7892, 8477, 9493, 10461], "queries": {"click": {"state": {"target": ["29", "9"], "time": [2209, 4234]}, "edge": {"target": [], "time": []}}, "mouseover": {"state": {"target": ["23", "24", "25", "29", "26", "10", "8", "9", "8", "8", "11", "11"], "time": [1587, 1621, 1638, 1975, 2738, 3004, 3255, 3704, 4671, 5238, 5288, 5638]}, "edge": {"target": [], "time": []}}, "mouseout": {"state": {"target": ["30", "12", "23", "24", "25", "29", "26", "10", "8", "9", "8", "8", "11", "11", "23", "24", "28", "27", "31", "0", "6", "5"], "time": [503, 837, 1604, 1637, 1654, 2671, 2788, 3221, 3355, 4643, 4721, 5271, 5338, 11170, 11308, 11839, 11887, 12304, 12659, 14920, 15275, 18660]}, "edge": {"target": [], "time": []}}}, "displayed_time": "15.29", "trialTime": 22013, "trial_type": "mouselab-mdp", "trial_index": 56, "time_elapsed": 1744335, "internal_node_id": "0.0-4.0-1.0-35.0"}}, {"uniqueid": "w14788080:a64347200", "current_trial": 57, "dateTime": 1691144026933, "trialdata": {"revealed_states": [], "clicked_states": ["5"], "num_clicks_accrued": [0, 0, 0, 0, 0, 0, 0, 0, 0, 0, 0, 0, 0], "stateRewards": ["", 1, 1, 4, 11, 83, -66, 18, -16, -23, 5, 25, 1, -3, 1, -12, 18, 24, -86, -11, -64, 36, 40, 2, 1, -6, 13, 55, 29, 72, -2, 81, -72, -41], "withholdReward": false, "trial_id": "mdp_trial_37", "block": "test", "trialIndex": 42, "score": 98.6, "costs": -1.4, "simulationMode": [null, null, null, null, null], "rewards": [1, 1, 4, 11, 83], "path": ["0", "0", "1", "2", "3", "4", "5"], "rt": [4038, 185, 248, 249, 32], "actions": ["up", "up", "up", "right", "up"], "actionTimes": [5666, 6347, 7114, 7883, 8411], "queries": {"click": {"state": {"target": ["5"], "time": [2575]}, "edge": {"target": [], "time": []}}, "mouseover": {"state": {"target": ["7", "6", "5"], "time": [2027, 2094, 2327]}, "edge": {"target": [], "time": []}}, "mouseout": {"state": {"target": ["3", "7", "1", "0", "0", "7", "6", "5"], "time": [377, 660, 760, 810, 1363, 2060, 2127, 5145]}, "edge": {"target": [], "time": []}}}, "displayed_time": "15.63", "trialTime": 16059, "trial_type": "mouselab-mdp", "trial_index": 57, "time_elapsed": 1760590, "internal_node_id": "0.0-4.0-1.0-36.0"}}, {"uniqueid": "w14788080:a64347200", "current_trial": 58, "dateTime": 1691144051253, "trialdata": {"revealed_states": [], "clicked_states": ["17", "29", "9", "5", "32"], "num_clicks_accrued": [0, 0, 0, 0, 0, 0, 0, 0, 0, 0, 0, 0, 0], "stateRewards": ["", 2, -2, -3, 10, -4, -1, -11, -8, -9, -36, -78, 2, 1, 7, -7, 44, -1, -31, -1, 26, 47, 83, 2, -4, -4, -6, -52, -76, -81, -1, -59, 45, 67], "withholdReward": false, "trial_id": "mdp_trial_38", "block": "test", "trialIndex": 43, "score": 31, "costs": -7, "simulationMode": [null, null, null, null, null], "rewards": [2, -4, -4, -1, 45], "path": ["0", "0", "23", "24", "25", "30", "32"], "rt": [17405, 87, 86, 722, 23], "actions": ["left", "left", "left", "down", "down"], "actionTimes": [19223, 19806, 20405, 21631, 22142], "queries": {"click": {"state": {"target": ["17", "29", "9", "5", "32"], "time": [2746, 4786, 7203, 9586, 12418]}, "edge": {"target": [], "time": []}}, "mouseover": {"state": {"target": ["18", "15", "17", "15", "18", "1", "28", "26", "29", "26", "28", "10", "9", "8", "10", "2", "3", "4", "5", "4", "7", "32", "30", "24", "21", "21"], "time": [2254, 2338, 2520, 3168, 3235, 3318, 3385, 3452, 3702, 5421, 5669, 5835, 6887, 7718, 7868, 8068, 9136, 9184, 9368, 10102, 10269, 12001, 12919, 13121, 16034, 16518]}, "edge": {"target": [], "time": []}}, "mouseout": {"state": {"target": ["5", "6", "12", "0", "0", "18", "15", "17", "15", "18", "1", "28", "26", "29", "29", "26", "28", "10", "9", "8", "10", "2", "3", "4", "5", "4", "7", "32", "30", "24", "21", "21"], "time": [421, 1053, 1284, 1369, 1552, 2305, 2456, 3152, 3218, 3268, 3338, 3418, 3535, 4803, 5352, 5454, 5719, 5918, 7652, 7768, 7901, 8268, 9153, 9217, 10001, 10219, 10372, 12818, 12973, 13252, 16051, 23686]}, "edge": {"target": [], "time": []}}}, "displayed_time": "22.67", "trialTime": 24103, "trial_type": "mouselab-mdp", "trial_index": 58, "time_elapsed": 1784911, "internal_node_id": "0.0-4.0-1.0-37.0"}}, {"uniqueid": "w14788080:a64347200", "current_trial": 59, "dateTime": 1691144068172, "trialdata": {"revealed_states": [], "clicked_states": ["21", "22", "20"], "num_clicks_accrued": [0, 0, 0, 0, 0, 0, 0, 0, 0, 0, 0, 0, 0], "stateRewards": ["", -1, -4, -1, -5, -28, -23, -15, -15, -38, 59, -87, 2, 2, -5, 9, -55, -39, -71, -6, 85, -85, -11, -1, -2, 5, -10, 1, 25, 41, -4, 69, -35, 86], "withholdReward": false, "trial_id": "mdp_trial_39", "block": "test", "trialIndex": 44, "score": 73.8, "costs": -4.199999999999999, "simulationMode": [null, null, null, null, null], "rewards": [2, 2, -5, -6, 85], "path": ["0", "0", "12", "13", "14", "19", "20"], "rt": [9829, 181, 329, 409, 509], "actions": ["right", "right", "right", "down", "right"], "actionTimes": [10959, 11637, 12469, 13366, 14366], "queries": {"click": {"state": {"target": ["21", "22", "20"], "time": [4050, 5987, 7898]}, "edge": {"target": [], "time": []}}, "mouseover": {"state": {"target": ["10", "9", "13", "19", "21", "21", "22", "20", "14", "15", "15", "16", "16", "15"], "time": [1973, 2507, 3005, 3023, 3055, 3338, 4756, 6543, 8473, 8606, 8706, 8789, 9173, 9989]}, "edge": {"target": [], "time": []}}, "mouseout": {"state": {"target": ["22", "0", "10", "9", "13", "19", "21", "21", "22", "22", "20", "14", "15", "15", "16", "16", "15", "13"], "time": [406, 774, 2075, 2923, 3022, 3039, 3072, 4456, 6118, 6223, 8356, 8506, 8623, 8756, 8806, 9955, 10022, 15727]}, "edge": {"target": [], "time": []}}}, "displayed_time": "15.13", "trialTime": 16693, "trial_type": "mouselab-mdp", "trial_index": 59, "time_elapsed": 1801830, "internal_node_id": "0.0-4.0-1.0-38.0"}}, {"uniqueid": "w14788080:a64347200", "current_trial": 60, "dateTime": 1691144085943, "trialdata": {"revealed_states": [], "clicked_states": ["22", "11"], "num_clicks_accrued": [0, 0, 0, 0, 0, 0, 0, 0, 0, 0, 0, 0, 0], "stateRewards": ["", 1, 1, 1, 15, -76, 52, -32, 14, -57, 37, 49, 1, -4, -3, 6, 83, -76, 25, 9, 36, -1, -17, -1, 4, 4, -2, -22, -21, 58, -15, -57, 49, -24], "withholdReward": false, "trial_id": "mdp_trial_40", "block": "test", "trialIndex": 45, "score": 63.2, "costs": -2.8, "simulationMode": [null, null, null, null, null], "rewards": [1, 1, 1, 14, 49], "path": ["0", "0", "1", "2", "3", "8", "11"], "rt": [6951, 35, 425, 185, 12], "actions": ["up", "up", "up", "left", "left"], "actionTimes": [9079, 9614, 10559, 11246, 11758], "queries": {"click": {"state": {"target": ["22", "11"], "time": [3475, 6291]}, "edge": {"target": [], "time": []}}, "mouseover": {"state": {"target": ["0", "22", "18", "4", "3", "8", "11"], "time": [2593, 3112, 4028, 5463, 5528, 5594, 6061]}, "edge": {"target": [], "time": []}}, "mouseout": {"state": {"target": ["0", "0", "22", "18", "4", "3", "8", "11", "1"], "time": [1848, 2627, 3894, 4077, 5510, 5577, 5781, 6828, 16712]}, "edge": {"target": [], "time": []}}}, "displayed_time": "16.13", "trialTime": 17569, "trial_type": "mouselab-mdp", "trial_index": 60, "time_elapsed": 1819601, "internal_node_id": "0.0-4.0-1.0-39.0"}}, {"uniqueid": "w14788080:a64347200", "current_trial": 61, "dateTime": 1691144150353, "trialdata": {"rt": 64401, "response": {"Q0": "$-2 to $2", "Q1": "$-4 to $4", "Q2": "$-16 to $16", "Q3": "The cost for clicking on nodes varied between nodes.", "Q4": "Very motivated"}, "question_order": [0, 1, 2, 3, 4], "trial_id": "final_quiz_control", "trial_type": "survey-multi-choice", "trial_index": 61, "time_elapsed": 1884011, "internal_node_id": "0.0-4.0-2.0"}}, {"uniqueid": "w14788080:a64347200", "current_trial": 62, "dateTime": 1691144206888, "trialdata": {"rt": 56529, "response": {"Q0": "I actually did not have a strategy just used the nodes", "Q1": "Not really", "Q2": "I just guess"}, "trial_id": "self_report_control", "trial_type": "survey-text", "trial_index": 62, "time_elapsed": 1940547, "internal_node_id": "0.0-4.0-3.0"}}, {"uniqueid": "w14788080:a64347200", "current_trial": 63, "dateTime": 1691144236288, "trialdata": {"rt": 29398, "response": {"gender": "female", "age": "24", "colorblind": "0", "effort": "0"}, "trial_type": "survey-html-form", "trial_index": 63, "time_elapsed": 1969947, "internal_node_id": "0.0-4.0-4.0"}}, {"uniqueid": "w14788080:a64347200", "current_trial": 64, "dateTime": 1691144287840, "trialdata": {"rt": 51547, "response": {"Q0": "Yes sometimes the nodes would not let me reveal the amounts", "Q1": "No", "Q2": "none"}, "trial_type": "survey-text", "trial_index": 64, "time_elapsed": 2021499, "internal_node_id": "0.0-4.0-5.0"}}, {"uniqueid": "w14788080:a64347200", "current_trial": 65, "dateTime": 1691144289744, "trialdata": {"rt": 1901, "stimulus": "Press 'Finish HIT' in order to reach the completion code. Once the data has been saved, you will receive the code either in this window or in the original browser window where you started the experiment.\n", "response": 0, "trial_type": "html-button-response", "trial_index": 65, "time_elapsed": 2023403, "internal_node_id": "0.0-5.0"}}, {"uniqueid": "w14788080:a64347200", "current_trial": 66, "dateTime": 1691144290747, "trialdata": {"success": true, "trial_type": "fullscreen", "trial_index": 66, "time_elapsed": 2024406, "internal_node_id": "0.0-6.0"}}], "questiondata": {"params": {"CODE": "C6DMOQA6", "MIN_TIME": 14, "inspectCost": 1, "startTime": "Fri Aug 04 2023 11:44:25 GMT+0200 (South Africa Standard Time)", "bonusRate": 0.002, "variance": "1_2_4_8_44", "branching": "31123"}, "final_score": 1325.8}, "eventdata": [{"eventtype": "initialized", "value": null, "timestamp": 1691142264510, "interval": 0}, {"eventtype": "window_resize", "value": [1024, 767], "timestamp": 1691142264510, "interval": 0}, {"eventtype": "window_resize", "value": [1024, 767], "timestamp": 1691142264939, "interval": 429}, {"eventtype": "window_resize", "value": [1920, 1080], "timestamp": 1691142268006, "interval": 3067}, {"eventtype": "focus", "value": "off", "timestamp": 1691142735268, "interval": 467262}, {"eventtype": "focus", "value": "on", "timestamp": 1691142735268, "interval": 0}, {"eventtype": "window_resize", "value": [1024, 767], "timestamp": 1691142735475, "interval": 207}, {"eventtype": "focus", "value": "off", "timestamp": 1691142739236, "interval": 3761}, {"eventtype": "focus", "value": "on", "timestamp": 1691142751500, "interval": 12264}, {"eventtype": "focus", "value": "off", "timestamp": 1691142751501, "interval": 1}, {"eventtype": "focus", "value": "on", "timestamp": 1691142751600, "interval": 99}, {"eventtype": "window_resize", "value": [1920, 1080], "timestamp": 1691142753185, "interval": 1585}, {"eventtype": "focus", "value": "off", "timestamp": 1691142940516, "interval": 187331}, {"eventtype": "focus", "value": "on", "timestamp": 1691142940516, "interval": 0}, {"eventtype": "window_resize", "value": [1024, 767], "timestamp": 1691142940725, "interval": 209}, {"eventtype": "window_resize", "value": [1920, 982], "timestamp": 1691142942545, "interval": 1820}, {"eventtype": "window_resize", "value": [1920, 1080], "timestamp": 1691142943613, "interval": 1068}, {"eventtype": "focus", "value": "off", "timestamp": 1691143306568, "interval": 362955}, {"eventtype": "window_resize", "value": [1920, 1079], "timestamp": 1691143306782, "interval": 214}, {"eventtype": "focus", "value": "on", "timestamp": 1691143307804, "interval": 1022}, {"eventtype": "window_resize", "value": [1920, 1080], "timestamp": 1691143308015, "interval": 211}, {"eventtype": "window_resize", "value": [1920, 982], "timestamp": 1691144289973, "interval": 981958}], "useragent": "Mozilla/5.0 (Windows NT 10.0; Win64; x64) AppleWebKit/537.36 (KHTML, like Gecko) Chrome/115.0.0.0 Safari/537.36", "mode": "live", "id": "w14788080:a64347200", "status": "user data saved", "Beginhit": "2023-08-04 09:44:21.915691", "Beginexp": "2023-08-04 09:44:28.433286", "Endhit": "2023-08-04 10:18:11.102713", "psiturkStatus": 3, "browser": "<redacted>", "platform": "windows", "language": "en-US"}