{"condition": 1, "counterbalance": 0, "assignmentId": "a23897869", "workerId": "w84095686", "hitId": "h30544723", "currenttrial": 62, "bonus": 0, "data": [{"uniqueid": "w84095686:a23897869", "current_trial": 0, "dateTime": 1693481089469, "trialdata": {"success": true, "trial_type": "fullscreen", "trial_index": 0, "time_elapsed": 9731, "internal_node_id": "0.0-0.0"}}, {"uniqueid": "w84095686:a23897869", "current_trial": 1, "dateTime": 1693481127165, "trialdata": {"view_history": [{"page_index": 0, "viewing_time": 37682}], "rt": 37684, "trial_id": "exp_instructions_misaligned", "trial_type": "instructions", "trial_index": 1, "time_elapsed": 47427, "internal_node_id": "0.0-1.0"}}, {"uniqueid": "w84095686:a23897869", "current_trial": 2, "dateTime": 1693481440174, "trialdata": {"view_history": [{"page_index": 0, "viewing_time": 103280}, {"page_index": 1, "viewing_time": 128106}, {"page_index": 2, "viewing_time": 34718}, {"page_index": 3, "viewing_time": 46900}], "rt": 313005, "trial_id": "mouselab_instructions_1_misaligned", "trial_type": "instructions", "trial_index": 2, "time_elapsed": 360437, "internal_node_id": "0.0-2.0-1.0"}}, {"uniqueid": "w84095686:a23897869", "current_trial": 3, "dateTime": 1693481463737, "trialdata": {"revealed_states": [], "clicked_states": [], "num_clicks_accrued": [0, 0, 0, 0, 0, 0, 0, 0, 0, 0, 0, 0, 0], "stateRewards": ["", 10, -10, -10, -10, 10, 10, 10, 10, -10, -10, -10, 10, -10, 10, 10, 10, -10, -10, 10, 10, 10, 10, -10, 10, 10, -10, -10, -10, -10, 10, 10, -10, -10], "withholdReward": false, "trial_id": "practice_1", "block": "test", "trialIndex": 0, "score": -6.5, "costs": 0, "simulationMode": [null, null, null, null, null], "rewards": [10, -10, -10, -10, 10], "path": ["0", "0", "1", "2", "3", "4", "5"], "rt": [2151, 5412, 4498, 878, 104], "actions": ["up", "up", "up", "right", "up"], "actionTimes": [5095, 11023, 16043, 17424, 18049], "queries": {"click": {"state": {"target": [], "time": []}, "edge": {"target": [], "time": []}}, "mouseover": {"state": {"target": [], "time": []}, "edge": {"target": [], "time": []}}, "mouseout": {"state": {"target": ["12"], "time": [1161]}, "edge": {"target": [], "time": []}}}, "displayed_time": "18.54", "trialTime": 22364, "trial_type": "mouselab-mdp", "trial_index": 3, "time_elapsed": 383998, "internal_node_id": "0.0-2.0-2.0-0.0"}}, {"uniqueid": "w84095686:a23897869", "current_trial": 4, "dateTime": 1693481476214, "trialdata": {"revealed_states": [], "clicked_states": [], "num_clicks_accrued": [0, 0, 0, 0, 0, 0, 0, 0, 0, 0, 0, 0, 0], "stateRewards": ["", 10, 10, 10, -10, -10, -10, 10, 10, 10, 10, -10, 10, -10, -10, -10, 10, 10, 10, 10, 10, 10, 10, 10, -10, -10, -10, -10, 10, 10, -10, -10, 10, 10], "withholdReward": false, "trial_id": "practice_2", "block": "test", "trialIndex": 1, "score": -26.5, "costs": 0, "simulationMode": [null, null, null, null, null], "rewards": [10, -10, -10, -10, -10], "path": ["0", "0", "23", "24", "25", "26", "27"], "rt": [2199, 205, 345, 81, 485], "actions": ["left", "left", "left", "up", "up"], "actionTimes": [4017, 4721, 5560, 6162, 7168], "queries": {"click": {"state": {"target": [], "time": []}, "edge": {"target": [], "time": []}}, "mouseover": {"state": {"target": [], "time": []}, "edge": {"target": [], "time": []}}, "mouseout": {"state": {"target": ["0", "22", "21", "21"], "time": [10854, 10897, 10947, 11380]}, "edge": {"target": [], "time": []}}}, "displayed_time": "7.68", "trialTime": 12113, "trial_type": "mouselab-mdp", "trial_index": 4, "time_elapsed": 396476, "internal_node_id": "0.0-2.0-2.0-1.0"}}, {"uniqueid": "w84095686:a23897869", "current_trial": 5, "dateTime": 1693481524779, "trialdata": {"view_history": [{"page_index": 0, "viewing_time": 39711}, {"page_index": 1, "viewing_time": 8847}], "rt": 48560, "trial_id": "mouselab_instructions_2_misaligned", "trial_type": "instructions", "trial_index": 5, "time_elapsed": 445042, "internal_node_id": "0.0-2.0-3.0"}}, {"uniqueid": "w84095686:a23897869", "current_trial": 6, "dateTime": 1693481570491, "trialdata": {"rt": 45700, "response": {"Q0": "The cost for clicking on nodes may vary between nodes.", "Q1": "The better I perform the higher my bonus will be.", "Q2": "No, the amount of cash at each node of the web may be different each time.", "Q3": "To get the highest total score.", "Q4": "Any time during the round.", "Q5": "3 seconds"}, "question_order": [0, 1, 2, 3, 4, 5], "correct": {"Q0": "The cost for clicking on nodes may vary between nodes.", "Q1": "The better I perform the higher my bonus will be.", "Q2": "No, the amount of cash at each node of the web may be different each time.", "Q3": "To get the highest total score.", "Q4": "Only before moving the spider.", "Q5": "3 seconds"}, "trial_id": "mouselab_quiz_misaligned", "trial_type": "survey-multi-choice", "trial_index": 6, "time_elapsed": 490754, "internal_node_id": "0.0-2.0-4.0"}}, {"uniqueid": "w84095686:a23897869", "current_trial": 7, "dateTime": 1693481581153, "trialdata": {"success": true, "trial_type": "fullscreen", "trial_index": 7, "time_elapsed": 501416, "internal_node_id": "0.0-2.1-0.1-0.1"}}, {"uniqueid": "w84095686:a23897869", "current_trial": 8, "dateTime": 1693481598681, "trialdata": {"view_history": [{"page_index": 0, "viewing_time": 6036}, {"page_index": 1, "viewing_time": 7136}, {"page_index": 2, "viewing_time": 2025}, {"page_index": 3, "viewing_time": 2325}], "rt": 17523, "trial_id": "mouselab_instructions_1_misaligned", "trial_type": "instructions", "trial_index": 8, "time_elapsed": 518943, "internal_node_id": "0.0-2.1-1.1"}}, {"uniqueid": "w84095686:a23897869", "current_trial": 9, "dateTime": 1693481618434, "trialdata": {"revealed_states": [], "clicked_states": ["4", "5", "6"], "num_clicks_accrued": [0, 0, 0, 0, 0, 0, 0, 0, 0, 0, 0, 0, 0], "stateRewards": ["", 10, -10, -10, -10, 10, 10, 10, 10, -10, -10, -10, 10, -10, 10, 10, 10, -10, -10, 10, 10, 10, 10, -10, 10, 10, -10, -10, -10, -10, 10, 10, -10, -10], "withholdReward": false, "trial_id": "practice_1", "block": "test", "trialIndex": 2, "score": 12, "costs": -1.5, "simulationMode": [null, null, null, null, null], "rewards": [-10, 10, 10, 10, -10], "path": ["0", "0", "23", "24", "25", "30", "32"], "rt": [10998, 1272, 53, 149, 134], "actions": ["left", "left", "left", "down", "down"], "actionTimes": [13170, 14959, 15525, 16186, 16837], "queries": {"click": {"state": {"target": ["4", "5", "6"], "time": [3410, 4525, 10494]}, "edge": {"target": [], "time": []}}, "mouseover": {"state": {"target": ["1", "4", "5", "10", "8", "6", "4", "3"], "time": [2556, 2654, 4152, 6990, 7838, 8457, 11252, 11905]}, "edge": {"target": [], "time": []}}, "mouseout": {"state": {"target": ["17", "13", "0", "1", "4", "5", "10", "8", "6", "4", "3", "16"], "time": [305, 1237, 1652, 2585, 4068, 5943, 7002, 7853, 11202, 11621, 19027, 19275]}, "edge": {"target": [], "time": []}}}, "displayed_time": "17.35", "trialTime": 19496, "trial_type": "mouselab-mdp", "trial_index": 9, "time_elapsed": 538696, "internal_node_id": "0.0-2.1-2.1-0.1"}}, {"uniqueid": "w84095686:a23897869", "current_trial": 10, "dateTime": 1693481632212, "trialdata": {"revealed_states": [], "clicked_states": ["17", "14"], "num_clicks_accrued": [0, 0, 0, 0, 0, 0, 0, 0, 0, 0, 0, 0, 0], "stateRewards": ["", 10, 10, 10, -10, -10, -10, 10, 10, 10, 10, -10, 10, -10, -10, -10, 10, 10, 10, 10, 10, 10, 10, 10, -10, -10, -10, -10, 10, 10, -10, -10, 10, 10], "withholdReward": false, "trial_id": "practice_2", "block": "test", "trialIndex": 3, "score": -7.5, "costs": -1, "simulationMode": [null, null, null, null, null], "rewards": [10, -10, -10, -10, 10], "path": ["0", "0", "12", "13", "14", "15", "17"], "rt": [5624, 265, 86, 10, 1], "actions": ["right", "right", "right", "up", "right"], "actionTimes": [7288, 8060, 8664, 9189, 9697], "queries": {"click": {"state": {"target": ["17", "14"], "time": [3341, 5282]}, "edge": {"target": [], "time": []}}, "mouseover": {"state": {"target": ["6", "16", "15", "17", "14"], "time": [2180, 2529, 2763, 3096, 4829]}, "edge": {"target": [], "time": []}}, "mouseout": {"state": {"target": ["0", "6", "16", "15", "17", "14", "13", "13", "14", "19"], "time": [1928, 2209, 2592, 2863, 4516, 10963, 11010, 11216, 11260, 11348]}, "edge": {"target": [], "time": []}}}, "displayed_time": "10.21", "trialTime": 13530, "trial_type": "mouselab-mdp", "trial_index": 10, "time_elapsed": 552474, "internal_node_id": "0.0-2.1-2.1-1.1"}}, {"uniqueid": "w84095686:a23897869", "current_trial": 11, "dateTime": 1693481658141, "trialdata": {"view_history": [{"page_index": 0, "viewing_time": 23952}, {"page_index": 1, "viewing_time": 1970}], "rt": 25924, "trial_id": "mouselab_instructions_2_misaligned", "trial_type": "instructions", "trial_index": 11, "time_elapsed": 578404, "internal_node_id": "0.0-2.1-3.1"}}, {"uniqueid": "w84095686:a23897869", "current_trial": 12, "dateTime": 1693481716842, "trialdata": {"rt": 58691, "response": {"Q0": "The cost for clicking on nodes may vary between nodes.", "Q1": "The better I perform the higher my bonus will be.", "Q2": "No, the amount of cash at each node of the web may be different each time.", "Q3": "To get the highest total score.", "Q4": "Only before moving the spider.", "Q5": "3 seconds"}, "question_order": [0, 1, 2, 3, 4, 5], "correct": {"Q0": "The cost for clicking on nodes may vary between nodes.", "Q1": "The better I perform the higher my bonus will be.", "Q2": "No, the amount of cash at each node of the web may be different each time.", "Q3": "To get the highest total score.", "Q4": "Only before moving the spider.", "Q5": "3 seconds"}, "trial_id": "mouselab_quiz_misaligned", "trial_type": "survey-multi-choice", "trial_index": 12, "time_elapsed": 637104, "internal_node_id": "0.0-2.1-4.1"}}, {"uniqueid": "w84095686:a23897869", "current_trial": 13, "dateTime": 1693481725008, "trialdata": {"rt": 8146, "response": {"Q0": "No"}, "question_order": [0], "trial_id": "repeat_check", "trial_type": "survey-multi-choice", "trial_index": 13, "time_elapsed": 645271, "internal_node_id": "0.0-4.0-0.0"}}, {"uniqueid": "w84095686:a23897869", "current_trial": 14, "dateTime": 1693483166321, "trialdata": {"rt": 1441303, "stimulus": "\n<h1> Get ready to start the game! </h1>\n\nThank you for reading the instructions. Get ready start with the 40 rounds of this game.\n<br><br>\nIf you need to take a break, feel free to take one after the end of a round, before continuing to the next one.\n<br><br>\nRemember, the more money the spider gets, the bigger your bonus will be!\n<br><br>\n<div style='text-align: center;'>Press <code>space</code> to begin.</div>\n\n<br><br>\n(If, at any point, the <code>space</code> key does not take you to the next page, click once on the text and try again.)", "response": " ", "trial_id": "mdp_ready", "trial_type": "html-keyboard-response", "trial_index": 14, "time_elapsed": 2086584, "internal_node_id": "0.0-6.0-0.0"}}, {"uniqueid": "w84095686:a23897869", "current_trial": 15, "dateTime": 1693483195386, "trialdata": {"revealed_states": [], "clicked_states": [], "num_clicks_accrued": [0, 0, 0, 0, 0, 0, 0, 0, 0, 0, 0, 0, 0], "stateRewards": ["", 1, -2, -2, 10, -31, -77, 35, 9, -47, 8, 48, -2, 1, -4, -3, -26, -50, 43, -11, 76, -38, 17, 1, -1, 6, 10, 15, -9, 12, -8, 85, 11, -55], "withholdReward": false, "trial_id": "mdp_trial_1", "block": "test", "trialIndex": 4, "score": -24, "costs": 0, "simulationMode": [null, null, null, null, null], "rewards": [1, -2, -2, 10, -31], "path": ["0", "0", "1", "2", "3", "4", "5"], "rt": [8442, 1526, 579, 352, 37], "actions": ["up", "up", "up", "right", "up"], "actionTimes": [12361, 14401, 15487, 16342, 16894], "queries": {"click": {"state": {"target": [], "time": []}, "edge": {"target": [], "time": []}}, "mouseover": {"state": {"target": ["31", "30", "30", "31", "0"], "time": [6688, 7109, 9141, 10963, 11039]}, "edge": {"target": [], "time": []}}, "mouseout": {"state": {"target": ["0", "31", "30", "30", "31", "0"], "time": [6623, 6926, 8675, 10959, 10972, 11054]}, "edge": {"target": [], "time": []}}}, "displayed_time": "17.92", "trialTime": 28495, "trial_type": "mouselab-mdp", "trial_index": 15, "time_elapsed": 2115648, "internal_node_id": "0.0-6.0-1.0-0.0"}}, {"uniqueid": "w84095686:a23897869", "current_trial": 16, "dateTime": 1693483222046, "trialdata": {"revealed_states": [], "clicked_states": ["21"], "num_clicks_accrued": [0, 0, 0, 0, 0, 0, 0, 0, 0, 0, 0, 0, 0], "stateRewards": ["", -1, 3, -7, 16, -32, -74, -48, 2, 10, 15, -30, 1, 1, -2, 10, 12, -83, 67, 13, -66, 47, 65, -2, 4, 2, -14, -8, -57, 24, 9, 65, 12, 46], "withholdReward": false, "trial_id": "mdp_trial_2", "block": "test", "trialIndex": 5, "score": 57.85, "costs": -2.15, "simulationMode": [null, null, null, null, null], "rewards": [1, 1, -2, 13, 47], "path": ["0", "0", "12", "13", "14", "19", "21"], "rt": [5817, 1643, 1625, 79, 344], "actions": ["right", "right", "right", "down", "down"], "actionTimes": [9425, 11575, 13723, 14310, 15175], "queries": {"click": {"state": {"target": ["21"], "time": [6488]}, "edge": {"target": [], "time": []}}, "mouseover": {"state": {"target": ["0", "22", "19", "21"], "time": [5599, 5644, 5678, 6126]}, "edge": {"target": [], "time": []}}, "mouseout": {"state": {"target": ["22", "12", "0", "22", "19", "21", "19"], "time": [1780, 1810, 5614, 5676, 5986, 6589, 20999]}, "edge": {"target": [], "time": []}}}, "displayed_time": "17.61", "trialTime": 26395, "trial_type": "mouselab-mdp", "trial_index": 16, "time_elapsed": 2142309, "internal_node_id": "0.0-6.0-1.0-1.0"}}, {"uniqueid": "w84095686:a23897869", "current_trial": 17, "dateTime": 1693483245738, "trialdata": {"revealed_states": [], "clicked_states": ["15"], "num_clicks_accrued": [0, 0, 0, 0, 0, 0, 0, 0, 0, 0, 0, 0, 0], "stateRewards": ["", -1, 2, 6, 11, 21, -21, -21, -6, 48, -71, 88, -1, -3, 3, 7, 64, 2, 9, -4, 37, -67, 72, 2, 2, -8, -8, -10, 71, -40, -3, 73, 80, 47], "withholdReward": false, "trial_id": "mdp_trial_3", "block": "test", "trialIndex": 6, "score": 6.45, "costs": -1.55, "simulationMode": [null, null, null, null, null], "rewards": [-1, -3, 3, 7, 2], "path": ["0", "0", "12", "13", "14", "15", "17"], "rt": [12755, 284, 452, 145, 536], "actions": ["right", "right", "right", "up", "right"], "actionTimes": [15118, 15917, 16868, 17510, 18569], "queries": {"click": {"state": {"target": ["15"], "time": [4846]}, "edge": {"target": [], "time": []}}, "mouseover": {"state": {"target": ["1", "2", "5", "16", "15", "17"], "time": [3067, 3130, 3281, 3800, 4132, 11332]}, "edge": {"target": [], "time": []}}, "mouseout": {"state": {"target": ["14", "13", "12", "1", "2", "5", "16", "15"], "time": [1296, 1329, 1363, 3113, 3163, 3385, 3830, 11135]}, "edge": {"target": [], "time": []}}}, "displayed_time": "19.08", "trialTime": 23403, "trial_type": "mouselab-mdp", "trial_index": 17, "time_elapsed": 2166000, "internal_node_id": "0.0-6.0-1.0-2.0"}}, {"uniqueid": "w84095686:a23897869", "current_trial": 18, "dateTime": 1693483269969, "trialdata": {"revealed_states": [], "clicked_states": [], "num_clicks_accrued": [0, 0, 0, 0, 0, 0, 0, 0, 0, 0, 0, 0, 0], "stateRewards": ["", 2, -1, -3, 16, -3, -16, -62, -1, 13, -26, 43, -1, 4, 3, -9, -54, -37, -3, -12, -71, -68, -57, 1, -3, 2, -9, 2, -2, -9, -11, 84, -52, 55], "withholdReward": false, "trial_id": "mdp_trial_4", "block": "test", "trialIndex": 7, "score": -7, "costs": 0, "simulationMode": [null, null, null, null, null], "rewards": [1, -3, 2, -9, 2], "path": ["0", "0", "23", "24", "25", "26", "27"], "rt": [7802, 206, 190, 39, 348], "actions": ["left", "left", "left", "up", "up"], "actionTimes": [11198, 11927, 12628, 13174, 14016], "queries": {"click": {"state": {"target": [], "time": []}, "edge": {"target": [], "time": []}}, "mouseover": {"state": {"target": ["1", "2", "4", "5", "4", "3", "8", "8", "28", "26", "29", "26"], "time": [4022, 4049, 4116, 4183, 4435, 5633, 5966, 6666, 7082, 7383, 8549, 9634]}, "edge": {"target": [], "time": []}}, "mouseout": {"state": {"target": ["17", "13", "12", "1", "2", "4", "5", "4", "3", "8", "8", "28", "26", "29", "26", "25", "26", "10"], "time": [1769, 1950, 2135, 4035, 4066, 4149, 4216, 5609, 5918, 6400, 7050, 7307, 8435, 9619, 19420, 19837, 20739, 22270]}, "edge": {"target": [], "time": []}}}, "displayed_time": "17.40", "trialTime": 23769, "trial_type": "mouselab-mdp", "trial_index": 18, "time_elapsed": 2190231, "internal_node_id": "0.0-6.0-1.0-3.0"}}, {"uniqueid": "w84095686:a23897869", "current_trial": 19, "dateTime": 1693483291682, "trialdata": {"revealed_states": [], "clicked_states": ["9", "8", "11"], "num_clicks_accrued": [0, 0, 0, 0, 0, 0, 0, 0, 0, 0, 0, 0, 0], "stateRewards": ["", 2, -1, 3, -12, -83, 6, -33, 9, 28, 24, -50, -2, -1, -2, -5, -87, 37, 82, 12, 80, -5, 10, -2, -3, -6, 9, 22, -1, 16, 9, 77, -62, 58], "withholdReward": false, "trial_id": "mdp_trial_5", "block": "test", "trialIndex": 8, "score": 35.15, "costs": -5.85, "simulationMode": [null, null, null, null, null], "rewards": [2, -1, 3, 9, 28], "path": ["0", "0", "1", "2", "3", "8", "9"], "rt": [10557, 116, 240, 10, 462], "actions": ["up", "up", "up", "left", "up"], "actionTimes": [13680, 14314, 15069, 15576, 16558], "queries": {"click": {"state": {"target": ["9", "8", "11"], "time": [4051, 8976, 9825]}, "edge": {"target": [], "time": []}}, "mouseover": {"state": {"target": ["1", "8", "9", "8", "11", "8", "11"], "time": [3450, 3510, 3593, 4460, 5160, 6444, 9495]}, "edge": {"target": [], "time": []}}, "mouseout": {"state": {"target": ["10", "2", "1", "1", "8", "9", "8", "11", "8", "11", "8", "3", "6", "7"], "time": [1112, 1160, 1345, 3465, 3543, 4394, 4977, 6411, 9445, 10496, 19269, 19295, 19360, 19500]}, "edge": {"target": [], "time": []}}}, "displayed_time": "17.12", "trialTime": 21291, "trial_type": "mouselab-mdp", "trial_index": 19, "time_elapsed": 2211943, "internal_node_id": "0.0-6.0-1.0-4.0"}}, {"uniqueid": "w84095686:a23897869", "current_trial": 20, "dateTime": 1693483335465, "trialdata": {"revealed_states": [], "clicked_states": ["19", "21", "22", "20", "17", "16", "6"], "num_clicks_accrued": [0, 0, 0, 0, 0, 0, 0, 0, 0, 0, 0, 0, 0], "stateRewards": ["", -1, 2, -6, 6, 43, 78, 78, -2, 55, -29, -17, -2, -4, 1, -15, 13, 7, -79, 8, -28, -68, 36, -1, -3, 3, -16, 84, -18, 87, 10, 32, 13, -81], "withholdReward": false, "trial_id": "mdp_trial_6", "block": "test", "trialIndex": 9, "score": 64.55, "costs": -14.450000000000001, "simulationMode": [null, null, null, null, null], "rewards": [-1, 2, -6, 6, 78], "path": ["0", "0", "1", "2", "3", "4", "6"], "rt": [31506, 41, 221, 529, 138], "actions": ["up", "up", "up", "right", "right"], "actionTimes": [33653, 34207, 34919, 35941, 36601], "queries": {"click": {"state": {"target": ["19", "21", "22", "20", "17", "16", "6"], "time": [4865, 5805, 10134, 13128, 18524, 23610, 28118]}, "edge": {"target": [], "time": []}}, "mouseover": {"state": {"target": ["12", "14", "20", "19", "21", "21", "22", "20", "17", "16", "16", "5", "6", "5"], "time": [3977, 4025, 4277, 4610, 5342, 5659, 7026, 10942, 17862, 21243, 21966, 27512, 27862, 30994]}, "edge": {"target": [], "time": []}}, "mouseout": {"state": {"target": ["1", "0", "12", "14", "20", "19", "21", "21", "22", "20", "17", "16", "16", "5", "6", "5", "3", "3", "3", "10", "3", "4", "3"], "time": [993, 2930, 3992, 4041, 4396, 5308, 5392, 5957, 10859, 13192, 20692, 21276, 26411, 27779, 28222, 31780, 38614, 39313, 39432, 39513, 39930, 40131, 42019]}, "edge": {"target": [], "time": []}}}, "displayed_time": "37.10", "trialTime": 43389, "trial_type": "mouselab-mdp", "trial_index": 20, "time_elapsed": 2255727, "internal_node_id": "0.0-6.0-1.0-5.0"}}, {"uniqueid": "w84095686:a23897869", "current_trial": 21, "dateTime": 1693483369070, "trialdata": {"revealed_states": [], "clicked_states": ["32", "33", "29"], "num_clicks_accrued": [0, 0, 0, 0, 0, 0, 0, 0, 0, 0, 0, 0, 0], "stateRewards": ["", 2, 4, 7, -6, -76, -81, 2, 5, -66, -3, 36, -2, -4, 6, -2, -69, 4, -49, -6, 67, 38, -67, 2, 1, 1, 6, -68, -21, 52, -16, -16, 6, -70], "withholdReward": false, "trial_id": "mdp_trial_7", "block": "test", "trialIndex": 10, "score": -54.45, "costs": -6.449999999999999, "simulationMode": [null, null, null, null, null], "rewards": [2, 4, 7, 5, -66], "path": ["0", "0", "1", "2", "3", "8", "9"], "rt": [20947, 496, 899, 607, 23], "actions": ["up", "up", "up", "left", "up"], "actionTimes": [23439, 24450, 25856, 26961, 27492], "queries": {"click": {"state": {"target": ["32", "33", "29"], "time": [5174, 8204, 13470]}, "edge": {"target": [], "time": []}}, "mouseover": {"state": {"target": ["0", "32", "33", "29", "27", "27", "9", "9"], "time": [3864, 4320, 6649, 11235, 15899, 16117, 18968, 19314]}, "edge": {"target": [], "time": []}}, "mouseout": {"state": {"target": ["13", "12", "0", "32", "33", "29", "27", "27", "9", "9", "9", "4", "6", "16"], "time": [861, 898, 3883, 6050, 10899, 15650, 15919, 18355, 19017, 29626, 29650, 30139, 30167, 30200]}, "edge": {"target": [], "time": []}}}, "displayed_time": "28.00", "trialTime": 33182, "trial_type": "mouselab-mdp", "trial_index": 21, "time_elapsed": 2289331, "internal_node_id": "0.0-6.0-1.0-6.0"}}, {"uniqueid": "w84095686:a23897869", "current_trial": 22, "dateTime": 1693483390317, "trialdata": {"revealed_states": [], "clicked_states": ["17", "21", "32"], "num_clicks_accrued": [0, 0, 0, 0, 0, 0, 0, 0, 0, 0, 0, 0, 0], "stateRewards": ["", 2, 4, -5, 7, 81, 35, 6, 11, 14, -72, 42, -1, 2, 3, -7, -77, -44, -40, -15, -85, 51, -32, -2, -1, -5, 7, -74, 47, 52, 16, -49, 48, -46], "withholdReward": false, "trial_id": "mdp_trial_8", "block": "test", "trialIndex": 11, "score": 33.55, "costs": -6.449999999999999, "simulationMode": [null, null, null, null, null], "rewards": [-1, 2, 3, -15, 51], "path": ["0", "0", "12", "13", "14", "19", "21"], "rt": [13489, 545, 158, 164, 41], "actions": ["right", "right", "right", "down", "down"], "actionTimes": [15506, 16555, 17237, 17938, 18500], "queries": {"click": {"state": {"target": ["17", "21", "32"], "time": [3991, 8025, 12132]}, "edge": {"target": [], "time": []}}, "mouseover": {"state": {"target": ["15", "17", "17", "19", "21", "32"], "time": [2548, 2564, 2978, 6889, 6972, 9390]}, "edge": {"target": [], "time": []}}, "mouseout": {"state": {"target": ["17", "14", "0", "15", "17", "17", "17", "19", "21", "32"], "time": [945, 1006, 1457, 2561, 2574, 5340, 6573, 6922, 9173, 19897]}, "edge": {"target": [], "time": []}}}, "displayed_time": "19.02", "trialTime": 20833, "trial_type": "mouselab-mdp", "trial_index": 22, "time_elapsed": 2310578, "internal_node_id": "0.0-6.0-1.0-7.0"}}, {"uniqueid": "w84095686:a23897869", "current_trial": 23, "dateTime": 1693483416746, "trialdata": {"revealed_states": [], "clicked_states": ["32", "33", "29"], "num_clicks_accrued": [0, 0, 0, 0, 0, 0, 0, 0, 0, 0, 0, 0, 0], "stateRewards": ["", -2, -3, -3, 9, 79, 67, 22, -15, -56, 27, -85, -2, 4, -4, -15, -20, -32, 60, 15, 71, 57, 17, 1, 2, -8, 15, -37, -81, 82, 15, 21, -3, 2], "withholdReward": false, "trial_id": "mdp_trial_9", "block": "test", "trialIndex": 12, "score": 85.55, "costs": -6.449999999999999, "simulationMode": [null, null, null, null, null], "rewards": [1, 2, -8, 15, 82], "path": ["0", "0", "23", "24", "25", "26", "29"], "rt": [16159, 218, 307, 42, 389], "actions": ["left", "left", "left", "up", "left"], "actionTimes": [18552, 19287, 20090, 20641, 21542], "queries": {"click": {"state": {"target": ["32", "33", "29"], "time": [5070, 9370, 13389]}, "edge": {"target": [], "time": []}}, "mouseover": {"state": {"target": ["31", "32", "33", "33", "29"], "time": [3980, 4933, 6330, 6680, 10730]}, "edge": {"target": [], "time": []}}, "mouseout": {"state": {"target": ["30", "23", "0", "12", "13", "0", "31", "32", "33", "33"], "time": [765, 813, 831, 845, 1166, 3953, 3997, 5846, 6380, 10197]}, "edge": {"target": [], "time": []}}}, "displayed_time": "22.03", "trialTime": 26169, "trial_type": "mouselab-mdp", "trial_index": 23, "time_elapsed": 2337007, "internal_node_id": "0.0-6.0-1.0-8.0"}}, {"uniqueid": "w84095686:a23897869", "current_trial": 24, "dateTime": 1693483455484, "trialdata": {"revealed_states": [], "clicked_states": ["9", "5", "17", "20", "21", "32"], "num_clicks_accrued": [0, 0, 0, 0, 0, 0, 0, 0, 0, 0, 0, 0, 0], "stateRewards": ["", -2, -4, -2, -13, -15, 87, -19, -6, -80, 30, 12, 1, 1, -8, 2, 55, 56, 15, 11, -68, -7, 55, -2, 3, -3, -3, 48, 62, 4, 1, -3, 69, -33], "withholdReward": false, "trial_id": "mdp_trial_10", "block": "test", "trialIndex": 13, "score": 55.1, "costs": -12.9, "simulationMode": [null, null, null, null, null], "rewards": [-2, 3, -3, 1, 69], "path": ["0", "0", "23", "24", "25", "30", "32"], "rt": [26374, 49, 135, 97, 435], "actions": ["left", "left", "left", "down", "down"], "actionTimes": [28694, 29265, 29932, 30529, 31467], "queries": {"click": {"state": {"target": ["9", "5", "17", "20", "21", "32"], "time": [4184, 8103, 12434, 16866, 20777, 25338]}, "edge": {"target": [], "time": []}}, "mouseover": {"state": {"target": ["1", "2", "9", "5", "6", "16", "17", "20", "20", "21", "32"], "time": [2966, 2984, 3627, 7896, 11561, 11646, 11846, 16262, 16616, 20277, 25115]}, "edge": {"target": [], "time": []}}, "mouseout": {"state": {"target": ["29", "12", "13", "1", "2", "9", "9", "5", "6", "16", "17", "20", "20", "21", "32", "26", "26"], "time": [862, 943, 959, 2980, 2994, 4282, 5695, 11525, 11578, 11695, 16200, 16294, 20146, 24382, 33381, 33613, 34116]}, "edge": {"target": [], "time": []}}}, "displayed_time": "31.98", "trialTime": 38335, "trial_type": "mouselab-mdp", "trial_index": 24, "time_elapsed": 2375746, "internal_node_id": "0.0-6.0-1.0-9.0"}}, {"uniqueid": "w84095686:a23897869", "current_trial": 25, "dateTime": 1693483496820, "trialdata": {"revealed_states": [], "clicked_states": ["29", "17", "5", "21", "32", "11", "6"], "num_clicks_accrued": [0, 0, 0, 0, 0, 0, 0, 0, 0, 0, 0, 0, 0], "stateRewards": ["", -1, 4, -6, -5, -22, -38, -38, -2, -56, 88, 14, -1, -1, -7, -6, 61, -60, 21, 11, 57, 31, -30, -2, -2, 6, -9, -44, -70, -44, -15, 34, 16, -78], "withholdReward": false, "trial_id": "mdp_trial_11", "block": "test", "trialIndex": 14, "score": 17.95, "costs": -15.05, "simulationMode": [null, null, null, null, null], "rewards": [-1, -1, -7, 11, 31], "path": ["0", "0", "12", "13", "14", "19", "21"], "rt": [31913, 341, 62, 20, 434], "actions": ["right", "right", "right", "down", "down"], "actionTimes": [35992, 36826, 37395, 37935, 38866], "queries": {"click": {"state": {"target": ["29", "17", "5", "21", "32", "11", "6"], "time": [5343, 10211, 14546, 18706, 22983, 27534, 31923]}, "edge": {"target": [], "time": []}}, "mouseover": {"state": {"target": ["23", "24", "25", "29", "27", "5", "17", "16", "5", "4", "15", "20", "21", "32", "24", "10", "11", "8", "4", "6"], "time": [4618, 4646, 4679, 5080, 8680, 9182, 9749, 13696, 14249, 17914, 18012, 18079, 18399, 22717, 26415, 26867, 27317, 31204, 31281, 31633]}, "edge": {"target": [], "time": []}}, "mouseout": {"state": {"target": ["29", "26", "23", "0", "12", "0", "0", "23", "24", "25", "29", "27", "5", "17", "16", "5", "5", "4", "15", "20", "21", "32", "24", "10", "11", "8", "4", "6", "1"], "time": [868, 896, 945, 1932, 2114, 3426, 4603, 4630, 4662, 4696, 8664, 8696, 9197, 10291, 13748, 14635, 17897, 17963, 18029, 18096, 22172, 25347, 26431, 26881, 31194, 31215, 31533, 35604, 40649]}, "edge": {"target": [], "time": []}}}, "displayed_time": "39.38", "trialTime": 40905, "trial_type": "mouselab-mdp", "trial_index": 25, "time_elapsed": 2417082, "internal_node_id": "0.0-6.0-1.0-10.0"}}, {"uniqueid": "w84095686:a23897869", "current_trial": 26, "dateTime": 1693483515007, "trialdata": {"revealed_states": [], "clicked_states": ["21", "5"], "num_clicks_accrued": [0, 0, 0, 0, 0, 0, 0, 0, 0, 0, 0, 0, 0], "stateRewards": ["", 2, -1, 5, 8, 75, -35, -77, 1, -9, -81, -58, 1, 2, -7, 5, 77, -16, 19, 16, -10, -18, 40, -2, 3, 7, -5, 64, 1, -62, 10, 27, 10, 65], "withholdReward": false, "trial_id": "mdp_trial_12", "block": "test", "trialIndex": 15, "score": 84.7, "costs": -4.3, "simulationMode": [null, null, null, null, null], "rewards": [2, -1, 5, 8, 75], "path": ["0", "0", "1", "2", "3", "4", "5"], "rt": [8994, 399, 192, 144, 127], "actions": ["up", "up", "up", "right", "up"], "actionTimes": [11519, 12421, 13128, 13780, 14430], "queries": {"click": {"state": {"target": ["21", "5"], "time": [3610, 7460]}, "edge": {"target": [], "time": []}}, "mouseover": {"state": {"target": ["22", "21", "19", "14", "15", "16", "4", "5"], "time": [2989, 3518, 4817, 4834, 4866, 4900, 6116, 6983]}, "edge": {"target": [], "time": []}}, "mouseout": {"state": {"target": ["0", "22", "21", "19", "14", "15", "16", "4"], "time": [2970, 3001, 4816, 4832, 4849, 4882, 4916, 6956]}, "edge": {"target": [], "time": []}}}, "displayed_time": "16.53", "trialTime": 17777, "trial_type": "mouselab-mdp", "trial_index": 26, "time_elapsed": 2435269, "internal_node_id": "0.0-6.0-1.0-11.0"}}, {"uniqueid": "w84095686:a23897869", "current_trial": 27, "dateTime": 1693483558075, "trialdata": {"revealed_states": [], "clicked_states": ["9", "29", "17", "32", "11", "21", "22"], "num_clicks_accrued": [0, 0, 0, 0, 0, 0, 0, 0, 0, 0, 0, 0, 0], "stateRewards": ["", -2, -3, 7, -13, 60, 9, 37, -6, 37, 20, 1, 2, -2, -8, 6, -80, -31, -10, -7, 70, -65, -44, -1, 1, 7, 6, -11, 73, -85, 16, -21, 47, 34], "withholdReward": false, "trial_id": "mdp_trial_13", "block": "test", "trialIndex": 16, "score": 54.95, "costs": -15.05, "simulationMode": [null, null, null, null, null], "rewards": [-1, 1, 7, 16, 47], "path": ["0", "0", "23", "24", "25", "30", "32"], "rt": [34010, 82, 601, 125, 129], "actions": ["left", "left", "left", "down", "down"], "actionTimes": [37005, 37611, 38729, 39354, 39975], "queries": {"click": {"state": {"target": ["9", "29", "17", "32", "11", "21", "22"], "time": [4167, 8503, 13556, 17702, 21847, 27532, 32695]}, "edge": {"target": [], "time": []}}, "mouseover": {"state": {"target": ["2", "3", "9", "8", "27", "29", "25", "26", "11", "11", "10", "17", "19", "32", "30", "25", "11", "21", "22", "14", "22"], "time": [3475, 3644, 3841, 7695, 8077, 8291, 11813, 11841, 12096, 12531, 12591, 13145, 17092, 17329, 21170, 21182, 21614, 27161, 31558, 31843, 32259]}, "edge": {"target": [], "time": []}}, "mouseout": {"state": {"target": ["5", "3", "7", "0", "0", "12", "0", "2", "3", "9", "8", "27", "29", "25", "26", "11", "11", "10", "17", "19", "32", "30", "25", "11", "21", "21", "21", "22", "14"], "time": [910, 941, 1641, 1740, 2075, 2360, 3432, 3507, 3808, 7692, 7791, 8091, 11575, 11825, 11874, 12243, 12575, 12608, 16995, 17159, 21156, 21179, 21192, 25410, 27629, 29925, 31530, 31608, 32178]}, "edge": {"target": [], "time": []}}}, "displayed_time": "40.49", "trialTime": 42802, "trial_type": "mouselab-mdp", "trial_index": 27, "time_elapsed": 2478337, "internal_node_id": "0.0-6.0-1.0-12.0"}}, {"uniqueid": "w84095686:a23897869", "current_trial": 28, "dateTime": 1693483584136, "trialdata": {"revealed_states": [], "clicked_states": ["32", "5", "17"], "num_clicks_accrued": [0, 0, 0, 0, 0, 0, 0, 0, 0, 0, 0, 0, 0], "stateRewards": ["", 1, 4, 5, 8, -55, -11, 8, 16, -37, 77, -22, -2, 3, -8, -10, 45, 87, -67, 4, 17, -33, -22, -1, -3, 7, 6, -39, -85, 75, -1, 7, -48, 45], "withholdReward": false, "trial_id": "mdp_trial_14", "block": "test", "trialIndex": 17, "score": 63.55, "costs": -6.449999999999999, "simulationMode": [null, null, null, null, null], "rewards": [-2, 3, -8, -10, 87], "path": ["0", "0", "12", "13", "14", "15", "17"], "rt": [16928, 414, 270, 101, 122], "actions": ["right", "right", "right", "up", "right"], "actionTimes": [20922, 21858, 22630, 23244, 23883], "queries": {"click": {"state": {"target": ["32", "5", "17"], "time": [5701, 10849, 15907]}, "edge": {"target": [], "time": []}}, "mouseover": {"state": {"target": ["23", "31", "32", "24", "28", "8", "9", "8", "11", "27", "10", "18", "15", "17", "17", "20", "14", "6", "5", "6", "4", "6", "17", "18", "27"], "time": [4778, 4856, 5312, 6690, 6710, 6736, 7340, 7925, 7945, 7989, 8490, 8573, 8918, 8941, 9325, 9975, 10041, 10106, 10461, 14290, 15126, 15257, 15660, 16409, 17390]}, "edge": {"target": [], "time": []}}, "mouseout": {"state": {"target": ["22", "13", "1", "23", "31", "32", "24", "28", "8", "9", "8", "11", "27", "10", "18", "15", "17", "17", "20", "14", "6", "5", "6", "4", "6", "17", "18", "27"], "time": [882, 906, 2591, 4807, 4889, 5793, 6707, 6734, 6757, 7392, 7942, 7957, 8474, 8507, 8907, 8940, 8956, 9775, 10023, 10056, 10274, 14261, 15113, 15242, 15274, 16007, 16423, 17423]}, "edge": {"target": [], "time": []}}}, "displayed_time": "24.38", "trialTime": 25793, "trial_type": "mouselab-mdp", "trial_index": 28, "time_elapsed": 2504398, "internal_node_id": "0.0-6.0-1.0-13.0"}}, {"uniqueid": "w84095686:a23897869", "current_trial": 29, "dateTime": 1693483605692, "trialdata": {"revealed_states": [], "clicked_states": ["17", "29", "9"], "num_clicks_accrued": [0, 0, 0, 0, 0, 0, 0, 0, 0, 0, 0, 0, 0], "stateRewards": ["", 2, 1, -3, 7, 46, 11, -36, 16, 71, 5, 1, 2, -2, -8, -3, -4, 6, 55, 7, 68, -54, 2, 1, 1, 6, -6, 42, -4, -84, -11, -65, 63, 25], "withholdReward": false, "trial_id": "mdp_trial_15", "block": "test", "trialIndex": 18, "score": 80.55, "costs": -6.449999999999999, "simulationMode": [null, null, null, null, null], "rewards": [2, 1, -3, 16, 71], "path": ["0", "0", "1", "2", "3", "8", "9"], "rt": [14325, 383, 196, 77, 49], "actions": ["up", "up", "up", "left", "up"], "actionTimes": [16777, 17694, 18407, 18987, 19544], "queries": {"click": {"state": {"target": ["17", "29", "9"], "time": [4667, 9499, 12989]}, "edge": {"target": [], "time": []}}, "mouseover": {"state": {"target": ["12", "13", "14", "17", "12", "11", "27", "29", "9"], "time": [3210, 3226, 3257, 4346, 7976, 8758, 8958, 9293, 12747]}, "edge": {"target": [], "time": []}}, "mouseout": {"state": {"target": ["26", "0", "12", "13", "14", "17", "12", "11", "27", "29"], "time": [1493, 1941, 3224, 3240, 3274, 5776, 7992, 8791, 9091, 11474]}, "edge": {"target": [], "time": []}}}, "displayed_time": "20.06", "trialTime": 21282, "trial_type": "mouselab-mdp", "trial_index": 29, "time_elapsed": 2525954, "internal_node_id": "0.0-6.0-1.0-14.0"}}, {"uniqueid": "w84095686:a23897869", "current_trial": 30, "dateTime": 1693483623368, "trialdata": {"revealed_states": [], "clicked_states": ["32", "21"], "num_clicks_accrued": [0, 0, 0, 0, 0, 0, 0, 0, 0, 0, 0, 0, 0], "stateRewards": ["", 2, 3, -3, 12, -43, 81, -82, -15, 58, -7, -75, -1, -1, 3, -5, 50, -25, -8, 4, 66, 65, -66, 2, -4, 2, -1, -10, 10, 37, 11, 88, -37, 8], "withholdReward": false, "trial_id": "mdp_trial_16", "block": "test", "trialIndex": 19, "score": 65.7, "costs": -4.3, "simulationMode": [null, null, null, null, null], "rewards": [-1, -1, 3, 4, 65], "path": ["0", "0", "12", "13", "14", "19", "21"], "rt": [10921, 26, 37, 425, 153], "actions": ["right", "right", "right", "down", "down"], "actionTimes": [12935, 13479, 14021, 14960, 15606], "queries": {"click": {"state": {"target": ["32", "21"], "time": [4816, 9089]}, "edge": {"target": [], "time": []}}, "mouseover": {"state": {"target": ["1", "2", "5", "5", "4", "7", "1", "32", "21"], "time": [2472, 2487, 2869, 3303, 3750, 3768, 3816, 4687, 8838]}, "edge": {"target": [], "time": []}}, "mouseout": {"state": {"target": ["9", "3", "1", "1", "2", "5", "5", "4", "7", "1", "32", "21", "21"], "time": [918, 982, 1468, 2484, 2499, 3137, 3734, 3766, 3782, 3832, 8271, 12535, 17219]}, "edge": {"target": [], "time": []}}}, "displayed_time": "16.10", "trialTime": 17400, "trial_type": "mouselab-mdp", "trial_index": 30, "time_elapsed": 2543630, "internal_node_id": "0.0-6.0-1.0-15.0"}}, {"uniqueid": "w84095686:a23897869", "current_trial": 31, "dateTime": 1693483645945, "trialdata": {"revealed_states": [], "clicked_states": ["16", "27"], "num_clicks_accrued": [0, 0, 0, 0, 0, 0, 0, 0, 0, 0, 0, 0, 0], "stateRewards": ["", -1, 3, 2, 9, 41, 4, -46, -12, -54, -87, -25, 2, 3, -1, 11, -77, 12, -33, -9, -32, 35, 72, 1, 3, -7, 4, 37, 65, -73, 6, 77, -43, 8], "withholdReward": false, "trial_id": "mdp_trial_17", "block": "test", "trialIndex": 20, "score": 12.7, "costs": -4.3, "simulationMode": [null, null, null, null, null], "rewards": [-1, 3, 2, 9, 4], "path": ["0", "0", "1", "2", "3", "4", "6"], "rt": [15467, 454, 189, 418, 150], "actions": ["up", "up", "up", "right", "right"], "actionTimes": [17367, 18336, 19020, 19932, 20597], "queries": {"click": {"state": {"target": ["16", "27"], "time": [3558, 8216]}, "edge": {"target": [], "time": []}}, "mouseover": {"state": {"target": ["22", "19", "14", "15", "16", "16", "28", "26", "29", "27", "18", "17", "16", "17", "6"], "time": [2478, 2765, 2860, 2879, 2960, 3380, 7312, 7329, 7361, 7766, 12764, 13128, 13297, 13947, 14531]}, "edge": {"target": [], "time": []}}, "mouseout": {"state": {"target": ["21", "0", "22", "19", "14", "15", "16", "16", "16", "28", "26", "29", "27", "18", "17", "16", "17", "6"], "time": [882, 2417, 2511, 2794, 2877, 2911, 3061, 3624, 7269, 7328, 7344, 7377, 12297, 12780, 13145, 13430, 14046, 15584]}, "edge": {"target": [], "time": []}}}, "displayed_time": "21.11", "trialTime": 22303, "trial_type": "mouselab-mdp", "trial_index": 31, "time_elapsed": 2566207, "internal_node_id": "0.0-6.0-1.0-16.0"}}, {"uniqueid": "w84095686:a23897869", "current_trial": 32, "dateTime": 1693483663492, "trialdata": {"revealed_states": [], "clicked_states": ["32"], "num_clicks_accrued": [0, 0, 0, 0, 0, 0, 0, 0, 0, 0, 0, 0, 0], "stateRewards": ["", -2, 2, -1, -6, 22, 6, 6, -5, 70, -42, 65, 1, 3, 5, -6, -67, -9, 3, 14, 7, -62, -13, -2, 4, 1, 16, 42, -21, -52, -8, 32, 53, 81], "withholdReward": false, "trial_id": "mdp_trial_18", "block": "test", "trialIndex": 21, "score": 45.85, "costs": -2.15, "simulationMode": [null, null, null, null, null], "rewards": [-2, 4, 1, -8, 53], "path": ["0", "0", "23", "24", "25", "30", "32"], "rt": [6691, 74, 17, 254, 87], "actions": ["left", "left", "left", "down", "down"], "actionTimes": [9156, 9743, 10268, 11039, 11639], "queries": {"click": {"state": {"target": ["32"], "time": [4472]}, "edge": {"target": [], "time": []}}, "mouseover": {"state": {"target": ["32", "31"], "time": [4272, 7835]}, "edge": {"target": [], "time": []}}, "mouseout": {"state": {"target": ["1", "23", "23", "1", "0", "32"], "time": [804, 882, 1070, 1149, 4004, 4556]}, "edge": {"target": [], "time": []}}}, "displayed_time": "16.46", "trialTime": 17270, "trial_type": "mouselab-mdp", "trial_index": 32, "time_elapsed": 2583754, "internal_node_id": "0.0-6.0-1.0-17.0"}}, {"uniqueid": "w84095686:a23897869", "current_trial": 33, "dateTime": 1693483697890, "trialdata": {"revealed_states": [], "clicked_states": ["31", "22", "20", "16", "18", "28"], "num_clicks_accrued": [0, 0, 0, 0, 0, 0, 0, 0, 0, 0, 0, 0, 0], "stateRewards": ["", 1, 2, -6, -13, -51, 22, -4, -12, -44, -12, 6, -2, -2, -2, -14, -46, -4, -77, -2, 36, -79, 41, 2, -4, 2, -6, -55, 59, 70, -5, 39, -19, 24], "withholdReward": false, "trial_id": "mdp_trial_19", "block": "test", "trialIndex": 22, "score": 40.1, "costs": -12.9, "simulationMode": [null, null, null, null, null], "rewards": [2, -4, 2, -6, 59], "path": ["0", "0", "23", "24", "25", "26", "28"], "rt": [27572, 90, 297, 49, 120], "actions": ["left", "left", "left", "up", "right"], "actionTimes": [29816, 30409, 31196, 31764, 32419], "queries": {"click": {"state": {"target": ["31", "22", "20", "16", "18", "28"], "time": [3240, 7660, 12844, 18075, 21976, 25837]}, "edge": {"target": [], "time": []}}, "mouseover": {"state": {"target": ["0", "31", "22", "19", "22", "19", "20", "21", "13", "18", "16", "18", "1", "28"], "time": [2601, 2963, 4162, 7081, 7450, 11732, 12531, 16934, 17096, 17130, 17919, 21535, 25330, 25751]}, "edge": {"target": [], "time": []}}, "mouseout": {"state": {"target": ["31", "0", "0", "31", "22", "19", "22", "19", "20", "21", "13", "18", "16", "18", "1", "28", "24"], "time": [1366, 1697, 2646, 4079, 4195, 7113, 7778, 12314, 16782, 17064, 17113, 17146, 21366, 25300, 25346, 33768, 33900]}, "edge": {"target": [], "time": []}}}, "displayed_time": "32.92", "trialTime": 34013, "trial_type": "mouselab-mdp", "trial_index": 33, "time_elapsed": 2618152, "internal_node_id": "0.0-6.0-1.0-18.0"}}, {"uniqueid": "w84095686:a23897869", "current_trial": 34, "dateTime": 1693483716452, "trialdata": {"revealed_states": [], "clicked_states": ["27", "32"], "num_clicks_accrued": [0, 0, 0, 0, 0, 0, 0, 0, 0, 0, 0, 0, 0], "stateRewards": ["", -2, -4, 6, 14, -34, 49, 36, -8, -3, 32, -4, 1, -2, 1, -8, -20, -71, -57, -7, -86, -62, -16, -2, -3, -5, 11, 23, -21, 53, 5, -5, 85, 73], "withholdReward": false, "trial_id": "mdp_trial_20", "block": "test", "trialIndex": 23, "score": 75.7, "costs": -4.3, "simulationMode": [null, null, null, null, null], "rewards": [-2, -3, -5, 5, 85], "path": ["0", "0", "23", "24", "25", "30", "32"], "rt": [10089, 66, 307, 249, 262], "actions": ["left", "left", "left", "down", "down"], "actionTimes": [13215, 13779, 14586, 15348, 16126], "queries": {"click": {"state": {"target": ["27", "32"], "time": [6063, 9349]}, "edge": {"target": [], "time": []}}, "mouseover": {"state": {"target": ["28", "26", "29", "26", "28", "27", "26", "25", "30", "32", "32", "30", "8", "9", "9"], "time": [3666, 4228, 4312, 4845, 4911, 5314, 6297, 6313, 6360, 6464, 6811, 10363, 10428, 10446, 10962]}, "edge": {"target": [], "time": []}}, "mouseout": {"state": {"target": ["24", "23", "0", "0", "28", "26", "29", "26", "28", "27", "26", "25", "30", "32", "32", "30", "8", "9", "9"], "time": [765, 779, 927, 2528, 4211, 4262, 4814, 4895, 4928, 6295, 6311, 6345, 6394, 6561, 10361, 10378, 10444, 10477, 12713]}, "edge": {"target": [], "time": []}}}, "displayed_time": "17.13", "trialTime": 18071, "trial_type": "mouselab-mdp", "trial_index": 34, "time_elapsed": 2636713, "internal_node_id": "0.0-6.0-1.0-19.0"}}, {"uniqueid": "w84095686:a23897869", "current_trial": 35, "dateTime": 1693483751615, "trialdata": {"revealed_states": [], "clicked_states": ["28", "31", "22", "6", "11", "10", "7"], "num_clicks_accrued": [0, 0, 0, 0, 0, 0, 0, 0, 0, 0, 0, 0, 0], "stateRewards": ["", -2, -3, 1, -7, 39, -67, 16, 5, -20, 73, 66, -1, 4, 5, -3, 23, -68, -87, -8, 3, -3, 17, 1, -4, -2, -13, -32, 34, 61, -5, -11, -18, 12], "withholdReward": false, "trial_id": "mdp_trial_21", "block": "test", "trialIndex": 24, "score": 58.95, "costs": -15.05, "simulationMode": [null, null, null, null, null], "rewards": [-2, -3, 1, 5, 73], "path": ["0", "0", "1", "2", "3", "8", "10"], "rt": [27229, 488, 216, 145, 27], "actions": ["up", "up", "up", "left", "down"], "actionTimes": [30226, 31230, 31957, 32620, 33152], "queries": {"click": {"state": {"target": ["28", "31", "22", "6", "11", "10", "7"], "time": [4125, 7448, 11130, 15273, 18917, 22645, 26945]}, "edge": {"target": [], "time": []}}, "mouseover": {"state": {"target": ["28", "24", "31", "12", "13", "22", "13", "18", "6", "4", "8", "11", "10", "10", "2", "7"], "time": [3760, 4673, 4721, 8521, 8554, 10941, 14522, 14570, 14908, 18324, 18522, 18741, 21856, 22026, 26339, 26608]}, "edge": {"target": [], "time": []}}, "mouseout": {"state": {"target": ["3", "7", "2", "10", "10", "1", "0", "28", "24", "31", "12", "13", "22", "13", "18", "6", "4", "8", "11", "10", "10", "2"], "time": [1072, 1205, 1221, 1287, 1955, 1970, 2605, 4671, 4704, 8471, 8537, 8571, 14505, 14554, 14621, 15329, 18340, 18556, 21809, 21872, 26312, 26372]}, "edge": {"target": [], "time": []}}}, "displayed_time": "33.66", "trialTime": 34744, "trial_type": "mouselab-mdp", "trial_index": 35, "time_elapsed": 2671877, "internal_node_id": "0.0-6.0-1.0-20.0"}}, {"uniqueid": "w84095686:a23897869", "current_trial": 36, "dateTime": 1693483769000, "trialdata": {"revealed_states": [], "clicked_states": ["5"], "num_clicks_accrued": [0, 0, 0, 0, 0, 0, 0, 0, 0, 0, 0, 0, 0], "stateRewards": ["", -1, 1, 6, -6, 70, 66, 67, -16, -75, -35, 37, -1, 4, 4, -6, 47, -9, 63, 15, 21, -63, 13, 1, 3, -6, 10, 79, -29, 18, -15, 9, -67, -19], "withholdReward": false, "trial_id": "mdp_trial_22", "block": "test", "trialIndex": 25, "score": 67.85, "costs": -2.15, "simulationMode": [null, null, null, null, null], "rewards": [-1, 1, 6, -6, 70], "path": ["0", "0", "1", "2", "3", "4", "5"], "rt": [6862, 242, 399, 207, 151], "actions": ["up", "up", "up", "right", "up"], "actionTimes": [9216, 9975, 10865, 11573, 12216], "queries": {"click": {"state": {"target": ["5"], "time": [5214]}, "edge": {"target": [], "time": []}}, "mouseover": {"state": {"target": ["1", "2", "4", "6", "5", "4", "7"], "time": [2903, 2929, 3282, 3646, 4229, 7646, 7930]}, "edge": {"target": [], "time": []}}, "mouseout": {"state": {"target": ["7", "17", "14", "12", "1", "2", "4", "6", "5", "4"], "time": [768, 847, 963, 1631, 2915, 3115, 3297, 3898, 7580, 7830]}, "edge": {"target": [], "time": []}}}, "displayed_time": "16.36", "trialTime": 17086, "trial_type": "mouselab-mdp", "trial_index": 36, "time_elapsed": 2689262, "internal_node_id": "0.0-6.0-1.0-21.0"}}, {"uniqueid": "w84095686:a23897869", "current_trial": 37, "dateTime": 1693483785890, "trialdata": {"revealed_states": [], "clicked_states": [], "num_clicks_accrued": [0, 0, 0, 0, 0, 0, 0, 0, 0, 0, 0, 0, 0], "stateRewards": ["", -1, 2, -6, 6, -82, -19, -39, -16, -83, 11, -33, -2, -2, 4, -6, -82, -1, -19, -6, -10, -67, -41, -2, 1, -7, 16, -23, -78, -52, 14, 31, -71, 74], "withholdReward": false, "trial_id": "mdp_trial_23", "block": "test", "trialIndex": 26, "score": -70, "costs": 0, "simulationMode": [null, null, null, null, null], "rewards": [-2, 1, -7, 16, -78], "path": ["0", "0", "23", "24", "25", "26", "28"], "rt": [7376, 31, 168, 369, 514], "actions": ["left", "left", "left", "up", "right"], "actionTimes": [8844, 9381, 10051, 10920, 11947], "queries": {"click": {"state": {"target": [], "time": []}, "edge": {"target": [], "time": []}}, "mouseover": {"state": {"target": ["4", "4", "3", "4", "7", "2", "10", "8", "8", "11", "4", "7"], "time": [1948, 2345, 3035, 3432, 3864, 4683, 4765, 4848, 5150, 5832, 5931, 5997]}, "edge": {"target": [], "time": []}}, "mouseout": {"state": {"target": ["7", "0", "23", "0", "4", "4", "3", "4", "7", "2", "10", "8", "8", "11", "4", "7"], "time": [668, 749, 1051, 1876, 2238, 2851, 3418, 3833, 4585, 4731, 4799, 4864, 5282, 5849, 5964, 6048]}, "edge": {"target": [], "time": []}}}, "displayed_time": "15.47", "trialTime": 16573, "trial_type": "mouselab-mdp", "trial_index": 37, "time_elapsed": 2706150, "internal_node_id": "0.0-6.0-1.0-22.0"}}, {"uniqueid": "w84095686:a23897869", "current_trial": 38, "dateTime": 1693483802730, "trialdata": {"revealed_states": [], "clicked_states": ["17"], "num_clicks_accrued": [0, 0, 0, 0, 0, 0, 0, 0, 0, 0, 0, 0, 0], "stateRewards": ["", -1, -3, 4, -10, -5, 79, -87, -2, 53, 29, -20, -2, -1, -5, 10, 27, 86, 46, -16, -29, 40, 3, 2, 4, -1, -6, 37, 79, -29, 7, 86, -62, 29], "withholdReward": false, "trial_id": "mdp_trial_24", "block": "test", "trialIndex": 27, "score": 85.85, "costs": -2.15, "simulationMode": [null, null, null, null, null], "rewards": [-2, -1, -5, 10, 86], "path": ["0", "0", "12", "13", "14", "15", "17"], "rt": [5820, 42, 141, 13, 367], "actions": ["right", "right", "right", "up", "right"], "actionTimes": [7583, 8130, 8761, 9265, 10153], "queries": {"click": {"state": {"target": ["17"], "time": [3706]}, "edge": {"target": [], "time": []}}, "mouseover": {"state": {"target": ["18", "17", "19"], "time": [2702, 3571, 7255]}, "edge": {"target": [], "time": []}}, "mouseout": {"state": {"target": ["1", "0", "0", "18", "17"], "time": [1119, 1302, 1608, 2884, 6639]}, "edge": {"target": [], "time": []}}}, "displayed_time": "15.77", "trialTime": 16451, "trial_type": "mouselab-mdp", "trial_index": 38, "time_elapsed": 2722991, "internal_node_id": "0.0-6.0-1.0-23.0"}}, {"uniqueid": "w84095686:a23897869", "current_trial": 39, "dateTime": 1693483847158, "trialdata": {"revealed_states": [], "clicked_states": ["18", "28", "10", "7", "21", "32", "31", "33", "29"], "num_clicks_accrued": [0, 0, 0, 0, 0, 0, 0, 0, 0, 0, 0, 0, 0], "stateRewards": ["", 1, -4, 6, -3, 40, 76, -51, 5, -24, -63, 44, -2, -2, 8, 1, 76, -85, -58, 10, 59, 20, 11, -2, 3, -3, 3, -82, -10, 54, -7, -57, -6, -32], "withholdReward": false, "trial_id": "mdp_trial_25", "block": "test", "trialIndex": 28, "score": 35.650000000000006, "costs": -19.349999999999998, "simulationMode": [null, null, null, null, null], "rewards": [-2, 3, -3, 3, 54], "path": ["0", "0", "23", "24", "25", "26", "29"], "rt": [36366, 380, 180, 90, 398], "actions": ["left", "left", "left", "up", "left"], "actionTimes": [39519, 40400, 41100, 41710, 42619], "queries": {"click": {"state": {"target": ["18", "28", "10", "7", "21", "32", "31", "33", "29"], "time": [5195, 9109, 12551, 15783, 19590, 23635, 27358, 31147, 35232]}, "edge": {"target": [], "time": []}}, "mouseover": {"state": {"target": ["12", "13", "14", "13", "18", "28", "10", "10", "2", "7", "7", "13", "21", "32", "31", "30", "33", "29", "29"], "time": [3491, 3517, 3565, 3750, 3967, 8937, 11816, 12185, 14449, 14499, 14916, 18949, 19284, 23452, 27000, 30816, 30917, 34600, 35069]}, "edge": {"target": [], "time": []}}, "mouseout": {"state": {"target": ["19", "21", "0", "12", "13", "14", "13", "18", "28", "10", "10", "2", "7", "7", "13", "21", "32", "31", "30", "33", "29"], "time": [1402, 1432, 3470, 3506, 3532, 3722, 3899, 6733, 11533, 11933, 14433, 14483, 14516, 18350, 18966, 23021, 26956, 30768, 30867, 34558, 34617]}, "edge": {"target": [], "time": []}}}, "displayed_time": "43.14", "trialTime": 44127, "trial_type": "mouselab-mdp", "trial_index": 39, "time_elapsed": 2767420, "internal_node_id": "0.0-6.0-1.0-24.0"}}, {"uniqueid": "w84095686:a23897869", "current_trial": 40, "dateTime": 1693483875120, "trialdata": {"revealed_states": [], "clicked_states": ["7", "10", "9", "5", "17"], "num_clicks_accrued": [0, 0, 0, 0, 0, 0, 0, 0, 0, 0, 0, 0, 0], "stateRewards": ["", -2, -3, -7, 7, -54, -69, -4, -14, -77, 22, 40, -2, -1, 5, 6, -35, 50, -60, 10, -28, 75, 57, 1, -4, -2, 2, 68, 34, -18, 12, 3, -21, -43], "withholdReward": false, "trial_id": "mdp_trial_26", "block": "test", "trialIndex": 29, "score": 47.25, "costs": -10.75, "simulationMode": [null, null, null, null, null], "rewards": [-2, -1, 5, 6, 50], "path": ["0", "0", "12", "13", "14", "15", "17"], "rt": [21098, 416, 213, 61, 274], "actions": ["right", "right", "right", "up", "right"], "actionTimes": [23227, 24166, 24896, 25459, 26238], "queries": {"click": {"state": {"target": ["7", "10", "9", "5", "17"], "time": [4170, 7442, 11576, 14801, 18654]}, "edge": {"target": [], "time": []}}, "mouseover": {"state": {"target": ["12", "1", "7", "2", "10", "9", "9", "5", "17", "17"], "time": [2828, 3536, 3763, 5312, 5395, 11028, 11362, 13979, 17965, 18430]}, "edge": {"target": [], "time": []}}, "mouseout": {"state": {"target": ["29", "2", "7", "18", "13", "0", "12", "1", "7", "2", "10", "9", "9", "5", "5", "17", "17", "13"], "time": [831, 911, 962, 1327, 1413, 2785, 3162, 3594, 5295, 5345, 10998, 11045, 13913, 14853, 17546, 17980, 27320, 27413]}, "edge": {"target": [], "time": []}}}, "displayed_time": "26.75", "trialTime": 27666, "trial_type": "mouselab-mdp", "trial_index": 40, "time_elapsed": 2795381, "internal_node_id": "0.0-6.0-1.0-25.0"}}, {"uniqueid": "w84095686:a23897869", "current_trial": 41, "dateTime": 1693483902703, "trialdata": {"revealed_states": [], "clicked_states": ["22", "33", "29", "10", "7"], "num_clicks_accrued": [0, 0, 0, 0, 0, 0, 0, 0, 0, 0, 0, 0, 0], "stateRewards": ["", -2, -3, 1, -14, 48, -49, 67, -1, -35, -48, 3, -2, 1, -4, -5, 86, -84, 39, 1, 48, 41, -42, -1, -4, 2, -7, 18, -86, 17, 7, -9, 57, -69], "withholdReward": false, "trial_id": "mdp_trial_27", "block": "test", "trialIndex": 30, "score": 38.25, "costs": -10.75, "simulationMode": [null, null, null, null, null], "rewards": [-2, -3, 1, -14, 67], "path": ["0", "0", "1", "2", "3", "4", "7"], "rt": [20237, 103, 44, 18, 100], "actions": ["up", "up", "up", "right", "down"], "actionTimes": [23505, 24108, 24649, 25173, 25788], "queries": {"click": {"state": {"target": ["22", "33", "29", "10", "7"], "time": [5825, 9312, 12833, 16367, 19527]}, "edge": {"target": [], "time": []}}, "mouseover": {"state": {"target": ["22", "21", "21", "22", "31", "30", "33", "33", "29", "27", "11", "11", "8", "10", "2", "7"], "time": [3702, 4135, 4306, 5052, 7701, 7734, 8185, 9104, 12470, 13568, 13652, 14819, 14851, 15652, 17119, 17719]}, "edge": {"target": [], "time": []}}, "mouseout": {"state": {"target": ["0", "22", "21", "21", "22", "31", "30", "33", "33", "29", "27", "11", "11", "8", "10", "2"], "time": [3648, 3736, 4152, 4952, 7101, 7717, 7768, 8617, 10702, 12989, 13602, 13885, 14835, 14885, 17103, 17269]}, "edge": {"target": [], "time": []}}}, "displayed_time": "26.29", "trialTime": 27271, "trial_type": "mouselab-mdp", "trial_index": 41, "time_elapsed": 2822964, "internal_node_id": "0.0-6.0-1.0-26.0"}}, {"uniqueid": "w84095686:a23897869", "current_trial": 42, "dateTime": 1693483922019, "trialdata": {"revealed_states": [], "clicked_states": ["5"], "num_clicks_accrued": [0, 0, 0, 0, 0, 0, 0, 0, 0, 0, 0, 0, 0], "stateRewards": ["", 2, 3, 8, 14, 69, -27, 17, 2, -71, -65, -10, 2, -3, 7, 8, 65, -10, 65, -12, 73, -12, 13, -2, -2, 6, 10, -79, -69, -18, 10, -85, 67, 74], "withholdReward": false, "trial_id": "mdp_trial_28", "block": "test", "trialIndex": 31, "score": 93.85, "costs": -2.15, "simulationMode": [null, null, null, null, null], "rewards": [2, 3, 8, 14, 69], "path": ["0", "0", "1", "2", "3", "4", "5"], "rt": [5769, 374, 1024, 2975, 513], "actions": ["up", "up", "up", "right", "up"], "actionTimes": [9117, 9991, 11526, 15007, 16029], "queries": {"click": {"state": {"target": ["5"], "time": [4574]}, "edge": {"target": [], "time": []}}, "mouseover": {"state": {"target": ["4", "5", "6"], "time": [3885, 4282, 8017]}, "edge": {"target": [], "time": []}}, "mouseout": {"state": {"target": ["7", "6", "4", "5", "18", "0", "0", "4", "5", "6"], "time": [799, 1032, 1485, 2231, 2548, 2730, 2996, 3898, 7698, 8148]}, "edge": {"target": [], "time": []}}}, "displayed_time": "17.35", "trialTime": 18996, "trial_type": "mouselab-mdp", "trial_index": 42, "time_elapsed": 2842281, "internal_node_id": "0.0-6.0-1.0-27.0"}}, {"uniqueid": "w84095686:a23897869", "current_trial": 43, "dateTime": 1693483948223, "trialdata": {"revealed_states": [], "clicked_states": ["6", "17"], "num_clicks_accrued": [0, 0, 0, 0, 0, 0, 0, 0, 0, 0, 0, 0, 0], "stateRewards": ["", -2, -4, 2, 10, -17, 18, 73, 11, -32, 23, -13, -2, -4, 7, 12, -25, 66, -23, 15, 40, -76, -9, 1, 2, -7, -5, -20, 24, 3, -5, 16, -73, 70], "withholdReward": false, "trial_id": "mdp_trial_29", "block": "test", "trialIndex": 32, "score": 74.7, "costs": -4.3, "simulationMode": [null, null, null, null, null], "rewards": [-2, -4, 7, 12, 66], "path": ["0", "0", "12", "13", "14", "15", "17"], "rt": [11568, 1766, 3061, 1227, 607], "actions": ["right", "right", "right", "up", "right"], "actionTimes": [15102, 17364, 20941, 22674, 23788], "queries": {"click": {"state": {"target": ["6", "17"], "time": [5367, 10992]}, "edge": {"target": [], "time": []}}, "mouseover": {"state": {"target": ["6", "16", "17"], "time": [4730, 10315, 10762]}, "edge": {"target": [], "time": []}}, "mouseout": {"state": {"target": ["7", "6", "16"], "time": [2462, 10304, 10328]}, "edge": {"target": [], "time": []}}}, "displayed_time": "24.28", "trialTime": 25879, "trial_type": "mouselab-mdp", "trial_index": 43, "time_elapsed": 2868484, "internal_node_id": "0.0-6.0-1.0-28.0"}}, {"uniqueid": "w84095686:a23897869", "current_trial": 44, "dateTime": 1693483976302, "trialdata": {"revealed_states": [], "clicked_states": ["32", "33", "29", "28"], "num_clicks_accrued": [0, 0, 0, 0, 0, 0, 0, 0, 0, 0, 0, 0, 0], "stateRewards": ["", -2, -2, -3, -6, -15, -11, 41, -12, -63, -76, 2, -2, -3, 8, 9, -36, -2, -18, -16, -32, -85, -17, -2, 1, 5, -16, 82, 35, -88, -1, 80, -82, -20], "withholdReward": false, "trial_id": "mdp_trial_30", "block": "test", "trialIndex": 33, "score": 14.399999999999999, "costs": -8.6, "simulationMode": [null, null, null, null, null], "rewards": [-2, 1, 5, -16, 35], "path": ["0", "0", "23", "24", "25", "26", "28"], "rt": [18133, 1174, 951, 549, 992], "actions": ["left", "left", "left", "up", "right"], "actionTimes": [20585, 22258, 23717, 24782, 26276], "queries": {"click": {"state": {"target": ["32", "33", "29", "28"], "time": [3399, 7408, 11354, 14963]}, "edge": {"target": [], "time": []}}, "mouseover": {"state": {"target": ["0", "32", "33", "29", "26", "28", "28", "11", "11"], "time": [2870, 3316, 6882, 11198, 14400, 14445, 14682, 19030, 19397]}, "edge": {"target": [], "time": []}}, "mouseout": {"state": {"target": ["17", "12", "23", "12", "0", "0", "32", "33", "29", "26", "28", "28", "11"], "time": [711, 795, 1232, 1729, 2012, 2888, 3506, 10775, 14386, 14430, 14496, 19000, 19046]}, "edge": {"target": [], "time": []}}}, "displayed_time": "26.78", "trialTime": 27760, "trial_type": "mouselab-mdp", "trial_index": 44, "time_elapsed": 2896564, "internal_node_id": "0.0-6.0-1.0-29.0"}}, {"uniqueid": "w84095686:a23897869", "current_trial": 45, "dateTime": 1693484009483, "trialdata": {"revealed_states": [], "clicked_states": ["11", "6", "17", "29", "32", "21", "22"], "num_clicks_accrued": [0, 0, 0, 0, 0, 0, 0, 0, 0, 0, 0, 0, 0], "stateRewards": ["", 1, 2, -3, -5, 66, -50, -47, -5, 1, 28, -27, 1, 1, -1, -6, 37, -25, 56, 1, -82, -66, -40, -1, -4, -7, 15, -61, -23, 26, 10, 14, -56, 29], "withholdReward": false, "trial_id": "mdp_trial_31", "block": "test", "trialIndex": 34, "score": 13.95, "costs": -15.05, "simulationMode": [null, null, null, null, null], "rewards": [-1, -4, -7, 15, 26], "path": ["0", "0", "23", "24", "25", "26", "29"], "rt": [25550, 63, 79, 125, 91], "actions": ["left", "left", "left", "up", "left"], "actionTimes": [28897, 29478, 30074, 30688, 31288], "queries": {"click": {"state": {"target": ["11", "6", "17", "29", "32", "21", "22"], "time": [4245, 7578, 10771, 14352, 17589, 20958, 24369]}, "edge": {"target": [], "time": []}}, "mouseover": {"state": {"target": ["10", "11", "8", "3", "4", "6", "16", "17", "17", "18", "1", "29", "29", "32", "22", "19", "20", "20", "21", "22"], "time": [3617, 4093, 6776, 6811, 6859, 6943, 9793, 9843, 10393, 11260, 11293, 12810, 13310, 15543, 18176, 18195, 18211, 18827, 20360, 22110]}, "edge": {"target": [], "time": []}}, "mouseout": {"state": {"target": ["11", "27", "27", "11", "8", "3", "2", "1", "1", "4", "7", "0", "10", "11", "8", "3", "4", "6", "16", "17", "17", "18", "1", "29", "29", "32", "22", "19", "20", "20", "21"], "time": [1160, 1292, 1577, 1608, 1642, 2229, 2258, 2308, 2426, 2625, 2642, 2977, 3628, 4337, 6809, 6842, 6909, 9777, 9809, 9910, 11243, 11277, 11310, 12860, 14993, 18127, 18194, 18210, 18227, 18877, 21015]}, "edge": {"target": [], "time": []}}}, "displayed_time": "31.80", "trialTime": 32852, "trial_type": "mouselab-mdp", "trial_index": 45, "time_elapsed": 2929744, "internal_node_id": "0.0-6.0-1.0-30.0"}}, {"uniqueid": "w84095686:a23897869", "current_trial": 46, "dateTime": 1693484027134, "trialdata": {"revealed_states": [], "clicked_states": ["7", "10"], "num_clicks_accrued": [0, 0, 0, 0, 0, 0, 0, 0, 0, 0, 0, 0, 0], "stateRewards": ["", -1, 3, -5, -2, -13, -9, -34, -7, -81, 32, 35, -2, -2, 1, -14, -32, 81, 7, 4, 82, 56, -8, -1, 3, -8, 6, -24, -24, -53, 2, 38, 61, 54], "withholdReward": false, "trial_id": "mdp_trial_32", "block": "test", "trialIndex": 35, "score": 17.7, "costs": -4.3, "simulationMode": [null, null, null, null, null], "rewards": [-1, 3, -5, -7, 32], "path": ["0", "0", "1", "2", "3", "8", "10"], "rt": [9272, 97, 360, 297, 344], "actions": ["up", "up", "up", "left", "down"], "actionTimes": [11830, 12446, 13324, 14111, 14976], "queries": {"click": {"state": {"target": ["7", "10"], "time": [4077, 7535]}, "edge": {"target": [], "time": []}}, "mouseover": {"state": {"target": ["12", "1", "7", "2", "10", "24", "28"], "time": [2878, 3266, 3629, 6478, 7398, 10262, 10629]}, "edge": {"target": [], "time": []}}, "mouseout": {"state": {"target": ["22", "16", "0", "23", "0", "12", "1", "7", "2", "10", "24"], "time": [881, 1479, 1810, 2112, 2859, 2891, 3514, 5811, 6495, 10178, 10583]}, "edge": {"target": [], "time": []}}}, "displayed_time": "16.56", "trialTime": 17320, "trial_type": "mouselab-mdp", "trial_index": 46, "time_elapsed": 2947396, "internal_node_id": "0.0-6.0-1.0-31.0"}}, {"uniqueid": "w84095686:a23897869", "current_trial": 47, "dateTime": 1693484050630, "trialdata": {"revealed_states": [], "clicked_states": ["27"], "num_clicks_accrued": [0, 0, 0, 0, 0, 0, 0, 0, 0, 0, 0, 0, 0], "stateRewards": ["", -1, -4, 8, 8, -68, 47, 24, -7, -61, 49, -69, -1, -1, 8, -7, 42, 1, -45, -11, 10, -63, -6, 1, 4, 6, -16, 79, -37, -58, -12, 81, 18, -53], "withholdReward": false, "trial_id": "mdp_trial_33", "block": "test", "trialIndex": 36, "score": 71.85, "costs": -2.15, "simulationMode": [null, null, null, null, null], "rewards": [1, 4, 6, -16, 79], "path": ["0", "0", "23", "24", "25", "26", "27"], "rt": [6969, 982, 742, 954, 5948], "actions": ["left", "left", "left", "up", "up"], "actionTimes": [11227, 12728, 13987, 15448, 21913], "queries": {"click": {"state": {"target": ["27"], "time": [5612]}, "edge": {"target": [], "time": []}}, "mouseover": {"state": {"target": ["23", "24", "26", "27", "26"], "time": [4847, 4877, 5110, 5158, 9025]}, "edge": {"target": [], "time": []}}, "mouseout": {"state": {"target": ["28", "23", "31", "31", "0", "23", "24", "26", "27", "27", "26"], "time": [862, 891, 1091, 2961, 3876, 4866, 4892, 5142, 5706, 8976, 9109]}, "edge": {"target": [], "time": []}}}, "displayed_time": "22.43", "trialTime": 23161, "trial_type": "mouselab-mdp", "trial_index": 47, "time_elapsed": 2970891, "internal_node_id": "0.0-6.0-1.0-32.0"}}, {"uniqueid": "w84095686:a23897869", "current_trial": 48, "dateTime": 1693484072229, "trialdata": {"revealed_states": [], "clicked_states": ["18", "10"], "num_clicks_accrued": [0, 0, 0, 0, 0, 0, 0, 0, 0, 0, 0, 0, 0], "stateRewards": ["", 1, -4, -6, -1, -21, 17, -72, 10, 77, 67, -46, -1, 4, -2, 14, -66, -49, -45, -15, -52, 23, -67, 2, -2, -2, 15, -3, 45, -64, 5, -44, 83, 61], "withholdReward": false, "trial_id": "mdp_trial_34", "block": "test", "trialIndex": 37, "score": 63.7, "costs": -4.3, "simulationMode": [null, null, null, null, null], "rewards": [1, -4, -6, 10, 67], "path": ["0", "0", "1", "2", "3", "8", "10"], "rt": [10512, 1387, 585, 382, 651], "actions": ["up", "up", "up", "left", "down"], "actionTimes": [14733, 16627, 17707, 18607, 19773], "queries": {"click": {"state": {"target": ["18", "10"], "time": [5261, 10478]}, "edge": {"target": [], "time": []}}, "mouseover": {"state": {"target": ["12", "15", "17", "17", "15", "15", "18", "28", "26", "28", "26", "16", "3", "8", "8", "10", "2", "7"], "time": [4542, 4585, 4619, 4719, 4871, 5019, 5136, 6019, 6069, 6919, 7152, 8887, 9208, 9638, 10205, 10236, 11937, 12803]}, "edge": {"target": [], "time": []}}, "mouseout": {"state": {"target": ["23", "22", "0", "12", "15", "17", "17", "15", "15", "18", "28", "26", "28", "26", "16", "3", "8", "8", "10", "2"], "time": [1186, 2052, 2121, 4559, 4602, 4669, 4786, 4904, 5037, 5969, 6035, 6886, 7086, 7470, 8904, 9221, 9937, 10220, 11920, 11953]}, "edge": {"target": [], "time": []}}}, "displayed_time": "20.27", "trialTime": 21253, "trial_type": "mouselab-mdp", "trial_index": 48, "time_elapsed": 2992491, "internal_node_id": "0.0-6.0-1.0-33.0"}}, {"uniqueid": "w84095686:a23897869", "current_trial": 49, "dateTime": 1693484088972, "trialdata": {"revealed_states": [], "clicked_states": ["7"], "num_clicks_accrued": [0, 0, 0, 0, 0, 0, 0, 0, 0, 0, 0, 0, 0], "stateRewards": ["", -2, 1, -8, 12, -65, -79, 16, 7, -80, -17, -45, -2, 2, -5, -2, -85, 23, -4, -7, 48, 27, -76, 2, 3, 5, 2, 43, 71, -13, 7, -49, 59, -31], "withholdReward": false, "trial_id": "mdp_trial_35", "block": "test", "trialIndex": 38, "score": 16.85, "costs": -2.15, "simulationMode": [null, null, null, null, null], "rewards": [-2, 1, -8, 12, 16], "path": ["0", "0", "1", "2", "3", "4", "7"], "rt": [10312, 115, 300, 293, 183], "actions": ["up", "up", "up", "right", "down"], "actionTimes": [12095, 12710, 13512, 14305, 15002], "queries": {"click": {"state": {"target": ["7"], "time": [2686]}, "edge": {"target": [], "time": []}}, "mouseover": {"state": {"target": ["1", "7", "7", "18", "13", "22", "21", "12", "1", "28", "0", "12"], "time": [2216, 2251, 2562, 6879, 7309, 7677, 8061, 8680, 9064, 9627, 11344, 11362]}, "edge": {"target": [], "time": []}}, "mouseout": {"state": {"target": ["7", "0", "1", "7", "7", "18", "13", "22", "21", "12", "1", "28", "0", "12"], "time": [680, 1460, 2239, 2275, 2784, 6977, 7429, 7693, 8332, 8795, 9226, 11095, 11359, 11376]}, "edge": {"target": [], "time": []}}}, "displayed_time": "15.79", "trialTime": 16387, "trial_type": "mouselab-mdp", "trial_index": 49, "time_elapsed": 3009234, "internal_node_id": "0.0-6.0-1.0-34.0"}}, {"uniqueid": "w84095686:a23897869", "current_trial": 50, "dateTime": 1693484112565, "trialdata": {"revealed_states": [], "clicked_states": ["28", "17", "29"], "num_clicks_accrued": [0, 0, 0, 0, 0, 0, 0, 0, 0, 0, 0, 0, 0], "stateRewards": ["", 2, -1, 4, -9, -43, 7, 54, -13, 38, -40, -83, -1, 2, -8, -10, 34, -33, 11, -14, -79, 65, 26, 1, 2, 4, 10, 21, 1, 86, 4, -53, 28, -29], "withholdReward": false, "trial_id": "mdp_trial_36", "block": "test", "trialIndex": 39, "score": 96.55, "costs": -6.449999999999999, "simulationMode": [null, null, null, null, null], "rewards": [1, 2, 4, 10, 86], "path": ["0", "0", "23", "24", "25", "26", "29"], "rt": [14578, 976, 1090, 331, 311], "actions": ["left", "left", "left", "up", "left"], "actionTimes": [16780, 18269, 19849, 20690, 21502], "queries": {"click": {"state": {"target": ["28", "17", "29"], "time": [3037, 7946, 12227]}, "edge": {"target": [], "time": []}}, "mouseover": {"state": {"target": ["23", "26", "28", "12", "18", "13", "14", "17", "28", "26", "29", "29"], "time": [2559, 2588, 2921, 6339, 7021, 7188, 7372, 7455, 11355, 11658, 11674, 12093]}, "edge": {"target": [], "time": []}}, "mouseout": {"state": {"target": ["29", "12", "0", "23", "26", "28", "12", "18", "13", "14", "17", "28", "26", "29"], "time": [1260, 1623, 2555, 2571, 2874, 6260, 6539, 7138, 7272, 7388, 11260, 11372, 11673, 11688]}, "edge": {"target": [], "time": []}}}, "displayed_time": "21.99", "trialTime": 23241, "trial_type": "mouselab-mdp", "trial_index": 50, "time_elapsed": 3032827, "internal_node_id": "0.0-6.0-1.0-35.0"}}, {"uniqueid": "w84095686:a23897869", "current_trial": 51, "dateTime": 1693484139767, "trialdata": {"revealed_states": [], "clicked_states": ["31", "28"], "num_clicks_accrued": [0, 0, 0, 0, 0, 0, 0, 0, 0, 0, 0, 0, 0], "stateRewards": ["", 1, 4, -4, 14, 35, 51, 19, -13, 54, 78, -74, -2, -1, -3, 13, -11, -42, -73, -15, -24, -3, -69, 2, -1, 5, 16, -27, 73, 58, 9, -60, 5, -60], "withholdReward": false, "trial_id": "mdp_trial_37", "block": "test", "trialIndex": 40, "score": 90.7, "costs": -4.3, "simulationMode": [null, null, null, null, null], "rewards": [2, -1, 5, 16, 73], "path": ["0", "0", "23", "24", "25", "26", "28"], "rt": [12138, 914, 1416, 321, 368], "actions": ["left", "left", "left", "up", "right"], "actionTimes": [20295, 21714, 23649, 24486, 25350], "queries": {"click": {"state": {"target": ["31", "28"], "time": [10100, 14957]}, "edge": {"target": [], "time": []}}, "mouseover": {"state": {"target": ["0", "31", "28"], "time": [9455, 9847, 14701]}, "edge": {"target": [], "time": []}}, "mouseout": {"state": {"target": ["29", "26", "28", "1", "0", "31"], "time": [6701, 6729, 6744, 6778, 9479, 13613]}, "edge": {"target": [], "time": []}}}, "displayed_time": "25.85", "trialTime": 26881, "trial_type": "mouselab-mdp", "trial_index": 51, "time_elapsed": 3060028, "internal_node_id": "0.0-6.0-1.0-36.0"}}, {"uniqueid": "w84095686:a23897869", "current_trial": 52, "dateTime": 1693484180188, "trialdata": {"revealed_states": [], "clicked_states": ["6", "10", "7", "18", "32", "31", "22"], "num_clicks_accrued": [0, 0, 0, 0, 0, 0, 0, 0, 0, 0, 0, 0, 0], "stateRewards": ["", -2, -4, -6, 12, -58, -70, -80, 2, 16, -88, -62, 1, 2, -5, 11, 77, -35, -44, -5, 18, -83, 87, 1, -3, -5, 13, -44, -21, -86, 10, -52, 8, 29], "withholdReward": false, "trial_id": "mdp_trial_38", "block": "test", "trialIndex": 41, "score": 64.95, "costs": -15.05, "simulationMode": [null, null, null, null, null], "rewards": [1, 2, -5, -5, 87], "path": ["0", "0", "12", "13", "14", "19", "22"], "rt": [31780, 857, 633, 808, 937], "actions": ["right", "right", "right", "down", "left"], "actionTimes": [33199, 34572, 35713, 37039, 38493], "queries": {"click": {"state": {"target": ["6", "10", "7", "18", "32", "31", "22"], "time": [3417, 8633, 12506, 16171, 21242, 25703, 29871]}, "edge": {"target": [], "time": []}}, "mouseover": {"state": {"target": ["1", "7", "6", "4", "3", "8", "8", "10", "10", "2", "7", "18", "15", "13", "12", "0", "32", "31", "22"], "time": [2000, 2597, 2883, 7094, 7211, 7293, 7713, 8081, 8429, 11964, 11994, 15814, 19561, 19848, 19978, 20044, 20715, 25449, 29496]}, "edge": {"target": [], "time": []}}, "mouseout": {"state": {"target": ["28", "1", "7", "6", "4", "3", "8", "8", "10", "10", "2", "7", "18", "15", "13", "12", "0", "32", "31"], "time": [732, 2027, 2880, 7012, 7179, 7260, 7528, 7827, 8127, 11949, 11978, 14294, 19536, 19662, 19929, 20011, 20178, 21352, 29101]}, "edge": {"target": [], "time": []}}}, "displayed_time": "39.00", "trialTime": 40083, "trial_type": "mouselab-mdp", "trial_index": 52, "time_elapsed": 3100450, "internal_node_id": "0.0-6.0-1.0-37.0"}}, {"uniqueid": "w84095686:a23897869", "current_trial": 53, "dateTime": 1693484208244, "trialdata": {"revealed_states": [], "clicked_states": ["28", "18", "10", "11"], "num_clicks_accrued": [0, 0, 0, 0, 0, 0, 0, 0, 0, 0, 0, 0, 0], "stateRewards": ["", -2, 2, -5, 1, 42, -63, -58, -6, 2, 16, 81, -2, 4, 7, -10, 33, 3, -33, -2, -52, -84, -27, 2, -3, -3, 15, -74, -14, -5, -5, -84, 79, -31], "withholdReward": false, "trial_id": "mdp_trial_39", "block": "test", "trialIndex": 42, "score": 61.4, "costs": -8.6, "simulationMode": [null, null, null, null, null], "rewards": [-2, 2, -5, -6, 81], "path": ["0", "0", "1", "2", "3", "8", "11"], "rt": [19138, 119, 150, 315, 64], "actions": ["up", "up", "up", "left", "left"], "actionTimes": [21237, 21865, 22511, 23344, 23926], "queries": {"click": {"state": {"target": ["28", "18", "10", "11"], "time": [3740, 7983, 12372, 17921]}, "edge": {"target": [], "time": []}}, "mouseover": {"state": {"target": ["1", "24", "28", "18", "7", "10", "2", "7", "11"], "time": [2691, 3027, 3609, 7810, 11675, 12062, 16077, 16478, 17493]}, "edge": {"target": [], "time": []}}, "mouseout": {"state": {"target": ["22", "0", "1", "24", "28", "18", "7", "10", "2", "7"], "time": [1310, 2662, 2858, 3057, 7264, 11659, 11709, 12461, 16143, 17415]}, "edge": {"target": [], "time": []}}}, "displayed_time": "24.44", "trialTime": 27704, "trial_type": "mouselab-mdp", "trial_index": 53, "time_elapsed": 3128506, "internal_node_id": "0.0-6.0-1.0-38.0"}}, {"uniqueid": "w84095686:a23897869", "current_trial": 54, "dateTime": 1693484225791, "trialdata": {"revealed_states": [], "clicked_states": [], "num_clicks_accrued": [0, 0, 0, 0, 0, 0, 0, 0, 0, 0, 0, 0, 0], "stateRewards": ["", 1, 1, -3, 2, 22, -25, -11, -5, 50, 49, 3, 1, -1, 8, 14, -85, -30, 57, -6, -39, -16, 59, -2, -1, 5, 5, 59, -16, 8, 4, 67, 56, -9], "withholdReward": false, "trial_id": "mdp_trial_40", "block": "test", "trialIndex": 43, "score": -10, "costs": 0, "simulationMode": [null, null, null, null, null], "rewards": [1, 1, -3, 2, -11], "path": ["0", "0", "1", "2", "3", "4", "7"], "rt": [6624, 160, 191, 315, 125], "actions": ["up", "up", "up", "right", "down"], "actionTimes": [8659, 9331, 10012, 10821, 11463], "queries": {"click": {"state": {"target": [], "time": []}, "edge": {"target": [], "time": []}}, "mouseover": {"state": {"target": ["1", "8", "3", "4", "4", "18", "13", "12", "0", "23", "31", "30", "31"], "time": [2413, 3039, 3387, 3404, 3789, 3986, 4052, 4085, 4152, 4335, 4687, 5339, 5753]}, "edge": {"target": [], "time": []}}, "mouseout": {"state": {"target": ["11", "10", "1", "12", "1", "8", "3", "4", "4", "18", "13", "12", "0", "23", "31", "30", "31"], "time": [1037, 1085, 1168, 1469, 2429, 3372, 3402, 3419, 3923, 4019, 4069, 4118, 4285, 4369, 4804, 5486, 6671]}, "edge": {"target": [], "time": []}}}, "displayed_time": "16.04", "trialTime": 17208, "trial_type": "mouselab-mdp", "trial_index": 54, "time_elapsed": 3146053, "internal_node_id": "0.0-6.0-1.0-39.0"}}, {"uniqueid": "w84095686:a23897869", "current_trial": 55, "dateTime": 1693484340879, "trialdata": {"rt": 115079, "response": {"Q0": "$-2 to $2", "Q1": "$-16 to $16", "Q2": "$-88 to $88", "Q3": "The cost for clicking on nodes varied between nodes.", "Q4": "Slightly unmotivated"}, "question_order": [0, 1, 2, 3, 4], "trial_id": "final_quiz_control", "trial_type": "survey-multi-choice", "trial_index": 55, "time_elapsed": 3261141, "internal_node_id": "0.0-6.0-2.0"}}, {"uniqueid": "w84095686:a23897869", "current_trial": 56, "dateTime": 1693484505532, "trialdata": {"rt": 164635, "response": {"Q0": "I started with the 8 edge nodes on the web, as that was going to be my final destination for my spider. I clicked them in random order until I got the highest amount, which then was the path I took. I tried not to open too many nodes as I did not want to be too in the negative.", "Q1": "No, I used the same strategy.", "Q2": "It was not really difficult."}, "trial_id": "self_report_control", "trial_type": "survey-text", "trial_index": 56, "time_elapsed": 3425795, "internal_node_id": "0.0-6.0-3.0"}}, {"uniqueid": "w84095686:a23897869", "current_trial": 57, "dateTime": 1693484556969, "trialdata": {"rt": 51425, "response": {"Q0": "Neither disagree nor agree", "Q1": "Disagree", "Q2": "Agree", "Q3": "Agree", "Q4": "Neither disagree nor agree", "Q5": "Agree", "Q6": "Disagree"}, "question_order": [0, 1, 2, 3, 4, 5, 6], "trial_id": "self_report_2", "trial_type": "survey-multi-choice", "trial_index": 57, "time_elapsed": 3477232, "internal_node_id": "0.0-6.0-4.0"}}, {"uniqueid": "w84095686:a23897869", "current_trial": 58, "dateTime": 1693484600571, "trialdata": {"rt": 43588, "response": {"gender": "male", "age": "27", "colorblind": "0", "effort": "1"}, "trial_type": "survey-html-form", "trial_index": 58, "time_elapsed": 3520834, "internal_node_id": "0.0-6.0-5.0"}}, {"uniqueid": "w84095686:a23897869", "current_trial": 59, "dateTime": 1693484659855, "trialdata": {"rt": 59267, "response": {"Q0": "Not entirely. Needed a couple of reads, but overall okay.", "Q1": "No.", "Q2": "None."}, "trial_type": "survey-text", "trial_index": 59, "time_elapsed": 3580117, "internal_node_id": "0.0-6.0-6.0"}}, {"uniqueid": "w84095686:a23897869", "current_trial": 60, "dateTime": 1693484680605, "trialdata": {"rt": 20739, "stimulus": "<h1>Completion Code Instructions (1/2)</h1>\n<br><br><br><br>\nYou have reached the end of the experiment! The completion code consists of two parts: (1) a code with 2 characters (2) a code with 6 characters. On this page, you will receive the second part of the code. The first part of the completion code will be on the next page.\n<br><br>\nThe second part of your completion code is: <b>EWEK22</b>\n<br><br>\nPlease note this down. Then, press 'Finish HIT' in order to find the first part of your completion code. Once the data has been saved, you will receive this code either in this window or in the original browser window where you started the experiment.\n", "response": 0, "trial_type": "html-button-response", "trial_index": 60, "time_elapsed": 3600868, "internal_node_id": "0.0-6.0-7.0"}}, {"uniqueid": "w84095686:a23897869", "current_trial": 61, "dateTime": 1693484681614, "trialdata": {"success": true, "trial_type": "fullscreen", "trial_index": 61, "time_elapsed": 3601877, "internal_node_id": "0.0-7.0"}}], "questiondata": {"params": {"CODE": "C6DMOQA6", "MIN_TIME": 14, "inspectCost": 1, "startTime": "Thu Aug 31 2023 13:24:35 GMT+0200 (South Africa Standard Time)", "bonusRate": 0.002, "variance": "1_2_4_8_44", "branching": "31123"}}, "eventdata": [{"eventtype": "initialized", "value": null, "timestamp": 1693481074775, "interval": 0}, {"eventtype": "window_resize", "value": [1028, 744], "timestamp": 1693481074775, "interval": 0}, {"eventtype": "window_resize", "value": [1028, 744], "timestamp": 1693481075319, "interval": 544}, {"eventtype": "focus", "value": "off", "timestamp": 1693481079427, "interval": 4108}, {"eventtype": "focus", "value": "on", "timestamp": 1693481083677, "interval": 4250}, {"eventtype": "window_resize", "value": [1536, 864], "timestamp": 1693481088698, "interval": 5021}, {"eventtype": "focus", "value": "off", "timestamp": 1693481576393, "interval": 487695}, {"eventtype": "focus", "value": "on", "timestamp": 1693481576393, "interval": 0}, {"eventtype": "window_resize", "value": [1028, 744], "timestamp": 1693481576605, "interval": 212}, {"eventtype": "window_resize", "value": [1536, 864], "timestamp": 1693481580385, "interval": 3780}, {"eventtype": "window_resize", "value": [1028, 744], "timestamp": 1693484680867, "interval": 3100482}], "useragent": "Mozilla/5.0 (Windows NT 10.0; Win64; x64) AppleWebKit/537.36 (KHTML, like Gecko) Chrome/116.0.0.0 Safari/537.36", "mode": "live", "id": "w84095686:a23897869", "status": "user data saved", "Beginhit": "2023-08-31 11:24:29.700359", "Beginexp": "2023-08-31 11:24:50.657457", "Endhit": "2023-08-31 12:24:45.382689", "psiturkStatus": 3, "browser": "<redacted>", "platform": "windows", "language": "en-US"}