{"condition": 1, "counterbalance": 0, "assignmentId": "a39404214", "workerId": "w52086156", "hitId": "h96029314", "currenttrial": 10, "bonus": 0, "data": [{"uniqueid": "w52086156:a39404214", "current_trial": 0, "dateTime": 1693386728086, "trialdata": {"success": true, "trial_type": "fullscreen", "trial_index": 0, "time_elapsed": 2952, "internal_node_id": "0.0-0.0"}}, {"uniqueid": "w52086156:a39404214", "current_trial": 1, "dateTime": 1693386729233, "trialdata": {"view_history": [{"page_index": 0, "viewing_time": 1145}], "rt": 1145, "trial_id": "exp_instructions_misaligned", "trial_type": "instructions", "trial_index": 1, "time_elapsed": 4099, "internal_node_id": "0.0-1.0"}}, {"uniqueid": "w52086156:a39404214", "current_trial": 2, "dateTime": 1693386736353, "trialdata": {"view_history": [{"page_index": 0, "viewing_time": 1362}, {"page_index": 1, "viewing_time": 3690}, {"page_index": 2, "viewing_time": 1418}, {"page_index": 3, "viewing_time": 649}], "rt": 7120, "trial_id": "mouselab_instructions_1_misaligned", "trial_type": "instructions", "trial_index": 2, "time_elapsed": 11219, "internal_node_id": "0.0-2.0-1.0"}}, {"uniqueid": "w52086156:a39404214", "current_trial": 3, "dateTime": 1693386743198, "trialdata": {"revealed_states": [], "clicked_states": ["12", "18"], "num_clicks_accrued": [0, 0, 0, 0, 0, 0, 0, 0, 0, 0, 0, 0, 0], "stateRewards": ["", -10, -10, -10, -10, -10, 10, 10, 10, -10, 10, 10, 10, 10, 10, -10, -10, -10, 10, -10, 10, -10, 10, 10, 10, 10, 10, 10, -10, -10, -10, -10, 10, -10], "withholdReward": false, "trial_id": "practice_1", "block": "test", "trialIndex": 0, "score": 12.5, "costs": -1, "simulationMode": [null, null, null, null, null, null], "rewards": [10, 10, 10, -10, -10], "path": ["0", "0", "12", "13", "14", "15", "16"], "rt": [1712, 197, 153, 33, 4, 165], "actions": ["right", "right", "right", "right", "up", "up"], "actionTimes": [2883, 3082, 3763, 4306, 4842, 5538], "queries": {"click": {"state": {"target": ["12", "18"], "time": [1545, 2635]}, "edge": {"target": [], "time": []}}, "mouseover": {"state": {"target": ["12", "18", "18"], "time": [1277, 1942, 2357]}, "edge": {"target": [], "time": []}}, "mouseout": {"state": {"target": ["1", "1", "0", "12", "18", "18", "16"], "time": [278, 624, 1244, 1692, 1994, 5037, 5323]}, "edge": {"target": [], "time": []}}}, "displayed_time": "6.05", "trialTime": 6387, "trial_type": "mouselab-mdp", "trial_index": 3, "time_elapsed": 18064, "internal_node_id": "0.0-2.0-2.0-0.0"}}, {"uniqueid": "w52086156:a39404214", "current_trial": 4, "dateTime": 1693386749780, "trialdata": {"revealed_states": [], "clicked_states": ["26"], "num_clicks_accrued": [0, 0, 0, 0, 0, 0, 0, 0, 0, 0, 0, 0, 0], "stateRewards": ["", -10, -10, -10, 10, -10, 10, -10, -10, -10, -10, -10, -10, 10, -10, -10, -10, 10, 10, -10, 10, 10, 10, 10, 10, -10, -10, -10, 10, 10, 10, 10, 10, -10], "withholdReward": false, "trial_id": "practice_2", "block": "test", "trialIndex": 1, "score": 13, "costs": -0.5, "simulationMode": [null, null, null, null, null, null], "rewards": [10, 10, -10, -10, 10], "path": ["0", "0", "23", "24", "25", "26", "28"], "rt": [1942, 206, 142, 123, 130, 91], "actions": ["left", "left", "left", "left", "up", "right"], "actionTimes": [2920, 3128, 3776, 4409, 5048, 5657], "queries": {"click": {"state": {"target": ["26"], "time": [2100]}, "edge": {"target": [], "time": []}}, "mouseover": {"state": {"target": ["28", "26"], "time": [1353, 1770]}, "edge": {"target": [], "time": []}}, "mouseout": {"state": {"target": ["23", "1", "0", "28", "26", "28", "1"], "time": [519, 702, 1220, 1552, 2968, 3200, 3251]}, "edge": {"target": [], "time": []}}}, "displayed_time": "6.17", "trialTime": 6336, "trial_type": "mouselab-mdp", "trial_index": 4, "time_elapsed": 24646, "internal_node_id": "0.0-2.0-2.0-1.0"}}, {"uniqueid": "w52086156:a39404214", "current_trial": 5, "dateTime": 1693386751891, "trialdata": {"view_history": [{"page_index": 0, "viewing_time": 1296}, {"page_index": 1, "viewing_time": 812}], "rt": 2108, "trial_id": "mouselab_instructions_2_misaligned", "trial_type": "instructions", "trial_index": 5, "time_elapsed": 26756, "internal_node_id": "0.0-2.0-3.0"}}, {"uniqueid": "w52086156:a39404214", "current_trial": 6, "dateTime": 1693386759178, "trialdata": {"rt": 7283, "response": {"Q0": "The cost for clicking on nodes may vary between nodes.", "Q1": "The better I perform the higher my bonus will be.", "Q2": "No, the amount of cash at each node of the web may be different each time.", "Q3": "To get the highest total score.", "Q4": "Only before moving the spider.", "Q5": "3 seconds"}, "question_order": [0, 1, 2, 3, 4, 5], "correct": {"Q0": "The cost for clicking on nodes may vary between nodes.", "Q1": "The better I perform the higher my bonus will be.", "Q2": "No, the amount of cash at each node of the web may be different each time.", "Q3": "To get the highest total score.", "Q4": "Only before moving the spider.", "Q5": "3 seconds"}, "trial_id": "mouselab_quiz_misaligned", "trial_type": "survey-multi-choice", "trial_index": 6, "time_elapsed": 34044, "internal_node_id": "0.0-2.0-4.0"}}, {"uniqueid": "w52086156:a39404214", "current_trial": 7, "dateTime": 1693386762485, "trialdata": {"rt": 3304, "response": {"Q0": "No"}, "question_order": [0], "trial_id": "repeat_check", "trial_type": "survey-multi-choice", "trial_index": 7, "time_elapsed": 37351, "internal_node_id": "0.0-4.0-0.0"}}, {"uniqueid": "w52086156:a39404214", "current_trial": 8, "dateTime": 1693386765075, "trialdata": {"rt": 2587, "stimulus": "\n<h1> Get ready to start the game! </h1>\n\nThank you for reading the instructions. Get ready start with the 40 rounds of this game.\n<br><br>\nIf you need to take a break, feel free to take one after the end of a round, before continuing to the next one.\n<br><br>\nRemember, the more money the spider gets, the bigger your bonus will be!\n<br><br>\n<div style='text-align: center;'>Press <code>space</code> to begin.</div>\n\n<br><br>\n(If, at any point, the <code>space</code> key does not take you to the next page, click once on the text and try again.)", "response": " ", "trial_id": "mdp_ready", "trial_type": "html-keyboard-response", "trial_index": 8, "time_elapsed": 39941, "internal_node_id": "0.0-6.0-0.0"}}, {"uniqueid": "w52086156:a39404214", "current_trial": 9, "dateTime": 1693386781589, "trialdata": {"revealed_states": [], "clicked_states": ["28", "26", "8", "3", "2", "7", "1"], "num_clicks_accrued": [0, 0, 0, 0, 0, 0, 0, 0, 0, 0, 0, 0, 0], "stateRewards": ["", 2, 4, -3, 16, -58, 30, -35, 11, -60, 47, 27, -2, -1, -7, -16, 23, -70, 68, -10, -65, -43, -34, -2, 1, 7, 9, -63, 34, -31, -8, -12, -86, 59], "withholdReward": false, "trial_id": "mdp_trial_1", "block": "test", "trialIndex": 2, "score": -24.45, "costs": -8.45, "simulationMode": [null, null, null, null, null], "rewards": [2, 4, -3, 16, -35], "path": ["0", "0", "1", "2", "3", "4", "7"], "rt": [11988, 15, 38, 106, 221], "actions": ["up", "up", "up", "right", "down"], "actionTimes": [13195, 13739, 14308, 14941, 15677], "queries": {"click": {"state": {"target": ["28", "26", "8", "3", "2", "7", "1"], "time": [1773, 4911, 5486, 6777, 7246, 8433, 12195]}, "edge": {"target": [], "time": []}}, "mouseover": {"state": {"target": ["28", "26", "26", "11", "8", "3", "3", "3", "2", "1", "7", "1", "18"], "time": [1743, 2359, 2790, 5155, 5408, 6057, 6256, 6706, 7103, 7504, 8253, 8905, 12552]}, "edge": {"target": [], "time": []}}, "mouseout": {"state": {"target": ["3", "2", "1", "0", "0", "28", "28", "26", "26", "11", "8", "3", "3", "3", "3", "2", "2", "1", "7", "1", "18"], "time": [226, 275, 310, 356, 1426, 1779, 2108, 2458, 5056, 5207, 6040, 6107, 6307, 6789, 7053, 7325, 7453, 7987, 8604, 12469, 12633]}, "edge": {"target": [], "time": []}}}, "displayed_time": "16.18", "trialTime": 16282, "trial_type": "mouselab-mdp", "trial_index": 9, "time_elapsed": 56454, "internal_node_id": "0.0-6.0-1.0-0.0"}}], "questiondata": {"params": {"CODE": "C6DMOQA6", "MIN_TIME": 14, "inspectCost": 1, "startTime": "Wed Aug 30 2023 11:12:00 GMT+0200 (Central European Summer Time)", "bonusRate": 0.002, "variance": "1_2_4_8_44", "branching": "31123"}}, "eventdata": [{"eventtype": "initialized", "value": null, "timestamp": 1693386720342, "interval": 0}, {"eventtype": "window_resize", "value": [1024, 741], "timestamp": 1693386720342, "interval": 0}, {"eventtype": "window_resize", "value": [1024, 741], "timestamp": 1693386720681, "interval": 339}, {"eventtype": "window_resize", "value": [1440, 900], "timestamp": 1693386727333, "interval": 6652}], "useragent": "Mozilla/5.0 (Macintosh; Intel Mac OS X 10_15_7) AppleWebKit/537.36 (KHTML, like Gecko) Chrome/115.0.0.0 Safari/537.36", "mode": "debug", "id": "w52086156:a39404214", "status": "user data saved", "Beginhit": "2023-08-30 09:11:57.616841", "Beginexp": "2023-08-30 09:12:08.202539", "Endhit": null, "psiturkStatus": 2, "browser": "<redacted>", "platform": "macos", "language": "en-US", "excludeReason": "dataincomplete"}