{"condition": 1, "counterbalance": 0, "assignmentId": "a65935544", "workerId": "w32685957", "hitId": "h74907890", "currenttrial": 74, "bonus": 0, "data": [{"uniqueid": "w32685957:a65935544", "current_trial": 0, "dateTime": 1691159234178, "trialdata": {"success": true, "trial_type": "fullscreen", "trial_index": 0, "time_elapsed": 12595, "internal_node_id": "0.0-0.0"}}, {"uniqueid": "w32685957:a65935544", "current_trial": 1, "dateTime": 1691159260103, "trialdata": {"view_history": [{"page_index": 0, "viewing_time": 25901}], "rt": 25904, "trial_id": "exp_instructions_misaligned", "trial_type": "instructions", "trial_index": 1, "time_elapsed": 38521, "internal_node_id": "0.0-1.0"}}, {"uniqueid": "w32685957:a65935544", "current_trial": 2, "dateTime": 1691159265421, "trialdata": {"success": true, "trial_type": "fullscreen", "trial_index": 2, "time_elapsed": 43839, "internal_node_id": "0.0-2.0-0.0"}}, {"uniqueid": "w32685957:a65935544", "current_trial": 3, "dateTime": 1691159451880, "trialdata": {"view_history": [{"page_index": 0, "viewing_time": 84107}, {"page_index": 1, "viewing_time": 49582}, {"page_index": 2, "viewing_time": 15284}, {"page_index": 3, "viewing_time": 37477}], "rt": 186450, "trial_id": "mouselab_instructions_1_misaligned", "trial_type": "instructions", "trial_index": 3, "time_elapsed": 230298, "internal_node_id": "0.0-2.0-1.0"}}, {"uniqueid": "w32685957:a65935544", "current_trial": 4, "dateTime": 1691159511086, "trialdata": {"revealed_states": [], "clicked_states": [], "num_clicks_accrued": [0, 0, 0, 0, 0, 0, 0, 0, 0, 0, 0, 0, 0], "stateRewards": ["", -10, 10, 10, -10, 10, -10, -10, 10, 10, 10, 10, -10, 10, 10, 10, 10, 10, 10, -10, 10, -10, 10, -10, 10, 10, 10, 10, 10, 10, -10, 10, 10, -10], "withholdReward": false, "trial_id": "practice_1", "block": "test", "trialIndex": 0, "score": 33.5, "costs": 0, "simulationMode": [null, null, null, null, null], "rewards": [-10, 10, 10, 10, 10], "path": ["0", "0", "1", "2", "3", "8", "11"], "rt": [4261, 30511, 1833, 1654, 3113], "actions": ["up", "up", "up", "left", "left"], "actionTimes": [6957, 37940, 40292, 42463, 46072], "queries": {"click": {"state": {"target": [], "time": []}, "edge": {"target": [], "time": []}}, "mouseover": {"state": {"target": [], "time": []}, "edge": {"target": [], "time": []}}, "mouseout": {"state": {"target": ["0", "1", "0", "12", "22", "19", "12", "0", "12", "2", "1", "0", "21", "14", "16", "18", "0", "1", "2", "2", "1", "0", "12", "23", "24", "25", "30", "30", "31"], "time": [6977, 10378, 11323, 11357, 11390, 12340, 13047, 13323, 15473, 15805, 15889, 17437, 17581, 24194, 25723, 26128, 27478, 27823, 28623, 30017, 30056, 31236, 32227, 33369, 34443, 35379, 35479, 36810, 36872]}, "edge": {"target": [], "time": []}}}, "displayed_time": "46.59", "trialTime": 58078, "trial_type": "mouselab-mdp", "trial_index": 4, "time_elapsed": 289502, "internal_node_id": "0.0-2.0-2.0-0.0"}}, {"uniqueid": "w32685957:a65935544", "current_trial": 5, "dateTime": 1691159532916, "trialdata": {"revealed_states": [], "clicked_states": [], "num_clicks_accrued": [0, 0, 0, 0, 0, 0, 0, 0, 0, 0, 0, 0, 0], "stateRewards": ["", 10, 10, -10, -10, 10, -10, 10, 10, 10, 10, -10, 10, -10, -10, -10, 10, -10, -10, -10, -10, -10, -10, -10, -10, -10, 10, -10, 10, 10, 10, -10, -10, 10], "withholdReward": false, "trial_id": "practice_2", "block": "test", "trialIndex": 1, "score": -6.5, "costs": 0, "simulationMode": [null, null, null, null, null], "rewards": [10, 10, -10, -10, -10], "path": ["0", "0", "1", "2", "3", "4", "6"], "rt": [4279, 643, 568, 577, 527], "actions": ["up", "up", "up", "right", "right"], "actionTimes": [9977, 11166, 12251, 13325, 14376], "queries": {"click": {"state": {"target": [], "time": []}, "edge": {"target": [], "time": []}}, "mouseover": {"state": {"target": [], "time": []}, "edge": {"target": [], "time": []}}, "mouseout": {"state": {"target": ["0", "0"], "time": [4462, 18484]}, "edge": {"target": [], "time": []}}}, "displayed_time": "14.90", "trialTime": 21199, "trial_type": "mouselab-mdp", "trial_index": 5, "time_elapsed": 311331, "internal_node_id": "0.0-2.0-2.0-1.0"}}, {"uniqueid": "w32685957:a65935544", "current_trial": 6, "dateTime": 1691159598742, "trialdata": {"view_history": [{"page_index": 0, "viewing_time": 52349}, {"page_index": 1, "viewing_time": 13463}], "rt": 65813, "trial_id": "mouselab_instructions_2_misaligned", "trial_type": "instructions", "trial_index": 6, "time_elapsed": 377159, "internal_node_id": "0.0-2.0-3.0"}}, {"uniqueid": "w32685957:a65935544", "current_trial": 7, "dateTime": 1691159693518, "trialdata": {"rt": 94768, "response": {"Q0": "There is no cost for clicking on nodes.", "Q1": "The better I perform the higher my bonus will be.", "Q2": "No, the amount of cash at each node of the web may be different each time.", "Q3": "To get the highest total score.", "Q4": "Only before moving the spider.", "Q5": "3 seconds"}, "question_order": [0, 1, 2, 3, 4, 5], "correct": {"Q0": "The cost for clicking on nodes may vary between nodes.", "Q1": "The better I perform the higher my bonus will be.", "Q2": "No, the amount of cash at each node of the web may be different each time.", "Q3": "To get the highest total score.", "Q4": "Only before moving the spider.", "Q5": "3 seconds"}, "trial_id": "mouselab_quiz_misaligned", "trial_type": "survey-multi-choice", "trial_index": 7, "time_elapsed": 471935, "internal_node_id": "0.0-2.0-4.0"}}, {"uniqueid": "w32685957:a65935544", "current_trial": 8, "dateTime": 1691159704734, "trialdata": {"success": true, "trial_type": "fullscreen", "trial_index": 8, "time_elapsed": 483152, "internal_node_id": "0.0-2.1-0.1"}}, {"uniqueid": "w32685957:a65935544", "current_trial": 9, "dateTime": 1691160342339, "trialdata": {"view_history": [{"page_index": 0, "viewing_time": 133660}, {"page_index": 1, "viewing_time": 28372}, {"page_index": 0, "viewing_time": 70883}, {"page_index": 1, "viewing_time": 155471}, {"page_index": 2, "viewing_time": 35154}, {"page_index": 1, "viewing_time": 61430}, {"page_index": 2, "viewing_time": 5600}, {"page_index": 3, "viewing_time": 116874}, {"page_index": 2, "viewing_time": 2987}, {"page_index": 1, "viewing_time": 10200}, {"page_index": 0, "viewing_time": 10629}, {"page_index": 1, "viewing_time": 3615}, {"page_index": 2, "viewing_time": 1122}, {"page_index": 3, "viewing_time": 1595}], "rt": 637592, "trial_id": "mouselab_instructions_1_misaligned", "trial_type": "instructions", "trial_index": 9, "time_elapsed": 1120757, "internal_node_id": "0.0-2.1-1.1"}}, {"uniqueid": "w32685957:a65935544", "current_trial": 10, "dateTime": 1691160362782, "trialdata": {"revealed_states": [], "clicked_states": ["8"], "num_clicks_accrued": [0, 0, 0, 0, 0, 0, 0, 0, 0, 0, 0, 0, 0], "stateRewards": ["", -10, 10, 10, -10, 10, -10, -10, 10, 10, 10, 10, -10, 10, 10, 10, 10, 10, 10, -10, 10, -10, 10, -10, 10, 10, 10, 10, 10, 10, -10, 10, 10, -10], "withholdReward": false, "trial_id": "practice_1", "block": "test", "trialIndex": 2, "score": 33, "costs": -0.5, "simulationMode": [null, null, null, null, null], "rewards": [-10, 10, 10, 10, 10], "path": ["0", "0", "1", "2", "3", "8", "9"], "rt": [5956, 469, 374, 336, 2720], "actions": ["up", "up", "up", "left", "up"], "actionTimes": [9146, 10127, 11001, 11845, 15080], "queries": {"click": {"state": {"target": ["8"], "time": [6134]}, "edge": {"target": [], "time": []}}, "mouseover": {"state": {"target": ["1", "10", "8", "1"], "time": [5089, 5289, 5572, 7605]}, "edge": {"target": [], "time": []}}, "mouseout": {"state": {"target": ["0", "1", "10", "8", "1", "12"], "time": [5017, 5106, 5422, 7492, 7872, 17172]}, "edge": {"target": [], "time": []}}}, "displayed_time": "15.59", "trialTime": 19866, "trial_type": "mouselab-mdp", "trial_index": 10, "time_elapsed": 1141198, "internal_node_id": "0.0-2.1-2.1-0.1"}}, {"uniqueid": "w32685957:a65935544", "current_trial": 11, "dateTime": 1691160379962, "trialdata": {"revealed_states": [], "clicked_states": ["14"], "num_clicks_accrued": [0, 0, 0, 0, 0, 0, 0, 0, 0, 0, 0, 0, 0], "stateRewards": ["", 10, 10, -10, -10, 10, -10, 10, 10, 10, 10, -10, 10, -10, -10, -10, 10, -10, -10, -10, -10, -10, -10, -10, -10, -10, 10, -10, 10, 10, 10, -10, -10, 10], "withholdReward": false, "trial_id": "practice_2", "block": "test", "trialIndex": 3, "score": -27, "costs": -0.5, "simulationMode": [null, null, null, null, null], "rewards": [-10, -10, -10, 10, -10], "path": ["0", "0", "23", "24", "25", "26", "27"], "rt": [6725, 365, 376, 311, 345], "actions": ["left", "left", "left", "up", "up"], "actionTimes": [9015, 9895, 10773, 11591, 12441], "queries": {"click": {"state": {"target": ["14"], "time": [4952]}, "edge": {"target": [], "time": []}}, "mouseover": {"state": {"target": ["12", "18", "15", "14", "13", "12"], "time": [3614, 3827, 3897, 4110, 6177, 6244]}, "edge": {"target": [], "time": []}}, "mouseout": {"state": {"target": ["0", "0", "12", "18", "15", "14", "13", "12", "12"], "time": [997, 3602, 3660, 3867, 3994, 6160, 6211, 6261, 14029]}, "edge": {"target": [], "time": []}}}, "displayed_time": "12.96", "trialTime": 16552, "trial_type": "mouselab-mdp", "trial_index": 11, "time_elapsed": 1158378, "internal_node_id": "0.0-2.1-2.1-1.1"}}, {"uniqueid": "w32685957:a65935544", "current_trial": 12, "dateTime": 1691160414265, "trialdata": {"view_history": [{"page_index": 0, "viewing_time": 31411}, {"page_index": 1, "viewing_time": 2876}], "rt": 34288, "trial_id": "mouselab_instructions_2_misaligned", "trial_type": "instructions", "trial_index": 12, "time_elapsed": 1192683, "internal_node_id": "0.0-2.1-3.1"}}, {"uniqueid": "w32685957:a65935544", "current_trial": 13, "dateTime": 1691160664816, "trialdata": {"rt": 250537, "response": {"Q0": "The cost for clicking on nodes may vary between nodes.", "Q1": "The better I perform the higher my bonus will be.", "Q2": "No, the amount of cash at each node of the web may be different each time.", "Q3": "To get the highest total score.", "Q4": "Any time during the round.", "Q5": "10 seconds"}, "question_order": [0, 1, 2, 3, 4, 5], "correct": {"Q0": "The cost for clicking on nodes may vary between nodes.", "Q1": "The better I perform the higher my bonus will be.", "Q2": "No, the amount of cash at each node of the web may be different each time.", "Q3": "To get the highest total score.", "Q4": "Only before moving the spider.", "Q5": "3 seconds"}, "trial_id": "mouselab_quiz_misaligned", "trial_type": "survey-multi-choice", "trial_index": 13, "time_elapsed": 1443234, "internal_node_id": "0.0-2.1-4.1"}}, {"uniqueid": "w32685957:a65935544", "current_trial": 14, "dateTime": 1691160672540, "trialdata": {"success": true, "trial_type": "fullscreen", "trial_index": 14, "time_elapsed": 1450958, "internal_node_id": "0.0-2.2-0.2"}}, {"uniqueid": "w32685957:a65935544", "current_trial": 15, "dateTime": 1691160774908, "trialdata": {"view_history": [{"page_index": 0, "viewing_time": 10801}, {"page_index": 1, "viewing_time": 6483}, {"page_index": 2, "viewing_time": 19193}, {"page_index": 1, "viewing_time": 38122}, {"page_index": 2, "viewing_time": 16033}, {"page_index": 3, "viewing_time": 11722}], "rt": 102354, "trial_id": "mouselab_instructions_1_misaligned", "trial_type": "instructions", "trial_index": 15, "time_elapsed": 1553326, "internal_node_id": "0.0-2.2-1.2"}}, {"uniqueid": "w32685957:a65935544", "current_trial": 16, "dateTime": 1691160797503, "trialdata": {"revealed_states": [], "clicked_states": ["8", "6"], "num_clicks_accrued": [0, 0, 0, 0, 0, 0, 0, 0, 0, 0, 0, 0, 0], "stateRewards": ["", -10, 10, 10, -10, 10, -10, -10, 10, 10, 10, 10, -10, 10, 10, 10, 10, 10, 10, -10, 10, -10, 10, -10, 10, 10, 10, 10, 10, 10, -10, 10, 10, -10], "withholdReward": false, "trial_id": "practice_1", "block": "test", "trialIndex": 4, "score": 32.5, "costs": -1, "simulationMode": [null, null, null, null, null], "rewards": [-10, 10, 10, 10, 10], "path": ["0", "0", "1", "2", "3", "8", "9"], "rt": [6918, 993, 153, 395, 1159], "actions": ["up", "up", "up", "left", "up"], "actionTimes": [8896, 10380, 11057, 11949, 13630], "queries": {"click": {"state": {"target": ["8", "6"], "time": [3874, 5688]}, "edge": {"target": [], "time": []}}, "mouseover": {"state": {"target": ["10", "8", "3", "4", "6", "1"], "time": [2901, 3267, 4618, 4673, 4965, 8032]}, "edge": {"target": [], "time": []}}, "mouseout": {"state": {"target": ["0", "10", "8", "3", "4", "6", "1", "12", "13", "19"], "time": [1148, 2985, 4588, 4653, 4740, 7466, 17692, 17733, 17750, 17783]}, "edge": {"target": [], "time": []}}}, "displayed_time": "14.16", "trialTime": 21836, "trial_type": "mouselab-mdp", "trial_index": 16, "time_elapsed": 1575918, "internal_node_id": "0.0-2.2-2.2-0.2"}}, {"uniqueid": "w32685957:a65935544", "current_trial": 17, "dateTime": 1691160822625, "trialdata": {"revealed_states": [], "clicked_states": ["14", "15", "16", "2", "3", "8", "11"], "num_clicks_accrued": [0, 0, 0, 0, 0, 0, 0, 0, 0, 0, 0, 0, 0], "stateRewards": ["", 10, 10, -10, -10, 10, -10, 10, 10, 10, 10, -10, 10, -10, -10, -10, 10, -10, -10, -10, -10, -10, -10, -10, -10, -10, 10, -10, 10, 10, 10, -10, -10, 10], "withholdReward": false, "trial_id": "practice_2", "block": "test", "trialIndex": 5, "score": -10, "costs": -3.5, "simulationMode": [null, null, null, null, null], "rewards": [10, 10, -10, -10, -10], "path": ["0", "0", "1", "2", "3", "4", "6"], "rt": [13474, 451, 241, 644, 425], "actions": ["up", "up", "up", "right", "right"], "actionTimes": [16286, 17255, 17996, 19163, 20111], "queries": {"click": {"state": {"target": ["14", "15", "16", "2", "3", "8", "11"], "time": [4588, 5887, 8070, 9734, 11094, 13373, 15037]}, "edge": {"target": [], "time": []}}, "mouseover": {"state": {"target": ["13", "14", "15", "16", "2", "3", "8", "11"], "time": [3640, 3901, 5320, 6487, 9217, 10304, 12818, 14533]}, "edge": {"target": [], "time": []}}, "mouseout": {"state": {"target": ["21", "0", "13", "14", "15", "16", "2", "3", "8", "11", "0", "22"], "time": [1216, 3565, 3673, 5171, 6295, 8870, 10185, 12779, 14448, 21664, 21817, 22219]}, "edge": {"target": [], "time": []}}}, "displayed_time": "20.62", "trialTime": 24395, "trial_type": "mouselab-mdp", "trial_index": 17, "time_elapsed": 1601042, "internal_node_id": "0.0-2.2-2.2-1.2"}}, {"uniqueid": "w32685957:a65935544", "current_trial": 18, "dateTime": 1691160834028, "trialdata": {"view_history": [{"page_index": 0, "viewing_time": 9531}, {"page_index": 1, "viewing_time": 1856}], "rt": 11388, "trial_id": "mouselab_instructions_2_misaligned", "trial_type": "instructions", "trial_index": 18, "time_elapsed": 1612446, "internal_node_id": "0.0-2.2-3.2"}}, {"uniqueid": "w32685957:a65935544", "current_trial": 19, "dateTime": 1691161001974, "trialdata": {"rt": 167932, "response": {"Q0": "The cost for clicking on nodes may vary between nodes.", "Q1": "The better I perform the higher my bonus will be.", "Q2": "Yes.", "Q3": "To get the highest total score.", "Q4": "Any time during the round.", "Q5": "3 seconds"}, "question_order": [0, 1, 2, 3, 4, 5], "correct": {"Q0": "The cost for clicking on nodes may vary between nodes.", "Q1": "The better I perform the higher my bonus will be.", "Q2": "No, the amount of cash at each node of the web may be different each time.", "Q3": "To get the highest total score.", "Q4": "Only before moving the spider.", "Q5": "3 seconds"}, "trial_id": "mouselab_quiz_misaligned", "trial_type": "survey-multi-choice", "trial_index": 19, "time_elapsed": 1780391, "internal_node_id": "0.0-2.2-4.2"}}, {"uniqueid": "w32685957:a65935544", "current_trial": 20, "dateTime": 1691161012701, "trialdata": {"success": true, "trial_type": "fullscreen", "trial_index": 20, "time_elapsed": 1791119, "internal_node_id": "0.0-2.3-0.3"}}, {"uniqueid": "w32685957:a65935544", "current_trial": 21, "dateTime": 1691161333264, "trialdata": {"view_history": [{"page_index": 0, "viewing_time": 25203}, {"page_index": 1, "viewing_time": 139057}, {"page_index": 0, "viewing_time": 17057}, {"page_index": 1, "viewing_time": 14401}, {"page_index": 2, "viewing_time": 52190}, {"page_index": 3, "viewing_time": 72643}], "rt": 320553, "trial_id": "mouselab_instructions_1_misaligned", "trial_type": "instructions", "trial_index": 21, "time_elapsed": 2111682, "internal_node_id": "0.0-2.3-1.3"}}, {"uniqueid": "w32685957:a65935544", "current_trial": 22, "dateTime": 1691161361328, "trialdata": {"revealed_states": [], "clicked_states": ["8"], "num_clicks_accrued": [0, 0, 0, 0, 0, 0, 0, 0, 0, 0, 0, 0, 0], "stateRewards": ["", -10, 10, 10, -10, 10, -10, -10, 10, 10, 10, 10, -10, 10, 10, 10, 10, 10, 10, -10, 10, -10, 10, -10, 10, 10, 10, 10, 10, 10, -10, 10, 10, -10], "withholdReward": false, "trial_id": "practice_1", "block": "test", "trialIndex": 6, "score": 33, "costs": -0.5, "simulationMode": [null, null, null, null, null], "rewards": [-10, 10, 10, 10, 10], "path": ["0", "0", "1", "2", "3", "8", "11"], "rt": [13050, 403, 138, 421, 180], "actions": ["up", "up", "up", "left", "left"], "actionTimes": [18893, 19838, 20492, 21453, 22130], "queries": {"click": {"state": {"target": ["8"], "time": [9298]}, "edge": {"target": [], "time": []}}, "mouseover": {"state": {"target": ["1", "8", "2", "1", "1"], "time": [8228, 8414, 16529, 16596, 17219]}, "edge": {"target": [], "time": []}}, "mouseout": {"state": {"target": ["0", "1", "8", "2", "1", "1", "13", "19", "20"], "time": [8209, 8245, 16484, 16547, 17033, 24432, 24487, 24518, 24551]}, "edge": {"target": [], "time": []}}}, "displayed_time": "22.63", "trialTime": 27286, "trial_type": "mouselab-mdp", "trial_index": 22, "time_elapsed": 2139744, "internal_node_id": "0.0-2.3-2.3-0.3"}}, {"uniqueid": "w32685957:a65935544", "current_trial": 23, "dateTime": 1691161391364, "trialdata": {"revealed_states": [], "clicked_states": ["8"], "num_clicks_accrued": [0, 0, 0, 0, 0, 0, 0, 0, 0, 0, 0, 0, 0], "stateRewards": ["", 10, 10, -10, -10, 10, -10, 10, 10, 10, 10, -10, 10, -10, -10, -10, 10, -10, -10, -10, -10, -10, -10, -10, -10, -10, 10, -10, 10, 10, 10, -10, -10, 10], "withholdReward": false, "trial_id": "practice_2", "block": "test", "trialIndex": 7, "score": 13, "costs": -0.5, "simulationMode": [null, null, null, null, null], "rewards": [10, 10, -10, 10, -10], "path": ["0", "0", "1", "2", "3", "8", "11"], "rt": [12319, 47, 270, 747, 190], "actions": ["up", "up", "up", "left", "left"], "actionTimes": [14674, 15252, 16056, 17318, 18010], "queries": {"click": {"state": {"target": ["8"], "time": [3915]}, "edge": {"target": [], "time": []}}, "mouseover": {"state": {"target": ["10", "8", "18", "15"], "time": [3100, 3134, 10151, 10174]}, "edge": {"target": [], "time": []}}, "mouseout": {"state": {"target": ["0", "10", "8", "18", "15"], "time": [1138, 3117, 10112, 10168, 10199]}, "edge": {"target": [], "time": []}}}, "displayed_time": "18.52", "trialTime": 29276, "trial_type": "mouselab-mdp", "trial_index": 23, "time_elapsed": 2169780, "internal_node_id": "0.0-2.3-2.3-1.3"}}, {"uniqueid": "w32685957:a65935544", "current_trial": 24, "dateTime": 1691161463178, "trialdata": {"view_history": [{"page_index": 0, "viewing_time": 69839}, {"page_index": 1, "viewing_time": 1959}], "rt": 71799, "trial_id": "mouselab_instructions_2_misaligned", "trial_type": "instructions", "trial_index": 24, "time_elapsed": 2241596, "internal_node_id": "0.0-2.3-3.3"}}, {"uniqueid": "w32685957:a65935544", "current_trial": 25, "dateTime": 1691161512573, "trialdata": {"rt": 49381, "response": {"Q0": "The cost for clicking on nodes may vary between nodes.", "Q1": "The better I perform the higher my bonus will be.", "Q2": "No, the amount of cash at each node of the web may be different each time.", "Q3": "To get the highest total score.", "Q4": "Only before moving the spider.", "Q5": "3 seconds"}, "question_order": [0, 1, 2, 3, 4, 5], "correct": {"Q0": "The cost for clicking on nodes may vary between nodes.", "Q1": "The better I perform the higher my bonus will be.", "Q2": "No, the amount of cash at each node of the web may be different each time.", "Q3": "To get the highest total score.", "Q4": "Only before moving the spider.", "Q5": "3 seconds"}, "trial_id": "mouselab_quiz_misaligned", "trial_type": "survey-multi-choice", "trial_index": 25, "time_elapsed": 2290991, "internal_node_id": "0.0-2.3-4.3"}}, {"uniqueid": "w32685957:a65935544", "current_trial": 26, "dateTime": 1691161547041, "trialdata": {"rt": 34434, "stimulus": "\n<h1> Get ready to start the game! </h1>\n\nThank you for reading the instructions. Get ready start with the 40 rounds of this game.\n<br><br>\nIf you need to take a break, feel free to take one after the end of a round, before continuing to the next one.\n<br><br>\nRemember, the more money the spider gets, the bigger your bonus will be!\n<br><br>\n<div style='text-align: center;'>Press <code>space</code> to begin.</div>\n\n<br><br>\n(If, at any point, the <code>space</code> key does not take you to the next page, click once on the text and try again.)", "response": " ", "trial_id": "mdp_ready", "trial_type": "html-keyboard-response", "trial_index": 26, "time_elapsed": 2325459, "internal_node_id": "0.0-4.0-0.0"}}, {"uniqueid": "w32685957:a65935544", "current_trial": 27, "dateTime": 1691161571686, "trialdata": {"revealed_states": [], "clicked_states": ["4"], "num_clicks_accrued": [0, 0, 0, 0, 0, 0, 0, 0, 0, 0, 0, 0, 0], "stateRewards": ["", -1, -3, -7, -7, -76, 30, -49, 11, -70, 56, 2, 1, 4, -3, -14, -59, -83, -25, -9, -21, -67, -73, -2, 4, 4, -9, -11, -32, 60, 9, -87, 22, -64], "withholdReward": false, "trial_id": "mdp_trial_1", "block": "test", "trialIndex": 8, "score": -71.55, "costs": -1.55, "simulationMode": [null, null, null, null, null], "rewards": [-1, -3, -7, 11, -70], "path": ["0", "0", "1", "2", "3", "8", "9"], "rt": [4034, 178, 77, 452, 805], "actions": ["up", "up", "up", "left", "up"], "actionTimes": [9090, 9786, 10386, 11350, 12650], "queries": {"click": {"state": {"target": ["4"], "time": [6628]}, "edge": {"target": [], "time": []}}, "mouseover": {"state": {"target": ["1", "7", "4", "1"], "time": [5659, 5807, 6116, 7741]}, "edge": {"target": [], "time": []}}, "mouseout": {"state": {"target": ["12", "20", "19", "22", "0", "1", "7", "4", "1", "22", "21"], "time": [1340, 2939, 2957, 3007, 5624, 5692, 5891, 7659, 7942, 21191, 21211]}, "edge": {"target": [], "time": []}}}, "displayed_time": "19.06", "trialTime": 23783, "trial_type": "mouselab-mdp", "trial_index": 27, "time_elapsed": 2350102, "internal_node_id": "0.0-4.0-1.0-0.0"}}, {"uniqueid": "w32685957:a65935544", "current_trial": 28, "dateTime": 1691161594016, "trialdata": {"revealed_states": [], "clicked_states": ["8"], "num_clicks_accrued": [0, 0, 0, 0, 0, 0, 0, 0, 0, 0, 0, 0, 0], "stateRewards": ["", 2, -1, -1, 7, 11, -40, -22, -2, 69, 37, 8, -2, 4, -8, -12, -2, -72, -3, -12, 17, 63, 12, 1, 3, -7, 6, 25, 61, 61, -9, 28, -17, 27], "withholdReward": false, "trial_id": "mdp_trial_2", "block": "test", "trialIndex": 9, "score": -34.55, "costs": -1.55, "simulationMode": [null, null, null, null, null], "rewards": [2, -1, -1, 7, -40], "path": ["0", "0", "1", "2", "3", "4", "6"], "rt": [9629, 1867, 687, 841, 180], "actions": ["up", "up", "up", "right", "right"], "actionTimes": [11703, 14080, 15267, 16628, 17351], "queries": {"click": {"state": {"target": ["8"], "time": [5095]}, "edge": {"target": [], "time": []}}, "mouseover": {"state": {"target": ["12", "13", "2", "2", "8", "3", "4"], "time": [2893, 3080, 3534, 3904, 4443, 8179, 8293]}, "edge": {"target": [], "time": []}}, "mouseout": {"state": {"target": ["0", "12", "13", "2", "2", "8", "8", "3", "4", "21"], "time": [2859, 2976, 3193, 3560, 4276, 7001, 8161, 8226, 19106, 20741]}, "edge": {"target": [], "time": []}}}, "displayed_time": "17.85", "trialTime": 21449, "trial_type": "mouselab-mdp", "trial_index": 28, "time_elapsed": 2372432, "internal_node_id": "0.0-4.0-1.0-1.0"}}, {"uniqueid": "w32685957:a65935544", "current_trial": 29, "dateTime": 1691161614469, "trialdata": {"revealed_states": [], "clicked_states": ["25"], "num_clicks_accrued": [0, 0, 0, 0, 0, 0, 0, 0, 0, 0, 0, 0, 0], "stateRewards": ["", -2, -2, -7, -13, -10, 49, -68, -1, 84, 70, 88, 1, 4, 4, 12, -57, 25, 30, 8, -1, -77, 57, 2, 3, 2, 3, -18, -80, 23, -15, -41, 70, 11], "withholdReward": false, "trial_id": "mdp_trial_3", "block": "test", "trialIndex": 10, "score": -60.95, "costs": -0.95, "simulationMode": [null, null, null, null, null], "rewards": [1, 4, 4, 8, -77], "path": ["0", "0", "12", "13", "14", "19", "21"], "rt": [5998, 203, 222, 355, 203], "actions": ["right", "right", "right", "down", "down"], "actionTimes": [9034, 9747, 10488, 11381, 12098], "queries": {"click": {"state": {"target": ["25"], "time": [4732]}, "edge": {"target": [], "time": []}}, "mouseover": {"state": {"target": ["23", "24", "25", "24", "12", "13", "12"], "time": [3675, 3726, 3807, 6649, 6746, 7207, 7607]}, "edge": {"target": [], "time": []}}, "mouseout": {"state": {"target": ["0", "23", "24", "25", "24", "12", "13", "12"], "time": [3658, 3707, 3762, 6590, 6674, 6807, 7540, 16943]}, "edge": {"target": [], "time": []}}}, "displayed_time": "17.07", "trialTime": 19682, "trial_type": "mouselab-mdp", "trial_index": 29, "time_elapsed": 2392885, "internal_node_id": "0.0-4.0-1.0-2.0"}}, {"uniqueid": "w32685957:a65935544", "current_trial": 30, "dateTime": 1691161634116, "trialdata": {"revealed_states": [], "clicked_states": [], "num_clicks_accrued": [0, 0, 0, 0, 0, 0, 0, 0, 0, 0, 0, 0, 0], "stateRewards": ["", -2, 1, 6, -2, -10, -78, -69, 14, -15, 7, -1, 1, -1, -2, 13, 77, 32, 87, 5, -74, 30, -26, 1, 3, 4, 12, 39, 54, -43, 2, 10, 23, 13], "withholdReward": false, "trial_id": "mdp_trial_4", "block": "test", "trialIndex": 11, "score": 33, "costs": 0, "simulationMode": [null, null, null, null, null], "rewards": [1, 3, 4, 2, 23], "path": ["0", "0", "23", "24", "25", "30", "32"], "rt": [7138, 232, 122, 462, 73], "actions": ["left", "left", "left", "down", "down"], "actionTimes": [9136, 9878, 10515, 11472, 12050], "queries": {"click": {"state": {"target": [], "time": []}, "edge": {"target": [], "time": []}}, "mouseover": {"state": {"target": ["1", "24", "30", "31"], "time": [4041, 4356, 4756, 6688]}, "edge": {"target": [], "time": []}}, "mouseout": {"state": {"target": ["13", "12", "1", "24", "30", "31", "21"], "time": [805, 905, 4256, 4440, 6642, 6728, 17906]}, "edge": {"target": [], "time": []}}}, "displayed_time": "16.03", "trialTime": 18698, "trial_type": "mouselab-mdp", "trial_index": 30, "time_elapsed": 2412532, "internal_node_id": "0.0-4.0-1.0-3.0"}}, {"uniqueid": "w32685957:a65935544", "current_trial": 31, "dateTime": 1691161656683, "trialdata": {"revealed_states": [], "clicked_states": ["15"], "num_clicks_accrued": [0, 0, 0, 0, 0, 0, 0, 0, 0, 0, 0, 0, 0], "stateRewards": ["", 2, 3, 6, -12, -29, 12, 87, 4, 35, -30, 67, 2, 3, -5, -9, 44, 69, -8, 1, 45, -8, 28, -2, -1, -8, 11, -12, -5, 81, 9, 87, 82, 88], "withholdReward": false, "trial_id": "mdp_trial_5", "block": "test", "trialIndex": 12, "score": 79.45, "costs": -1.55, "simulationMode": [null, null, null, null, null], "rewards": [-2, -1, -8, 11, 81], "path": ["0", "0", "23", "24", "25", "26", "29"], "rt": [5822, 358, 240, 742, 533], "actions": ["left", "left", "left", "up", "left"], "actionTimes": [10229, 11112, 11879, 13147, 14204], "queries": {"click": {"state": {"target": ["15"], "time": [6580]}, "edge": {"target": [], "time": []}}, "mouseover": {"state": {"target": ["12", "13", "14", "14", "15"], "time": [5320, 5355, 5501, 5784, 5916]}, "edge": {"target": [], "time": []}}, "mouseout": {"state": {"target": ["0", "12", "13", "14", "14", "15", "21"], "time": [5300, 5337, 5384, 5651, 5834, 8101, 20384]}, "edge": {"target": [], "time": []}}}, "displayed_time": "18.43", "trialTime": 21691, "trial_type": "mouselab-mdp", "trial_index": 31, "time_elapsed": 2435098, "internal_node_id": "0.0-4.0-1.0-4.0"}}, {"uniqueid": "w32685957:a65935544", "current_trial": 32, "dateTime": 1691161683785, "trialdata": {"revealed_states": [], "clicked_states": [], "num_clicks_accrued": [0, 0, 0, 0, 0, 0, 0, 0, 0, 0, 0, 0, 0], "stateRewards": ["", 2, 4, -6, -13, -75, -81, 30, 7, 5, 59, -65, -1, -1, 7, 14, -38, 36, -41, 1, -54, -5, 64, 2, -1, 5, 6, -19, 79, 11, 16, -33, -50, 58], "withholdReward": false, "trial_id": "mdp_trial_6", "block": "test", "trialIndex": 13, "score": -11, "costs": 0, "simulationMode": [null, null, null, null, null], "rewards": [2, -1, 5, 16, -33], "path": ["0", "0", "23", "24", "25", "30", "31"], "rt": [12771, 614, 355, 767, 685], "actions": ["left", "left", "left", "down", "right"], "actionTimes": [16778, 17922, 18796, 20073, 21279], "queries": {"click": {"state": {"target": [], "time": []}, "edge": {"target": [], "time": []}}, "mouseover": {"state": {"target": ["23", "24", "0", "12", "13", "2", "3", "4", "7", "1"], "time": [5321, 5393, 5912, 5946, 6404, 6943, 7021, 7204, 9127, 12172]}, "edge": {"target": [], "time": []}}, "mouseout": {"state": {"target": ["0", "23", "24", "0", "12", "13", "2", "3", "4", "7", "1"], "time": [2619, 5354, 5857, 5930, 5962, 6470, 6973, 7070, 9078, 9156, 12856]}, "edge": {"target": [], "time": []}}}, "displayed_time": "21.77", "trialTime": 26133, "trial_type": "mouselab-mdp", "trial_index": 32, "time_elapsed": 2462201, "internal_node_id": "0.0-4.0-1.0-5.0"}}, {"uniqueid": "w32685957:a65935544", "current_trial": 33, "dateTime": 1691161703443, "trialdata": {"revealed_states": [], "clicked_states": ["15"], "num_clicks_accrued": [0, 0, 0, 0, 0, 0, 0, 0, 0, 0, 0, 0, 0], "stateRewards": ["", -1, -3, 3, 5, 56, 39, 50, -1, -80, 33, -46, 1, -2, -6, -8, 87, 48, 54, -11, -20, -64, -54, -2, 3, -7, -3, 12, 88, 35, -16, -46, -70, -3], "withholdReward": false, "trial_id": "mdp_trial_7", "block": "test", "trialIndex": 14, "score": -83.55, "costs": -1.55, "simulationMode": [null, null, null, null, null], "rewards": [1, -2, -6, -11, -64], "path": ["0", "0", "12", "13", "14", "19", "21"], "rt": [4280, 127, 74, 206, 51], "actions": ["right", "right", "right", "down", "down"], "actionTimes": [7002, 7648, 8244, 8962, 9521], "queries": {"click": {"state": {"target": ["15"], "time": [5507]}, "edge": {"target": [], "time": []}}, "mouseover": {"state": {"target": ["18", "15"], "time": [4702, 4883]}, "edge": {"target": [], "time": []}}, "mouseout": {"state": {"target": ["19", "13", "18", "15"], "time": [749, 766, 4734, 12318]}, "edge": {"target": [], "time": []}}}, "displayed_time": "16.73", "trialTime": 18453, "trial_type": "mouselab-mdp", "trial_index": 33, "time_elapsed": 2481858, "internal_node_id": "0.0-4.0-1.0-6.0"}}, {"uniqueid": "w32685957:a65935544", "current_trial": 34, "dateTime": 1691161722448, "trialdata": {"revealed_states": [], "clicked_states": ["4"], "num_clicks_accrued": [0, 0, 0, 0, 0, 0, 0, 0, 0, 0, 0, 0, 0], "stateRewards": ["", -2, -4, 4, -11, -63, -60, -7, 2, -14, 81, -43, -1, -1, -5, 7, 10, 69, 40, 8, -83, 52, 60, 1, 2, 5, -5, 16, 64, 14, -3, 29, 7, -51], "withholdReward": false, "trial_id": "mdp_trial_8", "block": "test", "trialIndex": 15, "score": -44.55, "costs": -1.55, "simulationMode": [null, null, null, null, null], "rewards": [-2, -4, 4, 2, -43], "path": ["0", "0", "1", "2", "3", "8", "11"], "rt": [5602, 13, 113, 344, 66], "actions": ["up", "up", "up", "left", "left"], "actionTimes": [7944, 8476, 9126, 9991, 10579], "queries": {"click": {"state": {"target": ["4"], "time": [5175]}, "edge": {"target": [], "time": []}}, "mouseover": {"state": {"target": ["7", "4", "2"], "time": [4459, 4693, 7343]}, "edge": {"target": [], "time": []}}, "mouseout": {"state": {"target": ["14", "7", "4", "2", "14", "20"], "time": [825, 4509, 7283, 7376, 13276, 13327]}, "edge": {"target": [], "time": []}}}, "displayed_time": "16.38", "trialTime": 18103, "trial_type": "mouselab-mdp", "trial_index": 34, "time_elapsed": 2500865, "internal_node_id": "0.0-4.0-1.0-7.0"}}, {"uniqueid": "w32685957:a65935544", "current_trial": 35, "dateTime": 1691161744999, "trialdata": {"revealed_states": [], "clicked_states": ["21"], "num_clicks_accrued": [0, 0, 0, 0, 0, 0, 0, 0, 0, 0, 0, 0, 0], "stateRewards": ["", 1, 2, 2, -15, -84, 28, -26, 13, 31, 86, 30, -2, 1, -1, -8, 66, -40, -1, -10, -32, 57, -17, 1, 2, -2, 9, -23, 77, 85, 12, -32, -62, -35], "withholdReward": false, "trial_id": "mdp_trial_9", "block": "test", "trialIndex": 16, "score": 42.85, "costs": -2.15, "simulationMode": [null, null, null, null, null, null], "rewards": [-2, 1, -1, -10, 57], "path": ["0", "0", "12", "13", "14", "19", "21"], "rt": [4943, 4574, 120, 106, 242, 40], "actions": ["left", "right", "right", "right", "down", "down"], "actionTimes": [7725, 12308, 12927, 13570, 14353, 14898], "queries": {"click": {"state": {"target": ["21"], "time": [5305]}, "edge": {"target": [], "time": []}}, "mouseover": {"state": {"target": ["22", "19", "14", "19", "21", "22", "13"], "time": [3736, 4165, 4270, 4656, 4754, 11555, 11603]}, "edge": {"target": [], "time": []}}, "mouseout": {"state": {"target": ["21", "0", "22", "19", "14", "19", "21", "21", "22", "13"], "time": [1196, 3656, 3754, 4227, 4637, 4687, 5396, 11525, 11573, 18579]}, "edge": {"target": [], "time": []}}}, "displayed_time": "16.80", "trialTime": 21600, "trial_type": "mouselab-mdp", "trial_index": 35, "time_elapsed": 2523415, "internal_node_id": "0.0-4.0-1.0-8.0"}}, {"uniqueid": "w32685957:a65935544", "current_trial": 36, "dateTime": 1691161766742, "trialdata": {"revealed_states": [], "clicked_states": [], "num_clicks_accrued": [0, 0, 0, 0, 0, 0, 0, 0, 0, 0, 0, 0, 0], "stateRewards": ["", 1, -2, -3, 14, -42, -87, -37, -11, -50, 33, -44, -2, 4, -7, 13, 48, -75, -66, 12, 23, -2, 82, 1, -4, 3, 12, 51, -15, -26, -11, -52, -29, 82], "withholdReward": false, "trial_id": "mdp_trial_10", "block": "test", "trialIndex": 17, "score": -32, "costs": 0, "simulationMode": [null, null, null, null, null], "rewards": [1, -2, -3, 14, -42], "path": ["0", "0", "1", "2", "3", "4", "5"], "rt": [8866, 3696, 258, 640, 458], "actions": ["up", "up", "up", "right", "up"], "actionTimes": [11352, 15568, 16345, 17495, 18479], "queries": {"click": {"state": {"target": [], "time": []}, "edge": {"target": [], "time": []}}, "mouseover": {"state": {"target": ["14", "25", "30", "32", "21", "20", "19"], "time": [4568, 5171, 5539, 5600, 7817, 10122, 10155]}, "edge": {"target": [], "time": []}}, "mouseout": {"state": {"target": ["0", "14", "25", "30", "32", "21", "20", "19", "19"], "time": [4282, 4650, 5517, 5567, 7634, 8221, 10149, 10184, 20117]}, "edge": {"target": [], "time": []}}}, "displayed_time": "19.02", "trialTime": 20689, "trial_type": "mouselab-mdp", "trial_index": 36, "time_elapsed": 2545158, "internal_node_id": "0.0-4.0-1.0-9.0"}}, {"uniqueid": "w32685957:a65935544", "current_trial": 37, "dateTime": 1691161785478, "trialdata": {"revealed_states": [], "clicked_states": ["26"], "num_clicks_accrued": [0, 0, 0, 0, 0, 0, 0, 0, 0, 0, 0, 0, 0], "stateRewards": ["", -1, -2, -1, -10, -57, 73, -72, -16, 75, -14, -46, -2, -3, -7, -1, -61, -60, 76, -4, 50, 4, 14, 2, 2, -7, 12, -65, -32, 15, -8, -76, -25, -61], "withholdReward": false, "trial_id": "mdp_trial_11", "block": "test", "trialIndex": 18, "score": -57.55, "costs": -1.55, "simulationMode": [null, null, null, null, null], "rewards": [2, 2, -7, 12, -65], "path": ["0", "0", "23", "24", "25", "26", "27"], "rt": [3709, 112, 74, 353, 1563], "actions": ["left", "left", "left", "up", "up"], "actionTimes": [5945, 6585, 7168, 8022, 10100], "queries": {"click": {"state": {"target": ["26"], "time": [4314]}, "edge": {"target": [], "time": []}}, "mouseover": {"state": {"target": ["23", "24", "25", "26"], "time": [3166, 3217, 3300, 3583]}, "edge": {"target": [], "time": []}}, "mouseout": {"state": {"target": ["0", "23", "24", "25", "26", "28", "1", "14"], "time": [1265, 3200, 3251, 3516, 12468, 12501, 12594, 12661]}, "edge": {"target": [], "time": []}}}, "displayed_time": "16.24", "trialTime": 17710, "trial_type": "mouselab-mdp", "trial_index": 37, "time_elapsed": 2563894, "internal_node_id": "0.0-4.0-1.0-10.0"}}, {"uniqueid": "w32685957:a65935544", "current_trial": 38, "dateTime": 1691161806765, "trialdata": {"revealed_states": [], "clicked_states": ["30"], "num_clicks_accrued": [0, 0, 0, 0, 0, 0, 0, 0, 0, 0, 0, 0, 0], "stateRewards": ["", 1, -3, -2, 14, 49, -40, -39, 2, 26, -61, 73, 1, -4, -8, 12, 79, 29, -65, -13, 55, -26, 27, -1, 3, 3, 9, -17, -60, -18, -8, 35, -88, 69], "withholdReward": false, "trial_id": "mdp_trial_12", "block": "test", "trialIndex": 19, "score": 78.45, "costs": -1.55, "simulationMode": [null, null, null, null, null], "rewards": [1, -4, -8, 12, 79], "path": ["0", "0", "12", "13", "14", "15", "16"], "rt": [4812, 16, 303, 279, 3161], "actions": ["right", "right", "right", "up", "up"], "actionTimes": [7859, 8377, 9214, 9987, 13670], "queries": {"click": {"state": {"target": ["30"], "time": [5457]}, "edge": {"target": [], "time": []}}, "mouseover": {"state": {"target": ["23", "30"], "time": [4741, 4855]}, "edge": {"target": [], "time": []}}, "mouseout": {"state": {"target": ["19", "13", "12", "0", "23", "30", "31", "21"], "time": [1354, 1683, 1753, 4721, 4772, 12586, 12641, 18821]}, "edge": {"target": [], "time": []}}}, "displayed_time": "17.05", "trialTime": 19720, "trial_type": "mouselab-mdp", "trial_index": 38, "time_elapsed": 2585182, "internal_node_id": "0.0-4.0-1.0-11.0"}}, {"uniqueid": "w32685957:a65935544", "current_trial": 39, "dateTime": 1691161825703, "trialdata": {"revealed_states": [], "clicked_states": ["8"], "num_clicks_accrued": [0, 0, 0, 0, 0, 0, 0, 0, 0, 0, 0, 0, 0], "stateRewards": ["", -2, 2, -5, -6, 10, -66, -58, -10, -11, -63, -70, -1, -4, -5, 7, 66, -64, -43, -3, 45, -37, 4, -2, -2, -6, -4, -30, 33, 43, 15, -32, -65, -59], "withholdReward": false, "trial_id": "mdp_trial_13", "block": "test", "trialIndex": 20, "score": -2.5500000000000007, "costs": -1.55, "simulationMode": [null, null, null, null, null], "rewards": [-2, 2, -5, -6, 10], "path": ["0", "0", "1", "2", "3", "4", "5"], "rt": [3552, 137, 193, 419, 781], "actions": ["up", "up", "up", "right", "up"], "actionTimes": [6125, 6769, 7481, 8398, 9677], "queries": {"click": {"state": {"target": ["8"], "time": [4196]}, "edge": {"target": [], "time": []}}, "mouseover": {"state": {"target": ["8", "7"], "time": [3459, 5317]}, "edge": {"target": [], "time": []}}, "mouseout": {"state": {"target": ["0", "8", "7", "17"], "time": [3356, 5214, 11462, 11606]}, "edge": {"target": [], "time": []}}}, "displayed_time": "16.58", "trialTime": 17894, "trial_type": "mouselab-mdp", "trial_index": 39, "time_elapsed": 2604118, "internal_node_id": "0.0-4.0-1.0-12.0"}}, {"uniqueid": "w32685957:a65935544", "current_trial": 40, "dateTime": 1691161845139, "trialdata": {"revealed_states": [], "clicked_states": ["27"], "num_clicks_accrued": [0, 0, 0, 0, 0, 0, 0, 0, 0, 0, 0, 0, 0], "stateRewards": ["", -2, 3, -1, 2, -72, 63, 20, -1, 62, -66, 39, -2, 3, -6, 14, 22, 47, 1, 8, -49, -1, -41, 2, 2, -6, -16, -64, -60, -34, 16, 54, 22, -7], "withholdReward": false, "trial_id": "mdp_trial_14", "block": "test", "trialIndex": 21, "score": 65.85, "costs": -2.15, "simulationMode": [null, null, null, null, null, null], "rewards": [2, 2, -6, 16, 54], "path": ["0", "0", "23", "24", "25", "30", "31"], "rt": [3660, 1152, 271, 143, 435, 949], "actions": ["left", "left", "left", "left", "down", "right"], "actionTimes": [6514, 7673, 8466, 9106, 10065, 11514], "queries": {"click": {"state": {"target": ["27"], "time": [4415]}, "edge": {"target": [], "time": []}}, "mouseover": {"state": {"target": ["26", "27"], "time": [3743, 3942]}, "edge": {"target": [], "time": []}}, "mouseout": {"state": {"target": ["0", "0", "26", "27", "27", "1"], "time": [1474, 3631, 3892, 4510, 13421, 13475]}, "edge": {"target": [], "time": []}}}, "displayed_time": "16.88", "trialTime": 18348, "trial_type": "mouselab-mdp", "trial_index": 40, "time_elapsed": 2623555, "internal_node_id": "0.0-4.0-1.0-13.0"}}, {"uniqueid": "w32685957:a65935544", "current_trial": 41, "dateTime": 1691161869475, "trialdata": {"revealed_states": [], "clicked_states": ["17"], "num_clicks_accrued": [0, 0, 0, 0, 0, 0, 0, 0, 0, 0, 0, 0, 0], "stateRewards": ["", -2, -1, -3, -1, -78, -6, 2, -1, 22, -88, 32, 2, 2, -7, -8, -51, -17, 54, 2, -44, 54, 75, 2, -2, -8, -15, -29, 12, -67, 15, -1, -47, -47], "withholdReward": false, "trial_id": "mdp_trial_15", "block": "test", "trialIndex": 22, "score": 71.85, "costs": -2.15, "simulationMode": [null, null, null, null, null], "rewards": [2, 2, -7, 2, 75], "path": ["0", "0", "12", "13", "14", "19", "22"], "rt": [5836, 844, 177, 266, 642], "actions": ["right", "right", "right", "down", "left"], "actionTimes": [8512, 10924, 11632, 12403, 13542], "queries": {"click": {"state": {"target": ["17"], "time": [5518]}, "edge": {"target": [], "time": []}}, "mouseover": {"state": {"target": ["18", "15", "17"], "time": [4452, 4513, 4963]}, "edge": {"target": [], "time": []}}, "mouseout": {"state": {"target": ["19", "22", "0", "18", "15", "17"], "time": [1029, 1047, 4367, 4479, 4596, 16753]}, "edge": {"target": [], "time": []}}}, "displayed_time": "16.73", "trialTime": 23141, "trial_type": "mouselab-mdp", "trial_index": 41, "time_elapsed": 2647891, "internal_node_id": "0.0-4.0-1.0-14.0"}}, {"uniqueid": "w32685957:a65935544", "current_trial": 42, "dateTime": 1691161893594, "trialdata": {"revealed_states": [], "clicked_states": ["30"], "num_clicks_accrued": [0, 0, 0, 0, 0, 0, 0, 0, 0, 0, 0, 0, 0], "stateRewards": ["", -1, 2, -2, 5, 80, -61, -27, 12, 44, -26, -75, -2, -4, 1, -16, 42, -49, -50, 4, -44, 2, 80, -2, -2, 5, -2, 59, 10, 24, 7, -48, -86, -44], "withholdReward": false, "trial_id": "mdp_trial_16", "block": "test", "trialIndex": 23, "score": 7.45, "costs": -1.55, "simulationMode": [null, null, null, null, null], "rewards": [-2, -2, 5, -2, 10], "path": ["0", "0", "23", "24", "25", "26", "28"], "rt": [8462, 368, 930, 1979, 682], "actions": ["left", "left", "left", "up", "right"], "actionTimes": [10898, 11782, 13229, 15728, 16930], "queries": {"click": {"state": {"target": ["30"], "time": [4403]}, "edge": {"target": [], "time": []}}, "mouseover": {"state": {"target": ["23", "24", "25", "30", "32", "31"], "time": [3298, 3347, 3443, 3845, 6081, 9245]}, "edge": {"target": [], "time": []}}, "mouseout": {"state": {"target": ["0", "23", "24", "25", "30", "32", "30", "31"], "time": [3293, 3327, 3379, 3796, 6046, 6472, 9217, 9264]}, "edge": {"target": [], "time": []}}}, "displayed_time": "17.45", "trialTime": 23042, "trial_type": "mouselab-mdp", "trial_index": 42, "time_elapsed": 2672010, "internal_node_id": "0.0-4.0-1.0-15.0"}}, {"uniqueid": "w32685957:a65935544", "current_trial": 43, "dateTime": 1691161914236, "trialdata": {"revealed_states": [], "clicked_states": ["15"], "num_clicks_accrued": [0, 0, 0, 0, 0, 0, 0, 0, 0, 0, 0, 0, 0], "stateRewards": ["", -2, 2, 3, -7, -31, -33, 29, -8, -57, 50, -83, -1, -1, 5, 13, -23, -62, 25, 5, -66, -85, 14, 1, -2, -1, 16, 71, 33, -19, -14, 5, -43, 79], "withholdReward": false, "trial_id": "mdp_trial_17", "block": "test", "trialIndex": 24, "score": -78.55, "costs": -1.55, "simulationMode": [null, null, null, null, null], "rewards": [-1, -1, 5, 5, -85], "path": ["0", "0", "12", "13", "14", "19", "21"], "rt": [7149, 202, 203, 155, 960], "actions": ["right", "right", "right", "down", "down"], "actionTimes": [9260, 9998, 10698, 11367, 12822], "queries": {"click": {"state": {"target": ["15"], "time": [4464]}, "edge": {"target": [], "time": []}}, "mouseover": {"state": {"target": ["18", "15"], "time": [3564, 3709]}, "edge": {"target": [], "time": []}}, "mouseout": {"state": {"target": ["0", "18", "15"], "time": [3461, 3625, 15517]}, "edge": {"target": [], "time": []}}}, "displayed_time": "16.12", "trialTime": 19634, "trial_type": "mouselab-mdp", "trial_index": 43, "time_elapsed": 2692652, "internal_node_id": "0.0-4.0-1.0-16.0"}}, {"uniqueid": "w32685957:a65935544", "current_trial": 44, "dateTime": 1691161933714, "trialdata": {"revealed_states": [], "clicked_states": [], "num_clicks_accrued": [0, 0, 0, 0, 0, 0, 0, 0, 0, 0, 0, 0, 0], "stateRewards": ["", -2, 1, -7, 9, 8, 25, 61, -7, -17, 69, -81, 1, 4, -4, -11, 16, 67, 44, 3, 6, -45, -54, -2, 3, 6, -11, -15, 32, -47, 3, -39, -6, -88], "withholdReward": false, "trial_id": "mdp_trial_18", "block": "test", "trialIndex": 25, "score": 54, "costs": 0, "simulationMode": [null, null, null, null, null], "rewards": [-2, 1, -7, -7, 69], "path": ["0", "0", "1", "2", "3", "8", "10"], "rt": [1286, 230, 1121, 1096, 767], "actions": ["up", "up", "up", "left", "down"], "actionTimes": [3526, 4258, 5912, 7509, 8813], "queries": {"click": {"state": {"target": [], "time": []}, "edge": {"target": [], "time": []}}, "mouseover": {"state": {"target": [], "time": []}, "edge": {"target": [], "time": []}}, "mouseout": {"state": {"target": ["0"], "time": [10171]}, "edge": {"target": [], "time": []}}}, "displayed_time": "16.27", "trialTime": 18575, "trial_type": "mouselab-mdp", "trial_index": 44, "time_elapsed": 2712129, "internal_node_id": "0.0-4.0-1.0-17.0"}}, {"uniqueid": "w32685957:a65935544", "current_trial": 45, "dateTime": 1691161953093, "trialdata": {"revealed_states": [], "clicked_states": [], "num_clicks_accrued": [0, 0, 0, 0, 0, 0, 0, 0, 0, 0, 0, 0, 0], "stateRewards": ["", -1, 1, 8, -3, -24, 11, -65, -6, -77, 48, 44, -2, 1, -2, -7, -55, -35, 33, 8, -28, 19, -53, -1, -1, -5, -5, -70, 10, 44, 8, -58, -70, 51], "withholdReward": false, "trial_id": "mdp_trial_19", "block": "test", "trialIndex": 26, "score": -60, "costs": 0, "simulationMode": [null, null, null, null, null], "rewards": [-1, 1, 8, -3, -65], "path": ["0", "0", "1", "2", "3", "4", "7"], "rt": [1247, 139, 161, 393, 665], "actions": ["up", "up", "up", "right", "down"], "actionTimes": [4160, 4804, 5491, 6405, 7578], "queries": {"click": {"state": {"target": [], "time": []}, "edge": {"target": [], "time": []}}, "mouseover": {"state": {"target": ["0"], "time": [3244]}, "edge": {"target": [], "time": []}}, "mouseout": {"state": {"target": ["19", "0", "0"], "time": [1073, 1907, 3431]}, "edge": {"target": [], "time": []}}}, "displayed_time": "16.92", "trialTime": 18358, "trial_type": "mouselab-mdp", "trial_index": 45, "time_elapsed": 2731509, "internal_node_id": "0.0-4.0-1.0-18.0"}}, {"uniqueid": "w32685957:a65935544", "current_trial": 46, "dateTime": 1691161973398, "trialdata": {"revealed_states": [], "clicked_states": [], "num_clicks_accrued": [0, 0, 0, 0, 0, 0, 0, 0, 0, 0, 0, 0, 0], "stateRewards": ["", 2, 3, 8, 14, 69, -27, 17, 2, -71, -65, -10, 2, -3, 7, 8, 65, -10, 65, -12, 73, -12, 13, -2, -2, 6, 10, -79, -69, -18, 10, -85, 67, 74], "withholdReward": false, "trial_id": "mdp_trial_20", "block": "test", "trialIndex": 27, "score": -57, "costs": 0, "simulationMode": [null, null, null, null, null], "rewards": [-2, -2, 6, 10, -69], "path": ["0", "0", "23", "24", "25", "26", "28"], "rt": [2211, 224, 306, 417, 311], "actions": ["left", "left", "left", "up", "right"], "actionTimes": [4834, 5585, 6403, 7345, 8155], "queries": {"click": {"state": {"target": [], "time": []}, "edge": {"target": [], "time": []}}, "mouseover": {"state": {"target": [], "time": []}, "edge": {"target": [], "time": []}}, "mouseout": {"state": {"target": ["22", "0", "13", "14"], "time": [1106, 11211, 11257, 11278]}, "edge": {"target": [], "time": []}}}, "displayed_time": "16.63", "trialTime": 18946, "trial_type": "mouselab-mdp", "trial_index": 46, "time_elapsed": 2751814, "internal_node_id": "0.0-4.0-1.0-19.0"}}, {"uniqueid": "w32685957:a65935544", "current_trial": 47, "dateTime": 1691161993448, "trialdata": {"revealed_states": [], "clicked_states": [], "num_clicks_accrued": [0, 0, 0, 0, 0, 0, 0, 0, 0, 0, 0, 0, 0], "stateRewards": ["", -1, 1, -5, -6, -78, 47, -13, 12, 48, -88, 20, 2, -3, -2, 13, -20, 37, -57, 14, -38, 30, 31, -2, -2, 8, 2, -23, 78, 28, 12, -74, -88, 8], "withholdReward": false, "trial_id": "mdp_trial_21", "block": "test", "trialIndex": 28, "score": 55, "costs": 0, "simulationMode": [null, null, null, null, null], "rewards": [-1, 1, -5, 12, 48], "path": ["0", "0", "1", "2", "3", "8", "9"], "rt": [1078, 29, 298, 362, 1315], "actions": ["up", "up", "up", "left", "up"], "actionTimes": [4468, 5027, 5829, 6709, 8528], "queries": {"click": {"state": {"target": [], "time": []}, "edge": {"target": [], "time": []}}, "mouseover": {"state": {"target": [], "time": []}, "edge": {"target": [], "time": []}}, "mouseout": {"state": {"target": ["22", "20", "12", "0"], "time": [1300, 1759, 1798, 10776]}, "edge": {"target": [], "time": []}}}, "displayed_time": "17.44", "trialTime": 18833, "trial_type": "mouselab-mdp", "trial_index": 47, "time_elapsed": 2771864, "internal_node_id": "0.0-4.0-1.0-20.0"}}, {"uniqueid": "w32685957:a65935544", "current_trial": 48, "dateTime": 1691162012438, "trialdata": {"revealed_states": [], "clicked_states": [], "num_clicks_accrued": [0, 0, 0, 0, 0, 0, 0, 0, 0, 0, 0, 0, 0], "stateRewards": ["", -2, -3, -5, 8, 27, 11, 43, -6, -24, -87, 69, -2, 1, 1, 9, 19, 48, -37, 9, -14, 45, 62, 1, 2, 1, 16, -81, -41, 22, 4, -6, -63, 47], "withholdReward": false, "trial_id": "mdp_trial_22", "block": "test", "trialIndex": 29, "score": 42, "costs": 0, "simulationMode": [null, null, null, null, null], "rewards": [1, 2, 1, 16, 22], "path": ["0", "0", "23", "24", "25", "26", "29"], "rt": [5677, 50, 122, 391, 681], "actions": ["left", "left", "left", "up", "left"], "actionTimes": [8015, 8588, 9247, 10172, 11385], "queries": {"click": {"state": {"target": [], "time": []}, "edge": {"target": [], "time": []}}, "mouseover": {"state": {"target": [], "time": []}, "edge": {"target": [], "time": []}}, "mouseout": {"state": {"target": ["0", "20"], "time": [14270, 14352]}, "edge": {"target": [], "time": []}}}, "displayed_time": "16.34", "trialTime": 17766, "trial_type": "mouselab-mdp", "trial_index": 48, "time_elapsed": 2790854, "internal_node_id": "0.0-4.0-1.0-21.0"}}, {"uniqueid": "w32685957:a65935544", "current_trial": 49, "dateTime": 1691162033570, "trialdata": {"revealed_states": [], "clicked_states": [], "num_clicks_accrued": [0, 0, 0, 0, 0, 0, 0, 0, 0, 0, 0, 0, 0], "stateRewards": ["", -1, 4, -6, -5, -22, -38, -38, -2, -56, 88, 14, -1, -1, -7, -6, 61, -60, 21, 11, 57, 31, -30, -2, -2, 6, -9, -44, -70, -44, -15, 34, 16, -78], "withholdReward": false, "trial_id": "mdp_trial_23", "block": "test", "trialIndex": 30, "score": -46, "costs": 0, "simulationMode": [null, null, null, null, null], "rewards": [-1, 4, -6, -5, -38], "path": ["0", "0", "1", "2", "3", "4", "7"], "rt": [3737, 215, 372, 849, 6], "actions": ["up", "up", "up", "right", "down"], "actionTimes": [7721, 8499, 9419, 10769, 11290], "queries": {"click": {"state": {"target": [], "time": []}, "edge": {"target": [], "time": []}}, "mouseover": {"state": {"target": [], "time": []}, "edge": {"target": [], "time": []}}, "mouseout": {"state": {"target": ["20", "13", "12", "0", "12", "19"], "time": [2063, 2470, 2547, 13002, 13033, 13081]}, "edge": {"target": [], "time": []}}}, "displayed_time": "18.01", "trialTime": 20029, "trial_type": "mouselab-mdp", "trial_index": 49, "time_elapsed": 2811986, "internal_node_id": "0.0-4.0-1.0-22.0"}}, {"uniqueid": "w32685957:a65935544", "current_trial": 50, "dateTime": 1691162055315, "trialdata": {"revealed_states": [], "clicked_states": [], "num_clicks_accrued": [0, 0, 0, 0, 0, 0, 0, 0, 0, 0, 0, 0, 0], "stateRewards": ["", 1, -3, -1, 9, -34, -40, 22, -7, 45, 53, -11, 2, 4, 5, 15, 21, 37, -49, -3, 80, -28, -34, 1, -3, 1, 1, -40, -6, -5, -16, -85, -86, 59], "withholdReward": false, "trial_id": "mdp_trial_24", "block": "test", "trialIndex": 31, "score": -103, "costs": 0, "simulationMode": [null, null, null, null, null], "rewards": [1, -3, 1, -16, -86], "path": ["0", "0", "23", "24", "25", "30", "32"], "rt": [1390, 271, 70, 420, 326], "actions": ["left", "left", "left", "down", "down"], "actionTimes": [5089, 5859, 6463, 7392, 8218], "queries": {"click": {"state": {"target": [], "time": []}, "edge": {"target": [], "time": []}}, "mouseover": {"state": {"target": ["0"], "time": [4120]}, "edge": {"target": [], "time": []}}, "mouseout": {"state": {"target": ["19", "22", "0", "0", "22"], "time": [2066, 2106, 2533, 4159, 11302]}, "edge": {"target": [], "time": []}}}, "displayed_time": "17.73", "trialTime": 19895, "trial_type": "mouselab-mdp", "trial_index": 50, "time_elapsed": 2833731, "internal_node_id": "0.0-4.0-1.0-23.0"}}, {"uniqueid": "w32685957:a65935544", "current_trial": 51, "dateTime": 1691162074736, "trialdata": {"revealed_states": [], "clicked_states": [], "num_clicks_accrued": [0, 0, 0, 0, 0, 0, 0, 0, 0, 0, 0, 0, 0], "stateRewards": ["", -2, 2, 5, -14, -56, 64, 84, -5, 52, 39, 85, -2, 1, 7, 8, 21, 29, -78, -9, -10, -69, 10, -2, -1, -7, 15, 72, 20, 41, -2, 52, 80, 22], "withholdReward": false, "trial_id": "mdp_trial_25", "block": "test", "trialIndex": 32, "score": 35, "costs": 0, "simulationMode": [null, null, null, null, null], "rewards": [-2, 1, 7, 8, 21], "path": ["0", "0", "12", "13", "14", "15", "16"], "rt": [3448, 229, 186, 139, 33], "actions": ["right", "right", "right", "up", "up"], "actionTimes": [6255, 6998, 7709, 8374, 8951], "queries": {"click": {"state": {"target": [], "time": []}, "edge": {"target": [], "time": []}}, "mouseover": {"state": {"target": [], "time": []}, "edge": {"target": [], "time": []}}, "mouseout": {"state": {"target": ["20", "14", "13", "12", "0", "20"], "time": [997, 1029, 1048, 1413, 10464, 10520]}, "edge": {"target": [], "time": []}}}, "displayed_time": "16.83", "trialTime": 18014, "trial_type": "mouselab-mdp", "trial_index": 51, "time_elapsed": 2853152, "internal_node_id": "0.0-4.0-1.0-24.0"}}, {"uniqueid": "w32685957:a65935544", "current_trial": 52, "dateTime": 1691162094708, "trialdata": {"revealed_states": [], "clicked_states": [], "num_clicks_accrued": [0, 0, 0, 0, 0, 0, 0, 0, 0, 0, 0, 0, 0], "stateRewards": ["", -2, -1, -1, 5, -54, -87, 35, 2, -8, 20, -22, 1, 3, 6, 13, -75, -32, -55, -3, 56, 62, -22, -1, -4, -1, -7, -51, 84, 70, 7, -15, 5, 55], "withholdReward": false, "trial_id": "mdp_trial_26", "block": "test", "trialIndex": 33, "score": 71, "costs": 0, "simulationMode": [null, null, null, null, null], "rewards": [-1, -4, -1, -7, 84], "path": ["0", "0", "23", "24", "25", "26", "28"], "rt": [1315, 500, 682, 374, 299], "actions": ["left", "left", "left", "up", "right"], "actionTimes": [4113, 5131, 6330, 7393, 8197], "queries": {"click": {"state": {"target": [], "time": []}, "edge": {"target": [], "time": []}}, "mouseover": {"state": {"target": ["0"], "time": [2830]}, "edge": {"target": [], "time": []}}, "mouseout": {"state": {"target": ["19", "22", "0", "0"], "time": [1010, 1041, 1426, 11670]}, "edge": {"target": [], "time": []}}}, "displayed_time": "16.80", "trialTime": 18482, "trial_type": "mouselab-mdp", "trial_index": 52, "time_elapsed": 2873124, "internal_node_id": "0.0-4.0-1.0-25.0"}}, {"uniqueid": "w32685957:a65935544", "current_trial": 53, "dateTime": 1691162113580, "trialdata": {"revealed_states": [], "clicked_states": [], "num_clicks_accrued": [0, 0, 0, 0, 0, 0, 0, 0, 0, 0, 0, 0, 0], "stateRewards": ["", -1, 3, 2, 9, 41, 4, -46, -12, -54, -87, -25, 2, 3, -1, 11, -77, 12, -33, -9, -32, 35, 72, 1, 3, -7, 4, 37, 65, -73, 6, 77, -43, 8], "withholdReward": false, "trial_id": "mdp_trial_27", "block": "test", "trialIndex": 34, "score": 17, "costs": 0, "simulationMode": [null, null, null, null, null], "rewards": [-1, 3, 2, 9, 4], "path": ["0", "0", "1", "2", "3", "4", "6"], "rt": [1330, 154, 291, 1243, 345], "actions": ["up", "up", "up", "right", "right"], "actionTimes": [3442, 4119, 4908, 6659, 7554], "queries": {"click": {"state": {"target": [], "time": []}, "edge": {"target": [], "time": []}}, "mouseover": {"state": {"target": [], "time": []}, "edge": {"target": [], "time": []}}, "mouseout": {"state": {"target": ["13", "0", "12", "19"], "time": [626, 9216, 9279, 9313]}, "edge": {"target": [], "time": []}}}, "displayed_time": "16.15", "trialTime": 17657, "trial_type": "mouselab-mdp", "trial_index": 53, "time_elapsed": 2891996, "internal_node_id": "0.0-4.0-1.0-26.0"}}, {"uniqueid": "w32685957:a65935544", "current_trial": 54, "dateTime": 1691162133732, "trialdata": {"revealed_states": [], "clicked_states": [], "num_clicks_accrued": [0, 0, 0, 0, 0, 0, 0, 0, 0, 0, 0, 0, 0], "stateRewards": ["", 2, 4, 7, 7, -79, -2, -21, -5, -53, 47, -21, 1, -3, -1, 7, 83, 7, 84, -7, 80, -37, 69, 2, -4, 5, 2, 4, -20, -30, 7, 71, 44, -81], "withholdReward": false, "trial_id": "mdp_trial_28", "block": "test", "trialIndex": 35, "score": 88, "costs": 0, "simulationMode": [null, null, null, null, null], "rewards": [1, -3, -1, 7, 84], "path": ["0", "0", "12", "13", "14", "15", "18"], "rt": [2406, 258, 211, 357, 1133], "actions": ["right", "right", "right", "up", "left"], "actionTimes": [5167, 5936, 6658, 7554, 9197], "queries": {"click": {"state": {"target": [], "time": []}, "edge": {"target": [], "time": []}}, "mouseover": {"state": {"target": [], "time": []}, "edge": {"target": [], "time": []}}, "mouseout": {"state": {"target": ["21", "0", "0", "12", "19", "22"], "time": [1074, 1642, 15199, 15283, 18011, 18041]}, "edge": {"target": [], "time": []}}}, "displayed_time": "16.77", "trialTime": 18988, "trial_type": "mouselab-mdp", "trial_index": 54, "time_elapsed": 2912148, "internal_node_id": "0.0-4.0-1.0-27.0"}}, {"uniqueid": "w32685957:a65935544", "current_trial": 55, "dateTime": 1691162153815, "trialdata": {"revealed_states": [], "clicked_states": [], "num_clicks_accrued": [0, 0, 0, 0, 0, 0, 0, 0, 0, 0, 0, 0, 0], "stateRewards": ["", 1, -2, 4, 7, -43, -83, -60, -5, -86, -80, 83, -1, -2, 6, 11, -15, 21, 13, 9, 29, -49, 11, -1, 4, -6, -11, 87, 40, 63, -8, -39, -11, 62], "withholdReward": false, "trial_id": "mdp_trial_29", "block": "test", "trialIndex": 36, "score": -82, "costs": 0, "simulationMode": [null, null, null, null, null], "rewards": [1, -2, 4, -5, -80], "path": ["0", "0", "1", "2", "3", "8", "10"], "rt": [2339, 182, 501, 878, 849], "actions": ["up", "up", "up", "left", "down"], "actionTimes": [4967, 5671, 6673, 8050, 9487], "queries": {"click": {"state": {"target": [], "time": []}, "edge": {"target": [], "time": []}}, "mouseover": {"state": {"target": [], "time": []}, "edge": {"target": [], "time": []}}, "mouseout": {"state": {"target": ["0"], "time": [11575]}, "edge": {"target": [], "time": []}}}, "displayed_time": "16.66", "trialTime": 18749, "trial_type": "mouselab-mdp", "trial_index": 55, "time_elapsed": 2932232, "internal_node_id": "0.0-4.0-1.0-28.0"}}, {"uniqueid": "w32685957:a65935544", "current_trial": 56, "dateTime": 1691162173709, "trialdata": {"revealed_states": [], "clicked_states": [], "num_clicks_accrued": [0, 0, 0, 0, 0, 0, 0, 0, 0, 0, 0, 0, 0], "stateRewards": ["", 2, -1, 8, -2, -16, 69, -39, -7, -13, -27, -86, 2, -2, 2, 13, -34, -16, -20, -5, 19, 81, 32, -2, -1, 2, -14, 20, 80, 58, 4, 70, 12, 73], "withholdReward": false, "trial_id": "mdp_trial_30", "block": "test", "trialIndex": 37, "score": 76, "costs": 0, "simulationMode": [null, null, null, null, null], "rewards": [2, -1, 8, -2, 69], "path": ["0", "0", "1", "2", "3", "4", "6"], "rt": [1163, 245, 124, 348, 505], "actions": ["up", "up", "up", "right", "right"], "actionTimes": [3960, 4725, 5356, 6213, 7218], "queries": {"click": {"state": {"target": [], "time": []}, "edge": {"target": [], "time": []}}, "mouseover": {"state": {"target": [], "time": []}, "edge": {"target": [], "time": []}}, "mouseout": {"state": {"target": ["0"], "time": [9901]}, "edge": {"target": [], "time": []}}}, "displayed_time": "16.82", "trialTime": 18401, "trial_type": "mouselab-mdp", "trial_index": 56, "time_elapsed": 2952125, "internal_node_id": "0.0-4.0-1.0-29.0"}}, {"uniqueid": "w32685957:a65935544", "current_trial": 57, "dateTime": 1691162194252, "trialdata": {"revealed_states": [], "clicked_states": [], "num_clicks_accrued": [0, 0, 0, 0, 0, 0, 0, 0, 0, 0, 0, 0, 0], "stateRewards": ["", -1, 2, -6, 6, -82, -19, -39, -16, -83, 11, -33, -2, -2, 4, -6, -82, -1, -19, -6, -10, -67, -41, -2, 1, -7, 16, -23, -78, -52, 14, 31, -71, 74], "withholdReward": false, "trial_id": "mdp_trial_31", "block": "test", "trialIndex": 38, "score": 37, "costs": 0, "simulationMode": [null, null, null, null, null], "rewards": [-2, 1, -7, 14, 31], "path": ["0", "0", "23", "24", "25", "30", "31"], "rt": [1052, 168, 154, 449, 415], "actions": ["left", "left", "left", "down", "right"], "actionTimes": [4425, 5106, 5759, 6828, 7785], "queries": {"click": {"state": {"target": [], "time": []}, "edge": {"target": [], "time": []}}, "mouseover": {"state": {"target": [], "time": []}, "edge": {"target": [], "time": []}}, "mouseout": {"state": {"target": ["22", "0", "0", "19"], "time": [1762, 2251, 9815, 18754]}, "edge": {"target": [], "time": []}}}, "displayed_time": "17.41", "trialTime": 19119, "trial_type": "mouselab-mdp", "trial_index": 57, "time_elapsed": 2972667, "internal_node_id": "0.0-4.0-1.0-30.0"}}, {"uniqueid": "w32685957:a65935544", "current_trial": 58, "dateTime": 1691162213257, "trialdata": {"revealed_states": [], "clicked_states": [], "num_clicks_accrued": [0, 0, 0, 0, 0, 0, 0, 0, 0, 0, 0, 0, 0], "stateRewards": ["", -2, -3, 8, 14, -73, 73, 84, -12, -2, -50, -17, 2, 1, -2, -9, -44, -27, -33, 16, -63, -47, -66, -2, 1, 4, -5, -33, -11, 50, 9, 38, -79, 31], "withholdReward": false, "trial_id": "mdp_trial_32", "block": "test", "trialIndex": 39, "score": -52, "costs": 0, "simulationMode": [null, null, null, null, null], "rewards": [2, 1, -2, -9, -44], "path": ["0", "0", "12", "13", "14", "15", "16"], "rt": [1733, 785, 108, 598, 13], "actions": ["right", "right", "right", "up", "up"], "actionTimes": [4274, 5565, 6225, 7348, 7860], "queries": {"click": {"state": {"target": [], "time": []}, "edge": {"target": [], "time": []}}, "mouseover": {"state": {"target": [], "time": []}, "edge": {"target": [], "time": []}}, "mouseout": {"state": {"target": ["0", "13", "20"], "time": [9772, 9845, 13297]}, "edge": {"target": [], "time": []}}}, "displayed_time": "16.57", "trialTime": 17651, "trial_type": "mouselab-mdp", "trial_index": 58, "time_elapsed": 2991673, "internal_node_id": "0.0-4.0-1.0-31.0"}}, {"uniqueid": "w32685957:a65935544", "current_trial": 59, "dateTime": 1691162232667, "trialdata": {"revealed_states": [], "clicked_states": [], "num_clicks_accrued": [0, 0, 0, 0, 0, 0, 0, 0, 0, 0, 0, 0, 0], "stateRewards": ["", 1, -4, -6, 11, -20, 8, -30, 1, -38, 88, 42, 2, 3, 5, -12, -8, -74, 30, -8, 67, -19, 42, 2, -1, 4, 13, 50, -68, 2, -8, -15, 87, -46], "withholdReward": false, "trial_id": "mdp_trial_33", "block": "test", "trialIndex": 40, "score": 10, "costs": 0, "simulationMode": [null, null, null, null, null], "rewards": [1, -4, -6, 11, 8], "path": ["0", "0", "1", "2", "3", "4", "6"], "rt": [1081, 24, 644, 569, 145], "actions": ["up", "up", "up", "right", "right"], "actionTimes": [3451, 4026, 5173, 6249, 6907], "queries": {"click": {"state": {"target": [], "time": []}, "edge": {"target": [], "time": []}}, "mouseover": {"state": {"target": [], "time": []}, "edge": {"target": [], "time": []}}, "mouseout": {"state": {"target": ["20", "13", "12", "0", "19"], "time": [757, 822, 1187, 8300, 8374]}, "edge": {"target": [], "time": []}}}, "displayed_time": "16.39", "trialTime": 17993, "trial_type": "mouselab-mdp", "trial_index": 59, "time_elapsed": 3011082, "internal_node_id": "0.0-4.0-1.0-32.0"}}, {"uniqueid": "w32685957:a65935544", "current_trial": 60, "dateTime": 1691162254325, "trialdata": {"revealed_states": [], "clicked_states": [], "num_clicks_accrued": [0, 0, 0, 0, 0, 0, 0, 0, 0, 0, 0, 0, 0], "stateRewards": ["", 2, -1, -4, -13, 74, 77, 3, 2, -43, -2, -11, 2, 3, 7, 11, -26, -29, -33, -3, -3, -13, -3, 1, 3, -7, 14, -59, 33, 9, -5, 34, 79, 68], "withholdReward": false, "trial_id": "mdp_trial_34", "block": "test", "trialIndex": 41, "score": 44, "costs": 0, "simulationMode": [null, null, null, null, null], "rewards": [1, 3, -7, 14, 33], "path": ["0", "0", "23", "24", "25", "26", "28"], "rt": [1284, 160, 1234, 734, 6417], "actions": ["left", "left", "left", "up", "right"], "actionTimes": [3317, 4854, 7860, 9137, 16051], "queries": {"click": {"state": {"target": [], "time": []}, "edge": {"target": [], "time": []}}, "mouseover": {"state": {"target": [], "time": []}, "edge": {"target": [], "time": []}}, "mouseout": {"state": {"target": ["18", "0", "13", "14", "13", "0", "21"], "time": [484, 10347, 10417, 10464, 13994, 17529, 19844]}, "edge": {"target": [], "time": []}}}, "displayed_time": "16.57", "trialTime": 20357, "trial_type": "mouselab-mdp", "trial_index": 60, "time_elapsed": 3032742, "internal_node_id": "0.0-4.0-1.0-33.0"}}, {"uniqueid": "w32685957:a65935544", "current_trial": 61, "dateTime": 1691162273827, "trialdata": {"revealed_states": [], "clicked_states": [], "num_clicks_accrued": [0, 0, 0, 0, 0, 0, 0, 0, 0, 0, 0, 0, 0], "stateRewards": ["", -1, 4, -5, 9, 29, -75, -42, -16, 24, -28, -41, 2, -3, 1, 10, 60, 47, 55, -1, -53, 22, -40, 2, -3, -6, 4, -26, 44, 54, 15, -76, 42, 14], "withholdReward": false, "trial_id": "mdp_trial_35", "block": "test", "trialIndex": 42, "score": -54, "costs": 0, "simulationMode": [null, null, null, null, null], "rewards": [2, -3, 1, -1, -53], "path": ["0", "0", "12", "13", "14", "19", "20"], "rt": [1545, 272, 338, 890, 1163], "actions": ["right", "right", "right", "down", "right"], "actionTimes": [4124, 4904, 5755, 7157, 8846], "queries": {"click": {"state": {"target": [], "time": []}, "edge": {"target": [], "time": []}}, "mouseover": {"state": {"target": [], "time": []}, "edge": {"target": [], "time": []}}, "mouseout": {"state": {"target": ["22", "0", "13"], "time": [668, 10882, 10943]}, "edge": {"target": [], "time": []}}}, "displayed_time": "16.59", "trialTime": 18042, "trial_type": "mouselab-mdp", "trial_index": 61, "time_elapsed": 3052243, "internal_node_id": "0.0-4.0-1.0-34.0"}}, {"uniqueid": "w32685957:a65935544", "current_trial": 62, "dateTime": 1691162292573, "trialdata": {"revealed_states": [], "clicked_states": [], "num_clicks_accrued": [0, 0, 0, 0, 0, 0, 0, 0, 0, 0, 0, 0, 0], "stateRewards": ["", -2, -3, 7, -13, 60, 9, 37, -6, 37, 20, 1, 2, -2, -8, 6, -80, -31, -10, -7, 70, -65, -44, -1, 1, 7, 6, -11, 73, -85, 16, -21, 47, 34], "withholdReward": false, "trial_id": "mdp_trial_36", "block": "test", "trialIndex": 43, "score": -3, "costs": 0, "simulationMode": [null, null, null, null, null], "rewards": [-2, -3, 7, -6, 1], "path": ["0", "0", "1", "2", "3", "8", "11"], "rt": [2235, 461, 243, 799, 623], "actions": ["up", "up", "up", "left", "left"], "actionTimes": [4400, 6056, 6864, 8159, 9286], "queries": {"click": {"state": {"target": [], "time": []}, "edge": {"target": [], "time": []}}, "mouseover": {"state": {"target": ["1", "0"], "time": [3015, 3206]}, "edge": {"target": [], "time": []}}, "mouseout": {"state": {"target": ["0", "1", "0", "0", "12"], "time": [3010, 3043, 3583, 12107, 12130]}, "edge": {"target": [], "time": []}}}, "displayed_time": "16.17", "trialTime": 17488, "trial_type": "mouselab-mdp", "trial_index": 62, "time_elapsed": 3070990, "internal_node_id": "0.0-4.0-1.0-35.0"}}, {"uniqueid": "w32685957:a65935544", "current_trial": 63, "dateTime": 1691162312467, "trialdata": {"revealed_states": [], "clicked_states": [], "num_clicks_accrued": [0, 0, 0, 0, 0, 0, 0, 0, 0, 0, 0, 0, 0], "stateRewards": ["", -1, -3, -5, -14, -13, -47, 79, 8, -60, -64, 41, -1, 2, 3, 13, -46, 61, -79, -11, -64, -65, 23, 1, -2, 6, -14, 46, 32, 21, 7, 75, -66, 15], "withholdReward": false, "trial_id": "mdp_trial_37", "block": "test", "trialIndex": 44, "score": 78, "costs": 0, "simulationMode": [null, null, null, null, null], "rewards": [-1, 2, 3, 13, 61], "path": ["0", "0", "12", "13", "14", "15", "17"], "rt": [1212, 231, 382, 314, 278], "actions": ["right", "right", "right", "up", "right"], "actionTimes": [4483, 5232, 6147, 6978, 7775], "queries": {"click": {"state": {"target": [], "time": []}, "edge": {"target": [], "time": []}}, "mouseover": {"state": {"target": [], "time": []}, "edge": {"target": [], "time": []}}, "mouseout": {"state": {"target": ["21", "0", "0", "19"], "time": [1707, 2157, 9134, 9226]}, "edge": {"target": [], "time": []}}}, "displayed_time": "17.31", "trialTime": 18532, "trial_type": "mouselab-mdp", "trial_index": 63, "time_elapsed": 3090883, "internal_node_id": "0.0-4.0-1.0-36.0"}}, {"uniqueid": "w32685957:a65935544", "current_trial": 64, "dateTime": 1691162331502, "trialdata": {"revealed_states": [], "clicked_states": [], "num_clicks_accrued": [0, 0, 0, 0, 0, 0, 0, 0, 0, 0, 0, 0, 0], "stateRewards": ["", 2, -2, -8, 9, -20, 55, -58, 14, 42, 2, 36, 1, -3, -5, 5, -58, 57, 60, 16, 57, 30, -70, -2, 1, 3, 10, 59, 23, 77, -13, -26, 88, -72], "withholdReward": false, "trial_id": "mdp_trial_38", "block": "test", "trialIndex": 45, "score": -19, "costs": 0, "simulationMode": [null, null, null, null, null], "rewards": [2, -2, -8, 9, -20], "path": ["0", "0", "1", "2", "3", "4", "5"], "rt": [1072, 145, 1136, 927, 1182], "actions": ["up", "up", "up", "right", "up"], "actionTimes": [3706, 4367, 6008, 7449, 9155], "queries": {"click": {"state": {"target": [], "time": []}, "edge": {"target": [], "time": []}}, "mouseover": {"state": {"target": [], "time": []}, "edge": {"target": [], "time": []}}, "mouseout": {"state": {"target": ["0", "12", "13"], "time": [11817, 11867, 11918]}, "edge": {"target": [], "time": []}}}, "displayed_time": "16.64", "trialTime": 17778, "trial_type": "mouselab-mdp", "trial_index": 64, "time_elapsed": 3109918, "internal_node_id": "0.0-4.0-1.0-37.0"}}, {"uniqueid": "w32685957:a65935544", "current_trial": 65, "dateTime": 1691162351664, "trialdata": {"revealed_states": [], "clicked_states": [], "num_clicks_accrued": [0, 0, 0, 0, 0, 0, 0, 0, 0, 0, 0, 0, 0], "stateRewards": ["", 1, -3, -4, -11, -56, 61, -47, -16, -28, -9, 69, -2, -3, -4, -8, 40, -86, 59, -4, 80, 27, 54, -1, 3, -1, 8, 67, 23, 50, 6, 83, -43, -29], "withholdReward": false, "trial_id": "mdp_trial_39", "block": "test", "trialIndex": 46, "score": -22, "costs": 0, "simulationMode": [null, null, null, null, null], "rewards": [-1, 3, -1, 6, -29], "path": ["0", "0", "23", "24", "25", "30", "33"], "rt": [1204, 408, 219, 348, 306], "actions": ["left", "left", "left", "down", "left"], "actionTimes": [4682, 5615, 6336, 7216, 8026], "queries": {"click": {"state": {"target": [], "time": []}, "edge": {"target": [], "time": []}}, "mouseover": {"state": {"target": [], "time": []}, "edge": {"target": [], "time": []}}, "mouseout": {"state": {"target": ["20", "14", "12", "0"], "time": [1195, 1411, 1894, 14123]}, "edge": {"target": [], "time": []}}}, "displayed_time": "17.49", "trialTime": 18586, "trial_type": "mouselab-mdp", "trial_index": 65, "time_elapsed": 3130080, "internal_node_id": "0.0-4.0-1.0-38.0"}}, {"uniqueid": "w32685957:a65935544", "current_trial": 66, "dateTime": 1691162372351, "trialdata": {"revealed_states": [], "clicked_states": [], "num_clicks_accrued": [0, 0, 0, 0, 0, 0, 0, 0, 0, 0, 0, 0, 0], "stateRewards": ["", 1, -1, 8, 4, 76, -33, -17, -3, -1, -54, -74, -2, 2, -5, 13, -51, 63, 83, 1, 84, 29, -36, 2, -1, 7, -12, -10, -44, -43, -14, 8, -69, 19], "withholdReward": false, "trial_id": "mdp_trial_40", "block": "test", "trialIndex": 47, "score": 71, "costs": 0, "simulationMode": [null, null, null, null, null], "rewards": [-2, 2, -5, 13, 63], "path": ["0", "0", "12", "13", "14", "15", "17"], "rt": [1481, 894, 224, 544, 68], "actions": ["right", "right", "right", "up", "right"], "actionTimes": [4137, 5533, 6262, 7331, 7924], "queries": {"click": {"state": {"target": [], "time": []}, "edge": {"target": [], "time": []}}, "mouseover": {"state": {"target": [], "time": []}, "edge": {"target": [], "time": []}}, "mouseout": {"state": {"target": ["18", "7", "0", "21", "20"], "time": [723, 746, 9468, 9765, 9832]}, "edge": {"target": [], "time": []}}}, "displayed_time": "16.70", "trialTime": 18160, "trial_type": "mouselab-mdp", "trial_index": 66, "time_elapsed": 3150767, "internal_node_id": "0.0-4.0-1.0-39.0"}}, {"uniqueid": "w32685957:a65935544", "current_trial": 67, "dateTime": 1691162466091, "trialdata": {"rt": 93463, "response": {"Q0": "$-2 to $2", "Q1": "$-16 to $16", "Q2": "$-88 to $88", "Q3": "The cost for clicking on nodes varied between nodes.", "Q4": "Very motivated"}, "question_order": [0, 1, 2, 3, 4], "trial_id": "final_quiz_control", "trial_type": "survey-multi-choice", "trial_index": 67, "time_elapsed": 3244508, "internal_node_id": "0.0-4.0-2.0"}}, {"uniqueid": "w32685957:a65935544", "current_trial": 68, "dateTime": 1691162530725, "trialdata": {"rt": 64342, "response": {"Q0": "none", "Q1": "no", "Q2": "not difficult "}, "trial_id": "self_report_control", "trial_type": "survey-text", "trial_index": 68, "time_elapsed": 3309143, "internal_node_id": "0.0-4.0-3.0"}}, {"uniqueid": "w32685957:a65935544", "current_trial": 69, "dateTime": 1691162582654, "trialdata": {"rt": 51815, "response": {"Q0": "Agree", "Q1": "Disagree", "Q2": "Agree", "Q3": "Disagree", "Q4": "Agree", "Q5": "Agree", "Q6": "Disagree"}, "question_order": [0, 1, 2, 3, 4, 5, 6], "trial_id": "self_report_2", "trial_type": "survey-multi-choice", "trial_index": 69, "time_elapsed": 3361071, "internal_node_id": "0.0-4.0-4.0"}}, {"uniqueid": "w32685957:a65935544", "current_trial": 70, "dateTime": 1691162612593, "trialdata": {"rt": 29914, "response": {"gender": "female", "age": "21", "colorblind": "0", "effort": "0"}, "trial_type": "survey-html-form", "trial_index": 70, "time_elapsed": 3391010, "internal_node_id": "0.0-4.0-5.0"}}, {"uniqueid": "w32685957:a65935544", "current_trial": 71, "dateTime": 1691162656470, "trialdata": {"rt": 43859, "response": {"Q0": "no", "Q1": "no i was not aware ", "Q2": "none"}, "trial_type": "survey-text", "trial_index": 71, "time_elapsed": 3434888, "internal_node_id": "0.0-4.0-6.0"}}, {"uniqueid": "w32685957:a65935544", "current_trial": 72, "dateTime": 1691162658923, "trialdata": {"rt": 2439, "stimulus": "Press 'Finish HIT' in order to reach the completion code. Once the data has been saved, you will receive the code either in this window or in the original browser window where you started the experiment.\n", "response": 0, "trial_type": "html-button-response", "trial_index": 72, "time_elapsed": 3437341, "internal_node_id": "0.0-5.0"}}, {"uniqueid": "w32685957:a65935544", "current_trial": 73, "dateTime": 1691162659950, "trialdata": {"success": true, "trial_type": "fullscreen", "trial_index": 73, "time_elapsed": 3438367, "internal_node_id": "0.0-6.0"}}], "questiondata": {"params": {"CODE": "C6DMOQA6", "MIN_TIME": 14, "inspectCost": 1, "startTime": "Fri Aug 04 2023 16:26:59 GMT+0200 (South Africa Standard Time)", "bonusRate": 0.002, "variance": "1_2_4_8_44", "branching": "31123"}, "final_score": 82.1}, "eventdata": [{"eventtype": "initialized", "value": null, "timestamp": 1691159219017, "interval": 0}, {"eventtype": "window_resize", "value": [1024, 658], "timestamp": 1691159219017, "interval": 0}, {"eventtype": "window_resize", "value": [1024, 658], "timestamp": 1691159219485, "interval": 468}, {"eventtype": "window_resize", "value": [1366, 674], "timestamp": 1691159225966, "interval": 6481}, {"eventtype": "window_resize", "value": [1366, 768], "timestamp": 1691159233769, "interval": 7803}, {"eventtype": "focus", "value": "off", "timestamp": 1691159701293, "interval": 467524}, {"eventtype": "focus", "value": "on", "timestamp": 1691159701352, "interval": 59}, {"eventtype": "window_resize", "value": [1366, 674], "timestamp": 1691159701523, "interval": 171}, {"eventtype": "window_resize", "value": [1366, 768], "timestamp": 1691159704006, "interval": 2483}, {"eventtype": "focus", "value": "off", "timestamp": 1691160669504, "interval": 965498}, {"eventtype": "focus", "value": "on", "timestamp": 1691160669505, "interval": 1}, {"eventtype": "window_resize", "value": [1366, 674], "timestamp": 1691160669764, "interval": 259}, {"eventtype": "window_resize", "value": [1366, 768], "timestamp": 1691160671829, "interval": 2065}, {"eventtype": "focus", "value": "off", "timestamp": 1691161009140, "interval": 337311}, {"eventtype": "focus", "value": "on", "timestamp": 1691161009141, "interval": 1}, {"eventtype": "window_resize", "value": [1366, 674], "timestamp": 1691161009412, "interval": 271}, {"eventtype": "window_resize", "value": [1366, 768], "timestamp": 1691161011974, "interval": 2562}, {"eventtype": "window_resize", "value": [1366, 674], "timestamp": 1691162659370, "interval": 1647396}], "useragent": "Mozilla/5.0 (Windows NT 10.0; Win64; x64) AppleWebKit/537.36 (KHTML, like Gecko) Chrome/115.0.0.0 Safari/537.36 Edg/115.0.1901.188", "mode": "live", "id": "w32685957:a65935544", "status": "user data saved", "Beginhit": "2023-08-04 14:26:55.572155", "Beginexp": "2023-08-04 14:27:14.570059", "Endhit": "2023-08-04 15:24:20.432488", "psiturkStatus": 3, "browser": "<redacted>", "platform": "windows", "language": "en-GB"}