{"condition": 0, "counterbalance": 0, "assignmentId": "a94993471", "workerId": "w48371852", "hitId": "h55294778", "currenttrial": 29, "bonus": 0, "data": [{"uniqueid": "w48371852:a94993471", "current_trial": 0, "dateTime": 1691070955632, "trialdata": {"success": true, "trial_type": "fullscreen", "trial_index": 0, "time_elapsed": 7835, "internal_node_id": "0.0-0.0"}}, {"uniqueid": "w48371852:a94993471", "current_trial": 1, "dateTime": 1691070973650, "trialdata": {"view_history": [{"page_index": 0, "viewing_time": 18013}], "rt": 18013, "trial_id": "exp_instructions_control", "trial_type": "instructions", "trial_index": 1, "time_elapsed": 25853, "internal_node_id": "0.0-1.0"}}, {"uniqueid": "w48371852:a94993471", "current_trial": 2, "dateTime": 1691070977305, "trialdata": {"success": true, "trial_type": "fullscreen", "trial_index": 2, "time_elapsed": 29508, "internal_node_id": "0.0-2.0-0.0"}}, {"uniqueid": "w48371852:a94993471", "current_trial": 3, "dateTime": 1691071223926, "trialdata": {"view_history": [{"page_index": 0, "viewing_time": 63866}, {"page_index": 1, "viewing_time": 37546}, {"page_index": 2, "viewing_time": 42248}, {"page_index": 3, "viewing_time": 102960}], "rt": 246619, "trial_id": "mouselab_instructions_1_control", "trial_type": "instructions", "trial_index": 3, "time_elapsed": 276129, "internal_node_id": "0.0-2.0-1.0"}}, {"uniqueid": "w48371852:a94993471", "current_trial": 4, "dateTime": 1691071355356, "trialdata": {"revealed_states": [], "clicked_states": ["12", "13", "14", "15", "16", "23", "24", "26", "25", "27", "30", "32", "31", "33", "28", "29", "19", "22", "21", "20", "17", "18", "1", "2", "3", "4", "5", "6", "7", "10", "8", "9", "11"], "num_clicks_accrued": [0, 0, 0, 0, 0, 0, 0, 0, 0, 0, 0, 0, 0], "stateRewards": ["", 10, -10, 10, 10, -10, 10, 10, -10, 10, 10, -10, 10, 10, 10, 10, 10, 10, -10, 10, -10, 10, 10, 10, 10, 10, -10, -10, -10, -10, -10, -10, -10, 10], "withholdReward": false, "trial_id": "practice_1", "block": "test", "trialIndex": 0, "score": 37, "costs": -16.5, "simulationMode": [null, null, null, null, null], "rewards": [10, 10, 10, 10, 10], "path": ["0", "0", "12", "13", "14", "15", "16"], "rt": [105824, 616, 973, 3079, 20], "actions": ["right", "right", "right", "up", "up"], "actionTimes": [115893, 117022, 118511, 122107, 122641], "queries": {"click": {"state": {"target": ["12", "13", "14", "15", "16", "23", "24", "26", "25", "27", "30", "32", "31", "33", "28", "29", "19", "22", "21", "20", "17", "18", "1", "2", "3", "4", "5", "6", "7", "10", "8", "9", "11"], "time": [13245, 14840, 16565, 19355, 21005, 26044, 29112, 31880, 33013, 35795, 43939, 45157, 47735, 48980, 50893, 52122, 57290, 60102, 61295, 63356, 65705, 66943, 68909, 70550, 71795, 72958, 75192, 78335, 80547, 82100, 84777, 85963, 87178]}, "edge": {"target": [], "time": []}}, "mouseover": {"state": {"target": ["12", "13", "14", "15", "16", "13", "12", "0", "23", "1", "24", "25", "26", "25", "25", "27", "1", "18", "15", "17", "16", "14", "19", "0", "23", "24", "25", "25", "30", "32", "31", "31", "30", "33", "26", "28", "27", "29", "30", "31", "24", "2", "3", "2", "1", "0", "13", "14", "13", "12", "12", "13", "19", "20", "22", "21", "20", "17", "15", "17", "17", "15", "18", "15", "2", "1", "2", "2", "3", "4", "6", "4", "5", "6", "5", "6", "7", "4", "6", "7", "7", "7", "10", "8", "9", "11", "10", "10", "2", "1", "0", "23", "0", "0", "1", "1", "12", "13", "14", "19", "21"], "time": [12851, 14258, 16134, 17569, 20483, 25234, 25283, 25316, 25432, 27515, 28482, 29667, 30682, 32367, 32767, 35214, 36699, 36749, 36768, 36784, 37214, 38513, 38597, 39164, 39496, 39563, 40180, 42429, 43562, 44881, 45648, 47346, 48347, 48430, 49998, 50495, 51631, 51797, 52630, 52864, 53395, 53561, 53794, 53862, 53912, 54211, 54378, 55061, 55461, 55511, 56294, 56362, 56777, 57730, 59427, 60645, 61779, 64394, 64860, 65193, 65476, 66295, 66327, 67743, 68409, 68642, 69244, 70261, 71127, 72276, 72343, 72609, 73442, 74124, 74858, 75692, 76958, 77591, 77941, 78808, 79025, 80224, 81258, 82691, 85674, 86841, 87796, 88706, 89190, 89423, 89522, 90272, 90623, 91022, 92538, 93655, 106086, 108036, 109019, 110019, 110102]}, "edge": {"target": [], "time": []}}, "mouseout": {"state": {"target": ["22", "0", "12", "13", "14", "15", "16", "15", "13", "12", "0", "23", "1", "24", "25", "26", "25", "25", "26", "27", "1", "18", "15", "17", "16", "14", "19", "0", "23", "24", "25", "25", "30", "30", "32", "31", "30", "31", "30", "33", "26", "28", "27", "29", "30", "31", "24", "2", "3", "2", "1", "0", "13", "14", "13", "12", "12", "13", "19", "19", "20", "19", "22", "21", "20", "17", "15", "17", "17", "15", "18", "15", "2", "1", "2", "2", "3", "4", "6", "4", "5", "6", "5", "6", "7", "4", "6", "7", "7", "7", "10", "8", "9", "11", "10", "10", "2", "1", "0", "23", "0", "0", "1", "1", "12", "13", "14", "19", "21"], "time": [1236, 2186, 14004, 15819, 17419, 20334, 22816, 24999, 25266, 25299, 25365, 27432, 28265, 29499, 30548, 32334, 32566, 33750, 34897, 36565, 36715, 36766, 36782, 36799, 38396, 38547, 39013, 39263, 39530, 39580, 41829, 43380, 44051, 44830, 45497, 46446, 47262, 48330, 48363, 49830, 50095, 51347, 51714, 52513, 52646, 53261, 53512, 53579, 53845, 53895, 53945, 54228, 54894, 55095, 55494, 56094, 56344, 56394, 57406, 57696, 58527, 59360, 60579, 61679, 64078, 64817, 65093, 65312, 66279, 66311, 67410, 67760, 68559, 69094, 69878, 70960, 72263, 72309, 72526, 73326, 74058, 74692, 75542, 76641, 77508, 77608, 78708, 78858, 79724, 81126, 82196, 85341, 86391, 87758, 87808, 89156, 89339, 89439, 90122, 90572, 90739, 92409, 93405, 103254, 107936, 108886, 109919, 110069, 110120]}, "edge": {"target": [], "time": []}}}, "displayed_time": "123.15", "trialTime": 130376, "trial_type": "mouselab-mdp", "trial_index": 4, "time_elapsed": 407558, "internal_node_id": "0.0-2.0-2.0-0.0"}}, {"uniqueid": "w48371852:a94993471", "current_trial": 5, "dateTime": 1691071422426, "trialdata": {"revealed_states": [], "clicked_states": ["12", "13", "14", "15", "16", "17", "18", "19", "20", "21", "22", "23", "24", "25", "26", "28", "27", "29", "30", "33", "32", "31", "1", "2", "3", "4", "5", "6", "7", "10", "8", "9", "11"], "num_clicks_accrued": [0, 0, 0, 0, 0, 0, 0, 0, 0, 0, 0, 0, 0], "stateRewards": ["", 10, 10, 10, 10, 10, -10, -10, 10, -10, 10, -10, -10, 10, -10, 10, 10, -10, -10, -10, 10, 10, -10, -10, 10, -10, 10, -10, -10, -10, -10, 10, -10, 10], "withholdReward": false, "trial_id": "practice_2", "block": "test", "trialIndex": 1, "score": 37, "costs": -16.5, "simulationMode": [null, null, null, null, null], "rewards": [10, 10, 10, 10, 10], "path": ["0", "0", "1", "2", "3", "8", "10"], "rt": [51830, 1749, 377, 1308, 1004], "actions": ["up", "up", "up", "left", "down"], "actionTimes": [56376, 58646, 59540, 61355, 62868], "queries": {"click": {"state": {"target": ["12", "13", "14", "15", "16", "17", "18", "19", "20", "21", "22", "23", "24", "25", "26", "28", "27", "29", "30", "33", "32", "31", "1", "2", "3", "4", "5", "6", "7", "10", "8", "9", "11"], "time": [5939, 7364, 8639, 10020, 12201, 13446, 14617, 15846, 17110, 19085, 20767, 22416, 23917, 25153, 26332, 27346, 28403, 30097, 31581, 33036, 34417, 35446, 37132, 38998, 40221, 41571, 42756, 43821, 44887, 48021, 49116, 50398, 51532]}, "edge": {"target": [], "time": []}}, "mouseover": {"state": {"target": ["12", "13", "14", "15", "16", "17", "18", "14", "19", "19", "20", "21", "22", "23", "23", "24", "25", "25", "26", "28", "27", "29", "25", "30", "33", "32", "31", "1", "2", "3", "4", "5", "6", "7", "2", "10", "10", "8", "9", "11", "23", "0", "1"], "time": [5586, 6805, 8171, 9571, 10603, 12904, 14337, 15154, 15203, 15454, 16752, 17668, 19669, 21519, 22117, 23368, 24401, 24851, 25934, 26951, 28201, 29033, 30717, 31332, 32201, 33800, 34983, 35999, 37782, 39783, 41015, 42499, 43481, 44264, 45281, 45548, 46680, 48598, 49813, 50997, 52280, 53128, 54795]}, "edge": {"target": [], "time": []}}, "mouseout": {"state": {"target": ["2", "4", "7", "1", "12", "13", "14", "15", "16", "17", "15", "18", "14", "19", "19", "20", "21", "22", "23", "23", "24", "25", "25", "26", "28", "26", "27", "29", "25", "30", "30", "33", "32", "31", "1", "2", "3", "4", "5", "6", "7", "2", "10", "10", "8", "9", "11", "23", "0"], "time": [2636, 3052, 3219, 3919, 6771, 8140, 9246, 10519, 12836, 13886, 14036, 15087, 15186, 15304, 16319, 17502, 19501, 21453, 21835, 23118, 24385, 24519, 25700, 26918, 27752, 27851, 28734, 30619, 31248, 31687, 32134, 33516, 34849, 35899, 37665, 39616, 40866, 42082, 43132, 44131, 45231, 45364, 46496, 48397, 49646, 50747, 52047, 52315, 53212]}, "edge": {"target": [], "time": []}}}, "displayed_time": "63.38", "trialTime": 66768, "trial_type": "mouselab-mdp", "trial_index": 5, "time_elapsed": 474629, "internal_node_id": "0.0-2.0-2.0-1.0"}}, {"uniqueid": "w48371852:a94993471", "current_trial": 6, "dateTime": 1691071535200, "trialdata": {"view_history": [{"page_index": 0, "viewing_time": 85389}, {"page_index": 1, "viewing_time": 27383}], "rt": 112772, "trial_id": "mouselab_instructions_2_control", "trial_type": "instructions", "trial_index": 6, "time_elapsed": 587403, "internal_node_id": "0.0-2.0-3.0"}}, {"uniqueid": "w48371852:a94993471", "current_trial": 7, "dateTime": 1691071652749, "trialdata": {"rt": 117544, "response": {"Q0": "The cost for clicking on nodes may vary between nodes.", "Q1": "The better I perform the higher my bonus will be.", "Q2": "No, the amount of cash at each node of the web may be different each time.", "Q3": "To get the highest total score.", "Q4": "Any time during the round.", "Q5": "3 seconds"}, "question_order": [0, 1, 2, 3, 4, 5], "correct": {"Q0": "The cost for clicking on nodes may vary between nodes.", "Q1": "The better I perform the higher my bonus will be.", "Q2": "No, the amount of cash at each node of the web may be different each time.", "Q3": "To get the highest total score.", "Q4": "Only before moving the spider.", "Q5": "3 seconds"}, "trial_id": "mouselab_quiz_control", "trial_type": "survey-multi-choice", "trial_index": 7, "time_elapsed": 704952, "internal_node_id": "0.0-2.0-4.0"}}, {"uniqueid": "w48371852:a94993471", "current_trial": 8, "dateTime": 1691071677172, "trialdata": {"success": true, "trial_type": "fullscreen", "trial_index": 8, "time_elapsed": 729375, "internal_node_id": "0.0-2.1-0.1"}}, {"uniqueid": "w48371852:a94993471", "current_trial": 9, "dateTime": 1691072125070, "trialdata": {"view_history": [{"page_index": 0, "viewing_time": 139442}, {"page_index": 1, "viewing_time": 170873}, {"page_index": 2, "viewing_time": 41768}, {"page_index": 3, "viewing_time": 95813}], "rt": 447897, "trial_id": "mouselab_instructions_1_control", "trial_type": "instructions", "trial_index": 9, "time_elapsed": 1177273, "internal_node_id": "0.0-2.1-1.1"}}, {"uniqueid": "w48371852:a94993471", "current_trial": 10, "dateTime": 1691072239500, "trialdata": {"revealed_states": [], "clicked_states": ["1", "2", "3", "8", "10", "11", "9", "5", "4", "6", "7", "12", "13", "14", "15", "16", "25", "23", "24", "26", "27", "30", "32", "19", "21"], "num_clicks_accrued": [0, 0, 0, 0, 0, 0, 0, 0, 0, 0, 0, 0, 0], "stateRewards": ["", 10, -10, 10, 10, -10, 10, 10, -10, 10, 10, -10, 10, 10, 10, 10, 10, 10, -10, 10, -10, 10, 10, 10, 10, 10, -10, -10, -10, -10, -10, -10, -10, 10], "withholdReward": false, "trial_id": "practice_1", "block": "test", "trialIndex": 2, "score": 1, "costs": -12.5, "simulationMode": [null, null, null, null, null], "rewards": [10, 10, 10, -10, -10], "path": ["0", "0", "23", "24", "25", "30", "32"], "rt": [99367, 215, 160, 2208, 686], "actions": ["left", "left", "left", "down", "down"], "actionTimes": [104077, 104807, 105485, 108199, 109395], "queries": {"click": {"state": {"target": ["1", "2", "3", "8", "10", "11", "9", "5", "4", "6", "7", "12", "13", "14", "15", "16", "25", "23", "24", "26", "27", "30", "32", "19", "21"], "time": [6582, 9517, 12476, 15279, 17035, 19569, 21520, 25409, 27287, 29842, 32808, 41815, 44252, 46404, 48700, 50913, 55616, 57648, 59253, 61458, 63491, 65785, 68220, 76653, 79398]}, "edge": {"target": [], "time": []}}, "mouseover": {"state": {"target": ["12", "1", "2", "3", "8", "10", "11", "9", "2", "10", "8", "4", "5", "4", "6", "7", "3", "4", "4", "6", "18", "12", "0", "12", "13", "14", "15", "16", "14", "31", "25", "24", "23", "24", "25", "26", "27", "25", "30", "30", "32", "23", "24", "25", "22", "19", "12", "1", "1", "28", "28", "0", "22", "22", "12", "0", "24", "23", "14", "19", "21", "19", "22", "23", "24", "23", "0"], "time": [5654, 6223, 7836, 11653, 13205, 16319, 18086, 21084, 23684, 24150, 24570, 24868, 25102, 26452, 29399, 31118, 34232, 34866, 35882, 36282, 37148, 39981, 40731, 41015, 43248, 44832, 48364, 50614, 53031, 54531, 55013, 56781, 56846, 58846, 60879, 61179, 63295, 64247, 64347, 65314, 67844, 70444, 70544, 70727, 71877, 71977, 72461, 72577, 72927, 73377, 73777, 74077, 74393, 74710, 74877, 74960, 75627, 75647, 75677, 76210, 78759, 89024, 89741, 90474, 90824, 90924, 91091]}, "edge": {"target": [], "time": []}}, "mouseout": {"state": {"target": ["0", "12", "1", "2", "3", "8", "10", "11", "9", "2", "10", "8", "4", "5", "5", "4", "6", "6", "7", "3", "4", "7", "4", "6", "18", "12", "0", "12", "12", "13", "14", "15", "15", "16", "15", "14", "31", "25", "25", "24", "23", "24", "25", "26", "27", "26", "25", "30", "30", "32", "23", "24", "25", "22", "19", "12", "1", "1", "28", "28", "0", "22", "22", "12", "0", "24", "23", "14", "19", "19", "21", "19", "22", "23", "24", "23", "0"], "time": [3119, 6073, 7556, 11220, 13158, 16020, 17737, 20632, 22469, 24117, 24187, 24617, 25053, 25550, 26340, 29350, 29962, 30586, 33982, 34565, 35032, 35732, 36165, 36548, 39781, 40681, 40964, 41920, 42682, 44798, 48147, 49182, 50331, 52547, 52680, 53663, 54646, 55770, 56765, 56798, 58400, 60115, 61062, 62849, 64082, 64231, 64281, 64879, 67495, 69795, 70511, 70627, 71461, 71910, 72377, 72478, 72594, 72977, 73577, 73810, 74094, 74477, 74760, 74927, 74993, 75644, 75660, 75694, 76815, 78278, 88925, 89292, 89857, 90524, 90891, 90991, 91157]}, "edge": {"target": [], "time": []}}}, "displayed_time": "109.91", "trialTime": 114132, "trial_type": "mouselab-mdp", "trial_index": 10, "time_elapsed": 1291703, "internal_node_id": "0.0-2.1-2.1-0.1"}}, {"uniqueid": "w48371852:a94993471", "current_trial": 11, "dateTime": 1691072339539, "trialdata": {"revealed_states": [], "clicked_states": ["12", "13", "14", "1", "2", "3", "4", "8", "11", "6", "7", "9", "5", "23", "24", "25", "30", "26", "19", "21", "15", "16", "17", "18"], "num_clicks_accrued": [0, 0, 0, 0, 0, 0, 0, 0, 0, 0, 0, 0, 0], "stateRewards": ["", 10, 10, 10, 10, 10, -10, -10, 10, -10, 10, -10, -10, 10, -10, 10, 10, -10, -10, -10, 10, 10, -10, -10, 10, -10, 10, -10, -10, -10, -10, 10, -10, 10], "withholdReward": false, "trial_id": "practice_2", "block": "test", "trialIndex": 3, "score": 21.5, "costs": -12, "simulationMode": [null, null, null, null, null], "rewards": [10, 10, 10, 10, -10], "path": ["0", "0", "1", "2", "3", "8", "9"], "rt": [84345, 780, 348, 867, 759], "actions": ["up", "up", "up", "left", "up"], "actionTimes": [90466, 91755, 92621, 94006, 95282], "queries": {"click": {"state": {"target": ["12", "13", "14", "1", "2", "3", "4", "8", "11", "6", "7", "9", "5", "23", "24", "25", "30", "26", "19", "21", "15", "16", "17", "18"], "time": [8753, 11055, 13342, 16417, 18367, 20737, 23452, 25777, 27877, 30457, 33067, 36051, 38115, 42959, 45420, 47452, 50393, 53010, 58267, 60392, 66502, 69397, 71422, 73477]}, "edge": {"target": [], "time": []}}, "mouseover": {"state": {"target": ["0", "12", "13", "14", "13", "1", "2", "3", "4", "3", "8", "8", "11", "6", "7", "3", "8", "9", "5", "4", "2", "10", "33", "30", "23", "24", "25", "30", "25", "26", "26", "23", "22", "19", "21", "19", "14", "15", "16", "17", "15", "18", "12", "0", "1", "1", "2", "3", "8", "9"], "time": [8233, 8383, 10416, 12716, 15799, 16137, 17999, 20415, 22798, 24997, 25048, 25514, 27514, 30047, 32280, 34946, 35046, 35680, 37827, 39928, 40278, 41051, 41795, 41912, 42445, 45111, 47178, 49543, 52160, 52477, 52843, 56676, 57309, 57759, 59842, 65408, 65507, 65891, 68890, 71090, 73039, 73090, 79239, 79879, 80472, 82172, 83771, 84071, 84771, 85971]}, "edge": {"target": [], "time": []}}, "mouseout": {"state": {"target": ["22", "12", "0", "12", "13", "14", "14", "13", "1", "2", "3", "4", "3", "8", "8", "11", "6", "7", "3", "8", "9", "5", "4", "2", "10", "33", "30", "23", "24", "25", "30", "30", "25", "26", "26", "23", "22", "19", "21", "19", "14", "15", "16", "17", "15", "18", "12", "0", "1", "1", "2", "3", "8"], "time": [5373, 5483, 8267, 10367, 12683, 15249, 15616, 15833, 17948, 19998, 22781, 24948, 25031, 25098, 27414, 29714, 32096, 34879, 35013, 35463, 37546, 38779, 39962, 40695, 41195, 41878, 42028, 44561, 46944, 49294, 51993, 52127, 52177, 52593, 54976, 56976, 57359, 58778, 65357, 65441, 65657, 68524, 69891, 73023, 73073, 78972, 79372, 80088, 80938, 83538, 83938, 84738, 84866]}, "edge": {"target": [], "time": []}}}, "displayed_time": "95.79", "trialTime": 99702, "trial_type": "mouselab-mdp", "trial_index": 11, "time_elapsed": 1391742, "internal_node_id": "0.0-2.1-2.1-1.1"}}, {"uniqueid": "w48371852:a94993471", "current_trial": 12, "dateTime": 1691072367600, "trialdata": {"view_history": [{"page_index": 0, "viewing_time": 24832}, {"page_index": 1, "viewing_time": 3225}], "rt": 28058, "trial_id": "mouselab_instructions_2_control", "trial_type": "instructions", "trial_index": 12, "time_elapsed": 1419803, "internal_node_id": "0.0-2.1-3.1"}}, {"uniqueid": "w48371852:a94993471", "current_trial": 13, "dateTime": 1691072503794, "trialdata": {"rt": 136190, "response": {"Q0": "The cost for clicking on nodes may vary between nodes.", "Q1": "The better I perform the higher my bonus will be.", "Q2": "No, the amount of cash at each node of the web may be different each time.", "Q3": "To get the highest total score.", "Q4": "Only after moving the spider.", "Q5": "3 seconds"}, "question_order": [0, 1, 2, 3, 4, 5], "correct": {"Q0": "The cost for clicking on nodes may vary between nodes.", "Q1": "The better I perform the higher my bonus will be.", "Q2": "No, the amount of cash at each node of the web may be different each time.", "Q3": "To get the highest total score.", "Q4": "Only before moving the spider.", "Q5": "3 seconds"}, "trial_id": "mouselab_quiz_control", "trial_type": "survey-multi-choice", "trial_index": 13, "time_elapsed": 1555997, "internal_node_id": "0.0-2.1-4.1"}}, {"uniqueid": "w48371852:a94993471", "current_trial": 14, "dateTime": 1691072518699, "trialdata": {"success": true, "trial_type": "fullscreen", "trial_index": 14, "time_elapsed": 1570902, "internal_node_id": "0.0-2.2-0.2"}}, {"uniqueid": "w48371852:a94993471", "current_trial": 15, "dateTime": 1691072533501, "trialdata": {"view_history": [{"page_index": 0, "viewing_time": 5499}, {"page_index": 1, "viewing_time": 3225}, {"page_index": 2, "viewing_time": 3120}, {"page_index": 3, "viewing_time": 2955}], "rt": 14800, "trial_id": "mouselab_instructions_1_control", "trial_type": "instructions", "trial_index": 15, "time_elapsed": 1585703, "internal_node_id": "0.0-2.2-1.2"}}, {"uniqueid": "w48371852:a94993471", "current_trial": 16, "dateTime": 1691072594290, "trialdata": {"revealed_states": [], "clicked_states": ["1", "2", "12", "13", "14", "15", "16", "23", "24", "25", "26", "30"], "num_clicks_accrued": [0, 0, 0, 0, 0, 0, 0, 0, 0, 0, 0, 0, 0], "stateRewards": ["", 10, -10, 10, 10, -10, 10, 10, -10, 10, 10, -10, 10, 10, 10, 10, 10, 10, -10, 10, -10, 10, 10, 10, 10, 10, -10, -10, -10, -10, -10, -10, -10, 10], "withholdReward": false, "trial_id": "practice_1", "block": "test", "trialIndex": 4, "score": 47.5, "costs": -6, "simulationMode": [null, null, null, null, null], "rewards": [10, 10, 10, 10, 10], "path": ["0", "0", "12", "13", "14", "15", "16"], "rt": [49224, 393, 823, 517, 543], "actions": ["right", "right", "right", "up", "up"], "actionTimes": [51405, 52320, 53650, 54678, 55735], "queries": {"click": {"state": {"target": ["1", "2", "12", "13", "14", "15", "16", "23", "24", "25", "26", "30"], "time": [3481, 6037, 10651, 12698, 14572, 16666, 19005, 22726, 24886, 26993, 29453, 32491]}, "edge": {"target": [], "time": []}}, "mouseover": {"state": {"target": ["0", "1", "2", "3", "12", "12", "13", "14", "15", "16", "15", "14", "31", "24", "23", "24", "25", "25", "26", "30", "22", "13", "0", "1", "2", "7", "7", "2", "1", "1", "2", "3", "2", "2", "2", "3", "2", "1", "13", "14", "15", "16", "16", "13"], "time": [2698, 3181, 4452, 8664, 9597, 10214, 12280, 14180, 16362, 18762, 21146, 21179, 21495, 22095, 22378, 24512, 26346, 26628, 29028, 31811, 35143, 35709, 36326, 36377, 36476, 36527, 36893, 38426, 38576, 38959, 39359, 39709, 40109, 40892, 41692, 42525, 43009, 43192, 43792, 43909, 44043, 44158, 45598, 45941]}, "edge": {"target": [], "time": []}}, "mouseout": {"state": {"target": ["0", "0", "1", "2", "3", "12", "12", "13", "14", "14", "15", "15", "16", "15", "14", "31", "24", "23", "24", "25", "25", "26", "30", "22", "13", "0", "1", "2", "7", "7", "2", "1", "1", "2", "3", "2", "2", "2", "3", "2", "1", "13", "14", "15", "16", "16", "13"], "time": [2614, 2781, 4218, 7067, 9497, 9621, 12230, 14147, 15081, 16079, 17148, 18379, 21095, 21163, 21213, 21645, 22312, 24365, 26344, 26394, 28811, 31347, 35026, 35193, 36077, 36359, 36409, 36493, 36544, 37192, 38510, 38626, 39026, 39492, 39909, 40293, 40976, 42292, 42912, 43125, 43325, 43826, 43960, 44092, 44225, 45858, 45958]}, "edge": {"target": [], "time": []}}}, "displayed_time": "56.26", "trialTime": 60430, "trial_type": "mouselab-mdp", "trial_index": 16, "time_elapsed": 1646493, "internal_node_id": "0.0-2.2-2.2-0.2"}}, {"uniqueid": "w48371852:a94993471", "current_trial": 17, "dateTime": 1691072721538, "trialdata": {"revealed_states": [], "clicked_states": ["1", "2", "3", "4", "8", "6", "5", "12", "13", "14", "23", "24", "25"], "num_clicks_accrued": [0, 0, 0, 0, 0, 0, 0, 0, 0, 0, 0, 0, 0], "stateRewards": ["", 10, 10, 10, 10, 10, -10, -10, 10, -10, 10, -10, -10, 10, -10, 10, 10, -10, -10, -10, 10, 10, -10, -10, 10, -10, 10, -10, -10, -10, -10, 10, -10, 10], "withholdReward": false, "trial_id": "practice_2", "block": "test", "trialIndex": 5, "score": 47, "costs": -6.5, "simulationMode": [null, null, null, null, null], "rewards": [10, 10, 10, 10, 10], "path": ["0", "0", "1", "2", "3", "4", "5"], "rt": [49525, 437, 811, 793, 2559], "actions": ["up", "up", "up", "right", "up"], "actionTimes": [114422, 115375, 116699, 118014, 121080], "queries": {"click": {"state": {"target": ["1", "2", "3", "4", "8", "6", "5", "12", "13", "14", "23", "24", "25"], "time": [66327, 68411, 70342, 72260, 74240, 76685, 83405, 87657, 89513, 91520, 96005, 99553, 101638]}, "edge": {"target": [], "time": []}}, "mouseover": {"state": {"target": ["1", "18", "2", "7", "3", "4", "8", "3", "6", "5", "4", "7", "1", "0", "12", "13", "12", "13", "14", "19", "22", "24", "23", "23", "24", "25", "28", "11", "8", "3", "4", "6", "4", "5", "6"], "time": [66060, 67078, 68109, 69009, 70026, 71942, 73758, 76058, 76374, 78674, 85590, 85640, 85923, 86240, 86723, 86823, 87456, 88291, 91272, 94072, 94705, 95272, 95305, 95641, 99304, 101437, 104636, 104836, 105047, 105121, 105303, 105370, 106444, 107453, 108870]}, "edge": {"target": [], "time": []}}, "mouseout": {"state": {"target": ["16", "17", "7", "1", "0", "1", "1", "18", "2", "7", "3", "4", "3", "8", "3", "4", "6", "5", "4", "7", "1", "0", "12", "13", "12", "13", "14", "19", "22", "24", "23", "23", "24", "25", "28", "11", "8", "3", "4", "6", "4", "5", "6"], "time": [63543, 63842, 63959, 64042, 64525, 66405, 66962, 67742, 68977, 69859, 71909, 73725, 73742, 76042, 76075, 76341, 78357, 85523, 85623, 85723, 85957, 86689, 86773, 87189, 88173, 91022, 93972, 94688, 94739, 95288, 95484, 99005, 101121, 104570, 104687, 105003, 105104, 105187, 105353, 106070, 107103, 108359, 109269]}, "edge": {"target": [], "time": []}}}, "displayed_time": "121.59", "trialTime": 126909, "trial_type": "mouselab-mdp", "trial_index": 17, "time_elapsed": 1773741, "internal_node_id": "0.0-2.2-2.2-1.2"}}, {"uniqueid": "w48371852:a94993471", "current_trial": 18, "dateTime": 1691072742625, "trialdata": {"view_history": [{"page_index": 0, "viewing_time": 18773}, {"page_index": 1, "viewing_time": 2310}], "rt": 21083, "trial_id": "mouselab_instructions_2_control", "trial_type": "instructions", "trial_index": 18, "time_elapsed": 1794827, "internal_node_id": "0.0-2.2-3.2"}}, {"uniqueid": "w48371852:a94993471", "current_trial": 19, "dateTime": 1691072891074, "trialdata": {"rt": 148446, "response": {"Q0": "The cost for clicking on nodes may vary between nodes.", "Q1": "The better I perform the higher my bonus will be.", "Q2": "No, the amount of cash at each node of the web may be different each time.", "Q3": "To get the highest total score.", "Q4": "Only after moving the spider.", "Q5": "3 seconds"}, "question_order": [0, 1, 2, 3, 4, 5], "correct": {"Q0": "The cost for clicking on nodes may vary between nodes.", "Q1": "The better I perform the higher my bonus will be.", "Q2": "No, the amount of cash at each node of the web may be different each time.", "Q3": "To get the highest total score.", "Q4": "Only before moving the spider.", "Q5": "3 seconds"}, "trial_id": "mouselab_quiz_control", "trial_type": "survey-multi-choice", "trial_index": 19, "time_elapsed": 1943277, "internal_node_id": "0.0-2.2-4.2"}}, {"uniqueid": "w48371852:a94993471", "current_trial": 20, "dateTime": 1691072897954, "trialdata": {"success": true, "trial_type": "fullscreen", "trial_index": 20, "time_elapsed": 1950157, "internal_node_id": "0.0-2.3-0.3"}}, {"uniqueid": "w48371852:a94993471", "current_trial": 21, "dateTime": 1691072916640, "trialdata": {"view_history": [{"page_index": 0, "viewing_time": 3886}, {"page_index": 1, "viewing_time": 11175}, {"page_index": 2, "viewing_time": 1830}, {"page_index": 3, "viewing_time": 1792}], "rt": 18684, "trial_id": "mouselab_instructions_1_control", "trial_type": "instructions", "trial_index": 21, "time_elapsed": 1968842, "internal_node_id": "0.0-2.3-1.3"}}, {"uniqueid": "w48371852:a94993471", "current_trial": 22, "dateTime": 1691072967886, "trialdata": {"revealed_states": [], "clicked_states": ["1", "2", "12", "13", "14", "15", "16", "23", "24", "25", "30", "26"], "num_clicks_accrued": [0, 0, 0, 0, 0, 0, 0, 0, 0, 0, 0, 0, 0], "stateRewards": ["", 10, -10, 10, 10, -10, 10, 10, -10, 10, 10, -10, 10, 10, 10, 10, 10, 10, -10, 10, -10, 10, 10, 10, 10, 10, -10, -10, -10, -10, -10, -10, -10, 10], "withholdReward": false, "trial_id": "practice_1", "block": "test", "trialIndex": 6, "score": 47.5, "costs": -6, "simulationMode": [null, null, null, null, null], "rewards": [10, 10, 10, 10, 10], "path": ["0", "0", "12", "13", "14", "15", "16"], "rt": [42089, 297, 418, 1066, 338], "actions": ["right", "right", "right", "up", "up"], "actionTimes": [43533, 44348, 45285, 46866, 47721], "queries": {"click": {"state": {"target": ["1", "2", "12", "13", "14", "15", "16", "23", "24", "25", "30", "26"], "time": [2854, 5261, 9153, 11066, 13063, 15956, 18138, 22038, 24296, 26245, 28301, 30843]}, "edge": {"target": [], "time": []}}, "mouseover": {"state": {"target": ["1", "1", "18", "18", "2", "2", "7", "3", "12", "12", "13", "14", "15", "16", "17", "20", "31", "23", "24", "25", "30", "26", "2", "3", "4", "18", "13", "13", "14", "22"], "time": [2071, 2587, 3458, 3905, 4628, 4987, 5821, 6803, 8070, 8436, 10586, 12436, 15486, 17935, 19568, 19718, 20634, 21268, 23950, 25967, 27967, 30400, 32749, 33435, 33516, 33782, 33899, 34316, 34366, 34682]}, "edge": {"target": [], "time": []}}, "mouseout": {"state": {"target": ["0", "1", "1", "18", "18", "2", "2", "7", "3", "12", "12", "13", "14", "14", "15", "15", "16", "17", "20", "31", "23", "24", "25", "30", "25", "26", "2", "3", "4", "18", "13", "13", "14", "22"], "time": [1103, 2121, 3440, 3489, 4204, 4654, 5789, 5872, 7786, 8236, 9721, 12419, 13540, 14702, 16374, 17535, 18436, 19635, 19851, 20918, 23584, 25817, 27900, 30000, 30183, 31568, 32782, 33466, 33666, 33816, 33949, 34349, 34382, 34716]}, "edge": {"target": [], "time": []}}}, "displayed_time": "48.25", "trialTime": 50860, "trial_type": "mouselab-mdp", "trial_index": 22, "time_elapsed": 2020089, "internal_node_id": "0.0-2.3-2.3-0.3"}}, {"uniqueid": "w48371852:a94993471", "current_trial": 23, "dateTime": 1691073005772, "trialdata": {"revealed_states": [], "clicked_states": ["1", "2", "3", "8", "11", "10", "12", "23"], "num_clicks_accrued": [0, 0, 0, 0, 0, 0, 0, 0, 0, 0, 0, 0, 0], "stateRewards": ["", 10, 10, 10, 10, 10, -10, -10, 10, -10, 10, -10, -10, 10, -10, 10, 10, -10, -10, -10, 10, 10, -10, -10, 10, -10, 10, -10, -10, -10, -10, 10, -10, 10], "withholdReward": false, "trial_id": "practice_2", "block": "test", "trialIndex": 7, "score": 49.5, "costs": -4, "simulationMode": [null, null, null, null, null], "rewards": [10, 10, 10, 10, 10], "path": ["0", "0", "1", "2", "3", "8", "10"], "rt": [25163, 123, 20, 1030, 719], "actions": ["up", "up", "up", "left", "down"], "actionTimes": [27870, 28505, 29034, 30594, 31833], "queries": {"click": {"state": {"target": ["1", "2", "3", "8", "11", "10", "12", "23"], "time": [4723, 6635, 8390, 10078, 11998, 14895, 20458, 23053]}, "edge": {"target": [], "time": []}}, "mouseover": {"state": {"target": ["0", "1", "2", "3", "8", "11", "10", "22", "13", "12", "0", "23", "0"], "time": [2718, 4282, 6214, 8131, 9764, 11714, 13930, 19246, 19899, 20213, 22495, 22779, 25245]}, "edge": {"target": [], "time": []}}, "mouseout": {"state": {"target": ["6", "7", "0", "1", "2", "3", "8", "11", "10", "10", "22", "13", "12", "12", "0", "23", "0"], "time": [1631, 1697, 3748, 6148, 8033, 9730, 11647, 13713, 18046, 18581, 19262, 19935, 21064, 22428, 22662, 24812, 25613]}, "edge": {"target": [], "time": []}}}, "displayed_time": "32.35", "trialTime": 37515, "trial_type": "mouselab-mdp", "trial_index": 23, "time_elapsed": 2057975, "internal_node_id": "0.0-2.3-2.3-1.3"}}, {"uniqueid": "w48371852:a94993471", "current_trial": 24, "dateTime": 1691073014680, "trialdata": {"view_history": [{"page_index": 0, "viewing_time": 6828}, {"page_index": 1, "viewing_time": 2077}], "rt": 8905, "trial_id": "mouselab_instructions_2_control", "trial_type": "instructions", "trial_index": 24, "time_elapsed": 2066883, "internal_node_id": "0.0-2.3-3.3"}}, {"uniqueid": "w48371852:a94993471", "current_trial": 25, "dateTime": 1691073096484, "trialdata": {"rt": 81800, "response": {"Q0": "The cost for clicking on nodes may vary between nodes.", "Q1": "The better I perform the higher my bonus will be.", "Q2": "No, the amount of cash at each node of the web may be different each time.", "Q3": "To get the highest total score.", "Q4": "Any time during the round.", "Q5": "10 seconds"}, "question_order": [0, 1, 2, 3, 4, 5], "correct": {"Q0": "The cost for clicking on nodes may vary between nodes.", "Q1": "The better I perform the higher my bonus will be.", "Q2": "No, the amount of cash at each node of the web may be different each time.", "Q3": "To get the highest total score.", "Q4": "Only before moving the spider.", "Q5": "3 seconds"}, "trial_id": "mouselab_quiz_control", "trial_type": "survey-multi-choice", "trial_index": 25, "time_elapsed": 2148687, "internal_node_id": "0.0-2.3-4.3"}}, {"uniqueid": "w48371852:a94993471", "current_trial": 26, "dateTime": 1691073152046, "trialdata": {"rt": 55548, "response": {"Q0": "no", "Q1": "40", "Q2": "female", "Q3": "no", "Q4": "thank you for the study"}, "trial_id": "finish_fail", "trial_type": "survey-text", "trial_index": 26, "time_elapsed": 2204249, "internal_node_id": "0.0-3.0-0.0"}}, {"uniqueid": "w48371852:a94993471", "current_trial": 27, "dateTime": 1691073155210, "trialdata": {"rt": 3159, "stimulus": "Press 'Finish HIT' in order to reach the completion code. Once the data has been saved, you will receive the code either in this window or in the original browser window where you started the experiment.\n", "response": 0, "trial_type": "html-button-response", "trial_index": 27, "time_elapsed": 2207413, "internal_node_id": "0.0-5.0"}}, {"uniqueid": "w48371852:a94993471", "current_trial": 28, "dateTime": 1691073156213, "trialdata": {"success": true, "trial_type": "fullscreen", "trial_index": 28, "time_elapsed": 2208416, "internal_node_id": "0.0-6.0"}}], "questiondata": {"params": {"CODE": "C6DMOQA6", "MIN_TIME": 14, "inspectCost": 1, "startTime": "Thu Aug 03 2023 15:55:45 GMT+0200 (South Africa Standard Time)", "bonusRate": 0.002, "variance": "1_2_4_8_44", "branching": "31123"}, "final_score": 0}, "eventdata": [{"eventtype": "initialized", "value": null, "timestamp": 1691070944926, "interval": 0}, {"eventtype": "window_resize", "value": [1024, 767], "timestamp": 1691070944926, "interval": 0}, {"eventtype": "window_resize", "value": [1024, 767], "timestamp": 1691070945406, "interval": 480}, {"eventtype": "window_resize", "value": [1600, 802], "timestamp": 1691070948841, "interval": 3435}, {"eventtype": "window_resize", "value": [1600, 900], "timestamp": 1691070954850, "interval": 6009}, {"eventtype": "focus", "value": "off", "timestamp": 1691071669897, "interval": 715047}, {"eventtype": "focus", "value": "on", "timestamp": 1691071669897, "interval": 0}, {"eventtype": "window_resize", "value": [1600, 802], "timestamp": 1691071670105, "interval": 208}, {"eventtype": "window_resize", "value": [1600, 900], "timestamp": 1691071676395, "interval": 6290}, {"eventtype": "focus", "value": "off", "timestamp": 1691072515594, "interval": 839199}, {"eventtype": "focus", "value": "on", "timestamp": 1691072515594, "interval": 0}, {"eventtype": "window_resize", "value": [1600, 802], "timestamp": 1691072515806, "interval": 212}, {"eventtype": "window_resize", "value": [1600, 900], "timestamp": 1691072517915, "interval": 2109}, {"eventtype": "focus", "value": "off", "timestamp": 1691072895373, "interval": 377458}, {"eventtype": "focus", "value": "on", "timestamp": 1691072895373, "interval": 0}, {"eventtype": "window_resize", "value": [1600, 802], "timestamp": 1691072895587, "interval": 214}, {"eventtype": "window_resize", "value": [1600, 900], "timestamp": 1691072897172, "interval": 1585}, {"eventtype": "window_resize", "value": [1600, 802], "timestamp": 1691073155437, "interval": 258265}], "useragent": "Mozilla/5.0 (Windows NT 10.0; Win64; x64) AppleWebKit/537.36 (KHTML, like Gecko) Chrome/115.0.0.0 Safari/537.36", "mode": "live", "id": "w48371852:a94993471", "status": "user data saved", "Beginhit": "2023-08-03 13:55:39.311699", "Beginexp": "2023-08-03 13:55:54.298393", "Endhit": "2023-08-03 14:32:35.504928", "psiturkStatus": 3, "browser": "<redacted>", "platform": "windows", "language": "en-ZA", "excludeReason": "quizfail"}