{"condition": 1, "counterbalance": 0, "assignmentId": "a58128337", "workerId": "w14401973", "hitId": "h40925057", "currenttrial": 68, "bonus": 0, "data": [{"uniqueid": "w14401973:a58128337", "current_trial": 0, "dateTime": 1691486410173, "trialdata": {"success": true, "trial_type": "fullscreen", "trial_index": 0, "time_elapsed": 6254, "internal_node_id": "0.0-0.0"}}, {"uniqueid": "w14401973:a58128337", "current_trial": 1, "dateTime": 1691486436659, "trialdata": {"view_history": [{"page_index": 0, "viewing_time": 26479}], "rt": 26481, "trial_id": "exp_instructions_misaligned", "trial_type": "instructions", "trial_index": 1, "time_elapsed": 32741, "internal_node_id": "0.0-1.0"}}, {"uniqueid": "w14401973:a58128337", "current_trial": 2, "dateTime": 1691486440876, "trialdata": {"success": true, "trial_type": "fullscreen", "trial_index": 2, "time_elapsed": 36958, "internal_node_id": "0.0-2.0-0.0"}}, {"uniqueid": "w14401973:a58128337", "current_trial": 3, "dateTime": 1691486742871, "trialdata": {"view_history": [{"page_index": 0, "viewing_time": 103368}, {"page_index": 1, "viewing_time": 108374}, {"page_index": 2, "viewing_time": 33094}, {"page_index": 3, "viewing_time": 57157}], "rt": 301993, "trial_id": "mouselab_instructions_1_misaligned", "trial_type": "instructions", "trial_index": 3, "time_elapsed": 338953, "internal_node_id": "0.0-2.0-1.0"}}, {"uniqueid": "w14401973:a58128337", "current_trial": 4, "dateTime": 1691486853860, "trialdata": {"revealed_states": [], "clicked_states": ["23", "12", "1", "2", "3", "4", "5", "13", "14", "15", "16", "17", "19", "20", "21", "24", "25", "26", "29", "30", "33"], "num_clicks_accrued": [0, 0, 0, 0, 0, 0, 0, 0, 0, 0, 0, 0, 0], "stateRewards": ["", 10, -10, 10, -10, -10, 10, -10, -10, -10, -10, 10, 10, -10, -10, -10, -10, 10, 10, -10, -10, 10, 10, -10, 10, 10, -10, -10, -10, -10, -10, 10, 10, 10], "withholdReward": false, "trial_id": "practice_1", "block": "test", "trialIndex": 0, "score": 3, "costs": -10.5, "simulationMode": [null, null, null, null, null], "rewards": [-10, 10, 10, -10, 10], "path": ["0", "0", "23", "24", "25", "30", "33"], "rt": [82760, 1447, 1271, 1601, 284], "actions": ["left", "left", "left", "down", "left"], "actionTimes": [94555, 96521, 98309, 100421, 101221], "queries": {"click": {"state": {"target": ["23", "12", "1", "2", "3", "4", "5", "13", "14", "15", "16", "17", "19", "20", "21", "24", "25", "26", "29", "30", "33"], "time": [15264, 17427, 18747, 23578, 27123, 28605, 29725, 36505, 38219, 40088, 44942, 46734, 48507, 50191, 52363, 54981, 56133, 58889, 62872, 66671, 67861]}, "edge": {"target": [], "time": []}}, "mouseover": {"state": {"target": ["0", "23", "12", "1", "2", "3", "4", "5", "6", "18", "13", "14", "19", "15", "16", "16", "17", "14", "19", "20", "21", "13", "12", "24", "25", "26", "29", "25", "30", "33", "25", "24", "0", "31", "30", "30", "31", "23", "31", "32", "23"], "time": [14010, 14126, 16548, 18241, 22723, 26527, 28056, 29117, 31029, 35584, 35882, 37313, 38808, 39673, 40523, 44346, 45992, 47740, 47988, 49569, 51449, 53512, 53646, 54561, 55627, 57490, 61319, 64481, 64764, 67295, 68777, 68875, 71975, 72022, 72043, 78067, 78233, 78400, 82848, 82882, 88179]}, "edge": {"target": [], "time": []}}, "mouseout": {"state": {"target": ["0", "0", "23", "12", "1", "2", "3", "4", "5", "6", "18", "13", "14", "19", "14", "15", "16", "15", "16", "17", "14", "19", "20", "21", "13", "12", "24", "24", "25", "26", "29", "25", "30", "33", "25", "24", "0", "31", "30", "30", "31", "23", "31", "32", "23"], "time": [11213, 14027, 16217, 18108, 22543, 26046, 27956, 29068, 30879, 31062, 35766, 37179, 38775, 39407, 39473, 40422, 41385, 44195, 45794, 47540, 47755, 49420, 51034, 53230, 53579, 53678, 55158, 55544, 57290, 60836, 64215, 64613, 67145, 68037, 68791, 68925, 71989, 72039, 72056, 78083, 78266, 78817, 82865, 82898, 88442]}, "edge": {"target": [], "time": []}}}, "displayed_time": "101.74", "trialTime": 107039, "trial_type": "mouselab-mdp", "trial_index": 4, "time_elapsed": 449941, "internal_node_id": "0.0-2.0-2.0-0.0"}}, {"uniqueid": "w14401973:a58128337", "current_trial": 5, "dateTime": 1691486880697, "trialdata": {"revealed_states": [], "clicked_states": ["23", "24", "25", "30", "26", "29"], "num_clicks_accrued": [0, 0, 0, 0, 0, 0, 0, 0, 0, 0, 0, 0, 0], "stateRewards": ["", 10, 10, -10, 10, -10, -10, 10, -10, -10, 10, 10, -10, 10, -10, -10, 10, 10, 10, -10, 10, 10, 10, 10, -10, 10, -10, 10, -10, 10, -10, 10, 10, 10], "withholdReward": false, "trial_id": "practice_2", "block": "test", "trialIndex": 1, "score": 10.5, "costs": -3, "simulationMode": [null, null, null, null, null], "rewards": [10, -10, 10, -10, 10], "path": ["0", "0", "23", "24", "25", "26", "29"], "rt": [17982, 1397, 213, 235, 129], "actions": ["left", "left", "left", "up", "left"], "actionTimes": [20303, 22223, 22953, 23709, 24349], "queries": {"click": {"state": {"target": ["23", "24", "25", "30", "26", "29"], "time": [4102, 6008, 9330, 11722, 14857, 17762]}, "edge": {"target": [], "time": []}}, "mouseover": {"state": {"target": ["0", "23", "24", "25", "30", "25", "26", "29"], "time": [2391, 3780, 5047, 7578, 11393, 14025, 14374, 17090]}, "edge": {"target": [], "time": []}}, "mouseout": {"state": {"target": ["1", "0", "23", "24", "25", "30", "25", "26"], "time": [1414, 3580, 4781, 7046, 11210, 13985, 14092, 16741]}, "edge": {"target": [], "time": []}}}, "displayed_time": "24.87", "trialTime": 26612, "trial_type": "mouselab-mdp", "trial_index": 5, "time_elapsed": 476778, "internal_node_id": "0.0-2.0-2.0-1.0"}}, {"uniqueid": "w14401973:a58128337", "current_trial": 6, "dateTime": 1691486925647, "trialdata": {"view_history": [{"page_index": 0, "viewing_time": 32897}, {"page_index": 1, "viewing_time": 12048}], "rt": 44946, "trial_id": "mouselab_instructions_2_misaligned", "trial_type": "instructions", "trial_index": 6, "time_elapsed": 521729, "internal_node_id": "0.0-2.0-3.0"}}, {"uniqueid": "w14401973:a58128337", "current_trial": 7, "dateTime": 1691486988745, "trialdata": {"rt": 63092, "response": {"Q0": "The cost for clicking on nodes may vary between nodes.", "Q1": "The better I perform the higher my bonus will be.", "Q2": "No, the amount of cash at each node of the web may be different each time.", "Q3": "To get the highest total score.", "Q4": "Any time during the round.", "Q5": "3 seconds"}, "question_order": [0, 1, 2, 3, 4, 5], "correct": {"Q0": "The cost for clicking on nodes may vary between nodes.", "Q1": "The better I perform the higher my bonus will be.", "Q2": "No, the amount of cash at each node of the web may be different each time.", "Q3": "To get the highest total score.", "Q4": "Only before moving the spider.", "Q5": "3 seconds"}, "trial_id": "mouselab_quiz_misaligned", "trial_type": "survey-multi-choice", "trial_index": 7, "time_elapsed": 584827, "internal_node_id": "0.0-2.0-4.0"}}, {"uniqueid": "w14401973:a58128337", "current_trial": 8, "dateTime": 1691486998093, "trialdata": {"success": true, "trial_type": "fullscreen", "trial_index": 8, "time_elapsed": 594174, "internal_node_id": "0.0-2.1-0.1"}}, {"uniqueid": "w14401973:a58128337", "current_trial": 9, "dateTime": 1691487256939, "trialdata": {"view_history": [{"page_index": 0, "viewing_time": 79737}, {"page_index": 1, "viewing_time": 102836}, {"page_index": 2, "viewing_time": 22296}, {"page_index": 3, "viewing_time": 53973}], "rt": 258844, "trial_id": "mouselab_instructions_1_misaligned", "trial_type": "instructions", "trial_index": 9, "time_elapsed": 853021, "internal_node_id": "0.0-2.1-1.1"}}, {"uniqueid": "w14401973:a58128337", "current_trial": 10, "dateTime": 1691487299501, "trialdata": {"revealed_states": [], "clicked_states": ["1", "2", "3", "8", "4", "9", "5", "23", "24", "25", "30", "33"], "num_clicks_accrued": [0, 0, 0, 0, 0, 0, 0, 0, 0, 0, 0, 0, 0], "stateRewards": ["", 10, -10, 10, -10, -10, 10, -10, -10, -10, -10, 10, 10, -10, -10, -10, -10, 10, 10, -10, -10, 10, 10, -10, 10, 10, -10, -10, -10, -10, -10, 10, 10, 10], "withholdReward": false, "trial_id": "practice_1", "block": "test", "trialIndex": 2, "score": 7.5, "costs": -6, "simulationMode": [null, null, null, null, null], "rewards": [-10, 10, 10, -10, 10], "path": ["0", "0", "23", "24", "25", "30", "33"], "rt": [30486, 562, 148, 889, 197], "actions": ["left", "left", "left", "down", "left"], "actionTimes": [32871, 33931, 34584, 35976, 36667], "queries": {"click": {"state": {"target": ["1", "2", "3", "8", "4", "9", "5", "23", "24", "25", "30", "33"], "time": [3834, 5772, 9517, 12031, 14444, 17420, 19509, 22243, 24112, 26132, 28338, 30198]}, "edge": {"target": [], "time": []}}, "mouseover": {"state": {"target": ["1", "2", "10", "3", "8", "3", "4", "9", "5", "4", "2", "23", "24", "25", "30", "33", "25"], "time": [3417, 4302, 8192, 9058, 11479, 13598, 13799, 17035, 19020, 21356, 21406, 21789, 23528, 25693, 27994, 29729, 31948]}, "edge": {"target": [], "time": []}}, "mouseout": {"state": {"target": ["0", "1", "2", "10", "3", "8", "3", "4", "9", "5", "4", "2", "23", "24", "25", "30", "33", "25"], "time": [1947, 4236, 7390, 8741, 11329, 13548, 13682, 16618, 18337, 20755, 21372, 21456, 22974, 25459, 27777, 29330, 31264, 32048]}, "edge": {"target": [], "time": []}}}, "displayed_time": "37.17", "trialTime": 42342, "trial_type": "mouselab-mdp", "trial_index": 10, "time_elapsed": 895583, "internal_node_id": "0.0-2.1-2.1-0.1"}}, {"uniqueid": "w14401973:a58128337", "current_trial": 11, "dateTime": 1691487347253, "trialdata": {"revealed_states": [], "clicked_states": ["1", "2", "3", "8", "4", "5", "6", "23", "24", "25", "26", "27"], "num_clicks_accrued": [0, 0, 0, 0, 0, 0, 0, 0, 0, 0, 0, 0, 0], "stateRewards": ["", 10, 10, -10, 10, -10, -10, 10, -10, -10, 10, 10, -10, 10, -10, -10, 10, 10, 10, -10, 10, 10, 10, 10, -10, 10, -10, 10, -10, 10, -10, 10, 10, 10], "withholdReward": false, "trial_id": "practice_2", "block": "test", "trialIndex": 3, "score": 7.5, "costs": -6, "simulationMode": [null, null, null, null, null, null, null, null, null, null, null], "rewards": [10, 10, -10, -10, 10, -10, 10], "path": ["0", "0", "23", "23", "24", "24", "25", "26", "27"], "rt": [33206, 13641, 416, 1059, 626, 923, 436, 855, 362, 658, 133], "actions": ["left", "left", "left", "left", "left", "left", "left", "left", "left", "up", "up"], "actionTimes": [13641, 13644, 14063, 15199, 15200, 16126, 16128, 16986, 16988, 18150, 18777], "queries": {"click": {"state": {"target": ["1", "2", "3", "8", "4", "5", "6", "23", "24", "25", "26", "27"], "time": [null, null, null, null, null, null, null, 733, 2667, 4749, 6986, 10104]}, "edge": {"target": [], "time": []}}, "mouseover": {"state": {"target": ["0", "1", "2", "3", "8", "3", "4", "5", "6", "7", "23", "24", "25", "26", "28", "27", "25"], "time": [null, null, null, null, null, null, null, null, null, null, 281, 2215, 4083, 6567, 8735, 9636, 10937]}, "edge": {"target": [], "time": []}}, "mouseout": {"state": {"target": ["1", "0", "0", "1", "2", "3", "8", "3", "4", "5", "6", "7", "23", "23", "24", "25", "26", "28", "26", "27", "26", "25"], "time": [null, null, null, null, null, null, null, null, null, null, null, null, 907, 1580, 3783, 6500, 8635, 9053, 9584, 10621, 10770, 11087]}, "edge": {"target": [], "time": []}}}, "displayed_time": "19.28", "trialTime": 24105, "trial_type": "mouselab-mdp", "trial_index": 11, "time_elapsed": 943334, "internal_node_id": "0.0-2.1-2.1-1.1"}}, {"uniqueid": "w14401973:a58128337", "current_trial": 12, "dateTime": 1691487390232, "trialdata": {"view_history": [{"page_index": 0, "viewing_time": 38486}, {"page_index": 1, "viewing_time": 4489}], "rt": 42975, "trial_id": "mouselab_instructions_2_misaligned", "trial_type": "instructions", "trial_index": 12, "time_elapsed": 986314, "internal_node_id": "0.0-2.1-3.1"}}, {"uniqueid": "w14401973:a58128337", "current_trial": 13, "dateTime": 1691487446838, "trialdata": {"rt": 56602, "response": {"Q0": "The cost for clicking on nodes may vary between nodes.", "Q1": "The better I perform the higher my bonus will be.", "Q2": "No, the structure of the web will be different each time.", "Q3": "To get the highest total score.", "Q4": "Only before moving the spider.", "Q5": "3 seconds"}, "question_order": [0, 1, 2, 3, 4, 5], "correct": {"Q0": "The cost for clicking on nodes may vary between nodes.", "Q1": "The better I perform the higher my bonus will be.", "Q2": "No, the amount of cash at each node of the web may be different each time.", "Q3": "To get the highest total score.", "Q4": "Only before moving the spider.", "Q5": "3 seconds"}, "trial_id": "mouselab_quiz_misaligned", "trial_type": "survey-multi-choice", "trial_index": 13, "time_elapsed": 1042920, "internal_node_id": "0.0-2.1-4.1"}}, {"uniqueid": "w14401973:a58128337", "current_trial": 14, "dateTime": 1691487455756, "trialdata": {"success": true, "trial_type": "fullscreen", "trial_index": 14, "time_elapsed": 1051838, "internal_node_id": "0.0-2.2-0.2"}}, {"uniqueid": "w14401973:a58128337", "current_trial": 15, "dateTime": 1691487468881, "trialdata": {"view_history": [{"page_index": 0, "viewing_time": 4643}, {"page_index": 1, "viewing_time": 3437}, {"page_index": 2, "viewing_time": 3282}, {"page_index": 3, "viewing_time": 1759}], "rt": 13121, "trial_id": "mouselab_instructions_1_misaligned", "trial_type": "instructions", "trial_index": 15, "time_elapsed": 1064962, "internal_node_id": "0.0-2.2-1.2"}}, {"uniqueid": "w14401973:a58128337", "current_trial": 16, "dateTime": 1691487505085, "trialdata": {"revealed_states": [], "clicked_states": ["1", "2", "3", "8", "9", "4", "5", "23", "24", "25", "30", "33"], "num_clicks_accrued": [0, 0, 0, 0, 0, 0, 0, 0, 0, 0, 0, 0, 0], "stateRewards": ["", 10, -10, 10, -10, -10, 10, -10, -10, -10, -10, 10, 10, -10, -10, -10, -10, 10, 10, -10, -10, 10, 10, -10, 10, 10, -10, -10, -10, -10, -10, 10, 10, 10], "withholdReward": false, "trial_id": "practice_1", "block": "test", "trialIndex": 4, "score": 7.5, "costs": -6, "simulationMode": [null, null, null, null, null], "rewards": [-10, 10, 10, -10, 10], "path": ["0", "0", "23", "24", "25", "30", "33"], "rt": [24780, 665, 217, 969, 266], "actions": ["left", "left", "left", "down", "left"], "actionTimes": [26800, 27966, 28685, 30153, 30917], "queries": {"click": {"state": {"target": ["1", "2", "3", "8", "9", "4", "5", "23", "24", "25", "30", "33"], "time": [2949, 4447, 6716, 9016, 10947, 13955, 15672, 17896, 19788, 21569, 23501, 25321]}, "edge": {"target": [], "time": []}}, "mouseover": {"state": {"target": ["1", "2", "3", "8", "9", "4", "5", "7", "1", "23", "24", "25", "30", "33"], "time": [2547, 3529, 6130, 8597, 10348, 13514, 14764, 16381, 16697, 17181, 19213, 21047, 23097, 24814]}, "edge": {"target": [], "time": []}}, "mouseout": {"state": {"target": ["0", "1", "2", "3", "8", "9", "4", "5", "4", "7", "1", "23", "24", "25", "30", "30", "33"], "time": [2514, 3446, 4623, 8414, 9161, 13034, 14463, 16130, 16330, 16513, 16780, 18931, 20598, 22947, 23678, 24581, 35199]}, "edge": {"target": [], "time": []}}}, "displayed_time": "31.42", "trialTime": 35975, "trial_type": "mouselab-mdp", "trial_index": 16, "time_elapsed": 1101166, "internal_node_id": "0.0-2.2-2.2-0.2"}}, {"uniqueid": "w14401973:a58128337", "current_trial": 17, "dateTime": 1691487532236, "trialdata": {"revealed_states": [], "clicked_states": ["12", "13", "14", "15", "16", "17"], "num_clicks_accrued": [0, 0, 0, 0, 0, 0, 0, 0, 0, 0, 0, 0, 0], "stateRewards": ["", 10, 10, -10, 10, -10, -10, 10, -10, -10, 10, 10, -10, 10, -10, -10, 10, 10, 10, -10, 10, 10, 10, 10, -10, 10, -10, 10, -10, 10, -10, 10, 10, 10], "withholdReward": false, "trial_id": "practice_2", "block": "test", "trialIndex": 5, "score": -9.5, "costs": -3, "simulationMode": [null, null, null, null, null], "rewards": [-10, 10, -10, -10, 10], "path": ["0", "0", "12", "13", "14", "15", "17"], "rt": [14752, 764, 297, 750, 172], "actions": ["right", "right", "right", "up", "right"], "actionTimes": [17565, 18823, 19622, 20876, 21547], "queries": {"click": {"state": {"target": ["12", "13", "14", "15", "16", "17"], "time": [5074, 6343, 8231, 10452, 12193, 13908]}, "edge": {"target": [], "time": []}}, "mouseover": {"state": {"target": ["0", "12", "13", "14", "15", "16", "17", "15"], "time": [3970, 4637, 5971, 7421, 10037, 11389, 12789, 15772]}, "edge": {"target": [], "time": []}}, "mouseout": {"state": {"target": ["30", "23", "0", "0", "12", "13", "14", "15", "16", "17", "15", "18", "0"], "time": [1136, 1969, 2852, 4038, 5887, 7072, 9921, 10938, 12572, 15105, 23939, 24040, 24223]}, "edge": {"target": [], "time": []}}}, "displayed_time": "22.04", "trialTime": 26933, "trial_type": "mouselab-mdp", "trial_index": 17, "time_elapsed": 1128317, "internal_node_id": "0.0-2.2-2.2-1.2"}}, {"uniqueid": "w14401973:a58128337", "current_trial": 18, "dateTime": 1691487539675, "trialdata": {"view_history": [{"page_index": 0, "viewing_time": 5241}, {"page_index": 1, "viewing_time": 2193}], "rt": 7435, "trial_id": "mouselab_instructions_2_misaligned", "trial_type": "instructions", "trial_index": 18, "time_elapsed": 1135757, "internal_node_id": "0.0-2.2-3.2"}}, {"uniqueid": "w14401973:a58128337", "current_trial": 19, "dateTime": 1691487569324, "trialdata": {"rt": 29645, "response": {"Q0": "The cost for clicking on nodes may vary between nodes.", "Q1": "The better I perform the higher my bonus will be.", "Q2": "No, the amount of cash at each node of the web may be different each time.", "Q3": "To get the highest total score.", "Q4": "Only before moving the spider.", "Q5": "3 seconds"}, "question_order": [0, 1, 2, 3, 4, 5], "correct": {"Q0": "The cost for clicking on nodes may vary between nodes.", "Q1": "The better I perform the higher my bonus will be.", "Q2": "No, the amount of cash at each node of the web may be different each time.", "Q3": "To get the highest total score.", "Q4": "Only before moving the spider.", "Q5": "3 seconds"}, "trial_id": "mouselab_quiz_misaligned", "trial_type": "survey-multi-choice", "trial_index": 19, "time_elapsed": 1165406, "internal_node_id": "0.0-2.2-4.2"}}, {"uniqueid": "w14401973:a58128337", "current_trial": 20, "dateTime": 1691487582407, "trialdata": {"rt": 13076, "stimulus": "\n<h1> Get ready to start the game! </h1>\n\nThank you for reading the instructions. Get ready start with the 40 rounds of this game.\n<br><br>\nIf you need to take a break, feel free to take one after the end of a round, before continuing to the next one.\n<br><br>\nRemember, the more money the spider gets, the bigger your bonus will be!\n<br><br>\n<div style='text-align: center;'>Press <code>space</code> to begin.</div>\n\n<br><br>\n(If, at any point, the <code>space</code> key does not take you to the next page, click once on the text and try again.)", "response": " ", "trial_id": "mdp_ready", "trial_type": "html-keyboard-response", "trial_index": 20, "time_elapsed": 1178489, "internal_node_id": "0.0-4.0-0.0"}}, {"uniqueid": "w14401973:a58128337", "current_trial": 21, "dateTime": 1691487616957, "trialdata": {"revealed_states": [], "clicked_states": ["1", "2", "3", "8", "9", "4", "5"], "num_clicks_accrued": [0, 0, 0, 0, 0, 0, 0, 0, 0, 0, 0, 0, 0], "stateRewards": ["", -1, -4, 8, 8, -68, 47, 24, -7, -61, 49, -69, -1, -1, 8, -7, 42, 1, -45, -11, 10, -63, -6, 1, 4, 6, -16, 79, -37, -58, -12, 81, 18, -53], "withholdReward": false, "trial_id": "mdp_trial_1", "block": "test", "trialIndex": 6, "score": -62.45, "costs": -8.45, "simulationMode": [null, null, null, null, null, null], "rewards": [1, 4, 6, -12, -53], "path": ["0", "0", "23", "24", "25", "30", "33"], "rt": [16611, 8164, 270, 220, 872, 212], "actions": ["up", "left", "left", "left", "down", "left"], "actionTimes": [19113, 27280, 28053, 28769, 30138, 30846], "queries": {"click": {"state": {"target": ["1", "2", "3", "8", "9", "4", "5"], "time": [3567, 4777, 6477, 8524, 10165, 15199, 16445]}, "edge": {"target": [], "time": []}}, "mouseover": {"state": {"target": ["1", "2", "3", "8", "9", "3", "7", "4", "5", "4", "7", "1", "23"], "time": [3203, 4237, 6221, 7822, 9723, 11373, 12157, 12390, 15841, 20860, 20910, 21143, 22026]}, "edge": {"target": [], "time": []}}, "mouseout": {"state": {"target": ["0", "0", "1", "2", "3", "8", "9", "3", "7", "4", "5", "4", "7", "1"], "time": [1100, 3070, 4153, 6000, 7689, 9643, 10841, 11440, 12307, 15742, 17160, 20878, 20927, 21893]}, "edge": {"target": [], "time": []}}}, "displayed_time": "31.35", "trialTime": 34322, "trial_type": "mouselab-mdp", "trial_index": 21, "time_elapsed": 1213038, "internal_node_id": "0.0-4.0-1.0-0.0"}}, {"uniqueid": "w14401973:a58128337", "current_trial": 22, "dateTime": 1691487638678, "trialdata": {"revealed_states": [], "clicked_states": [], "num_clicks_accrued": [0, 0, 0, 0, 0, 0, 0, 0, 0, 0, 0, 0, 0], "stateRewards": ["", 2, -1, -2, -5, -47, -57, -33, -11, 31, -18, -72, -2, 1, -4, -8, -46, -53, -50, 15, -85, -9, 39, -2, -2, 1, 14, -1, -8, 53, -12, -41, -74, 62], "withholdReward": false, "trial_id": "mdp_trial_2", "block": "test", "trialIndex": 7, "score": -63, "costs": 0, "simulationMode": [null, null, null, null, null], "rewards": [-2, 1, -4, -8, -50], "path": ["0", "0", "12", "13", "14", "15", "18"], "rt": [955, 270, 459, 138, 793], "actions": ["right", "right", "right", "up", "left"], "actionTimes": [4917, 5686, 6646, 7292, 8580], "queries": {"click": {"state": {"target": [], "time": []}, "edge": {"target": [], "time": []}}, "mouseover": {"state": {"target": [], "time": []}, "edge": {"target": [], "time": []}}, "mouseout": {"state": {"target": ["23", "0"], "time": [3265, 11944]}, "edge": {"target": [], "time": []}}}, "displayed_time": "17.97", "trialTime": 21495, "trial_type": "mouselab-mdp", "trial_index": 22, "time_elapsed": 1234759, "internal_node_id": "0.0-4.0-1.0-1.0"}}, {"uniqueid": "w14401973:a58128337", "current_trial": 23, "dateTime": 1691487659039, "trialdata": {"revealed_states": [], "clicked_states": [], "num_clicks_accrued": [0, 0, 0, 0, 0, 0, 0, 0, 0, 0, 0, 0, 0], "stateRewards": ["", -2, 3, 8, -9, 59, 41, -50, -1, 82, 66, 33, 2, -2, 7, 8, 1, -38, 12, -16, 24, -37, 67, 1, 4, -2, 5, 35, -83, 28, 8, -27, 69, -64], "withholdReward": false, "trial_id": "mdp_trial_3", "block": "test", "trialIndex": 8, "score": -75, "costs": 0, "simulationMode": [null, null, null, null, null], "rewards": [1, 4, -2, 5, -83], "path": ["0", "0", "23", "24", "25", "26", "28"], "rt": [1981, 201, 85, 48, 95], "actions": ["left", "left", "left", "up", "right"], "actionTimes": [4682, 5386, 5971, 6517, 7130], "queries": {"click": {"state": {"target": [], "time": []}, "edge": {"target": [], "time": []}}, "mouseover": {"state": {"target": [], "time": []}, "edge": {"target": [], "time": []}}, "mouseout": {"state": {"target": ["23", "0"], "time": [1913, 2772]}, "edge": {"target": [], "time": []}}}, "displayed_time": "16.71", "trialTime": 20115, "trial_type": "mouselab-mdp", "trial_index": 23, "time_elapsed": 1255120, "internal_node_id": "0.0-4.0-1.0-2.0"}}, {"uniqueid": "w14401973:a58128337", "current_trial": 24, "dateTime": 1691487681209, "trialdata": {"revealed_states": [], "clicked_states": [], "num_clicks_accrued": [0, 0, 0, 0, 0, 0, 0, 0, 0, 0, 0, 0, 0], "stateRewards": ["", -1, -3, -6, 14, 41, 18, 63, -14, 80, 21, 17, -2, -4, -2, -5, 13, 70, 8, -4, -64, -10, -20, 2, -1, 4, -1, -17, -55, 42, -7, 47, 54, 15], "withholdReward": false, "trial_id": "mdp_trial_4", "block": "test", "trialIndex": 9, "score": -7, "costs": 0, "simulationMode": [null, null, null, null, null], "rewards": [-1, -3, -6, -14, 17], "path": ["0", "0", "1", "2", "3", "8", "11"], "rt": [898, 758, 255, 497, 391], "actions": ["up", "up", "up", "left", "left"], "actionTimes": [4024, 5286, 6046, 7039, 7933], "queries": {"click": {"state": {"target": [], "time": []}, "edge": {"target": [], "time": []}}, "mouseover": {"state": {"target": [], "time": []}, "edge": {"target": [], "time": []}}, "mouseout": {"state": {"target": ["13", "12", "0"], "time": [2020, 2170, 3204]}, "edge": {"target": [], "time": []}}}, "displayed_time": "17.14", "trialTime": 21905, "trial_type": "mouselab-mdp", "trial_index": 24, "time_elapsed": 1277290, "internal_node_id": "0.0-4.0-1.0-3.0"}}, {"uniqueid": "w14401973:a58128337", "current_trial": 25, "dateTime": 1691487701772, "trialdata": {"revealed_states": [], "clicked_states": [], "num_clicks_accrued": [0, 0, 0, 0, 0, 0, 0, 0, 0, 0, 0, 0, 0], "stateRewards": ["", 2, 4, -6, -13, -75, -81, 30, 7, 5, 59, -65, -1, -1, 7, 14, -38, 36, -41, 1, -54, -5, 64, 2, -1, 5, 6, -19, 79, 11, 16, -33, -50, 58], "withholdReward": false, "trial_id": "mdp_trial_5", "block": "test", "trialIndex": 10, "score": 12, "costs": 0, "simulationMode": [null, null, null, null, null], "rewards": [2, 4, -6, 7, 5], "path": ["0", "0", "1", "2", "3", "8", "9"], "rt": [1128, 496, 152, 158, 104], "actions": ["up", "up", "up", "left", "up"], "actionTimes": [4198, 5198, 5852, 6509, 7106], "queries": {"click": {"state": {"target": [], "time": []}, "edge": {"target": [], "time": []}}, "mouseover": {"state": {"target": ["0"], "time": [3124]}, "edge": {"target": [], "time": []}}, "mouseout": {"state": {"target": ["22", "12", "0"], "time": [1979, 2513, 9223]}, "edge": {"target": [], "time": []}}}, "displayed_time": "17.08", "trialTime": 20306, "trial_type": "mouselab-mdp", "trial_index": 25, "time_elapsed": 1297854, "internal_node_id": "0.0-4.0-1.0-4.0"}}, {"uniqueid": "w14401973:a58128337", "current_trial": 26, "dateTime": 1691487719736, "trialdata": {"revealed_states": [], "clicked_states": [], "num_clicks_accrued": [0, 0, 0, 0, 0, 0, 0, 0, 0, 0, 0, 0, 0], "stateRewards": ["", 2, 4, -5, 7, 81, 35, 6, 11, 14, -72, 42, -1, 2, 3, -7, -77, -44, -40, -15, -85, 51, -32, -2, -1, -5, 7, -74, 47, 52, 16, -49, 48, -46], "withholdReward": false, "trial_id": "mdp_trial_6", "block": "test", "trialIndex": 11, "score": 14, "costs": 0, "simulationMode": [null, null, null, null, null], "rewards": [2, 4, -5, 7, 6], "path": ["0", "0", "1", "2", "3", "4", "7"], "rt": [1414, 119, 64, 202, 184], "actions": ["up", "up", "up", "right", "down"], "actionTimes": [3679, 4299, 4861, 5565, 6249], "queries": {"click": {"state": {"target": [], "time": []}, "edge": {"target": [], "time": []}}, "mouseover": {"state": {"target": ["0"], "time": [2332]}, "edge": {"target": [], "time": []}}, "mouseout": {"state": {"target": ["0", "0"], "time": [2151, 8694]}, "edge": {"target": [], "time": []}}}, "displayed_time": "16.27", "trialTime": 17712, "trial_type": "mouselab-mdp", "trial_index": 26, "time_elapsed": 1315818, "internal_node_id": "0.0-4.0-1.0-5.0"}}, {"uniqueid": "w14401973:a58128337", "current_trial": 27, "dateTime": 1691487740262, "trialdata": {"revealed_states": [], "clicked_states": [], "num_clicks_accrued": [0, 0, 0, 0, 0, 0, 0, 0, 0, 0, 0, 0, 0], "stateRewards": ["", -2, 1, -3, -16, -39, -52, 30, -7, -41, -59, 11, 2, 1, 8, 2, -11, -26, -42, -13, 87, -59, -48, -1, -1, -1, 16, -79, 31, 50, -1, -84, 34, -82], "withholdReward": false, "trial_id": "mdp_trial_7", "block": "test", "trialIndex": 12, "score": -70, "costs": 0, "simulationMode": [null, null, null, null, null], "rewards": [-2, 1, -3, -7, -59], "path": ["0", "0", "1", "2", "3", "8", "10"], "rt": [1218, 336, 65, 604, 624], "actions": ["up", "up", "up", "left", "down"], "actionTimes": [3076, 3912, 4473, 5579, 6700], "queries": {"click": {"state": {"target": [], "time": []}, "edge": {"target": [], "time": []}}, "mouseover": {"state": {"target": ["0"], "time": [1918]}, "edge": {"target": [], "time": []}}, "mouseout": {"state": {"target": ["0", "0"], "time": [1737, 12557]}, "edge": {"target": [], "time": []}}}, "displayed_time": "15.87", "trialTime": 20264, "trial_type": "mouselab-mdp", "trial_index": 27, "time_elapsed": 1336343, "internal_node_id": "0.0-4.0-1.0-6.0"}}, {"uniqueid": "w14401973:a58128337", "current_trial": 28, "dateTime": 1691487760801, "trialdata": {"revealed_states": [], "clicked_states": [], "num_clicks_accrued": [0, 0, 0, 0, 0, 0, 0, 0, 0, 0, 0, 0, 0], "stateRewards": ["", -2, -3, 1, -7, 39, -67, 16, 5, -20, 73, 66, -1, 4, 5, -3, 23, -68, -87, -8, 3, -3, 17, 1, -4, -2, -13, -32, 34, 61, -5, -11, -18, 12], "withholdReward": false, "trial_id": "mdp_trial_8", "block": "test", "trialIndex": 13, "score": -19, "costs": 0, "simulationMode": [null, null, null, null, null], "rewards": [-2, -3, 1, 5, -20], "path": ["0", "0", "1", "2", "3", "8", "9"], "rt": [771, 402, 169, 285, 171], "actions": ["up", "up", "up", "left", "up"], "actionTimes": [3819, 4715, 5380, 6164, 6833], "queries": {"click": {"state": {"target": [], "time": []}, "edge": {"target": [], "time": []}}, "mouseover": {"state": {"target": ["0"], "time": [3116]}, "edge": {"target": [], "time": []}}, "mouseout": {"state": {"target": ["0", "0", "0"], "time": [2275, 9826, 9860]}, "edge": {"target": [], "time": []}}}, "displayed_time": "17.05", "trialTime": 20284, "trial_type": "mouselab-mdp", "trial_index": 28, "time_elapsed": 1356882, "internal_node_id": "0.0-4.0-1.0-7.0"}}, {"uniqueid": "w14401973:a58128337", "current_trial": 29, "dateTime": 1691487780585, "trialdata": {"revealed_states": [], "clicked_states": [], "num_clicks_accrued": [0, 0, 0, 0, 0, 0, 0, 0, 0, 0, 0, 0, 0], "stateRewards": ["", -1, -3, -7, -7, -76, 30, -49, 11, -70, 56, 2, 1, 4, -3, -14, -59, -83, -25, -9, -21, -67, -73, -2, 4, 4, -9, -11, -32, 60, 9, -87, 22, -64], "withholdReward": false, "trial_id": "mdp_trial_9", "block": "test", "trialIndex": 14, "score": -94, "costs": 0, "simulationMode": [null, null, null, null, null], "rewards": [-1, -3, -7, -7, -76], "path": ["0", "0", "1", "2", "3", "4", "5"], "rt": [799, 278, 116, 128, 131], "actions": ["up", "up", "up", "right", "up"], "actionTimes": [1699, 2480, 3104, 3733, 4369], "queries": {"click": {"state": {"target": [], "time": []}, "edge": {"target": [], "time": []}}, "mouseover": {"state": {"target": ["0"], "time": [961]}, "edge": {"target": [], "time": []}}, "mouseout": {"state": {"target": ["0", "0"], "time": [780, 7668]}, "edge": {"target": [], "time": []}}}, "displayed_time": "14.91", "trialTime": 19508, "trial_type": "mouselab-mdp", "trial_index": 29, "time_elapsed": 1376666, "internal_node_id": "0.0-4.0-1.0-8.0"}}, {"uniqueid": "w14401973:a58128337", "current_trial": 30, "dateTime": 1691487800517, "trialdata": {"revealed_states": [], "clicked_states": [], "num_clicks_accrued": [0, 0, 0, 0, 0, 0, 0, 0, 0, 0, 0, 0, 0], "stateRewards": ["", -1, 1, -2, 5, 73, 15, 61, 8, 7, 38, 76, 2, 2, -4, -6, -6, -26, 43, -5, -45, -85, -35, -2, 1, -4, 15, -10, 69, 72, -11, 84, -49, -38], "withholdReward": false, "trial_id": "mdp_trial_10", "block": "test", "trialIndex": 15, "score": 64, "costs": 0, "simulationMode": [null, null, null, null, null], "rewards": [-1, 1, -2, 5, 61], "path": ["0", "0", "1", "2", "3", "4", "7"], "rt": [1152, 65, 287, 73, 201], "actions": ["up", "up", "up", "right", "down"], "actionTimes": [2489, 3068, 3871, 4455, 5165], "queries": {"click": {"state": {"target": [], "time": []}, "edge": {"target": [], "time": []}}, "mouseover": {"state": {"target": ["0"], "time": [1396]}, "edge": {"target": [], "time": []}}, "mouseout": {"state": {"target": ["0", "0"], "time": [1215, 18410]}, "edge": {"target": [], "time": []}}}, "displayed_time": "15.35", "trialTime": 19656, "trial_type": "mouselab-mdp", "trial_index": 30, "time_elapsed": 1396598, "internal_node_id": "0.0-4.0-1.0-9.0"}}, {"uniqueid": "w14401973:a58128337", "current_trial": 31, "dateTime": 1691487825759, "trialdata": {"revealed_states": [], "clicked_states": [], "num_clicks_accrued": [0, 0, 0, 0, 0, 0, 0, 0, 0, 0, 0, 0, 0], "stateRewards": ["", -2, -3, -6, -7, 9, 16, 65, 5, -41, 20, -25, -1, -4, 1, -11, -49, -4, 71, 1, 39, -62, 52, -2, -3, 7, -9, -28, -70, 84, 8, 24, -58, 82], "withholdReward": false, "trial_id": "mdp_trial_11", "block": "test", "trialIndex": 16, "score": 47, "costs": 0, "simulationMode": [null, null, null, null, null], "rewards": [-2, -3, -6, -7, 65], "path": ["0", "0", "1", "2", "3", "4", "7"], "rt": [1056, 387, 42, 321, 246], "actions": ["up", "up", "up", "right", "down"], "actionTimes": [4032, 4936, 5490, 6319, 7077], "queries": {"click": {"state": {"target": [], "time": []}, "edge": {"target": [], "time": []}}, "mouseover": {"state": {"target": [], "time": []}, "edge": {"target": [], "time": []}}, "mouseout": {"state": {"target": ["0"], "time": [3023]}, "edge": {"target": [], "time": []}}}, "displayed_time": "16.98", "trialTime": 24990, "trial_type": "mouselab-mdp", "trial_index": 31, "time_elapsed": 1421840, "internal_node_id": "0.0-4.0-1.0-10.0"}}, {"uniqueid": "w14401973:a58128337", "current_trial": 32, "dateTime": 1691487845540, "trialdata": {"revealed_states": [], "clicked_states": [], "num_clicks_accrued": [0, 0, 0, 0, 0, 0, 0, 0, 0, 0, 0, 0, 0], "stateRewards": ["", -2, 3, -5, -7, 66, 43, -60, -4, -70, -75, 4, -1, 2, 2, -13, 54, 11, -40, -1, 77, 32, 15, -2, 3, -8, -9, -35, 83, -27, 6, -74, -34, 44], "withholdReward": false, "trial_id": "mdp_trial_12", "block": "test", "trialIndex": 17, "score": 1, "costs": 0, "simulationMode": [null, null, null, null, null], "rewards": [-1, 2, 2, -13, 11], "path": ["0", "0", "12", "13", "14", "15", "17"], "rt": [2026, 339, 102, 518, 150], "actions": ["right", "right", "right", "up", "right"], "actionTimes": [3790, 4641, 5251, 6286, 6950], "queries": {"click": {"state": {"target": [], "time": []}, "edge": {"target": [], "time": []}}, "mouseover": {"state": {"target": ["0"], "time": [1816]}, "edge": {"target": [], "time": []}}, "mouseout": {"state": {"target": ["0", "0"], "time": [1635, 17965]}, "edge": {"target": [], "time": []}}}, "displayed_time": "15.77", "trialTime": 19521, "trial_type": "mouselab-mdp", "trial_index": 32, "time_elapsed": 1441621, "internal_node_id": "0.0-4.0-1.0-11.0"}}, {"uniqueid": "w14401973:a58128337", "current_trial": 33, "dateTime": 1691487865363, "trialdata": {"revealed_states": [], "clicked_states": [], "num_clicks_accrued": [0, 0, 0, 0, 0, 0, 0, 0, 0, 0, 0, 0, 0], "stateRewards": ["", 1, -4, -4, 8, 1, -79, 68, -10, -79, 8, -74, -1, -3, -6, 14, 43, 23, 9, 5, -51, 63, 61, -2, 4, 6, -10, 69, -32, 57, 15, -80, -80, -77], "withholdReward": false, "trial_id": "mdp_trial_13", "block": "test", "trialIndex": 18, "score": 58, "costs": 0, "simulationMode": [null, null, null, null, null], "rewards": [-1, -3, -6, 5, 63], "path": ["0", "0", "12", "13", "14", "19", "21"], "rt": [1632, 491, 373, 748, 1019], "actions": ["right", "right", "right", "down", "down"], "actionTimes": [2436, 3435, 4311, 5567, 7099], "queries": {"click": {"state": {"target": [], "time": []}, "edge": {"target": [], "time": []}}, "mouseover": {"state": {"target": ["0"], "time": [867]}, "edge": {"target": [], "time": []}}, "mouseout": {"state": {"target": [], "time": []}, "edge": {"target": [], "time": []}}}, "displayed_time": "14.81", "trialTime": 19556, "trial_type": "mouselab-mdp", "trial_index": 33, "time_elapsed": 1461444, "internal_node_id": "0.0-4.0-1.0-12.0"}}, {"uniqueid": "w14401973:a58128337", "current_trial": 34, "dateTime": 1691487884812, "trialdata": {"revealed_states": [], "clicked_states": [], "num_clicks_accrued": [0, 0, 0, 0, 0, 0, 0, 0, 0, 0, 0, 0, 0], "stateRewards": ["", -2, 2, 3, -7, 76, 63, 21, 15, 35, -8, -44, 1, 1, -2, -12, 23, 24, 76, -9, 46, 66, -49, -2, -1, 7, 12, 40, -71, -45, -6, 38, -49, 46], "withholdReward": false, "trial_id": "mdp_trial_14", "block": "test", "trialIndex": 19, "score": 17, "costs": 0, "simulationMode": [null, null, null, null, null], "rewards": [-2, 2, 3, -7, 21], "path": ["0", "0", "1", "2", "3", "4", "7"], "rt": [1633, 383, 784, 280, 408], "actions": ["up", "up", "up", "right", "down"], "actionTimes": [2823, 3718, 5017, 5814, 6740], "queries": {"click": {"state": {"target": [], "time": []}, "edge": {"target": [], "time": []}}, "mouseover": {"state": {"target": [], "time": []}, "edge": {"target": [], "time": []}}, "mouseout": {"state": {"target": ["1", "0"], "time": [11743, 11760]}, "edge": {"target": [], "time": []}}}, "displayed_time": "15.20", "trialTime": 19155, "trial_type": "mouselab-mdp", "trial_index": 34, "time_elapsed": 1480893, "internal_node_id": "0.0-4.0-1.0-13.0"}}, {"uniqueid": "w14401973:a58128337", "current_trial": 35, "dateTime": 1691487904071, "trialdata": {"revealed_states": [], "clicked_states": [], "num_clicks_accrued": [0, 0, 0, 0, 0, 0, 0, 0, 0, 0, 0, 0, 0], "stateRewards": ["", -2, -4, -2, 10, -8, -15, -47, 7, -84, 53, 5, -1, 2, -7, 3, 83, 31, 47, -1, 30, -8, 69, 2, -4, -1, 8, -7, 12, -8, -8, -13, 30, -84], "withholdReward": false, "trial_id": "mdp_trial_15", "block": "test", "trialIndex": 20, "score": -15, "costs": 0, "simulationMode": [null, null, null, null, null], "rewards": [-1, 2, -7, -1, -8], "path": ["0", "0", "12", "13", "14", "19", "21"], "rt": [1966, 234, 239, 251, 166], "actions": ["right", "right", "right", "down", "down"], "actionTimes": [3093, 3848, 4603, 5365, 6046], "queries": {"click": {"state": {"target": [], "time": []}, "edge": {"target": [], "time": []}}, "mouseover": {"state": {"target": [], "time": []}, "edge": {"target": [], "time": []}}, "mouseout": {"state": {"target": ["0", "0"], "time": [658, 1194]}, "edge": {"target": [], "time": []}}}, "displayed_time": "15.13", "trialTime": 18954, "trial_type": "mouselab-mdp", "trial_index": 35, "time_elapsed": 1500152, "internal_node_id": "0.0-4.0-1.0-14.0"}}, {"uniqueid": "w14401973:a58128337", "current_trial": 36, "dateTime": 1691487922740, "trialdata": {"revealed_states": [], "clicked_states": [], "num_clicks_accrued": [0, 0, 0, 0, 0, 0, 0, 0, 0, 0, 0, 0, 0], "stateRewards": ["", -2, -3, -3, 9, 79, 67, 22, -15, -56, 27, -85, -2, 4, -4, -15, -20, -32, 60, 15, 71, 57, 17, 1, 2, -8, 15, -37, -81, 82, 15, 21, -3, 2], "withholdReward": false, "trial_id": "mdp_trial_16", "block": "test", "trialIndex": 21, "score": -79, "costs": 0, "simulationMode": [null, null, null, null, null], "rewards": [-2, -3, -3, -15, -56], "path": ["0", "0", "1", "2", "3", "8", "9"], "rt": [1505, 69, 405, 925, 817], "actions": ["up", "up", "up", "left", "up"], "actionTimes": [2248, 2840, 3760, 5196, 6521], "queries": {"click": {"state": {"target": [], "time": []}, "edge": {"target": [], "time": []}}, "mouseover": {"state": {"target": ["0"], "time": [810]}, "edge": {"target": [], "time": []}}, "mouseout": {"state": {"target": ["0", "0", "1"], "time": [629, 14380, 14780]}, "edge": {"target": [], "time": []}}}, "displayed_time": "14.75", "trialTime": 18356, "trial_type": "mouselab-mdp", "trial_index": 36, "time_elapsed": 1518821, "internal_node_id": "0.0-4.0-1.0-15.0"}}, {"uniqueid": "w14401973:a58128337", "current_trial": 37, "dateTime": 1691487944485, "trialdata": {"revealed_states": [], "clicked_states": [], "num_clicks_accrued": [0, 0, 0, 0, 0, 0, 0, 0, 0, 0, 0, 0, 0], "stateRewards": ["", -1, 2, -6, 6, 43, 78, 78, -2, 55, -29, -17, -2, -4, 1, -15, 13, 7, -79, 8, -28, -68, 36, -1, -3, 3, -16, 84, -18, 87, 10, 32, 13, -81], "withholdReward": false, "trial_id": "mdp_trial_17", "block": "test", "trialIndex": 22, "score": 22, "costs": 0, "simulationMode": [null, null, null, null, null], "rewards": [-1, -3, 3, 10, 13], "path": ["0", "0", "23", "24", "25", "30", "32"], "rt": [1670, 334, 54, 239, 347], "actions": ["left", "left", "left", "down", "down"], "actionTimes": [2861, 3705, 4274, 5043, 5899], "queries": {"click": {"state": {"target": [], "time": []}, "edge": {"target": [], "time": []}}, "mouseover": {"state": {"target": ["0"], "time": [1264]}, "edge": {"target": [], "time": []}}, "mouseout": {"state": {"target": [], "time": []}, "edge": {"target": [], "time": []}}}, "displayed_time": "15.20", "trialTime": 21426, "trial_type": "mouselab-mdp", "trial_index": 37, "time_elapsed": 1540566, "internal_node_id": "0.0-4.0-1.0-16.0"}}, {"uniqueid": "w14401973:a58128337", "current_trial": 38, "dateTime": 1691487962639, "trialdata": {"revealed_states": [], "clicked_states": [], "num_clicks_accrued": [0, 0, 0, 0, 0, 0, 0, 0, 0, 0, 0, 0, 0], "stateRewards": ["", -1, 4, -8, 12, 14, 69, -8, 5, -72, -14, 56, -1, -1, -1, 9, 67, 19, 11, -9, -88, -58, 3, 2, -4, -8, 4, 62, 77, -74, 5, -31, 65, 88], "withholdReward": false, "trial_id": "mdp_trial_18", "block": "test", "trialIndex": 23, "score": 60, "costs": 0, "simulationMode": [null, null, null, null, null], "rewards": [2, -4, -8, 5, 65], "path": ["0", "0", "23", "24", "25", "30", "32"], "rt": [1104, 272, 298, 18, 56], "actions": ["left", "left", "left", "down", "down"], "actionTimes": [2284, 3067, 3875, 4412, 4982], "queries": {"click": {"state": {"target": [], "time": []}, "edge": {"target": [], "time": []}}, "mouseover": {"state": {"target": [], "time": []}, "edge": {"target": [], "time": []}}, "mouseout": {"state": {"target": ["0"], "time": [759]}, "edge": {"target": [], "time": []}}}, "displayed_time": "15.18", "trialTime": 17848, "trial_type": "mouselab-mdp", "trial_index": 38, "time_elapsed": 1558720, "internal_node_id": "0.0-4.0-1.0-17.0"}}, {"uniqueid": "w14401973:a58128337", "current_trial": 39, "dateTime": 1691487981493, "trialdata": {"revealed_states": [], "clicked_states": [], "num_clicks_accrued": [0, 0, 0, 0, 0, 0, 0, 0, 0, 0, 0, 0, 0], "stateRewards": ["", -1, -1, 4, -16, -75, 81, -51, -7, -84, 73, -30, -2, 1, -3, -16, -77, 33, 14, 1, 45, 87, -66, 2, 2, -5, -7, -19, -17, 79, -3, 8, 49, 47], "withholdReward": false, "trial_id": "mdp_trial_19", "block": "test", "trialIndex": 24, "score": 71, "costs": 0, "simulationMode": [null, null, null, null, null], "rewards": [2, 2, -5, -7, 79], "path": ["0", "0", "23", "24", "25", "26", "29"], "rt": [1395, 573, 242, 63, 52], "actions": ["left", "left", "left", "up", "left"], "actionTimes": [3039, 4123, 4875, 5461, 6036], "queries": {"click": {"state": {"target": [], "time": []}, "edge": {"target": [], "time": []}}, "mouseover": {"state": {"target": ["0"], "time": [1712]}, "edge": {"target": [], "time": []}}, "mouseout": {"state": {"target": [], "time": []}, "edge": {"target": [], "time": []}}}, "displayed_time": "15.65", "trialTime": 18551, "trial_type": "mouselab-mdp", "trial_index": 39, "time_elapsed": 1577575, "internal_node_id": "0.0-4.0-1.0-18.0"}}, {"uniqueid": "w14401973:a58128337", "current_trial": 40, "dateTime": 1691488001188, "trialdata": {"revealed_states": [], "clicked_states": [], "num_clicks_accrued": [0, 0, 0, 0, 0, 0, 0, 0, 0, 0, 0, 0, 0], "stateRewards": ["", 1, 4, 5, 8, -55, -11, 8, 16, -37, 77, -22, -2, 3, -8, -10, 45, 87, -67, 4, 17, -33, -22, -1, -3, 7, 6, -39, -85, 75, -1, 7, -48, 45], "withholdReward": false, "trial_id": "mdp_trial_20", "block": "test", "trialIndex": 25, "score": 103, "costs": 0, "simulationMode": [null, null, null, null, null], "rewards": [1, 4, 5, 16, 77], "path": ["0", "0", "1", "2", "3", "8", "10"], "rt": [1884, 401, 403, 549, 435], "actions": ["up", "up", "up", "left", "down"], "actionTimes": [3048, 3960, 4873, 5936, 6891], "queries": {"click": {"state": {"target": [], "time": []}, "edge": {"target": [], "time": []}}, "mouseover": {"state": {"target": ["0"], "time": [1198]}, "edge": {"target": [], "time": []}}, "mouseout": {"state": {"target": ["0", "0", "0"], "time": [1019, 10824, 10849]}, "edge": {"target": [], "time": []}}}, "displayed_time": "15.17", "trialTime": 19394, "trial_type": "mouselab-mdp", "trial_index": 40, "time_elapsed": 1597270, "internal_node_id": "0.0-4.0-1.0-19.0"}}, {"uniqueid": "w14401973:a58128337", "current_trial": 41, "dateTime": 1691488019919, "trialdata": {"revealed_states": [], "clicked_states": [], "num_clicks_accrued": [0, 0, 0, 0, 0, 0, 0, 0, 0, 0, 0, 0, 0], "stateRewards": ["", -1, 2, 5, -6, 13, -64, -47, 8, -79, -80, -33, 1, 2, -2, -16, 56, -71, -10, 3, 29, 44, 85, -1, 4, 5, 4, -36, -56, 19, 8, 52, -13, -2], "withholdReward": false, "trial_id": "mdp_trial_21", "block": "test", "trialIndex": 26, "score": 13, "costs": 0, "simulationMode": [null, null, null, null, null], "rewards": [-1, 2, 5, -6, 13], "path": ["0", "0", "1", "2", "3", "4", "5"], "rt": [2305, 403, 74, 541, 1932], "actions": ["up", "up", "up", "right", "up"], "actionTimes": [3354, 4272, 4859, 5909, 8363], "queries": {"click": {"state": {"target": [], "time": []}, "edge": {"target": [], "time": []}}, "mouseover": {"state": {"target": ["0"], "time": [1114]}, "edge": {"target": [], "time": []}}, "mouseout": {"state": {"target": ["0", "0", "0"], "time": [933, 9981, 10059]}, "edge": {"target": [], "time": []}}}, "displayed_time": "15.05", "trialTime": 18422, "trial_type": "mouselab-mdp", "trial_index": 41, "time_elapsed": 1616001, "internal_node_id": "0.0-4.0-1.0-20.0"}}, {"uniqueid": "w14401973:a58128337", "current_trial": 42, "dateTime": 1691488038594, "trialdata": {"revealed_states": [], "clicked_states": [], "num_clicks_accrued": [0, 0, 0, 0, 0, 0, 0, 0, 0, 0, 0, 0, 0], "stateRewards": ["", 2, -2, 7, -11, -76, -65, -23, 16, -58, 30, 81, 1, 2, 7, 14, 9, 55, -2, 6, 11, -15, 31, -1, -1, -3, 2, 15, 2, 46, 15, 18, 45, -34], "withholdReward": false, "trial_id": "mdp_trial_22", "block": "test", "trialIndex": 27, "score": -1, "costs": 0, "simulationMode": [null, null, null, null, null], "rewards": [-1, -1, -3, 2, 2], "path": ["0", "0", "23", "24", "25", "26", "28"], "rt": [2643, 55, 345, 19, 143], "actions": ["left", "left", "left", "up", "right"], "actionTimes": [3974, 4551, 5407, 5947, 6604], "queries": {"click": {"state": {"target": [], "time": []}, "edge": {"target": [], "time": []}}, "mouseover": {"state": {"target": ["0"], "time": [1377]}, "edge": {"target": [], "time": []}}, "mouseout": {"state": {"target": ["0"], "time": [681]}, "edge": {"target": [], "time": []}}}, "displayed_time": "15.34", "trialTime": 18308, "trial_type": "mouselab-mdp", "trial_index": 42, "time_elapsed": 1634675, "internal_node_id": "0.0-4.0-1.0-21.0"}}, {"uniqueid": "w14401973:a58128337", "current_trial": 43, "dateTime": 1691488058881, "trialdata": {"revealed_states": [], "clicked_states": [], "num_clicks_accrued": [0, 0, 0, 0, 0, 0, 0, 0, 0, 0, 0, 0, 0], "stateRewards": ["", -2, 2, 2, -6, 9, 37, 50, -13, -7, -18, -75, -2, -4, 4, 7, 23, -57, -66, -7, -81, -48, -76, 1, 1, -8, 1, 51, -2, 70, 14, 59, 71, -37], "withholdReward": false, "trial_id": "mdp_trial_23", "block": "test", "trialIndex": 28, "score": -57, "costs": 0, "simulationMode": [null, null, null, null, null], "rewards": [-2, -4, 4, -7, -48], "path": ["0", "0", "12", "13", "14", "19", "21"], "rt": [1764, 324, 61, 580, 819], "actions": ["right", "right", "right", "down", "down"], "actionTimes": [2875, 3720, 4291, 5391, 6730], "queries": {"click": {"state": {"target": [], "time": []}, "edge": {"target": [], "time": []}}, "mouseover": {"state": {"target": [], "time": []}, "edge": {"target": [], "time": []}}, "mouseout": {"state": {"target": ["0", "0", "23", "23"], "time": [631, 1151, 17472, 18020]}, "edge": {"target": [], "time": []}}}, "displayed_time": "15.12", "trialTime": 19973, "trial_type": "mouselab-mdp", "trial_index": 43, "time_elapsed": 1654962, "internal_node_id": "0.0-4.0-1.0-22.0"}}, {"uniqueid": "w14401973:a58128337", "current_trial": 44, "dateTime": 1691488077259, "trialdata": {"revealed_states": [], "clicked_states": [], "num_clicks_accrued": [0, 0, 0, 0, 0, 0, 0, 0, 0, 0, 0, 0, 0], "stateRewards": ["", -1, 3, 1, -11, -22, -36, 19, -5, -70, -52, 50, -2, -4, 4, -2, -41, -83, 29, -2, 22, 10, -6, -2, 3, -2, 14, 54, 44, 77, -9, -65, -37, -40], "withholdReward": false, "trial_id": "mdp_trial_24", "block": "test", "trialIndex": 29, "score": 6, "costs": 0, "simulationMode": [null, null, null, null, null], "rewards": [-2, -4, 4, -2, 10], "path": ["0", "0", "12", "13", "14", "19", "21"], "rt": [1546, 357, 344, 252, 517], "actions": ["right", "right", "right", "down", "down"], "actionTimes": [2803, 4183, 5036, 5811, 6843], "queries": {"click": {"state": {"target": [], "time": []}, "edge": {"target": [], "time": []}}, "mouseover": {"state": {"target": [], "time": []}, "edge": {"target": [], "time": []}}, "mouseout": {"state": {"target": ["0"], "time": [1300]}, "edge": {"target": [], "time": []}}}, "displayed_time": "15.78", "trialTime": 18076, "trial_type": "mouselab-mdp", "trial_index": 44, "time_elapsed": 1673340, "internal_node_id": "0.0-4.0-1.0-23.0"}}, {"uniqueid": "w14401973:a58128337", "current_trial": 45, "dateTime": 1691488095307, "trialdata": {"revealed_states": [], "clicked_states": [], "num_clicks_accrued": [0, 0, 0, 0, 0, 0, 0, 0, 0, 0, 0, 0, 0], "stateRewards": ["", -2, 1, -7, 9, 8, 25, 61, -7, -17, 69, -81, 1, 4, -4, -11, 16, 67, 44, 3, 6, -45, -54, -2, 3, 6, -11, -15, 32, -47, 3, -39, -6, -88], "withholdReward": false, "trial_id": "mdp_trial_25", "block": "test", "trialIndex": 30, "score": 4, "costs": 0, "simulationMode": [null, null, null, null, null], "rewards": [-2, 3, 6, 3, -6], "path": ["0", "0", "23", "24", "25", "30", "32"], "rt": [1297, 78, 375, 323, 702], "actions": ["left", "left", "left", "down", "down"], "actionTimes": [2103, 2695, 3592, 4422, 5634], "queries": {"click": {"state": {"target": [], "time": []}, "edge": {"target": [], "time": []}}, "mouseover": {"state": {"target": [], "time": []}, "edge": {"target": [], "time": []}}, "mouseout": {"state": {"target": ["0"], "time": [814]}, "edge": {"target": [], "time": []}}}, "displayed_time": "14.81", "trialTime": 17739, "trial_type": "mouselab-mdp", "trial_index": 45, "time_elapsed": 1691388, "internal_node_id": "0.0-4.0-1.0-24.0"}}, {"uniqueid": "w14401973:a58128337", "current_trial": 46, "dateTime": 1691488115944, "trialdata": {"revealed_states": [], "clicked_states": [], "num_clicks_accrued": [0, 0, 0, 0, 0, 0, 0, 0, 0, 0, 0, 0, 0], "stateRewards": ["", 1, 1, 4, 11, 83, -66, 18, -16, -23, 5, 25, 1, -3, 1, -12, 18, 24, -86, -11, -64, 36, 40, 2, 1, -6, 13, 55, 29, 72, -2, 81, -72, -41], "withholdReward": false, "trial_id": "mdp_trial_26", "block": "test", "trialIndex": 31, "score": 65, "costs": 0, "simulationMode": [null, null, null, null, null], "rewards": [2, 1, -6, 13, 55], "path": ["0", "0", "23", "24", "25", "26", "27"], "rt": [878, 95, 990, 22, 4], "actions": ["left", "left", "left", "up", "up"], "actionTimes": [2296, 2889, 4387, 4908, 5423], "queries": {"click": {"state": {"target": [], "time": []}, "edge": {"target": [], "time": []}}, "mouseover": {"state": {"target": [], "time": []}, "edge": {"target": [], "time": []}}, "mouseout": {"state": {"target": ["0"], "time": [1456]}, "edge": {"target": [], "time": []}}}, "displayed_time": "15.42", "trialTime": 20315, "trial_type": "mouselab-mdp", "trial_index": 46, "time_elapsed": 1712025, "internal_node_id": "0.0-4.0-1.0-25.0"}}, {"uniqueid": "w14401973:a58128337", "current_trial": 47, "dateTime": 1691488136939, "trialdata": {"revealed_states": [], "clicked_states": [], "num_clicks_accrued": [0, 0, 0, 0, 0, 0, 0, 0, 0, 0, 0, 0, 0], "stateRewards": ["", 1, -2, -8, -3, 31, -84, -55, -14, 15, -58, 17, -2, -3, 7, 7, -12, 48, 67, 4, -44, -68, 46, 2, 3, -5, -7, 76, 27, 5, 11, 57, 52, 59], "withholdReward": false, "trial_id": "mdp_trial_27", "block": "test", "trialIndex": 32, "score": -2, "costs": 0, "simulationMode": [null, null, null, null, null], "rewards": [2, 3, -5, -7, 5], "path": ["0", "0", "23", "24", "25", "26", "29"], "rt": [1388, 386, 311, 110, 622], "actions": ["left", "left", "left", "up", "left"], "actionTimes": [2628, 3523, 4348, 4980, 6125], "queries": {"click": {"state": {"target": [], "time": []}, "edge": {"target": [], "time": []}}, "mouseover": {"state": {"target": [], "time": []}, "edge": {"target": [], "time": []}}, "mouseout": {"state": {"target": ["0", "0"], "time": [656, 1247]}, "edge": {"target": [], "time": []}}}, "displayed_time": "15.25", "trialTime": 20679, "trial_type": "mouselab-mdp", "trial_index": 47, "time_elapsed": 1733021, "internal_node_id": "0.0-4.0-1.0-26.0"}}, {"uniqueid": "w14401973:a58128337", "current_trial": 48, "dateTime": 1691488160358, "trialdata": {"revealed_states": [], "clicked_states": [], "num_clicks_accrued": [0, 0, 0, 0, 0, 0, 0, 0, 0, 0, 0, 0, 0], "stateRewards": ["", -1, -1, 7, -15, -43, -21, -84, -9, -45, -66, 2, 1, -2, 2, 8, -27, 44, -52, -5, -84, 11, 53, 1, 4, -4, 16, 83, -82, -15, -16, 68, -43, 81], "withholdReward": false, "trial_id": "mdp_trial_28", "block": "test", "trialIndex": 33, "score": -49, "costs": 0, "simulationMode": [null, null, null, null, null], "rewards": [-1, -1, 7, -9, -45], "path": ["0", "0", "1", "2", "3", "8", "9"], "rt": [1265, 37, 871, 48, 49], "actions": ["up", "up", "up", "left", "up"], "actionTimes": [2931, 3485, 4887, 5446, 6031], "queries": {"click": {"state": {"target": [], "time": []}, "edge": {"target": [], "time": []}}, "mouseover": {"state": {"target": [], "time": []}, "edge": {"target": [], "time": []}}, "mouseout": {"state": {"target": ["0", "0", "1"], "time": [945, 1673, 11760]}, "edge": {"target": [], "time": []}}}, "displayed_time": "15.67", "trialTime": 23101, "trial_type": "mouselab-mdp", "trial_index": 48, "time_elapsed": 1756439, "internal_node_id": "0.0-4.0-1.0-27.0"}}, {"uniqueid": "w14401973:a58128337", "current_trial": 49, "dateTime": 1691488181072, "trialdata": {"revealed_states": [], "clicked_states": [], "num_clicks_accrued": [0, 0, 0, 0, 0, 0, 0, 0, 0, 0, 0, 0, 0], "stateRewards": ["", -2, -3, 1, -14, 48, -49, 67, -1, -35, -48, 3, -2, 1, -4, -5, 86, -84, 39, 1, 48, 41, -42, -1, -4, 2, -7, 18, -86, 17, 7, -9, 57, -69], "withholdReward": false, "trial_id": "mdp_trial_29", "block": "test", "trialIndex": 34, "score": -53, "costs": 0, "simulationMode": [null, null, null, null, null], "rewards": [-2, -3, 1, -1, -48], "path": ["0", "0", "1", "2", "3", "8", "10"], "rt": [1065, 250, 545, 273, 142], "actions": ["up", "up", "up", "left", "down"], "actionTimes": [2388, 3152, 4215, 5008, 5661], "queries": {"click": {"state": {"target": [], "time": []}, "edge": {"target": [], "time": []}}, "mouseover": {"state": {"target": [], "time": []}, "edge": {"target": [], "time": []}}, "mouseout": {"state": {"target": ["0", "1", "0", "0"], "time": [1338, 12064, 12080, 19445]}, "edge": {"target": [], "time": []}}}, "displayed_time": "15.33", "trialTime": 20397, "trial_type": "mouselab-mdp", "trial_index": 49, "time_elapsed": 1777154, "internal_node_id": "0.0-4.0-1.0-28.0"}}, {"uniqueid": "w14401973:a58128337", "current_trial": 50, "dateTime": 1691488200530, "trialdata": {"revealed_states": [], "clicked_states": [], "num_clicks_accrued": [0, 0, 0, 0, 0, 0, 0, 0, 0, 0, 0, 0, 0], "stateRewards": ["", -2, -4, -8, 8, 63, -50, -19, -7, -17, -31, 31, 1, 3, -5, 12, -35, -63, -29, -4, -17, -75, -79, -2, -3, -2, 8, -3, -85, 10, -2, -82, -82, 56], "withholdReward": false, "trial_id": "mdp_trial_30", "block": "test", "trialIndex": 35, "score": -25, "costs": 0, "simulationMode": [null, null, null, null, null], "rewards": [-2, -4, -8, 8, -19], "path": ["0", "0", "1", "2", "3", "4", "7"], "rt": [1063, 52, 1074, 444, 107], "actions": ["up", "up", "up", "right", "down"], "actionTimes": [2205, 2775, 4379, 5337, 5962], "queries": {"click": {"state": {"target": [], "time": []}, "edge": {"target": [], "time": []}}, "mouseover": {"state": {"target": ["0"], "time": [1154]}, "edge": {"target": [], "time": []}}, "mouseout": {"state": {"target": ["0", "1"], "time": [12949, 12983]}, "edge": {"target": [], "time": []}}}, "displayed_time": "15.15", "trialTime": 19134, "trial_type": "mouselab-mdp", "trial_index": 50, "time_elapsed": 1796612, "internal_node_id": "0.0-4.0-1.0-29.0"}}, {"uniqueid": "w14401973:a58128337", "current_trial": 51, "dateTime": 1691488222484, "trialdata": {"revealed_states": [], "clicked_states": [], "num_clicks_accrued": [0, 0, 0, 0, 0, 0, 0, 0, 0, 0, 0, 0, 0], "stateRewards": ["", 1, 1, -3, 2, 22, -25, -11, -5, 50, 49, 3, 1, -1, 8, 14, -85, -30, 57, -6, -39, -16, 59, -2, -1, 5, 5, 59, -16, 8, 4, 67, 56, -9], "withholdReward": false, "trial_id": "mdp_trial_31", "block": "test", "trialIndex": 36, "score": 44, "costs": 0, "simulationMode": [null, null, null, null, null], "rewards": [1, 1, -3, -5, 50], "path": ["0", "0", "1", "2", "3", "8", "9"], "rt": [1660, 186, 321, 44, 125], "actions": ["up", "up", "up", "left", "up"], "actionTimes": [2974, 3673, 4523, 5080, 5744], "queries": {"click": {"state": {"target": [], "time": []}, "edge": {"target": [], "time": []}}, "mouseover": {"state": {"target": ["0"], "time": [1326]}, "edge": {"target": [], "time": []}}, "mouseout": {"state": {"target": ["0", "0", "1", "0"], "time": [750, 12588, 12616, 12666]}, "edge": {"target": [], "time": []}}}, "displayed_time": "15.32", "trialTime": 21623, "trial_type": "mouselab-mdp", "trial_index": 51, "time_elapsed": 1818565, "internal_node_id": "0.0-4.0-1.0-30.0"}}, {"uniqueid": "w14401973:a58128337", "current_trial": 52, "dateTime": 1691488240424, "trialdata": {"revealed_states": [], "clicked_states": [], "num_clicks_accrued": [0, 0, 0, 0, 0, 0, 0, 0, 0, 0, 0, 0, 0], "stateRewards": ["", 2, -1, 8, -2, -16, 69, -39, -7, -13, -27, -86, 2, -2, 2, 13, -34, -16, -20, -5, 19, 81, 32, -2, -1, 2, -14, 20, 80, 58, 4, 70, 12, 73], "withholdReward": false, "trial_id": "mdp_trial_32", "block": "test", "trialIndex": 37, "score": -11, "costs": 0, "simulationMode": [null, null, null, null, null], "rewards": [2, -1, 8, -7, -13], "path": ["0", "0", "1", "2", "3", "8", "9"], "rt": [1711, 275, 102, 672, 103], "actions": ["up", "up", "up", "left", "up"], "actionTimes": [3003, 3786, 4398, 5585, 6198], "queries": {"click": {"state": {"target": [], "time": []}, "edge": {"target": [], "time": []}}, "mouseover": {"state": {"target": ["0"], "time": [1307]}, "edge": {"target": [], "time": []}}, "mouseout": {"state": {"target": ["0", "0", "0"], "time": [15087, 15106, 16488]}, "edge": {"target": [], "time": []}}}, "displayed_time": "15.30", "trialTime": 17614, "trial_type": "mouselab-mdp", "trial_index": 52, "time_elapsed": 1836506, "internal_node_id": "0.0-4.0-1.0-31.0"}}, {"uniqueid": "w14401973:a58128337", "current_trial": 53, "dateTime": 1691488265379, "trialdata": {"revealed_states": [], "clicked_states": [], "num_clicks_accrued": [0, 0, 0, 0, 0, 0, 0, 0, 0, 0, 0, 0, 0], "stateRewards": ["", -2, -3, -5, 8, 27, 11, 43, -6, -24, -87, 69, -2, 1, 1, 9, 19, 48, -37, 9, -14, 45, 62, 1, 2, 1, 16, -81, -41, 22, 4, -6, -63, 47], "withholdReward": false, "trial_id": "mdp_trial_33", "block": "test", "trialIndex": 38, "score": -55, "costs": 0, "simulationMode": [null, null, null, null, null], "rewards": [1, 2, 1, 4, -63], "path": ["0", "0", "23", "24", "25", "30", "32"], "rt": [850, 422, 521, 341, 439], "actions": ["left", "left", "left", "down", "down"], "actionTimes": [2792, 3732, 4763, 5616, 6565], "queries": {"click": {"state": {"target": [], "time": []}, "edge": {"target": [], "time": []}}, "mouseover": {"state": {"target": [], "time": []}, "edge": {"target": [], "time": []}}, "mouseout": {"state": {"target": ["0", "0", "0"], "time": [1036, 1222, 1980]}, "edge": {"target": [], "time": []}}}, "displayed_time": "15.95", "trialTime": 24639, "trial_type": "mouselab-mdp", "trial_index": 53, "time_elapsed": 1861460, "internal_node_id": "0.0-4.0-1.0-32.0"}}, {"uniqueid": "w14401973:a58128337", "current_trial": 54, "dateTime": 1691488309622, "trialdata": {"revealed_states": [], "clicked_states": ["12", "13", "14", "19", "20", "15", "16", "18", "23", "24", "25", "30", "33"], "num_clicks_accrued": [0, 0, 0, 0, 0, 0, 0, 0, 0, 0, 0, 0, 0], "stateRewards": ["", -2, -3, 7, -13, 60, 9, 37, -6, 37, 20, 1, 2, -2, -8, 6, -80, -31, -10, -7, 70, -65, -44, -1, 1, 7, 6, -11, 73, -85, 16, -21, 47, 34], "withholdReward": false, "trial_id": "mdp_trial_34", "block": "test", "trialIndex": 39, "score": 41.65, "costs": -15.35, "simulationMode": [null, null, null, null, null], "rewards": [-1, 1, 7, 16, 34], "path": ["0", "0", "23", "24", "25", "30", "33"], "rt": [32320, 607, 330, 181, 321], "actions": ["left", "left", "left", "down", "left"], "actionTimes": [34211, 35339, 36179, 36879, 37717], "queries": {"click": {"state": {"target": ["12", "13", "14", "19", "20", "15", "16", "18", "23", "24", "25", "30", "33"], "time": [3522, 4778, 6871, 8438, 10838, 13602, 15022, 17934, 23095, 24319, 25613, 27022, 29479]}, "edge": {"target": [], "time": []}}, "mouseover": {"state": {"target": ["0", "12", "13", "14", "19", "14", "20", "19", "19", "14", "15", "16", "18", "15", "17", "1", "23", "24", "25", "30", "33", "30", "32", "31"], "time": [2600, 3067, 4232, 5948, 8013, 9929, 10379, 12276, 12693, 12892, 13109, 14591, 16643, 18672, 18988, 22255, 22671, 23836, 25185, 26533, 29066, 30848, 30998, 33197]}, "edge": {"target": [], "time": []}}, "mouseout": {"state": {"target": ["0", "0", "12", "13", "14", "19", "14", "14", "20", "20", "19", "19", "14", "15", "16", "18", "15", "17", "1", "23", "24", "25", "30", "25", "25", "30", "33", "33", "30", "32", "31", "0", "0"], "time": [1957, 2884, 4082, 5764, 7812, 8619, 9645, 9995, 11776, 12160, 12343, 12792, 12909, 14474, 16357, 18639, 18855, 22221, 22304, 23770, 25018, 26401, 27198, 27783, 28384, 28917, 29656, 30464, 30881, 33182, 33232, 43012, 43375]}, "edge": {"target": [], "time": []}}}, "displayed_time": "38.23", "trialTime": 43905, "trial_type": "mouselab-mdp", "trial_index": 54, "time_elapsed": 1905704, "internal_node_id": "0.0-4.0-1.0-33.0"}}, {"uniqueid": "w14401973:a58128337", "current_trial": 55, "dateTime": 1691488338234, "trialdata": {"revealed_states": [], "clicked_states": ["1", "2", "3", "8", "9", "4", "5"], "num_clicks_accrued": [0, 0, 0, 0, 0, 0, 0, 0, 0, 0, 0, 0, 0], "stateRewards": ["", 2, 3, 8, 11, 25, -80, 6, -4, -56, 84, -23, -2, -4, -3, 4, -51, -9, -61, -15, -64, 67, -35, 1, -1, -7, -6, 83, 59, -15, 12, -79, 56, 41], "withholdReward": false, "trial_id": "mdp_trial_35", "block": "test", "trialIndex": 40, "score": 40.55, "costs": -8.45, "simulationMode": [null, null, null, null, null], "rewards": [2, 3, 8, 11, 25], "path": ["0", "0", "1", "2", "3", "4", "5"], "rt": [18407, 202, 389, 186, 198], "actions": ["up", "up", "up", "right", "up"], "actionTimes": [20103, 20818, 21721, 22419, 23130], "queries": {"click": {"state": {"target": ["1", "2", "3", "8", "9", "4", "5"], "time": [3636, 4862, 6305, 7757, 9877, 13312, 15362]}, "edge": {"target": [], "time": []}}, "mouseover": {"state": {"target": ["0", "1", "2", "3", "8", "9", "4", "5"], "time": [2790, 3206, 4238, 5787, 7319, 9519, 11134, 14666]}, "edge": {"target": [], "time": []}}, "mouseout": {"state": {"target": ["23", "0", "0", "1", "2", "3", "8", "9", "4", "5", "5"], "time": [791, 1774, 2873, 4172, 5720, 7186, 9336, 10652, 14617, 19415, 27845]}, "edge": {"target": [], "time": []}}}, "displayed_time": "23.65", "trialTime": 28282, "trial_type": "mouselab-mdp", "trial_index": 55, "time_elapsed": 1934315, "internal_node_id": "0.0-4.0-1.0-34.0"}}, {"uniqueid": "w14401973:a58128337", "current_trial": 56, "dateTime": 1691488374702, "trialdata": {"revealed_states": [], "clicked_states": ["12", "13", "14", "15", "19", "23", "24", "25", "26", "29", "27"], "num_clicks_accrued": [0, 0, 0, 0, 0, 0, 0, 0, 0, 0, 0, 0, 0], "stateRewards": ["", 1, 2, -8, 9, 18, -83, -11, 6, -64, -48, 17, -2, -2, -5, -3, -24, -3, -86, -2, 48, -41, -22, -2, 4, 7, 8, 81, 13, -48, 10, 61, 19, 57], "withholdReward": false, "trial_id": "mdp_trial_36", "block": "test", "trialIndex": 41, "score": 86.95, "costs": -11.049999999999999, "simulationMode": [null, null, null, null, null], "rewards": [-2, 4, 7, 8, 81], "path": ["0", "0", "23", "24", "25", "26", "27"], "rt": [26302, 178, 491, 210, 110], "actions": ["left", "left", "left", "up", "up"], "actionTimes": [28261, 28960, 29973, 30693, 31325], "queries": {"click": {"state": {"target": ["12", "13", "14", "15", "19", "23", "24", "25", "26", "29", "27"], "time": [4049, 5358, 7071, 9013, 11315, 13340, 15127, 16435, 17961, 19508, 23760]}, "edge": {"target": [], "time": []}}, "mouseover": {"state": {"target": ["0", "12", "13", "14", "15", "18", "14", "19", "12", "23", "24", "25", "26", "29", "27"], "time": [1968, 3276, 4825, 6442, 8307, 9839, 10356, 10723, 12422, 12822, 14671, 15920, 17520, 19104, 23250]}, "edge": {"target": [], "time": []}}, "mouseout": {"state": {"target": ["1", "0", "0", "12", "13", "14", "14", "15", "18", "14", "19", "19", "12", "23", "23", "24", "25", "26", "29", "29", "27"], "time": [827, 1410, 3126, 4641, 6324, 7790, 8274, 9721, 10256, 10623, 12104, 12237, 12455, 13515, 14281, 15785, 17487, 18951, 19684, 22968, 27533]}, "edge": {"target": [], "time": []}}}, "displayed_time": "31.85", "trialTime": 36168, "trial_type": "mouselab-mdp", "trial_index": 56, "time_elapsed": 1970783, "internal_node_id": "0.0-4.0-1.0-35.0"}}, {"uniqueid": "w14401973:a58128337", "current_trial": 57, "dateTime": 1691488401765, "trialdata": {"revealed_states": [], "clicked_states": ["1", "2", "3", "8", "9", "11"], "num_clicks_accrued": [0, 0, 0, 0, 0, 0, 0, 0, 0, 0, 0, 0, 0], "stateRewards": ["", -1, 1, -6, -1, 80, 23, 2, -11, 73, -81, 59, 1, 3, 5, -1, -26, 28, -3, 16, -59, -13, -50, -2, -2, 2, 15, -50, 86, 17, -4, 37, 35, 44], "withholdReward": false, "trial_id": "mdp_trial_37", "block": "test", "trialIndex": 42, "score": 49.1, "costs": -6.9, "simulationMode": [null, null, null, null, null, null], "rewards": [-1, 1, -6, -11, 73], "path": ["0", "0", "1", "2", "3", "8", "9"], "rt": [12573, 1988, 105, 184, 120, 102], "actions": ["up", "up", "up", "up", "left", "up"], "actionTimes": [15283, 17273, 17902, 18595, 19232, 19847], "queries": {"click": {"state": {"target": ["1", "2", "3", "8", "9", "11"], "time": [4020, 5105, 6256, 7518, 8922, 12533]}, "edge": {"target": [], "time": []}}, "mouseover": {"state": {"target": ["0", "1", "2", "3", "8", "9", "11", "8"], "time": [3266, 3334, 4649, 5781, 7064, 8514, 10280, 13327]}, "edge": {"target": [], "time": []}}, "mouseout": {"state": {"target": ["10", "1", "0", "0", "1", "2", "3", "8", "9", "11", "8"], "time": [1201, 1367, 2718, 3284, 4503, 5598, 6915, 8380, 9647, 13261, 13477]}, "edge": {"target": [], "time": []}}}, "displayed_time": "20.36", "trialTime": 26756, "trial_type": "mouselab-mdp", "trial_index": 57, "time_elapsed": 1997846, "internal_node_id": "0.0-4.0-1.0-36.0"}}, {"uniqueid": "w14401973:a58128337", "current_trial": 58, "dateTime": 1691488437697, "trialdata": {"revealed_states": [], "clicked_states": ["12", "13", "14", "15", "16", "18", "17"], "num_clicks_accrued": [0, 0, 0, 0, 0, 0, 0, 0, 0, 0, 0, 0, 0], "stateRewards": ["", -2, -3, 4, 1, 33, -53, 15, 9, -12, 61, -6, -2, 4, 6, -11, 47, -43, -7, -11, 46, 23, -28, -1, -1, 3, -10, 11, 76, -76, 10, 18, -38, 87], "withholdReward": false, "trial_id": "mdp_trial_38", "block": "test", "trialIndex": 43, "score": 34.95, "costs": -9.05, "simulationMode": [null, null, null, null, null], "rewards": [-2, 4, 6, -11, 47], "path": ["0", "0", "12", "13", "14", "15", "16"], "rt": [20915, 309, 370, 258, 37], "actions": ["right", "right", "right", "up", "up"], "actionTimes": [24581, 25408, 26286, 27057, 27602], "queries": {"click": {"state": {"target": ["12", "13", "14", "15", "16", "18", "17"], "time": [5302, 6306, 8113, 9887, 11516, 15639, 19058]}, "edge": {"target": [], "time": []}}, "mouseover": {"state": {"target": ["0", "12", "13", "14", "14", "15", "16", "18", "17"], "time": [4458, 4774, 5839, 6955, 7843, 8921, 11136, 14135, 16334]}, "edge": {"target": [], "time": []}}, "mouseout": {"state": {"target": ["2", "1", "0", "12", "13", "14", "14", "15", "16", "18", "17"], "time": [2742, 2890, 4723, 5480, 6482, 7221, 8788, 10971, 13685, 16134, 19240]}, "edge": {"target": [], "time": []}}}, "displayed_time": "28.11", "trialTime": 35608, "trial_type": "mouselab-mdp", "trial_index": 58, "time_elapsed": 2033778, "internal_node_id": "0.0-4.0-1.0-37.0"}}, {"uniqueid": "w14401973:a58128337", "current_trial": 59, "dateTime": 1691488471692, "trialdata": {"revealed_states": [], "clicked_states": ["1", "2", "3", "4", "5", "23", "24", "25", "30", "33"], "num_clicks_accrued": [0, 0, 0, 0, 0, 0, 0, 0, 0, 0, 0, 0, 0], "stateRewards": ["", -1, -4, -1, -5, -28, -23, -15, -15, -38, 59, -87, 2, 2, -5, 9, -55, -39, -71, -6, 85, -85, -11, -1, -2, 5, -10, 1, 25, 41, -4, 69, -35, 86], "withholdReward": false, "trial_id": "mdp_trial_39", "block": "test", "trialIndex": 44, "score": 74.5, "costs": -9.5, "simulationMode": [null, null, null, null, null], "rewards": [-1, -2, 5, -4, 86], "path": ["0", "0", "23", "24", "25", "30", "33"], "rt": [22633, 368, 6, 227, 346], "actions": ["left", "left", "left", "down", "left"], "actionTimes": [24183, 25049, 25557, 26296, 27151], "queries": {"click": {"state": {"target": ["1", "2", "3", "4", "5", "23", "24", "25", "30", "33"], "time": [2980, 4182, 5560, 7357, 9106, 13865, 15235, 16659, 18146, 19714]}, "edge": {"target": [], "time": []}}, "mouseover": {"state": {"target": ["0", "1", "2", "3", "8", "4", "5", "4", "1", "23", "24", "25", "30", "33", "32", "31"], "time": [2117, 2234, 3700, 4982, 6514, 6949, 8680, 12896, 13129, 13479, 14760, 16151, 17763, 19354, 21346, 23406]}, "edge": {"target": [], "time": []}}, "mouseout": {"state": {"target": ["17", "15", "18", "0", "0", "1", "2", "3", "8", "4", "5", "4", "1", "23", "24", "25", "30", "33", "32", "31", "1"], "time": [400, 634, 667, 1611, 2151, 3482, 4898, 6280, 6764, 8346, 9779, 12929, 13229, 14643, 16068, 17661, 19220, 20693, 23236, 31635, 31751]}, "edge": {"target": [], "time": []}}}, "displayed_time": "27.66", "trialTime": 33645, "trial_type": "mouselab-mdp", "trial_index": 59, "time_elapsed": 2067773, "internal_node_id": "0.0-4.0-1.0-38.0"}}, {"uniqueid": "w14401973:a58128337", "current_trial": 60, "dateTime": 1691488507511, "trialdata": {"revealed_states": [], "clicked_states": ["23", "24", "25", "30", "33", "32", "26", "29"], "num_clicks_accrued": [0, 0, 0, 0, 0, 0, 0, 0, 0, 0, 0, 0, 0], "stateRewards": ["", 1, 2, -6, -13, -51, 22, -4, -12, -44, -12, 6, -2, -2, -2, -14, -46, -4, -77, -2, 36, -79, 41, 2, -4, 2, -6, -55, 59, 70, -5, 39, -19, 24], "withholdReward": false, "trial_id": "mdp_trial_40", "block": "test", "trialIndex": 45, "score": 53.4, "costs": -10.600000000000001, "simulationMode": [null, null, null, null, null], "rewards": [2, -4, 2, -6, 70], "path": ["0", "0", "23", "24", "25", "26", "29"], "rt": [23802, 298, 320, 1241, 106], "actions": ["left", "left", "left", "up", "left"], "actionTimes": [25566, 26360, 27182, 28919, 29521], "queries": {"click": {"state": {"target": ["23", "24", "25", "30", "33", "32", "26", "29"], "time": [4659, 5742, 6806, 8042, 9347, 13561, 17802, 20516]}, "edge": {"target": [], "time": []}}, "mouseover": {"state": {"target": ["0", "0", "23", "24", "25", "30", "33", "30", "32", "26", "29", "27"], "time": [2415, 3834, 4251, 5386, 6404, 7389, 8875, 11929, 13131, 17368, 19755, 21588]}, "edge": {"target": [], "time": []}}, "mouseout": {"state": {"target": ["1", "0", "0", "0", "23", "24", "25", "30", "33", "33", "30", "32", "26", "29"], "time": [1042, 1779, 2515, 4167, 5319, 6321, 7339, 8724, 9523, 11462, 12963, 15934, 19588, 21222]}, "edge": {"target": [], "time": []}}}, "displayed_time": "30.01", "trialTime": 35467, "trial_type": "mouselab-mdp", "trial_index": 60, "time_elapsed": 2103592, "internal_node_id": "0.0-4.0-1.0-39.0"}}, {"uniqueid": "w14401973:a58128337", "current_trial": 61, "dateTime": 1691488554147, "trialdata": {"rt": 46614, "response": {"Q0": "$-2 to $2", "Q1": "$-32 to $32", "Q2": "$-88 to $88", "Q3": "The cost for clicking on nodes varied between nodes.", "Q4": "Very unmotivated"}, "question_order": [0, 1, 2, 3, 4], "trial_id": "final_quiz_control", "trial_type": "survey-multi-choice", "trial_index": 61, "time_elapsed": 2150229, "internal_node_id": "0.0-4.0-2.0"}}, {"uniqueid": "w14401973:a58128337", "current_trial": 62, "dateTime": 1691488731063, "trialdata": {"rt": 176907, "response": {"Q0": "Move to the end node with the highest positive number. ", "Q1": "Yes. from 31 - 40. I started looking at maximizing from nodes 3 to 5.", "Q2": "It was difficult as the webs were all random and the cost of revealing ate into my final score"}, "trial_id": "self_report_control", "trial_type": "survey-text", "trial_index": 62, "time_elapsed": 2327144, "internal_node_id": "0.0-4.0-3.0"}}, {"uniqueid": "w14401973:a58128337", "current_trial": 63, "dateTime": 1691488797971, "trialdata": {"rt": 66902, "response": {"Q0": "Disagree", "Q1": "Strongly disagree", "Q2": "Strongly disagree", "Q3": "Strongly agree", "Q4": "Strongly disagree", "Q5": "Strongly disagree", "Q6": "Strongly disagree"}, "question_order": [0, 1, 2, 3, 4, 5, 6], "trial_id": "self_report_2", "trial_type": "survey-multi-choice", "trial_index": 63, "time_elapsed": 2394053, "internal_node_id": "0.0-4.0-4.0"}}, {"uniqueid": "w14401973:a58128337", "current_trial": 64, "dateTime": 1691488824294, "trialdata": {"rt": 26318, "response": {"gender": "male", "age": "34", "colorblind": "0", "effort": "0"}, "trial_type": "survey-html-form", "trial_index": 64, "time_elapsed": 2420376, "internal_node_id": "0.0-4.0-5.0"}}, {"uniqueid": "w14401973:a58128337", "current_trial": 65, "dateTime": 1691488907582, "trialdata": {"rt": 83282, "response": {"Q0": "Reading the instruction was a bit hard, hard to apply to.", "Q1": "No", "Q2": "None"}, "trial_type": "survey-text", "trial_index": 65, "time_elapsed": 2503664, "internal_node_id": "0.0-4.0-6.0"}}, {"uniqueid": "w14401973:a58128337", "current_trial": 66, "dateTime": 1691488909695, "trialdata": {"rt": 2104, "stimulus": "Press 'Finish HIT' in order to reach the completion code. Once the data has been saved, you will receive the code either in this window or in the original browser window where you started the experiment.\n", "response": 0, "trial_type": "html-button-response", "trial_index": 66, "time_elapsed": 2505777, "internal_node_id": "0.0-5.0"}}, {"uniqueid": "w14401973:a58128337", "current_trial": 67, "dateTime": 1691488910703, "trialdata": {"success": true, "trial_type": "fullscreen", "trial_index": 67, "time_elapsed": 2506785, "internal_node_id": "0.0-6.0"}}], "questiondata": {"params": {"CODE": "C6DMOQA6", "MIN_TIME": 14, "inspectCost": 1, "startTime": "Tue Aug 08 2023 11:19:49 GMT+0200 (South Africa Standard Time)", "bonusRate": 0.002, "variance": "1_2_4_8_44", "branching": "31123"}, "final_score": 244.65}, "eventdata": [{"eventtype": "initialized", "value": null, "timestamp": 1691486387972, "interval": 0}, {"eventtype": "window_resize", "value": [1024, 675], "timestamp": 1691486387972, "interval": 0}, {"eventtype": "window_resize", "value": [1024, 675], "timestamp": 1691486388968, "interval": 996}, {"eventtype": "window_resize", "value": [1366, 768], "timestamp": 1691486409380, "interval": 20412}, {"eventtype": "focus", "value": "off", "timestamp": 1691486994698, "interval": 585318}, {"eventtype": "focus", "value": "on", "timestamp": 1691486994698, "interval": 0}, {"eventtype": "window_resize", "value": [1024, 675], "timestamp": 1691486994916, "interval": 218}, {"eventtype": "window_resize", "value": [1366, 768], "timestamp": 1691486997300, "interval": 2384}, {"eventtype": "focus", "value": "off", "timestamp": 1691487271172, "interval": 273872}, {"eventtype": "focus", "value": "on", "timestamp": 1691487271579, "interval": 407}, {"eventtype": "focus", "value": "off", "timestamp": 1691487452898, "interval": 181319}, {"eventtype": "focus", "value": "on", "timestamp": 1691487452899, "interval": 1}, {"eventtype": "window_resize", "value": [1024, 675], "timestamp": 1691487453116, "interval": 217}, {"eventtype": "window_resize", "value": [1366, 768], "timestamp": 1691487454964, "interval": 1848}, {"eventtype": "window_resize", "value": [1024, 675], "timestamp": 1691488909944, "interval": 1454980}], "useragent": "Mozilla/5.0 (X11; Linux x86_64) AppleWebKit/537.36 (KHTML, like Gecko) Chrome/112.0.0.0 Safari/537.36", "mode": "live", "id": "w14401973:a58128337", "status": "user data saved", "Beginhit": "2023-08-08 09:08:05.398521", "Beginexp": "2023-08-08 09:20:10.429353", "Endhit": "2023-08-08 10:01:55.219675", "psiturkStatus": 3, "browser": "<redacted>", "platform": "linux", "language": "en-GB"}