{"condition": 0, "counterbalance": 0, "assignmentId": "a21805129", "workerId": "w44177737", "hitId": "h23960667", "currenttrial": 61, "bonus": 0, "data": [{"uniqueid": "w44177737:a21805129", "current_trial": 0, "dateTime": 1693579789184, "trialdata": {"success": true, "trial_type": "fullscreen", "trial_index": 0, "time_elapsed": 2789, "internal_node_id": "0.0-0.0"}}, {"uniqueid": "w44177737:a21805129", "current_trial": 1, "dateTime": 1693579809767, "trialdata": {"view_history": [{"page_index": 0, "viewing_time": 20575}], "rt": 20575, "trial_id": "exp_instructions_control", "trial_type": "instructions", "trial_index": 1, "time_elapsed": 23372, "internal_node_id": "0.0-1.0"}}, {"uniqueid": "w44177737:a21805129", "current_trial": 2, "dateTime": 1693580162618, "trialdata": {"view_history": [{"page_index": 0, "viewing_time": 184926}, {"page_index": 1, "viewing_time": 83348}, {"page_index": 2, "viewing_time": 14732}, {"page_index": 3, "viewing_time": 69844}], "rt": 352850, "trial_id": "mouselab_instructions_1_control", "trial_type": "instructions", "trial_index": 2, "time_elapsed": 376223, "internal_node_id": "0.0-2.0-1.0"}}, {"uniqueid": "w44177737:a21805129", "current_trial": 3, "dateTime": 1693580188602, "trialdata": {"revealed_states": [], "clicked_states": ["2", "1", "23", "24", "12", "13"], "num_clicks_accrued": [0, 0, 0, 0, 0, 0, 0, 0, 0, 0, 0, 0, 0], "stateRewards": ["", 10, -10, 10, 10, -10, 10, 10, 10, -10, -10, 10, -10, -10, 10, -10, 10, 10, -10, 10, -10, 10, 10, 10, 10, 10, -10, -10, -10, 10, 10, 10, -10, -10], "withholdReward": false, "trial_id": "practice_1", "block": "test", "trialIndex": 0, "score": 10.5, "costs": -3, "simulationMode": [null, null, null, null, null], "rewards": [10, 10, 10, -10, -10], "path": ["0", "0", "23", "24", "25", "26", "27"], "rt": [16616, 602, 149, 58, 45], "actions": ["left", "left", "left", "up", "up"], "actionTimes": [19034, 20147, 20807, 21382, 21936], "queries": {"click": {"state": {"target": ["2", "1", "23", "24", "12", "13"], "time": [5537, 6849, 9330, 11428, 13397, 15457]}, "edge": {"target": [], "time": []}}, "mouseover": {"state": {"target": ["1", "2", "1", "23", "24", "12", "13"], "time": [3393, 5058, 6453, 7934, 9969, 11981, 14046]}, "edge": {"target": [], "time": []}}, "mouseout": {"state": {"target": ["0", "1", "2", "1", "23", "24", "12", "13"], "time": [3309, 4771, 6405, 7453, 9542, 11645, 13946, 15945]}, "edge": {"target": [], "time": []}}}, "displayed_time": "22.44", "trialTime": 25676, "trial_type": "mouselab-mdp", "trial_index": 3, "time_elapsed": 402206, "internal_node_id": "0.0-2.0-2.0-0.0"}}, {"uniqueid": "w44177737:a21805129", "current_trial": 4, "dateTime": 1693580200818, "trialdata": {"revealed_states": [], "clicked_states": [], "num_clicks_accrued": [0, 0, 0, 0, 0, 0, 0, 0, 0, 0, 0, 0, 0], "stateRewards": ["", 10, -10, 10, -10, 10, -10, -10, -10, 10, -10, -10, -10, -10, 10, 10, -10, -10, -10, 10, 10, -10, 10, 10, 10, -10, 10, 10, 10, 10, 10, 10, -10, -10], "withholdReward": false, "trial_id": "practice_2", "block": "test", "trialIndex": 1, "score": -6.5, "costs": 0, "simulationMode": [null, null, null, null, null], "rewards": [-10, -10, 10, 10, -10], "path": ["0", "0", "12", "13", "14", "19", "21"], "rt": [2837, 703, 173, 90, 342], "actions": ["right", "right", "right", "down", "down"], "actionTimes": [5442, 6673, 7351, 7950, 8802], "queries": {"click": {"state": {"target": [], "time": []}, "edge": {"target": [], "time": []}}, "mouseover": {"state": {"target": [], "time": []}, "edge": {"target": [], "time": []}}, "mouseout": {"state": {"target": [], "time": []}, "edge": {"target": [], "time": []}}}, "displayed_time": "9.31", "trialTime": 12025, "trial_type": "mouselab-mdp", "trial_index": 4, "time_elapsed": 414423, "internal_node_id": "0.0-2.0-2.0-1.0"}}, {"uniqueid": "w44177737:a21805129", "current_trial": 5, "dateTime": 1693580321550, "trialdata": {"view_history": [{"page_index": 0, "viewing_time": 110141}, {"page_index": 1, "viewing_time": 10587}], "rt": 120730, "trial_id": "mouselab_instructions_2_control", "trial_type": "instructions", "trial_index": 5, "time_elapsed": 535155, "internal_node_id": "0.0-2.0-3.0"}}, {"uniqueid": "w44177737:a21805129", "current_trial": 6, "dateTime": 1693580351791, "trialdata": {"rt": 30233, "response": {"Q0": "The cost for clicking on nodes may vary between nodes.", "Q1": "The better I perform the higher my bonus will be.", "Q2": "No, the amount of cash at each node of the web may be different each time.", "Q3": "To get the highest total score.", "Q4": "Only before moving the spider.", "Q5": "10 seconds"}, "question_order": [0, 1, 2, 3, 4, 5], "correct": {"Q0": "The cost for clicking on nodes may vary between nodes.", "Q1": "The better I perform the higher my bonus will be.", "Q2": "No, the amount of cash at each node of the web may be different each time.", "Q3": "To get the highest total score.", "Q4": "Only before moving the spider.", "Q5": "3 seconds"}, "trial_id": "mouselab_quiz_control", "trial_type": "survey-multi-choice", "trial_index": 6, "time_elapsed": 565396, "internal_node_id": "0.0-2.0-4.0"}}, {"uniqueid": "w44177737:a21805129", "current_trial": 7, "dateTime": 1693580364624, "trialdata": {"success": true, "trial_type": "fullscreen", "trial_index": 7, "time_elapsed": 578229, "internal_node_id": "0.0-2.1-0.1-0.1"}}, {"uniqueid": "w44177737:a21805129", "current_trial": 8, "dateTime": 1693580558956, "trialdata": {"view_history": [{"page_index": 0, "viewing_time": 115429}, {"page_index": 1, "viewing_time": 64468}, {"page_index": 2, "viewing_time": 7935}, {"page_index": 3, "viewing_time": 6497}], "rt": 194331, "trial_id": "mouselab_instructions_1_control", "trial_type": "instructions", "trial_index": 8, "time_elapsed": 772561, "internal_node_id": "0.0-2.1-1.1"}}, {"uniqueid": "w44177737:a21805129", "current_trial": 9, "dateTime": 1693580577770, "trialdata": {"revealed_states": [], "clicked_states": ["23", "25", "26", "27", "29"], "num_clicks_accrued": [0, 0, 0, 0, 0, 0, 0, 0, 0, 0, 0, 0, 0], "stateRewards": ["", 10, -10, 10, 10, -10, 10, 10, 10, -10, -10, 10, -10, -10, 10, -10, 10, 10, -10, 10, -10, 10, 10, 10, 10, 10, -10, -10, -10, 10, 10, 10, -10, -10], "withholdReward": false, "trial_id": "practice_1", "block": "test", "trialIndex": 2, "score": 31, "costs": -2.5, "simulationMode": [null, null, null, null, null], "rewards": [10, 10, 10, 10, -10], "path": ["0", "0", "23", "24", "25", "30", "32"], "rt": [11991, 414, 122, 84, 231], "actions": ["left", "left", "left", "down", "down"], "actionTimes": [13195, 14117, 14757, 15351, 16099], "queries": {"click": {"state": {"target": ["23", "25", "26", "27", "29"], "time": [2318, 3920, 5438, 6790, 8074]}, "edge": {"target": [], "time": []}}, "mouseover": {"state": {"target": ["23", "24", "25", "26", "27", "29", "28", "23", "0"], "time": [1863, 2778, 3559, 4510, 5925, 7407, 8558, 8740, 8906]}, "edge": {"target": [], "time": []}}, "mouseout": {"state": {"target": ["0", "23", "24", "25", "26", "27", "29", "26", "28", "23", "0"], "time": [1849, 2727, 3495, 4411, 5826, 7291, 8523, 8544, 8573, 8756, 9655]}, "edge": {"target": [], "time": []}}}, "displayed_time": "16.62", "trialTime": 18579, "trial_type": "mouselab-mdp", "trial_index": 9, "time_elapsed": 791374, "internal_node_id": "0.0-2.1-2.1-0.1"}}, {"uniqueid": "w44177737:a21805129", "current_trial": 10, "dateTime": 1693580592800, "trialdata": {"revealed_states": [], "clicked_states": ["32", "27", "29", "28"], "num_clicks_accrued": [0, 0, 0, 0, 0, 0, 0, 0, 0, 0, 0, 0, 0], "stateRewards": ["", 10, -10, 10, -10, 10, -10, -10, -10, 10, -10, -10, -10, -10, 10, 10, -10, -10, -10, 10, 10, -10, 10, 10, 10, -10, 10, 10, 10, 10, 10, 10, -10, -10], "withholdReward": false, "trial_id": "practice_2", "block": "test", "trialIndex": 3, "score": 31.5, "costs": -2, "simulationMode": [null, null, null, null, null], "rewards": [10, 10, -10, 10, 10], "path": ["0", "0", "23", "24", "25", "26", "27"], "rt": [7585, 150, 63, 63, 25], "actions": ["left", "left", "left", "up", "up"], "actionTimes": [10697, 11362, 11939, 12523, 13069], "queries": {"click": {"state": {"target": ["32", "27", "29", "28"], "time": [4351, 5587, 7104, 8567]}, "edge": {"target": [], "time": []}}, "mouseover": {"state": {"target": ["23", "24", "30", "32", "30", "26", "27", "29", "26", "28"], "time": [3532, 3717, 3881, 4081, 4716, 4868, 5048, 6249, 7512, 8012]}, "edge": {"target": [], "time": []}}, "mouseout": {"state": {"target": ["0", "23", "24", "30", "32", "30", "26", "27", "29", "29", "26", "28"], "time": [3486, 3701, 3734, 3998, 4559, 4748, 4948, 6030, 7316, 7495, 7562, 9011]}, "edge": {"target": [], "time": []}}}, "displayed_time": "13.58", "trialTime": 14833, "trial_type": "mouselab-mdp", "trial_index": 10, "time_elapsed": 806405, "internal_node_id": "0.0-2.1-2.1-1.1"}}, {"uniqueid": "w44177737:a21805129", "current_trial": 11, "dateTime": 1693580614940, "trialdata": {"view_history": [{"page_index": 0, "viewing_time": 20057}, {"page_index": 1, "viewing_time": 2081}], "rt": 22139, "trial_id": "mouselab_instructions_2_control", "trial_type": "instructions", "trial_index": 11, "time_elapsed": 828545, "internal_node_id": "0.0-2.1-3.1"}}, {"uniqueid": "w44177737:a21805129", "current_trial": 12, "dateTime": 1693580634096, "trialdata": {"rt": 19150, "response": {"Q0": "The cost for clicking on nodes may vary between nodes.", "Q1": "The better I perform the higher my bonus will be.", "Q2": "No, the amount of cash at each node of the web may be different each time.", "Q3": "To get the highest total score.", "Q4": "Only before moving the spider.", "Q5": "3 seconds"}, "question_order": [0, 1, 2, 3, 4, 5], "correct": {"Q0": "The cost for clicking on nodes may vary between nodes.", "Q1": "The better I perform the higher my bonus will be.", "Q2": "No, the amount of cash at each node of the web may be different each time.", "Q3": "To get the highest total score.", "Q4": "Only before moving the spider.", "Q5": "3 seconds"}, "trial_id": "mouselab_quiz_control", "trial_type": "survey-multi-choice", "trial_index": 12, "time_elapsed": 847701, "internal_node_id": "0.0-2.1-4.1"}}, {"uniqueid": "w44177737:a21805129", "current_trial": 13, "dateTime": 1693580650051, "trialdata": {"rt": 15950, "response": {"Q0": "No"}, "question_order": [0], "trial_id": "repeat_check", "trial_type": "survey-multi-choice", "trial_index": 13, "time_elapsed": 863656, "internal_node_id": "0.0-4.0-0.0"}}, {"uniqueid": "w44177737:a21805129", "current_trial": 14, "dateTime": 1693580660469, "trialdata": {"rt": 10413, "stimulus": "\n<h1> Get ready to start the game! </h1>\n\nThank you for reading the instructions. Get ready start with the 40 rounds of this game.\n<br><br>\nIf you need to take a break, feel free to take one after the end of a round, before continuing to the next one.\n<br><br>\nRemember, the more money the spider gets, the bigger your bonus will be!\n<br><br>\n<div style='text-align: center;'>Press <code>space</code> to begin.</div>\n\n<br><br>\n(If, at any point, the <code>space</code> key does not take you to the next page, click once on the text and try again.)", "response": " ", "trial_id": "mdp_ready", "trial_type": "html-keyboard-response", "trial_index": 14, "time_elapsed": 874074, "internal_node_id": "0.0-6.0-0.0"}}, {"uniqueid": "w44177737:a21805129", "current_trial": 15, "dateTime": 1693580679115, "trialdata": {"revealed_states": [], "clicked_states": ["14", "17"], "num_clicks_accrued": [0, 0, 0, 0, 0, 0, 0, 0, 0, 0, 0, 0, 0], "stateRewards": ["", -2, -1, -2, -15, 87, 57, 29, -10, 77, -80, -7, 1, -3, 6, 14, -11, 87, -59, 4, -71, 16, -11, 2, 2, -7, 2, -47, 61, 50, 14, -20, 17, 81], "withholdReward": false, "trial_id": "mdp_trial_1", "block": "test", "trialIndex": 4, "score": 102.2, "costs": -2.8, "simulationMode": [null, null, null, null, null], "rewards": [1, -3, 6, 14, 87], "path": ["0", "0", "12", "13", "14", "15", "17"], "rt": [8804, 173, 25, 494, 17], "actions": ["right", "right", "right", "up", "right"], "actionTimes": [11081, 11767, 12303, 13320, 13874], "queries": {"click": {"state": {"target": ["14", "17"], "time": [4533, 6944]}, "edge": {"target": [], "time": []}}, "mouseover": {"state": {"target": ["12", "13", "14", "17", "16"], "time": [3547, 3648, 3967, 5513, 8194]}, "edge": {"target": [], "time": []}}, "mouseout": {"state": {"target": ["23", "0", "12", "13", "14", "17", "17", "16", "0"], "time": [1649, 3513, 3618, 3815, 5396, 7345, 8077, 9510, 17172]}, "edge": {"target": [], "time": []}}}, "displayed_time": "16.28", "trialTime": 18399, "trial_type": "mouselab-mdp", "trial_index": 15, "time_elapsed": 892718, "internal_node_id": "0.0-6.0-1.0-0.0"}}, {"uniqueid": "w44177737:a21805129", "current_trial": 16, "dateTime": 1693580711863, "trialdata": {"revealed_states": [], "clicked_states": ["24", "17", "6", "3", "33", "32", "27", "29", "21", "20"], "num_clicks_accrued": [0, 0, 0, 0, 0, 0, 0, 0, 0, 0, 0, 0, 0], "stateRewards": ["", -1, -2, 4, 9, 10, -75, 39, 16, -43, 88, -19, -1, 1, 2, 4, -31, 10, 73, 12, 41, -64, -81, -2, 2, -6, 1, -81, -1, -26, 3, -59, -3, -20], "withholdReward": false, "trial_id": "mdp_trial_2", "block": "test", "trialIndex": 5, "score": 41, "costs": -14.000000000000002, "simulationMode": [null, null, null, null, null], "rewards": [-1, 1, 2, 12, 41], "path": ["0", "0", "12", "13", "14", "19", "20"], "rt": [25282, 8, 53, 442, 39], "actions": ["right", "right", "right", "down", "right"], "actionTimes": [28195, 28718, 29295, 30250, 30798], "queries": {"click": {"state": {"target": ["24", "17", "6", "3", "33", "32", "27", "29", "21", "20"], "time": [3956, 6526, 8514, 10862, 13759, 15851, 18254, 20324, 22883, 25000]}, "edge": {"target": [], "time": []}}, "mouseover": {"state": {"target": ["23", "24", "2", "7", "18", "15", "17", "6", "7", "3", "2", "1", "25", "33", "30", "32", "31", "24", "26", "27", "29", "26", "12", "22", "21", "20", "20", "19", "22"], "time": [3464, 3562, 4762, 5744, 5827, 5861, 6179, 7477, 9893, 10359, 11290, 11423, 12609, 13541, 14304, 15236, 16303, 17302, 17770, 18002, 18766, 20783, 21431, 21948, 22668, 23363, 24178, 25413, 25578]}, "edge": {"target": [], "time": []}}, "mouseout": {"state": {"target": ["23", "0", "23", "24", "2", "7", "18", "15", "17", "6", "7", "3", "2", "1", "25", "33", "30", "32", "31", "24", "26", "27", "29", "26", "12", "22", "21", "20", "20", "19", "22"], "time": [2321, 3449, 3513, 4479, 5696, 5777, 5845, 5878, 6911, 8942, 9991, 11274, 11339, 11856, 12789, 14171, 15170, 16203, 17285, 17318, 17884, 18637, 20733, 20835, 21847, 22367, 23090, 23529, 25395, 25512, 27244]}, "edge": {"target": [], "time": []}}}, "displayed_time": "31.32", "trialTime": 32532, "trial_type": "mouselab-mdp", "trial_index": 16, "time_elapsed": 925467, "internal_node_id": "0.0-6.0-1.0-1.0"}}, {"uniqueid": "w44177737:a21805129", "current_trial": 17, "dateTime": 1693580741496, "trialdata": {"revealed_states": [], "clicked_states": ["23", "27", "5", "9", "11", "3", "2", "1"], "num_clicks_accrued": [0, 0, 0, 0, 0, 0, 0, 0, 0, 0, 0, 0, 0], "stateRewards": ["", -1, -3, 4, -10, -5, 79, -87, -2, 53, 29, -20, -2, -1, -5, 10, 27, 86, 46, -16, -29, 40, 3, 2, 4, -1, -6, 37, 79, -29, 7, 86, -62, 29], "withholdReward": false, "trial_id": "mdp_trial_3", "block": "test", "trialIndex": 6, "score": 39.8, "costs": -11.200000000000001, "simulationMode": [null, null, null, null, null], "rewards": [-1, -3, 4, -2, 53], "path": ["0", "0", "1", "2", "3", "8", "9"], "rt": [19697, 530, 48, 48, 12], "actions": ["up", "up", "up", "left", "up"], "actionTimes": [24966, 26006, 26573, 27139, 27669], "queries": {"click": {"state": {"target": ["23", "27", "5", "9", "11", "3", "2", "1"], "time": [6197, 8264, 10666, 12659, 14846, 17270, 19288, 22120]}, "edge": {"target": [], "time": []}}, "mouseover": {"state": {"target": ["0", "23", "28", "27", "28", "10", "2", "5", "9", "11", "8", "8", "3", "2", "1", "1"], "time": [5877, 5957, 6856, 7206, 8756, 9805, 9854, 10287, 11237, 13151, 15866, 16432, 16852, 18048, 19979, 21777]}, "edge": {"target": [], "time": []}}, "mouseout": {"state": {"target": ["12", "0", "0", "23", "28", "27", "28", "10", "2", "5", "9", "11", "8", "8", "3", "2", "1", "1"], "time": [1015, 1260, 5907, 6806, 6923, 8689, 9789, 9821, 9871, 11071, 13018, 15217, 15983, 16788, 17798, 19746, 20179, 22510]}, "edge": {"target": [], "time": []}}}, "displayed_time": "28.19", "trialTime": 29422, "trial_type": "mouselab-mdp", "trial_index": 17, "time_elapsed": 955100, "internal_node_id": "0.0-6.0-1.0-2.0"}}, {"uniqueid": "w44177737:a21805129", "current_trial": 18, "dateTime": 1693580760009, "trialdata": {"revealed_states": [], "clicked_states": ["20", "17", "16", "18"], "num_clicks_accrued": [0, 0, 0, 0, 0, 0, 0, 0, 0, 0, 0, 0, 0], "stateRewards": ["", -1, 2, 6, 11, 21, -21, -21, -6, 48, -71, 88, -1, -3, 3, 7, 64, 2, 9, -4, 37, -67, 72, 2, 2, -8, -8, -10, 71, -40, -3, 73, 80, 47], "withholdReward": false, "trial_id": "mdp_trial_4", "block": "test", "trialIndex": 7, "score": 64.4, "costs": -5.6, "simulationMode": [null, null, null, null, null], "rewards": [-1, -3, 3, 7, 64], "path": ["0", "0", "12", "13", "14", "15", "16"], "rt": [11783, 555, 113, 115, 63], "actions": ["right", "right", "right", "up", "up"], "actionTimes": [13134, 14211, 14833, 15469, 16048], "queries": {"click": {"state": {"target": ["20", "17", "16", "18"], "time": [2874, 4954, 7187, 9600]}, "edge": {"target": [], "time": []}}, "mouseover": {"state": {"target": ["12", "13", "14", "20", "17", "16", "18", "13", "14"], "time": [1865, 1914, 2145, 2533, 3380, 5460, 7841, 10722, 12058]}, "edge": {"target": [], "time": []}}, "mouseout": {"state": {"target": ["12", "13", "14", "20", "17", "16", "18", "13", "14"], "time": [1898, 1962, 2330, 3086, 5327, 7629, 10074, 11837, 12156]}, "edge": {"target": [], "time": []}}}, "displayed_time": "16.57", "trialTime": 18278, "trial_type": "mouselab-mdp", "trial_index": 18, "time_elapsed": 973613, "internal_node_id": "0.0-6.0-1.0-3.0"}}, {"uniqueid": "w44177737:a21805129", "current_trial": 19, "dateTime": 1693580788787, "trialdata": {"revealed_states": [], "clicked_states": ["20", "5", "9", "11", "6", "17", "16", "18"], "num_clicks_accrued": [0, 0, 0, 0, 0, 0, 0, 0, 0, 0, 0, 0, 0], "stateRewards": ["", 2, -1, 4, -9, -43, 7, 54, -13, 38, -40, -83, -1, 2, -8, -10, 34, -33, 11, -14, -79, 65, 26, 1, 2, 4, 10, 21, 1, 86, 4, -53, 28, -29], "withholdReward": false, "trial_id": "mdp_trial_5", "block": "test", "trialIndex": 8, "score": 5.799999999999997, "costs": -11.200000000000001, "simulationMode": [null, null, null, null, null], "rewards": [-1, 2, -8, -10, 34], "path": ["0", "0", "12", "13", "14", "15", "16"], "rt": [21750, 33, 320, 463, 67], "actions": ["right", "right", "right", "up", "up"], "actionTimes": [23684, 24222, 25058, 26034, 26621], "queries": {"click": {"state": {"target": ["20", "5", "9", "11", "6", "17", "16", "18"], "time": [3972, 6126, 8098, 10235, 12327, 14983, 17039, 19284]}, "edge": {"target": [], "time": []}}, "mouseover": {"state": {"target": ["0", "31", "22", "19", "20", "15", "6", "5", "9", "11", "8", "4", "6", "6", "16", "17", "16", "18"], "time": [2417, 2506, 3089, 3123, 3555, 4422, 4488, 4838, 6787, 8618, 10667, 10699, 10735, 11165, 14414, 14646, 16145, 17527]}, "edge": {"target": [], "time": []}}, "mouseout": {"state": {"target": ["18", "12", "0", "31", "22", "19", "20", "15", "6", "5", "9", "11", "8", "4", "6", "6", "16", "17", "17", "16", "16", "18", "18"], "time": [1186, 1390, 2424, 2991, 3106, 3173, 4405, 4438, 4521, 6537, 8488, 10666, 10682, 10720, 10783, 12715, 14445, 15395, 16028, 17253, 17430, 19497, 19809]}, "edge": {"target": [], "time": []}}}, "displayed_time": "27.14", "trialTime": 28536, "trial_type": "mouselab-mdp", "trial_index": 19, "time_elapsed": 1002392, "internal_node_id": "0.0-6.0-1.0-4.0"}}, {"uniqueid": "w44177737:a21805129", "current_trial": 20, "dateTime": 1693580805526, "trialdata": {"revealed_states": [], "clicked_states": ["32", "33", "23", "25"], "num_clicks_accrued": [0, 0, 0, 0, 0, 0, 0, 0, 0, 0, 0, 0, 0], "stateRewards": ["", 2, 3, -2, -8, -8, -41, 74, 15, -23, -80, 1, 1, 3, 3, -15, -63, -78, 67, 13, 75, -41, 86, 2, -2, 6, -3, -8, -49, 50, -6, 83, 74, 80], "withholdReward": false, "trial_id": "mdp_trial_6", "block": "test", "trialIndex": 9, "score": 74.4, "costs": -5.6, "simulationMode": [null, null, null, null, null], "rewards": [2, -2, 6, -6, 80], "path": ["0", "0", "23", "24", "25", "30", "33"], "rt": [10083, 575, 161, 179, 133], "actions": ["left", "left", "left", "down", "left"], "actionTimes": [11485, 12595, 13263, 13948, 14602], "queries": {"click": {"state": {"target": ["32", "33", "23", "25"], "time": [2893, 5003, 6969, 8975]}, "edge": {"target": [], "time": []}}, "mouseover": {"state": {"target": ["23", "30", "32", "32", "33", "30", "23", "24", "25", "24"], "time": [1631, 1894, 2226, 2642, 3493, 5408, 6340, 7506, 8505, 9572]}, "edge": {"target": [], "time": []}}, "mouseout": {"state": {"target": ["23", "30", "32", "32", "33", "30", "23", "24", "25", "24"], "time": [1645, 2145, 2259, 3376, 5391, 5424, 7456, 8138, 9454, 10020]}, "edge": {"target": [], "time": []}}}, "displayed_time": "15.40", "trialTime": 16517, "trial_type": "mouselab-mdp", "trial_index": 20, "time_elapsed": 1019129, "internal_node_id": "0.0-6.0-1.0-5.0"}}, {"uniqueid": "w44177737:a21805129", "current_trial": 21, "dateTime": 1693580840175, "trialdata": {"revealed_states": [], "clicked_states": ["5", "6", "7", "9", "11", "10", "16", "17", "13", "12"], "num_clicks_accrued": [0, 0, 0, 0, 0, 0, 0, 0, 0, 0, 0, 0, 0], "stateRewards": ["", 2, 3, 8, 14, 69, -27, 17, 2, -71, -65, -10, 2, -3, 7, 8, 65, -10, 65, -12, 73, -12, 13, -2, -2, 6, 10, -79, -69, -18, 10, -85, 67, 74], "withholdReward": false, "trial_id": "mdp_trial_7", "block": "test", "trialIndex": 10, "score": 82, "costs": -14.000000000000002, "simulationMode": [null, null, null, null, null], "rewards": [2, 3, 8, 14, 69], "path": ["0", "0", "1", "2", "3", "4", "5"], "rt": [23635, 682, 1108, 31, 506], "actions": ["up", "up", "up", "right", "up"], "actionTimes": [28031, 29252, 30875, 31413, 32437], "queries": {"click": {"state": {"target": ["5", "6", "7", "9", "11", "10", "16", "17", "13", "12"], "time": [5466, 7369, 9413, 11581, 13579, 15598, 18280, 20268, 22685, 24880]}, "edge": {"target": [], "time": []}}, "mouseover": {"state": {"target": ["2", "3", "5", "6", "7", "3", "9", "11", "10", "2", "16", "17", "14", "13", "12"], "time": [4925, 4942, 5020, 5870, 7934, 9850, 10083, 12181, 14146, 17708, 18009, 18847, 22209, 22388, 23105]}, "edge": {"target": [], "time": []}}, "mouseout": {"state": {"target": ["0", "2", "3", "5", "6", "7", "3", "9", "9", "11", "10", "2", "16", "17", "14", "13", "12"], "time": [4870, 4938, 4954, 5838, 7801, 9817, 9883, 11794, 11983, 13997, 16078, 17713, 18659, 20691, 22309, 23055, 25286]}, "edge": {"target": [], "time": []}}}, "displayed_time": "32.95", "trialTime": 34427, "trial_type": "mouselab-mdp", "trial_index": 21, "time_elapsed": 1053779, "internal_node_id": "0.0-6.0-1.0-6.0"}}, {"uniqueid": "w44177737:a21805129", "current_trial": 22, "dateTime": 1693580868613, "trialdata": {"revealed_states": [], "clicked_states": ["32", "33", "31", "28", "27", "29", "21", "20"], "num_clicks_accrued": [0, 0, 0, 0, 0, 0, 0, 0, 0, 0, 0, 0, 0], "stateRewards": ["", -2, 3, -1, -9, 44, 48, -37, -3, 71, -39, 87, -1, 3, -4, 4, -21, 59, -15, -8, -1, 28, -38, 2, 4, 4, 8, -85, -72, -63, 14, 58, 63, -46], "withholdReward": false, "trial_id": "mdp_trial_8", "block": "test", "trialIndex": 11, "score": 75.8, "costs": -11.200000000000001, "simulationMode": [null, null, null, null, null], "rewards": [2, 4, 4, 14, 63], "path": ["0", "0", "23", "24", "25", "30", "32"], "rt": [21489, 104, 54, 483, 476], "actions": ["left", "left", "left", "down", "down"], "actionTimes": [22952, 23575, 24142, 25152, 26150], "queries": {"click": {"state": {"target": ["32", "33", "31", "28", "27", "29", "21", "20"], "time": [2564, 4737, 7319, 9419, 11470, 13478, 16565, 18634]}, "edge": {"target": [], "time": []}}, "mouseover": {"state": {"target": ["0", "30", "32", "33", "29", "25", "24", "31", "28", "27", "29", "25", "24", "23", "22", "19", "21", "20", "15", "16", "18", "12"], "time": [1731, 2071, 2271, 3055, 5420, 6253, 6501, 7034, 8017, 10032, 12013, 14045, 14114, 14147, 15928, 16110, 16193, 16993, 19112, 19175, 20689, 20759]}, "edge": {"target": [], "time": []}}, "mouseout": {"state": {"target": ["0", "0", "30", "32", "33", "29", "25", "24", "31", "28", "27", "29", "29", "25", "24", "23", "22", "19", "21", "20", "15", "16", "18", "12"], "time": [1174, 1756, 2239, 2988, 5103, 6169, 6369, 6789, 7667, 9865, 11881, 13691, 13896, 14096, 14128, 14395, 15960, 16143, 16927, 19091, 19141, 20641, 20743, 20822]}, "edge": {"target": [], "time": []}}}, "displayed_time": "26.67", "trialTime": 28178, "trial_type": "mouselab-mdp", "trial_index": 22, "time_elapsed": 1082217, "internal_node_id": "0.0-6.0-1.0-7.0"}}, {"uniqueid": "w44177737:a21805129", "current_trial": 23, "dateTime": 1693580890767, "trialdata": {"revealed_states": [], "clicked_states": ["5", "6", "16", "17", "20", "21", "22"], "num_clicks_accrued": [0, 0, 0, 0, 0, 0, 0, 0, 0, 0, 0, 0, 0], "stateRewards": ["", 1, -4, -6, 11, -20, 8, -30, 1, -38, 88, 42, 2, 3, 5, -12, -8, -74, 30, -8, 67, -19, 42, 2, -1, 4, 13, 50, -68, 2, -8, -15, 87, -46], "withholdReward": false, "trial_id": "mdp_trial_9", "block": "test", "trialIndex": 12, "score": 59.2, "costs": -9.8, "simulationMode": [null, null, null, null, null], "rewards": [2, 3, 5, -8, 67], "path": ["0", "0", "12", "13", "14", "19", "20"], "rt": [16585, 35, 59, 82, 59], "actions": ["right", "right", "right", "down", "right"], "actionTimes": [18072, 18621, 19213, 19800, 20376], "queries": {"click": {"state": {"target": ["5", "6", "16", "17", "20", "21", "22"], "time": [2825, 4721, 6618, 8568, 10587, 12659, 14642]}, "edge": {"target": [], "time": []}}, "mouseover": {"state": {"target": ["1", "4", "5", "6", "16", "17", "20", "21", "22", "13"], "time": [1881, 2118, 2582, 3317, 5329, 7344, 9759, 11108, 13422, 15170]}, "edge": {"target": [], "time": []}}, "mouseout": {"state": {"target": ["0", "1", "4", "5", "6", "16", "17", "20", "20", "21", "22"], "time": [1853, 1915, 2182, 3233, 5166, 7028, 9309, 10802, 10974, 13056, 15087]}, "edge": {"target": [], "time": []}}}, "displayed_time": "20.89", "trialTime": 21935, "trial_type": "mouselab-mdp", "trial_index": 23, "time_elapsed": 1104372, "internal_node_id": "0.0-6.0-1.0-8.0"}}, {"uniqueid": "w44177737:a21805129", "current_trial": 24, "dateTime": 1693580919296, "trialdata": {"revealed_states": [], "clicked_states": ["31", "27", "16", "17", "15", "26", "25", "14"], "num_clicks_accrued": [0, 0, 0, 0, 0, 0, 0, 0, 0, 0, 0, 0, 0], "stateRewards": ["", 2, -1, 5, 8, 75, -35, -77, 1, -9, -81, -58, 1, 2, -7, 5, 77, -16, 19, 16, -10, -18, 40, -2, 3, 7, -5, 64, 1, -62, 10, 27, 10, 65], "withholdReward": false, "trial_id": "mdp_trial_10", "block": "test", "trialIndex": 13, "score": 55.8, "costs": -11.200000000000001, "simulationMode": [null, null, null, null, null], "rewards": [-2, 3, 7, -5, 64], "path": ["0", "0", "23", "24", "25", "26", "27"], "rt": [21030, 188, 784, 498, 20], "actions": ["left", "left", "left", "up", "up"], "actionTimes": [23051, 23758, 25054, 26066, 26604], "queries": {"click": {"state": {"target": ["31", "27", "16", "17", "15", "26", "25", "14"], "time": [3210, 5095, 7462, 9831, 12940, 14874, 17096, 19211]}, "edge": {"target": [], "time": []}}, "mouseover": {"state": {"target": ["23", "31", "31", "27", "2", "7", "16", "17", "14", "15", "28", "26", "25", "24", "23", "0", "12", "13", "14", "13"], "time": [2571, 2621, 2938, 3907, 5569, 5587, 5652, 7933, 12278, 12477, 13561, 13927, 15376, 17490, 17540, 17594, 17640, 17990, 18157, 19872]}, "edge": {"target": [], "time": []}}, "mouseout": {"state": {"target": ["13", "0", "23", "31", "31", "27", "2", "7", "16", "17", "17", "14", "15", "28", "26", "25", "24", "23", "0", "12", "13", "14", "13"], "time": [1238, 2556, 2587, 2658, 3703, 5536, 5585, 5602, 7833, 10044, 10564, 12362, 13511, 13611, 15309, 17313, 17524, 17557, 17608, 17742, 18023, 19855, 19888]}, "edge": {"target": [], "time": []}}}, "displayed_time": "27.12", "trialTime": 28304, "trial_type": "mouselab-mdp", "trial_index": 24, "time_elapsed": 1132900, "internal_node_id": "0.0-6.0-1.0-9.0"}}, {"uniqueid": "w44177737:a21805129", "current_trial": 25, "dateTime": 1693580936042, "trialdata": {"revealed_states": [], "clicked_states": ["16", "17"], "num_clicks_accrued": [0, 0, 0, 0, 0, 0, 0, 0, 0, 0, 0, 0, 0], "stateRewards": ["", -1, 4, -3, 3, 57, -61, 5, -11, 23, -1, 34, -2, -4, -1, -13, 27, 38, -36, 4, -45, 21, 88, 1, -2, -1, 1, -69, -5, -78, -12, -9, 38, -54], "withholdReward": false, "trial_id": "mdp_trial_11", "block": "test", "trialIndex": 14, "score": 15.2, "costs": -2.8, "simulationMode": [null, null, null, null, null], "rewards": [-2, -4, -1, -13, 38], "path": ["0", "0", "12", "13", "14", "15", "17"], "rt": [6295, 19, 32, 13, 531], "actions": ["right", "right", "right", "up", "right"], "actionTimes": [7784, 8314, 8860, 9407, 10458], "queries": {"click": {"state": {"target": ["16", "17"], "time": [2361, 4433]}, "edge": {"target": [], "time": []}}, "mouseover": {"state": {"target": ["18", "15", "16", "17", "5", "4"], "time": [1867, 1998, 2099, 2816, 5263, 6995]}, "edge": {"target": [], "time": []}}, "mouseout": {"state": {"target": ["0", "18", "15", "16", "17", "5", "4", "23"], "time": [1838, 1882, 2015, 2716, 4880, 6980, 7027, 12722]}, "edge": {"target": [], "time": []}}}, "displayed_time": "15.49", "trialTime": 16519, "trial_type": "mouselab-mdp", "trial_index": 25, "time_elapsed": 1149645, "internal_node_id": "0.0-6.0-1.0-10.0"}}, {"uniqueid": "w44177737:a21805129", "current_trial": 26, "dateTime": 1693580968471, "trialdata": {"revealed_states": [], "clicked_states": ["27", "29", "28", "33", "32", "31", "22", "21", "20", "17", "16", "18"], "num_clicks_accrued": [0, 0, 0, 0, 0, 0, 0, 0, 0, 0, 0, 0, 0], "stateRewards": ["", 2, 3, -1, 16, -78, -11, 46, 2, -20, 79, -67, 2, 3, 2, 11, -83, -42, -58, -11, -67, -22, 55, 2, -1, -1, -16, -83, -82, 23, -11, -29, 13, 13], "withholdReward": false, "trial_id": "mdp_trial_12", "block": "test", "trialIndex": 15, "score": -87.8, "costs": -16.8, "simulationMode": [null, null, null, null, null], "rewards": [2, 3, 2, -11, -67], "path": ["0", "0", "12", "13", "14", "19", "20"], "rt": [25940, 16, 45, 497, 48], "actions": ["right", "right", "right", "down", "right"], "actionTimes": [27554, 28088, 28649, 29667, 30234], "queries": {"click": {"state": {"target": ["27", "29", "28", "33", "32", "31", "22", "21", "20", "17", "16", "18"], "time": [2405, 4373, 6546, 8507, 10437, 12460, 14321, 16270, 18235, 20376, 22366, 24309]}, "edge": {"target": [], "time": []}}, "mouseover": {"state": {"target": ["28", "27", "29", "26", "28", "25", "33", "32", "31", "22", "22", "21", "20", "17", "16", "18"], "time": [1942, 2145, 2859, 4760, 5057, 7121, 7521, 9036, 10918, 12933, 13170, 14931, 16779, 18882, 20927, 22874]}, "edge": {"target": [], "time": []}}, "mouseout": {"state": {"target": ["0", "28", "27", "29", "26", "28", "25", "33", "33", "32", "31", "22", "22", "21", "20", "17", "16", "18"], "time": [1244, 2009, 2758, 4758, 4791, 7088, 7221, 8723, 8937, 10784, 12883, 12983, 14747, 16629, 18644, 20779, 22774, 24892]}, "edge": {"target": [], "time": []}}}, "displayed_time": "30.75", "trialTime": 32191, "trial_type": "mouselab-mdp", "trial_index": 26, "time_elapsed": 1182075, "internal_node_id": "0.0-6.0-1.0-11.0"}}, {"uniqueid": "w44177737:a21805129", "current_trial": 27, "dateTime": 1693580985700, "trialdata": {"revealed_states": [], "clicked_states": ["5", "6"], "num_clicks_accrued": [0, 0, 0, 0, 0, 0, 0, 0, 0, 0, 0, 0, 0], "stateRewards": ["", 2, -1, 1, 10, -52, 86, -22, -2, -14, -63, 38, 1, 3, 7, -8, 11, -32, -27, 9, -71, 40, -87, -2, -1, 5, -7, 12, 31, -57, 13, 86, -58, 29], "withholdReward": false, "trial_id": "mdp_trial_13", "block": "test", "trialIndex": 16, "score": 95.2, "costs": -2.8, "simulationMode": [null, null, null, null, null], "rewards": [2, -1, 1, 10, 86], "path": ["0", "0", "1", "2", "3", "4", "6"], "rt": [7729, 569, 232, 292, 155], "actions": ["up", "up", "up", "right", "right"], "actionTimes": [9598, 10679, 11424, 12239, 12912], "queries": {"click": {"state": {"target": ["5", "6"], "time": [4515, 6430]}, "edge": {"target": [], "time": []}}, "mouseover": {"state": {"target": ["12", "12", "7", "5", "6", "16"], "time": [2931, 3367, 3714, 4179, 5029, 7094]}, "edge": {"target": [], "time": []}}, "mouseout": {"state": {"target": ["12", "12", "7", "5", "6", "16", "12"], "time": [2964, 3700, 3746, 4947, 6828, 8730, 15771]}, "edge": {"target": [], "time": []}}}, "displayed_time": "15.87", "trialTime": 16970, "trial_type": "mouselab-mdp", "trial_index": 27, "time_elapsed": 1199304, "internal_node_id": "0.0-6.0-1.0-12.0"}}, {"uniqueid": "w44177737:a21805129", "current_trial": 28, "dateTime": 1693581016447, "trialdata": {"revealed_states": [], "clicked_states": ["5", "6", "9", "11", "10", "7", "18", "28", "22", "31"], "num_clicks_accrued": [0, 0, 0, 0, 0, 0, 0, 0, 0, 0, 0, 0, 0], "stateRewards": ["", 1, -3, -1, 9, -34, -40, 22, -7, 45, 53, -11, 2, 4, 5, 15, 21, 37, -49, -3, 80, -28, -34, 1, -3, 1, 1, -40, -6, -5, -16, -85, -86, 59], "withholdReward": false, "trial_id": "mdp_trial_14", "block": "test", "trialIndex": 17, "score": 29, "costs": -14.000000000000002, "simulationMode": [null, null, null, null, null], "rewards": [1, -3, -1, -7, 53], "path": ["0", "0", "1", "2", "3", "8", "10"], "rt": [24598, 488, 127, 279, 56], "actions": ["up", "up", "up", "left", "down"], "actionTimes": [25916, 26916, 27553, 28338, 28914], "queries": {"click": {"state": {"target": ["5", "6", "9", "11", "10", "7", "18", "28", "22", "31"], "time": [2080, 4057, 6068, 8257, 10369, 12399, 14435, 16486, 19690, 21815]}, "edge": {"target": [], "time": []}}, "mouseover": {"state": {"target": ["7", "4", "5", "6", "9", "11", "10", "2", "7", "7", "18", "1", "28", "10", "23", "22", "31", "23", "10"], "time": [1564, 1614, 1780, 2580, 5011, 6531, 9823, 10724, 10789, 11122, 13471, 14803, 15136, 18848, 18999, 19414, 20814, 22264, 22612]}, "edge": {"target": [], "time": []}}, "mouseout": {"state": {"target": ["0", "7", "4", "5", "6", "9", "11", "11", "10", "2", "7", "7", "18", "1", "28", "10", "23", "22", "31", "23"], "time": [1529, 1581, 1731, 2516, 4678, 6443, 8481, 9741, 10722, 10739, 10839, 12805, 14787, 14820, 18732, 18935, 19015, 20064, 22263, 22279]}, "edge": {"target": [], "time": []}}}, "displayed_time": "29.43", "trialTime": 30497, "trial_type": "mouselab-mdp", "trial_index": 28, "time_elapsed": 1230051, "internal_node_id": "0.0-6.0-1.0-13.0"}}, {"uniqueid": "w44177737:a21805129", "current_trial": 29, "dateTime": 1693581040870, "trialdata": {"revealed_states": [], "clicked_states": ["10", "7", "16", "21", "22", "31", "32", "33"], "num_clicks_accrued": [0, 0, 0, 0, 0, 0, 0, 0, 0, 0, 0, 0, 0], "stateRewards": ["", 1, -3, -6, -5, 47, 80, -29, 11, -71, 10, -29, -2, 3, -6, 12, 2, -78, -6, 8, 34, -16, -5, -1, 3, 3, -13, 84, -36, -62, -3, -27, 66, 15], "withholdReward": false, "trial_id": "mdp_trial_15", "block": "test", "trialIndex": 18, "score": 56.8, "costs": -11.200000000000001, "simulationMode": [null, null, null, null, null], "rewards": [-1, 3, 3, -3, 66], "path": ["0", "0", "23", "24", "25", "30", "32"], "rt": [17856, 489, 164, 89, 134], "actions": ["left", "left", "left", "down", "down"], "actionTimes": [19732, 20739, 21413, 22020, 22665], "queries": {"click": {"state": {"target": ["10", "7", "16", "21", "22", "31", "32", "33"], "time": [2741, 4662, 6896, 9369, 11559, 13808, 15761, 17779]}, "edge": {"target": [], "time": []}}, "mouseover": {"state": {"target": ["1", "10", "2", "7", "7", "6", "16", "15", "14", "19", "21", "22", "31", "32", "33", "30"], "time": [2191, 2464, 3181, 3213, 3530, 5195, 6676, 7444, 7492, 7743, 8091, 9941, 12754, 14269, 16335, 18320]}, "edge": {"target": [], "time": []}}, "mouseout": {"state": {"target": ["10", "1", "0", "1", "10", "2", "7", "7", "6", "16", "15", "14", "19", "21", "22", "31", "32", "33", "30"], "time": [1249, 1300, 2180, 2200, 2955, 3197, 3380, 4904, 6530, 7442, 7477, 7592, 7942, 9824, 12039, 14203, 16169, 18318, 18334]}, "edge": {"target": [], "time": []}}}, "displayed_time": "23.18", "trialTime": 24181, "trial_type": "mouselab-mdp", "trial_index": 29, "time_elapsed": 1254473, "internal_node_id": "0.0-6.0-1.0-14.0"}}, {"uniqueid": "w44177737:a21805129", "current_trial": 30, "dateTime": 1693581058367, "trialdata": {"revealed_states": [], "clicked_states": ["31", "32", "33"], "num_clicks_accrued": [0, 0, 0, 0, 0, 0, 0, 0, 0, 0, 0, 0, 0], "stateRewards": ["", 1, -3, -2, 14, 49, -40, -39, 2, 26, -61, 73, 1, -4, -8, 12, 79, 29, -65, -13, 55, -26, 27, -1, 3, 3, 9, -17, -60, -18, -8, 35, -88, 69], "withholdReward": false, "trial_id": "mdp_trial_16", "block": "test", "trialIndex": 19, "score": 61.8, "costs": -4.199999999999999, "simulationMode": [null, null, null, null, null], "rewards": [-1, 3, 3, -8, 69], "path": ["0", "0", "23", "24", "25", "30", "33"], "rt": [8943, 6, 160, 105, 356], "actions": ["left", "left", "left", "down", "left"], "actionTimes": [11037, 11554, 12241, 12851, 13719], "queries": {"click": {"state": {"target": ["31", "32", "33"], "time": [4002, 5924, 7945]}, "edge": {"target": [], "time": []}}, "mouseover": {"state": {"target": ["31", "32", "33", "22"], "time": [3734, 4552, 6567, 8999]}, "edge": {"target": [], "time": []}}, "mouseout": {"state": {"target": ["0", "31", "31", "32", "33", "22", "21"], "time": [2653, 4213, 4370, 6350, 8471, 15594, 15893]}, "edge": {"target": [], "time": []}}}, "displayed_time": "16.09", "trialTime": 17243, "trial_type": "mouselab-mdp", "trial_index": 30, "time_elapsed": 1271972, "internal_node_id": "0.0-6.0-1.0-15.0"}}, {"uniqueid": "w44177737:a21805129", "current_trial": 31, "dateTime": 1693581085390, "trialdata": {"revealed_states": [], "clicked_states": ["21", "20", "17", "16", "18", "7", "1", "10", "31", "32"], "num_clicks_accrued": [0, 0, 0, 0, 0, 0, 0, 0, 0, 0, 0, 0, 0], "stateRewards": ["", -2, 4, -5, -12, 85, -24, -18, -15, -78, -22, 26, -1, -1, 2, 14, -45, 52, -23, 7, -33, 24, -6, -2, -4, 5, -7, -16, 36, -39, 5, 71, -87, -23], "withholdReward": false, "trial_id": "mdp_trial_17", "block": "test", "trialIndex": 20, "score": 61, "costs": -14.000000000000002, "simulationMode": [null, null, null, null, null], "rewards": [-2, -4, 5, 5, 71], "path": ["0", "0", "23", "24", "25", "30", "31"], "rt": [20780, 108, 109, 35, 79], "actions": ["left", "left", "left", "down", "right"], "actionTimes": [22380, 23009, 23625, 24169, 24761], "queries": {"click": {"state": {"target": ["21", "20", "17", "16", "18", "7", "1", "10", "31", "32"], "time": [2770, 4764, 6768, 9053, 11002, 12913, 14783, 16788, 18740, 20669]}, "edge": {"target": [], "time": []}}, "mouseover": {"state": {"target": ["12", "13", "19", "21", "20", "20", "17", "16", "18", "7", "1", "10", "31", "32"], "time": [2034, 2132, 2315, 2565, 3132, 3415, 5280, 7263, 10193, 11526, 13440, 15372, 17337, 19251]}, "edge": {"target": [], "time": []}}, "mouseout": {"state": {"target": ["0", "12", "13", "19", "21", "20", "20", "17", "16", "18", "7", "1", "10", "31", "32"], "time": [1199, 2065, 2249, 2369, 2993, 3165, 4972, 7162, 10026, 11442, 13306, 15205, 17270, 19151, 26114]}, "edge": {"target": [], "time": []}}}, "displayed_time": "25.30", "trialTime": 26759, "trial_type": "mouselab-mdp", "trial_index": 31, "time_elapsed": 1298994, "internal_node_id": "0.0-6.0-1.0-16.0"}}, {"uniqueid": "w44177737:a21805129", "current_trial": 32, "dateTime": 1693581112106, "trialdata": {"revealed_states": [], "clicked_states": ["21", "20", "17", "16", "18", "31", "32", "33"], "num_clicks_accrued": [0, 0, 0, 0, 0, 0, 0, 0, 0, 0, 0, 0, 0], "stateRewards": ["", 1, -2, -3, 14, -42, -87, -37, -11, -50, 33, -44, -2, 4, -7, 13, 48, -75, -66, 12, 23, -2, 82, 1, -4, 3, 12, 51, -15, -26, -11, -52, -29, 82], "withholdReward": false, "trial_id": "mdp_trial_18", "block": "test", "trialIndex": 21, "score": 59.8, "costs": -11.200000000000001, "simulationMode": [null, null, null, null, null], "rewards": [1, -4, 3, -11, 82], "path": ["0", "0", "23", "24", "25", "30", "33"], "rt": [19055, 383, 375, 297, 270], "actions": ["left", "left", "left", "down", "left"], "actionTimes": [20584, 21479, 22370, 23175, 23964], "queries": {"click": {"state": {"target": ["21", "20", "17", "16", "18", "31", "32", "33"], "time": [2763, 4721, 6700, 8667, 10721, 13496, 15558, 17550]}, "edge": {"target": [], "time": []}}, "mouseover": {"state": {"target": ["12", "13", "14", "21", "20", "17", "16", "18", "6", "2", "30", "31", "32", "33", "25", "28", "0"], "time": [2096, 2128, 2161, 2477, 3244, 5226, 7158, 9106, 11537, 12852, 13088, 13202, 13935, 16133, 18031, 18097, 19880]}, "edge": {"target": [], "time": []}}, "mouseout": {"state": {"target": ["0", "12", "13", "14", "21", "20", "17", "16", "18", "6", "2", "30", "31", "32", "33", "25", "28", "0"], "time": [2083, 2112, 2145, 2228, 2976, 5143, 7108, 9072, 10941, 12835, 12868, 13171, 13872, 16016, 17981, 18064, 19764, 25859]}, "edge": {"target": [], "time": []}}}, "displayed_time": "24.48", "trialTime": 26475, "trial_type": "mouselab-mdp", "trial_index": 32, "time_elapsed": 1325711, "internal_node_id": "0.0-6.0-1.0-17.0"}}, {"uniqueid": "w44177737:a21805129", "current_trial": 33, "dateTime": 1693581129110, "trialdata": {"revealed_states": [], "clicked_states": ["31", "33", "32"], "num_clicks_accrued": [0, 0, 0, 0, 0, 0, 0, 0, 0, 0, 0, 0, 0], "stateRewards": ["", -1, 4, -8, 12, 14, 69, -8, 5, -72, -14, 56, -1, -1, -1, 9, 67, 19, 11, -9, -88, -58, 3, 2, -4, -8, 4, 62, 77, -74, 5, -31, 65, 88], "withholdReward": false, "trial_id": "mdp_trial_19", "block": "test", "trialIndex": 22, "score": 78.8, "costs": -4.199999999999999, "simulationMode": [null, null, null, null, null], "rewards": [2, -4, -8, 5, 88], "path": ["0", "0", "23", "24", "25", "30", "33"], "rt": [6818, 212, 101, 3, 224], "actions": ["left", "left", "left", "down", "left"], "actionTimes": [8232, 8960, 9581, 10100, 10853], "queries": {"click": {"state": {"target": ["31", "33", "32"], "time": [2362, 4327, 6424]}, "edge": {"target": [], "time": []}}, "mouseover": {"state": {"target": ["31", "31", "30", "33", "32"], "time": [1818, 2101, 2721, 2935, 4850]}, "edge": {"target": [], "time": []}}, "mouseout": {"state": {"target": ["19", "12", "0", "0", "31", "31", "30", "33", "32"], "time": [755, 822, 986, 1740, 1888, 2707, 2803, 4750, 6798]}, "edge": {"target": [], "time": []}}}, "displayed_time": "15.42", "trialTime": 16745, "trial_type": "mouselab-mdp", "trial_index": 33, "time_elapsed": 1342715, "internal_node_id": "0.0-6.0-1.0-18.0"}}, {"uniqueid": "w44177737:a21805129", "current_trial": 34, "dateTime": 1693581148689, "trialdata": {"revealed_states": [], "clicked_states": ["20", "21", "22", "17", "16", "18"], "num_clicks_accrued": [0, 0, 0, 0, 0, 0, 0, 0, 0, 0, 0, 0, 0], "stateRewards": ["", -1, 1, 6, -6, 70, 66, 67, -16, -75, -35, 37, -1, 4, 4, -6, 47, -9, 63, 15, 21, -63, 13, 1, 3, -6, 10, 79, -29, 18, -15, 9, -67, -19], "withholdReward": false, "trial_id": "mdp_trial_20", "block": "test", "trialIndex": 23, "score": 55.6, "costs": -8.4, "simulationMode": [null, null, null, null, null], "rewards": [-1, 4, 4, -6, 63], "path": ["0", "0", "12", "13", "14", "15", "18"], "rt": [13597, 82, 93, 34, 318], "actions": ["right", "right", "right", "up", "left"], "actionTimes": [15016, 15607, 16218, 16762, 17591], "queries": {"click": {"state": {"target": ["20", "21", "22", "17", "16", "18"], "time": [2201, 4165, 6147, 8177, 10150, 12043]}, "edge": {"target": [], "time": []}}, "mouseover": {"state": {"target": ["12", "20", "21", "22", "17", "16", "18", "6"], "time": [1669, 1819, 2719, 4634, 6799, 8775, 10612, 13426]}, "edge": {"target": [], "time": []}}, "mouseout": {"state": {"target": ["0", "12", "20", "21", "22", "17", "16", "18", "6"], "time": [1649, 1686, 2653, 4584, 6516, 8585, 10545, 12494, 14274]}, "edge": {"target": [], "time": []}}}, "displayed_time": "18.11", "trialTime": 19305, "trial_type": "mouselab-mdp", "trial_index": 34, "time_elapsed": 1362293, "internal_node_id": "0.0-6.0-1.0-19.0"}}, {"uniqueid": "w44177737:a21805129", "current_trial": 35, "dateTime": 1693581165805, "trialdata": {"revealed_states": [], "clicked_states": ["31"], "num_clicks_accrued": [0, 0, 0, 0, 0, 0, 0, 0, 0, 0, 0, 0, 0], "stateRewards": ["", 1, 1, 4, 11, 83, -66, 18, -16, -23, 5, 25, 1, -3, 1, -12, 18, 24, -86, -11, -64, 36, 40, 2, 1, -6, 13, 55, 29, 72, -2, 81, -72, -41], "withholdReward": false, "trial_id": "mdp_trial_21", "block": "test", "trialIndex": 24, "score": 74.6, "costs": -1.4, "simulationMode": [null, null, null, null, null], "rewards": [2, 1, -6, -2, 81], "path": ["0", "0", "23", "24", "25", "30", "31"], "rt": [4467, 55, 69, 27, 18], "actions": ["left", "left", "left", "down", "right"], "actionTimes": [5905, 6473, 7053, 7593, 8117], "queries": {"click": {"state": {"target": ["31"], "time": [2681]}, "edge": {"target": [], "time": []}}, "mouseover": {"state": {"target": ["0", "31", "31", "32"], "time": [1906, 1953, 2369, 3186]}, "edge": {"target": [], "time": []}}, "mouseout": {"state": {"target": ["12", "0", "31", "31", "32"], "time": [937, 1911, 1986, 3103, 14259]}, "edge": {"target": [], "time": []}}}, "displayed_time": "15.44", "trialTime": 16856, "trial_type": "mouselab-mdp", "trial_index": 35, "time_elapsed": 1379409, "internal_node_id": "0.0-6.0-1.0-20.0"}}, {"uniqueid": "w44177737:a21805129", "current_trial": 36, "dateTime": 1693581186974, "trialdata": {"revealed_states": [], "clicked_states": ["21", "20", "17", "16", "18"], "num_clicks_accrued": [0, 0, 0, 0, 0, 0, 0, 0, 0, 0, 0, 0, 0], "stateRewards": ["", -1, 2, 5, -6, 13, -64, -47, 8, -79, -80, -33, 1, 2, -2, -16, 56, -71, -10, 3, 29, 44, 85, -1, 4, 5, 4, -36, -56, 19, 8, 52, -13, -2], "withholdReward": false, "trial_id": "mdp_trial_22", "block": "test", "trialIndex": 25, "score": 34, "costs": -7, "simulationMode": [null, null, null, null, null], "rewards": [1, 2, -2, -16, 56], "path": ["0", "0", "12", "13", "14", "15", "16"], "rt": [13686, 107, 340, 242, 467], "actions": ["right", "right", "right", "up", "up"], "actionTimes": [15376, 15996, 16844, 17596, 18570], "queries": {"click": {"state": {"target": ["21", "20", "17", "16", "18"], "time": [3268, 5531, 7777, 9733, 11757]}, "edge": {"target": [], "time": []}}, "mouseover": {"state": {"target": ["0", "21", "20", "20", "17", "16", "18"], "time": [2522, 2864, 3914, 4247, 6179, 8445, 10558]}, "edge": {"target": [], "time": []}}, "mouseout": {"state": {"target": ["0", "0", "0", "0", "21", "20", "20", "17", "16", "18"], "time": [785, 1032, 1282, 2532, 3479, 3997, 6078, 8193, 10226, 11971]}, "edge": {"target": [], "time": []}}}, "displayed_time": "19.09", "trialTime": 20853, "trial_type": "mouselab-mdp", "trial_index": 36, "time_elapsed": 1400579, "internal_node_id": "0.0-6.0-1.0-21.0"}}, {"uniqueid": "w44177737:a21805129", "current_trial": 37, "dateTime": 1693581207466, "trialdata": {"revealed_states": [], "clicked_states": ["21", "22", "20", "17", "16", "18"], "num_clicks_accrued": [0, 0, 0, 0, 0, 0, 0, 0, 0, 0, 0, 0, 0], "stateRewards": ["", 1, -3, 4, 13, -72, 52, 5, 5, -58, 5, 14, 2, 1, 3, -14, -86, -4, 73, 6, -58, -50, 49, 2, -3, -4, 2, 33, -41, 42, -11, 81, 45, 53], "withholdReward": false, "trial_id": "mdp_trial_23", "block": "test", "trialIndex": 26, "score": 56.6, "costs": -8.4, "simulationMode": [null, null, null, null, null], "rewards": [2, 1, 3, -14, 73], "path": ["0", "0", "12", "13", "14", "15", "18"], "rt": [13792, 759, 536, 157, 21], "actions": ["right", "right", "right", "up", "left"], "actionTimes": [15298, 16577, 17618, 18290, 18819], "queries": {"click": {"state": {"target": ["21", "22", "20", "17", "16", "18"], "time": [2474, 4441, 6409, 8398, 10337, 12333]}, "edge": {"target": [], "time": []}}, "mouseover": {"state": {"target": ["12", "13", "21", "22", "19", "20", "17", "16", "18"], "time": [1882, 1903, 2260, 2977, 4828, 4875, 6940, 8956, 10970]}, "edge": {"target": [], "time": []}}, "mouseout": {"state": {"target": ["18", "12", "13", "21", "22", "19", "20", "17", "16"], "time": [845, 1899, 1911, 2877, 4826, 4859, 6807, 8855, 10787]}, "edge": {"target": [], "time": []}}}, "displayed_time": "19.35", "trialTime": 20206, "trial_type": "mouselab-mdp", "trial_index": 37, "time_elapsed": 1421070, "internal_node_id": "0.0-6.0-1.0-22.0"}}, {"uniqueid": "w44177737:a21805129", "current_trial": 38, "dateTime": 1693581233867, "trialdata": {"revealed_states": [], "clicked_states": ["31", "32", "33", "29", "27", "28", "16", "17", "18"], "num_clicks_accrued": [0, 0, 0, 0, 0, 0, 0, 0, 0, 0, 0, 0, 0], "stateRewards": ["", 1, -1, 8, 4, 76, -33, -17, -3, -1, -54, -74, -2, 2, -5, 13, -51, 63, 83, 1, 84, 29, -36, 2, -1, 7, -12, -10, -44, -43, -14, 8, -69, 19], "withholdReward": false, "trial_id": "mdp_trial_24", "block": "test", "trialIndex": 27, "score": 78.4, "costs": -12.600000000000001, "simulationMode": [null, null, null, null, null], "rewards": [-2, 2, -5, 13, 83], "path": ["0", "0", "12", "13", "14", "15", "18"], "rt": [19923, 156, 59, 476, 429], "actions": ["right", "right", "right", "up", "left"], "actionTimes": [21208, 21874, 22443, 23443, 24379], "queries": {"click": {"state": {"target": ["31", "32", "33", "29", "27", "28", "16", "17", "18"], "time": [2550, 4550, 6529, 8788, 10834, 12880, 15432, 17404, 19293]}, "edge": {"target": [], "time": []}}, "mouseover": {"state": {"target": ["0", "31", "31", "32", "33", "29", "27", "28", "1", "7", "16", "17", "15", "18"], "time": [1810, 1850, 2240, 4032, 5031, 8510, 9211, 11375, 14857, 14890, 15223, 16154, 17820, 17954]}, "edge": {"target": [], "time": []}}, "mouseout": {"state": {"target": ["18", "0", "31", "31", "32", "33", "29", "27", "28", "1", "7", "16", "17", "15", "18"], "time": [733, 1825, 1867, 3867, 4981, 7762, 8999, 11242, 13373, 14874, 14906, 16021, 17803, 17869, 25397]}, "edge": {"target": [], "time": []}}}, "displayed_time": "24.90", "trialTime": 26114, "trial_type": "mouselab-mdp", "trial_index": 38, "time_elapsed": 1447470, "internal_node_id": "0.0-6.0-1.0-23.0"}}, {"uniqueid": "w44177737:a21805129", "current_trial": 39, "dateTime": 1693581251055, "trialdata": {"revealed_states": [], "clicked_states": ["16", "17"], "num_clicks_accrued": [0, 0, 0, 0, 0, 0, 0, 0, 0, 0, 0, 0, 0], "stateRewards": ["", -1, -3, -6, 14, 41, 18, 63, -14, 80, 21, 17, -2, -4, -2, -5, 13, 70, 8, -4, -64, -10, -20, 2, -1, 4, -1, -17, -55, 42, -7, 47, 54, 15], "withholdReward": false, "trial_id": "mdp_trial_25", "block": "test", "trialIndex": 28, "score": 54.2, "costs": -2.8, "simulationMode": [null, null, null, null, null], "rewards": [-2, -4, -2, -5, 70], "path": ["0", "0", "12", "13", "14", "15", "17"], "rt": [7076, 267, 337, 457, 193], "actions": ["right", "right", "right", "up", "right"], "actionTimes": [8667, 9453, 10306, 11275, 11976], "queries": {"click": {"state": {"target": ["16", "17"], "time": [3135, 5139]}, "edge": {"target": [], "time": []}}, "mouseover": {"state": {"target": ["18", "16", "17", "15", "18"], "time": [2510, 2840, 3690, 5622, 5955]}, "edge": {"target": [], "time": []}}, "mouseout": {"state": {"target": ["0", "18", "16", "16", "17", "15", "18", "12"], "time": [1190, 2524, 3350, 3574, 5605, 5722, 14017, 14047]}, "edge": {"target": [], "time": []}}}, "displayed_time": "15.59", "trialTime": 16916, "trial_type": "mouselab-mdp", "trial_index": 39, "time_elapsed": 1464659, "internal_node_id": "0.0-6.0-1.0-24.0"}}, {"uniqueid": "w44177737:a21805129", "current_trial": 40, "dateTime": 1693581274972, "trialdata": {"revealed_states": [], "clicked_states": ["16", "17", "20", "21", "22", "31", "32"], "num_clicks_accrued": [0, 0, 0, 0, 0, 0, 0, 0, 0, 0, 0, 0, 0], "stateRewards": ["", -2, -4, 4, -11, -63, -60, -7, 2, -14, 81, -43, -1, -1, -5, 7, 10, 69, 40, 8, -83, 52, 60, 1, 2, 5, -5, 16, 64, 14, -3, 29, 7, -51], "withholdReward": false, "trial_id": "mdp_trial_26", "block": "test", "trialIndex": 29, "score": 51.2, "costs": -9.8, "simulationMode": [null, null, null, null, null], "rewards": [-1, -1, -5, 8, 60], "path": ["0", "0", "12", "13", "14", "19", "22"], "rt": [18728, 29, 46, 43, 2], "actions": ["right", "right", "right", "down", "left"], "actionTimes": [20041, 20578, 21143, 21723, 22249], "queries": {"click": {"state": {"target": ["16", "17", "20", "21", "22", "31", "32"], "time": [2170, 4202, 6321, 8299, 10357, 13814, 15787]}, "edge": {"target": [], "time": []}}, "mouseover": {"state": {"target": ["18", "15", "16", "17", "20", "21", "22", "31", "32", "33", "30"], "time": [1564, 1582, 1896, 2713, 5344, 6859, 8927, 13565, 14254, 16351, 17837]}, "edge": {"target": [], "time": []}}, "mouseout": {"state": {"target": ["1", "0", "18", "15", "16", "17", "20", "21", "22", "31", "32", "33", "30"], "time": [799, 1542, 1581, 1597, 2597, 4712, 6744, 8760, 12103, 14203, 16267, 17831, 17849]}, "edge": {"target": [], "time": []}}}, "displayed_time": "22.78", "trialTime": 23656, "trial_type": "mouselab-mdp", "trial_index": 40, "time_elapsed": 1488576, "internal_node_id": "0.0-6.0-1.0-25.0"}}, {"uniqueid": "w44177737:a21805129", "current_trial": 41, "dateTime": 1693581309972, "trialdata": {"revealed_states": [], "clicked_states": ["16", "17", "18", "6", "5", "7", "9", "11", "10", "27", "28", "29", "31"], "num_clicks_accrued": [0, 0, 0, 0, 0, 0, 0, 0, 0, 0, 0, 0, 0], "stateRewards": ["", 2, -1, -3, 16, -3, -16, -62, -1, 13, -26, 43, -1, 4, 3, -9, -54, -37, -3, -12, -71, -68, -57, 1, -3, 2, -9, 2, -2, -9, -11, 84, -52, 55], "withholdReward": false, "trial_id": "mdp_trial_27", "block": "test", "trialIndex": 30, "score": 54.8, "costs": -18.2, "simulationMode": [null, null, null, null, null], "rewards": [1, -3, 2, -11, 84], "path": ["0", "0", "23", "24", "25", "30", "31"], "rt": [28713, 122, 126, 70, 74], "actions": ["left", "left", "left", "down", "right"], "actionTimes": [30116, 30756, 31392, 31969, 32556], "queries": {"click": {"state": {"target": ["16", "17", "18", "6", "5", "7", "9", "11", "10", "27", "28", "29", "31"], "time": [3275, 5273, 7251, 9181, 11040, 12948, 14914, 16850, 18770, 21245, 23228, 25200, 27206]}, "edge": {"target": [], "time": []}}, "mouseover": {"state": {"target": ["12", "13", "14", "17", "16", "16", "17", "15", "18", "6", "5", "4", "7", "3", "9", "11", "10", "27", "28", "26", "29", "30", "31", "32"], "time": [1861, 1908, 2073, 2156, 2393, 3025, 3805, 5720, 5838, 8169, 9668, 11483, 11733, 13348, 13415, 15396, 17379, 20907, 21757, 23639, 23672, 26187, 26320, 27853]}, "edge": {"target": [], "time": []}}, "mouseout": {"state": {"target": ["0", "12", "13", "14", "17", "16", "16", "17", "15", "18", "6", "5", "5", "4", "7", "3", "9", "11", "10", "27", "28", "26", "29", "30", "31", "32"], "time": [1057, 1890, 2006, 2106, 2190, 2474, 3706, 5704, 5788, 7703, 9568, 11265, 11450, 11586, 13172, 13365, 15296, 17268, 19193, 21691, 23622, 23656, 25637, 26270, 27602, 29434]}, "edge": {"target": [], "time": []}}}, "displayed_time": "33.06", "trialTime": 34719, "trial_type": "mouselab-mdp", "trial_index": 41, "time_elapsed": 1523576, "internal_node_id": "0.0-6.0-1.0-26.0"}}, {"uniqueid": "w44177737:a21805129", "current_trial": 42, "dateTime": 1693581327187, "trialdata": {"revealed_states": [], "clicked_states": ["31", "33", "32"], "num_clicks_accrued": [0, 0, 0, 0, 0, 0, 0, 0, 0, 0, 0, 0, 0], "stateRewards": ["", -1, 2, -6, 6, -82, -19, -39, -16, -83, 11, -33, -2, -2, 4, -6, -82, -1, -19, -6, -10, -67, -41, -2, 1, -7, 16, -23, -78, -52, 14, 31, -71, 74], "withholdReward": false, "trial_id": "mdp_trial_28", "block": "test", "trialIndex": 31, "score": 75.8, "costs": -4.199999999999999, "simulationMode": [null, null, null, null, null], "rewards": [-2, 1, -7, 14, 74], "path": ["0", "0", "23", "24", "25", "30", "33"], "rt": [7755, 79, 494, 392, 698], "actions": ["left", "left", "left", "down", "left"], "actionTimes": [9236, 9825, 10839, 11737, 12942], "queries": {"click": {"state": {"target": ["31", "33", "32"], "time": [2205, 4124, 6304]}, "edge": {"target": [], "time": []}}, "mouseover": {"state": {"target": ["23", "31", "30", "33", "32"], "time": [1784, 1969, 2634, 2768, 4633]}, "edge": {"target": [], "time": []}}, "mouseout": {"state": {"target": ["0", "23", "31", "30", "33", "33", "32"], "time": [1750, 1801, 2426, 2717, 4343, 4550, 6764]}, "edge": {"target": [], "time": []}}}, "displayed_time": "15.48", "trialTime": 16945, "trial_type": "mouselab-mdp", "trial_index": 42, "time_elapsed": 1540792, "internal_node_id": "0.0-6.0-1.0-27.0"}}, {"uniqueid": "w44177737:a21805129", "current_trial": 43, "dateTime": 1693581364077, "trialdata": {"revealed_states": [], "clicked_states": ["31", "11", "27", "29", "28", "9", "10", "5", "6", "16", "21", "17", "18", "22"], "num_clicks_accrued": [0, 0, 0, 0, 0, 0, 0, 0, 0, 0, 0, 0, 0], "stateRewards": ["", 2, -2, -3, 10, -4, -1, -11, -8, -9, -36, -78, 2, 1, 7, -7, 44, -1, -31, -1, 26, 47, 83, 2, -4, -4, -6, -52, -76, -81, -1, -59, 45, 67], "withholdReward": false, "trial_id": "mdp_trial_29", "block": "test", "trialIndex": 32, "score": 72.4, "costs": -19.599999999999998, "simulationMode": [null, null, null, null, null], "rewards": [2, 1, 7, -1, 83], "path": ["0", "0", "12", "13", "14", "19", "22"], "rt": [30779, 229, 192, 287, 223], "actions": ["right", "right", "right", "down", "left"], "actionTimes": [31841, 32590, 33286, 34081, 34817], "queries": {"click": {"state": {"target": ["31", "11", "27", "29", "28", "9", "10", "5", "6", "16", "21", "17", "18", "22"], "time": [1936, 3821, 5724, 7665, 9609, 11865, 13914, 16598, 18575, 20474, 22606, 24709, 26668, 28758]}, "edge": {"target": [], "time": []}}, "mouseover": {"state": {"target": ["0", "31", "31", "24", "28", "8", "11", "26", "25", "30", "26", "27", "29", "26", "28", "25", "33", "9", "8", "10", "3", "5", "8", "4", "5", "6", "7", "16", "15", "14", "19", "21", "17", "15", "18", "13", "22", "19", "20"], "time": [1411, 1453, 1656, 2320, 2353, 2470, 2887, 4236, 4268, 4335, 4601, 4684, 6283, 8065, 8315, 10063, 10180, 10830, 12294, 12547, 14309, 14393, 15344, 16075, 16259, 16973, 19023, 19621, 20872, 20987, 21070, 21336, 23368, 25134, 25267, 27181, 27365, 29114, 29197]}, "edge": {"target": [], "time": []}}, "mouseout": {"state": {"target": ["0", "0", "31", "31", "24", "28", "8", "11", "26", "25", "30", "26", "27", "29", "26", "28", "25", "33", "9", "8", "10", "3", "5", "8", "4", "5", "6", "6", "7", "16", "16", "15", "14", "19", "21", "17", "15", "18", "13", "22", "19", "20"], "time": [687, 1428, 1503, 2304, 2337, 2387, 2820, 4219, 4252, 4285, 4501, 4618, 6133, 8049, 8165, 10047, 10081, 10347, 12261, 12361, 14293, 14327, 15325, 15359, 16107, 16940, 18799, 18922, 19588, 20692, 20856, 20937, 21037, 21153, 23052, 25118, 25183, 27165, 27232, 28988, 29164, 30994]}, "edge": {"target": [], "time": []}}}, "displayed_time": "35.33", "trialTime": 36602, "trial_type": "mouselab-mdp", "trial_index": 43, "time_elapsed": 1577681, "internal_node_id": "0.0-6.0-1.0-28.0"}}, {"uniqueid": "w44177737:a21805129", "current_trial": 44, "dateTime": 1693581387929, "trialdata": {"revealed_states": [], "clicked_states": ["32", "31", "33", "27", "28", "29"], "num_clicks_accrued": [0, 0, 0, 0, 0, 0, 0, 0, 0, 0, 0, 0, 0], "stateRewards": ["", -1, 3, -7, 16, -32, -74, -48, 2, 10, 15, -30, 1, 1, -2, 10, 12, -83, 67, 13, -66, 47, 65, -2, 4, 2, -14, -8, -57, 24, 9, 65, 12, 46], "withholdReward": false, "trial_id": "mdp_trial_30", "block": "test", "trialIndex": 33, "score": 69.6, "costs": -8.4, "simulationMode": [null, null, null, null, null], "rewards": [-2, 4, 2, 9, 65], "path": ["0", "0", "23", "24", "25", "30", "31"], "rt": [15912, 28, 21, 886, 319], "actions": ["left", "left", "left", "down", "right"], "actionTimes": [17714, 18274, 18800, 20215, 21047], "queries": {"click": {"state": {"target": ["32", "31", "33", "27", "28", "29"], "time": [4100, 6074, 8021, 10342, 12258, 14207]}, "edge": {"target": [], "time": []}}, "mouseover": {"state": {"target": ["0", "32", "31", "31", "30", "33", "26", "27", "28", "26", "29", "18", "16"], "time": [3244, 3840, 4474, 5457, 6572, 6726, 8554, 9070, 11037, 12683, 12733, 14665, 15121]}, "edge": {"target": [], "time": []}}, "mouseout": {"state": {"target": ["0", "32", "31", "31", "30", "33", "26", "27", "28", "26", "29", "18", "16"], "time": [3558, 4316, 4508, 6556, 6626, 8471, 8621, 10802, 12667, 12700, 14582, 15004, 16467]}, "edge": {"target": [], "time": []}}}, "displayed_time": "21.56", "trialTime": 23542, "trial_type": "mouselab-mdp", "trial_index": 44, "time_elapsed": 1601533, "internal_node_id": "0.0-6.0-1.0-29.0"}}, {"uniqueid": "w44177737:a21805129", "current_trial": 45, "dateTime": 1693581420410, "trialdata": {"revealed_states": [], "clicked_states": ["16", "17", "18", "20", "21", "22", "31", "32", "33", "29", "27", "28"], "num_clicks_accrued": [0, 0, 0, 0, 0, 0, 0, 0, 0, 0, 0, 0, 0], "stateRewards": ["", -2, -1, 3, -3, 71, -58, -21, 7, -10, -75, -37, 2, 4, -1, -12, -79, -29, -48, 3, -41, -10, -30, -1, -2, 1, -15, 13, 66, 22, -1, -42, -86, -55], "withholdReward": false, "trial_id": "mdp_trial_31", "block": "test", "trialIndex": 34, "score": 32.2, "costs": -16.8, "simulationMode": [null, null, null, null, null], "rewards": [-1, -2, 1, -15, 66], "path": ["0", "0", "23", "24", "25", "26", "28"], "rt": [26063, 187, 566, 165, 126], "actions": ["left", "left", "left", "up", "right"], "actionTimes": [27680, 28378, 29439, 30120, 30763], "queries": {"click": {"state": {"target": ["16", "17", "18", "20", "21", "22", "31", "32", "33", "29", "27", "28"], "time": [2609, 4583, 6510, 8405, 10360, 12289, 14260, 16200, 18156, 20009, 21980, 23862]}, "edge": {"target": [], "time": []}}, "mouseover": {"state": {"target": ["12", "15", "16", "17", "15", "18", "14", "20", "21", "22", "31", "32", "33", "29", "27", "28", "11"], "time": [1999, 2065, 2346, 3111, 5192, 5293, 6957, 7290, 8940, 10870, 13718, 14734, 16782, 18714, 20446, 22478, 24408]}, "edge": {"target": [], "time": []}}, "mouseout": {"state": {"target": ["0", "12", "15", "16", "17", "15", "18", "14", "20", "21", "22", "31", "31", "32", "33", "29", "27", "27", "28", "11", "23"], "time": [1979, 2017, 2145, 3011, 5176, 5243, 6924, 7041, 8840, 10787, 12868, 14474, 14684, 16635, 18373, 20396, 22200, 22394, 24259, 26040, 31837]}, "edge": {"target": [], "time": []}}}, "displayed_time": "31.27", "trialTime": 32195, "trial_type": "mouselab-mdp", "trial_index": 45, "time_elapsed": 1634015, "internal_node_id": "0.0-6.0-1.0-30.0"}}, {"uniqueid": "w44177737:a21805129", "current_trial": 46, "dateTime": 1693581457553, "trialdata": {"revealed_states": [], "clicked_states": ["9", "11", "10", "5", "6", "7", "16", "17", "20", "21", "22", "31", "29", "27"], "num_clicks_accrued": [0, 0, 0, 0, 0, 0, 0, 0, 0, 0, 0, 0, 0], "stateRewards": ["", -2, 2, 3, -7, -31, -33, 29, -8, -57, 50, -83, -1, -1, 5, 13, -23, -62, 25, 5, -66, -85, 14, 1, -2, -1, 16, 71, 33, -19, -14, 5, -43, 79], "withholdReward": false, "trial_id": "mdp_trial_32", "block": "test", "trialIndex": 35, "score": 65.4, "costs": -19.599999999999998, "simulationMode": [null, null, null, null, null], "rewards": [1, -2, -1, 16, 71], "path": ["0", "0", "23", "24", "25", "26", "27"], "rt": [31064, 35, 633, 54, 39], "actions": ["left", "left", "left", "up", "up"], "actionTimes": [32286, 32837, 34002, 34572, 35139], "queries": {"click": {"state": {"target": ["9", "11", "10", "5", "6", "7", "16", "17", "20", "21", "22", "31", "29", "27"], "time": [2219, 4093, 6017, 7909, 9737, 11758, 14012, 16098, 18509, 20543, 22604, 24829, 26819, 28838]}, "edge": {"target": [], "time": []}}, "mouseover": {"state": {"target": ["1", "9", "11", "10", "3", "5", "6", "7", "16", "17", "20", "21", "22", "13", "18", "0", "31", "30", "33", "29", "26", "27", "28"], "time": [1464, 1760, 2711, 4759, 6492, 6677, 8455, 10239, 12436, 14734, 17032, 19196, 21061, 23093, 23393, 24026, 24560, 25358, 25424, 25674, 27224, 27308, 29341]}, "edge": {"target": [], "time": []}}, "mouseout": {"state": {"target": ["0", "1", "9", "11", "10", "3", "5", "6", "7", "16", "17", "20", "21", "22", "13", "18", "0", "31", "30", "33", "29", "26", "27", "28"], "time": [811, 1479, 2611, 4509, 6374, 6530, 8132, 10137, 11978, 14517, 16699, 19080, 20978, 22809, 23210, 23992, 24043, 25341, 25392, 25457, 27207, 27291, 29221, 31072]}, "edge": {"target": [], "time": []}}}, "displayed_time": "35.67", "trialTime": 36850, "trial_type": "mouselab-mdp", "trial_index": 46, "time_elapsed": 1671158, "internal_node_id": "0.0-6.0-1.0-31.0"}}, {"uniqueid": "w44177737:a21805129", "current_trial": 47, "dateTime": 1693581474442, "trialdata": {"revealed_states": [], "clicked_states": ["27", "32", "33", "31"], "num_clicks_accrued": [0, 0, 0, 0, 0, 0, 0, 0, 0, 0, 0, 0, 0], "stateRewards": ["", 2, -1, 8, -2, -16, 69, -39, -7, -13, -27, -86, 2, -2, 2, 13, -34, -16, -20, -5, 19, 81, 32, -2, -1, 2, -14, 20, 80, 58, 4, 70, 12, 73], "withholdReward": false, "trial_id": "mdp_trial_33", "block": "test", "trialIndex": 36, "score": 70.4, "costs": -5.6, "simulationMode": [null, null, null, null, null], "rewards": [-2, -1, 2, 4, 73], "path": ["0", "0", "23", "24", "25", "30", "33"], "rt": [8926, 97, 99, 97, 130], "actions": ["left", "left", "left", "down", "left"], "actionTimes": [10215, 10821, 11455, 12069, 12718], "queries": {"click": {"state": {"target": ["27", "32", "33", "31"], "time": [2260, 4371, 6281, 8228]}, "edge": {"target": [], "time": []}}, "mouseover": {"state": {"target": ["28", "27", "26", "25", "30", "32", "33", "30", "31"], "time": [1700, 1812, 2663, 2713, 2946, 3362, 4861, 6659, 6776]}, "edge": {"target": [], "time": []}}, "mouseout": {"state": {"target": ["0", "28", "27", "27", "26", "25", "30", "32", "33", "30", "31"], "time": [1642, 1730, 2485, 2647, 2697, 2830, 3079, 4585, 6643, 6693, 8924]}, "edge": {"target": [], "time": []}}}, "displayed_time": "15.29", "trialTime": 16587, "trial_type": "mouselab-mdp", "trial_index": 47, "time_elapsed": 1688045, "internal_node_id": "0.0-6.0-1.0-32.0"}}, {"uniqueid": "w44177737:a21805129", "current_trial": 48, "dateTime": 1693581491380, "trialdata": {"revealed_states": [], "clicked_states": ["9", "6"], "num_clicks_accrued": [0, 0, 0, 0, 0, 0, 0, 0, 0, 0, 0, 0, 0], "stateRewards": ["", -1, -1, 4, -16, -75, 81, -51, -7, -84, 73, -30, -2, 1, -3, -16, -77, 33, 14, 1, 45, 87, -66, 2, 2, -5, -7, -19, -17, 79, -3, 8, 49, 47], "withholdReward": false, "trial_id": "mdp_trial_34", "block": "test", "trialIndex": 37, "score": 64.2, "costs": -2.8, "simulationMode": [null, null, null, null, null], "rewards": [-1, -1, 4, -16, 81], "path": ["0", "0", "1", "2", "3", "4", "6"], "rt": [7296, 464, 564, 422, 189], "actions": ["up", "up", "up", "right", "right"], "actionTimes": [9000, 9990, 11074, 12014, 12713], "queries": {"click": {"state": {"target": ["9", "6"], "time": [2486, 4424]}, "edge": {"target": [], "time": []}}, "mouseover": {"state": {"target": ["10", "8", "9", "4", "6", "7"], "time": [1984, 2035, 2167, 3065, 3630, 4930]}, "edge": {"target": [], "time": []}}, "mouseout": {"state": {"target": ["0", "10", "8", "9", "4", "6", "7", "0"], "time": [1332, 1999, 2081, 2704, 3114, 4830, 6881, 14671]}, "edge": {"target": [], "time": []}}}, "displayed_time": "15.71", "trialTime": 16645, "trial_type": "mouselab-mdp", "trial_index": 48, "time_elapsed": 1704985, "internal_node_id": "0.0-6.0-1.0-33.0"}}, {"uniqueid": "w44177737:a21805129", "current_trial": 49, "dateTime": 1693581510198, "trialdata": {"revealed_states": [], "clicked_states": ["32", "33", "31", "10", "11"], "num_clicks_accrued": [0, 0, 0, 0, 0, 0, 0, 0, 0, 0, 0, 0, 0], "stateRewards": ["", -2, 1, -7, 9, 8, 25, 61, -7, -17, 69, -81, 1, 4, -4, -11, 16, 67, 44, 3, 6, -45, -54, -2, 3, 6, -11, -15, 32, -47, 3, -39, -6, -88], "withholdReward": false, "trial_id": "mdp_trial_35", "block": "test", "trialIndex": 38, "score": 47, "costs": -7, "simulationMode": [null, null, null, null, null], "rewards": [-2, 1, -7, -7, 69], "path": ["0", "0", "1", "2", "3", "8", "10"], "rt": [12306, 106, 106, 46, 479], "actions": ["up", "up", "up", "left", "down"], "actionTimes": [13805, 14426, 15042, 15598, 16581], "queries": {"click": {"state": {"target": ["32", "33", "31", "10", "11"], "time": [2430, 4369, 6371, 8556, 11174]}, "edge": {"target": [], "time": []}}, "mouseover": {"state": {"target": ["31", "30", "32", "33", "30", "31", "25", "26", "27", "8", "4", "7", "10", "11", "9"], "time": [1916, 2014, 2147, 2946, 4761, 4882, 6843, 6892, 7009, 7126, 7725, 7908, 8245, 9106, 11621]}, "edge": {"target": [], "time": []}}, "mouseout": {"state": {"target": ["0", "31", "30", "32", "33", "30", "31", "25", "26", "27", "8", "4", "7", "10", "11", "9", "8", "23"], "time": [1846, 1963, 2030, 2879, 4745, 4827, 6814, 6876, 6960, 7026, 7176, 7742, 7924, 8957, 11505, 18026, 18065, 18165]}, "edge": {"target": [], "time": []}}}, "displayed_time": "17.10", "trialTime": 18540, "trial_type": "mouselab-mdp", "trial_index": 49, "time_elapsed": 1723802, "internal_node_id": "0.0-6.0-1.0-34.0"}}, {"uniqueid": "w44177737:a21805129", "current_trial": 50, "dateTime": 1693581537542, "trialdata": {"revealed_states": [], "clicked_states": ["5", "6", "16", "17", "20", "21", "22", "31", "32", "33"], "num_clicks_accrued": [0, 0, 0, 0, 0, 0, 0, 0, 0, 0, 0, 0, 0], "stateRewards": ["", -2, -2, -7, -13, -10, 49, -68, -1, 84, 70, 88, 1, 4, 4, 12, -57, 25, 30, 8, -1, -77, 57, 2, 3, 2, 3, -18, -80, 23, -15, -41, 70, 11], "withholdReward": false, "trial_id": "mdp_trial_36", "block": "test", "trialIndex": 39, "score": 48, "costs": -14.000000000000002, "simulationMode": [null, null, null, null, null], "rewards": [2, 3, 2, -15, 70], "path": ["0", "0", "23", "24", "25", "30", "32"], "rt": [20504, 476, 494, 368, 160], "actions": ["left", "left", "left", "down", "down"], "actionTimes": [22344, 23335, 24336, 25209, 25883], "queries": {"click": {"state": {"target": ["5", "6", "16", "17", "20", "21", "22", "31", "32", "33"], "time": [2750, 4684, 6616, 8537, 10502, 12407, 14340, 16248, 18119, 20258]}, "edge": {"target": [], "time": []}}, "mouseover": {"state": {"target": ["1", "2", "3", "5", "6", "16", "17", "20", "21", "22", "31", "32", "33", "30"], "time": [2157, 2178, 2209, 2425, 3208, 5206, 7289, 9254, 11102, 12916, 15215, 16879, 18728, 20726]}, "edge": {"target": [], "time": []}}, "mouseout": {"state": {"target": ["23", "0", "1", "2", "3", "5", "5", "6", "16", "17", "17", "20", "21", "22", "31", "32", "33", "30"], "time": [1129, 2140, 2176, 2193, 2243, 2963, 3126, 5174, 7023, 8748, 8937, 10952, 12800, 14751, 16697, 18495, 20711, 20744]}, "edge": {"target": [], "time": []}}}, "displayed_time": "26.39", "trialTime": 27049, "trial_type": "mouselab-mdp", "trial_index": 50, "time_elapsed": 1751147, "internal_node_id": "0.0-6.0-1.0-35.0"}}, {"uniqueid": "w44177737:a21805129", "current_trial": 51, "dateTime": 1693581553664, "trialdata": {"revealed_states": [], "clicked_states": ["27", "28", "29"], "num_clicks_accrued": [0, 0, 0, 0, 0, 0, 0, 0, 0, 0, 0, 0, 0], "stateRewards": ["", 1, 1, 7, -11, 80, -20, -53, -14, 3, 31, 27, 2, -1, -8, -10, 33, 41, 86, 9, 78, -37, -13, -1, -2, -6, -8, -80, 75, 4, -16, -49, -74, 24], "withholdReward": false, "trial_id": "mdp_trial_37", "block": "test", "trialIndex": 40, "score": 53.8, "costs": -4.199999999999999, "simulationMode": [null, null, null, null, null], "rewards": [-1, -2, -6, -8, 75], "path": ["0", "0", "23", "24", "25", "26", "28"], "rt": [6969, 232, 182, 168, 154], "actions": ["left", "left", "left", "up", "right"], "actionTimes": [8335, 9075, 9774, 10462, 11129], "queries": {"click": {"state": {"target": ["27", "28", "29"], "time": [2367, 4349, 6450]}, "edge": {"target": [], "time": []}}, "mouseover": {"state": {"target": ["28", "26", "27", "28", "26", "29"], "time": [1813, 1863, 2047, 2781, 4745, 4911]}, "edge": {"target": [], "time": []}}, "mouseout": {"state": {"target": ["0", "28", "26", "27", "28", "26", "29", "28"], "time": [1787, 1847, 1965, 2715, 4729, 4778, 6927, 7010]}, "edge": {"target": [], "time": []}}}, "displayed_time": "15.37", "trialTime": 15833, "trial_type": "mouselab-mdp", "trial_index": 51, "time_elapsed": 1767269, "internal_node_id": "0.0-6.0-1.0-36.0"}}, {"uniqueid": "w44177737:a21805129", "current_trial": 52, "dateTime": 1693581580652, "trialdata": {"revealed_states": [], "clicked_states": ["9", "11", "10", "6", "5", "7", "16", "17", "14"], "num_clicks_accrued": [0, 0, 0, 0, 0, 0, 0, 0, 0, 0, 0, 0, 0], "stateRewards": ["", -1, 3, -5, -2, -13, -9, -34, -7, -81, 32, 35, -2, -2, 1, -14, -32, 81, 7, 4, 82, 56, -8, -1, 3, -8, 6, -24, -24, -53, 2, 38, 61, 54], "withholdReward": false, "trial_id": "mdp_trial_38", "block": "test", "trialIndex": 41, "score": 51.4, "costs": -12.600000000000001, "simulationMode": [null, null, null, null, null], "rewards": [-2, -2, 1, -14, 81], "path": ["0", "0", "12", "13", "14", "15", "17"], "rt": [20778, 318, 182, 303, 190], "actions": ["right", "right", "right", "up", "right"], "actionTimes": [22028, 22863, 23559, 24379, 25082], "queries": {"click": {"state": {"target": ["9", "11", "10", "6", "5", "7", "16", "17", "14"], "time": [2056, 4851, 6782, 8828, 10755, 12697, 14688, 16586, 20046]}, "edge": {"target": [], "time": []}}, "mouseover": {"state": {"target": ["1", "2", "3", "9", "11", "10", "11", "10", "4", "6", "6", "5", "4", "7", "16", "17", "20", "14"], "time": [1495, 1513, 1611, 1845, 2543, 4324, 4575, 5342, 7206, 7357, 7706, 9421, 11169, 11519, 13302, 15418, 17431, 19828]}, "edge": {"target": [], "time": []}}, "mouseout": {"state": {"target": ["23", "1", "2", "3", "9", "11", "10", "11", "10", "4", "6", "6", "5", "4", "7", "16", "17", "20"], "time": [760, 1511, 1527, 1628, 2428, 4141, 4541, 5241, 6985, 7339, 7543, 9255, 11152, 11219, 13085, 15132, 17014, 19029]}, "edge": {"target": [], "time": []}}}, "displayed_time": "25.59", "trialTime": 26697, "trial_type": "mouselab-mdp", "trial_index": 52, "time_elapsed": 1794256, "internal_node_id": "0.0-6.0-1.0-37.0"}}, {"uniqueid": "w44177737:a21805129", "current_trial": 53, "dateTime": 1693581597344, "trialdata": {"revealed_states": [], "clicked_states": [], "num_clicks_accrued": [0, 0, 0, 0, 0, 0, 0, 0, 0, 0, 0, 0, 0], "stateRewards": ["", 2, 4, 7, -6, -76, -81, 2, 5, -66, -3, 36, -2, -4, 6, -2, -69, 4, -49, -6, 67, 38, -67, 2, 1, 1, 6, -68, -21, 52, -16, -16, 6, -70], "withholdReward": false, "trial_id": "mdp_trial_39", "block": "test", "trialIndex": 42, "score": -58, "costs": 0, "simulationMode": [null, null, null, null, null], "rewards": [2, 1, 1, 6, -68], "path": ["0", "0", "23", "24", "25", "26", "27"], "rt": [6100, 178, 691, 142, 324], "actions": ["left", "left", "left", "up", "up"], "actionTimes": [7669, 8365, 9561, 10211, 11042], "queries": {"click": {"state": {"target": [], "time": []}, "edge": {"target": [], "time": []}}, "mouseover": {"state": {"target": ["28", "27", "27", "29", "25", "31"], "time": [2425, 2443, 2926, 4430, 6505, 6554]}, "edge": {"target": [], "time": []}}, "mouseout": {"state": {"target": ["14", "13", "0", "28", "27", "27", "29", "25", "31"], "time": [725, 759, 2390, 2441, 2473, 2973, 6488, 6520, 6570]}, "edge": {"target": [], "time": []}}}, "displayed_time": "15.57", "trialTime": 16392, "trial_type": "mouselab-mdp", "trial_index": 53, "time_elapsed": 1810948, "internal_node_id": "0.0-6.0-1.0-38.0"}}, {"uniqueid": "w44177737:a21805129", "current_trial": 54, "dateTime": 1693581626935, "trialdata": {"revealed_states": [], "clicked_states": ["32", "33", "31", "29", "28", "27", "21", "20", "22", "17", "16"], "num_clicks_accrued": [0, 0, 0, 0, 0, 0, 0, 0, 0, 0, 0, 0, 0], "stateRewards": ["", -1, 1, -1, 2, 19, 85, -18, 2, -3, -26, 36, 2, 4, 7, -9, -18, 70, 72, -5, 35, -20, -28, 1, -2, -4, -3, -59, -11, -63, -2, -72, 59, -69], "withholdReward": false, "trial_id": "mdp_trial_40", "block": "test", "trialIndex": 43, "score": 58.599999999999994, "costs": -15.400000000000002, "simulationMode": [null, null, null, null, null], "rewards": [2, 4, 7, -9, 70], "path": ["0", "0", "12", "13", "14", "15", "17"], "rt": [23846, 109, 131, 297, 144], "actions": ["right", "right", "right", "up", "right"], "actionTimes": [25190, 25815, 26454, 27268, 27931], "queries": {"click": {"state": {"target": ["32", "33", "31", "29", "28", "27", "21", "20", "22", "17", "16"], "time": [2112, 4083, 6140, 8166, 10153, 12147, 15260, 17250, 19312, 21315, 23276]}, "edge": {"target": [], "time": []}}, "mouseover": {"state": {"target": ["32", "33", "30", "31", "25", "29", "26", "28", "27", "1", "13", "19", "21", "20", "19", "22", "22", "14", "17", "16"], "time": [1792, 2559, 4507, 4674, 6774, 6855, 8621, 8753, 10657, 12600, 12684, 13466, 15003, 16580, 17612, 17630, 18028, 19710, 19794, 21875]}, "edge": {"target": [], "time": []}}, "mouseout": {"state": {"target": ["0", "32", "33", "30", "31", "25", "29", "26", "28", "27", "1", "13", "19", "21", "20", "19", "22", "22", "14", "17"], "time": [1563, 2493, 4491, 4557, 6739, 6789, 8605, 8704, 10585, 12363, 12617, 12733, 13582, 15737, 17595, 17629, 17646, 19678, 19727, 21742]}, "edge": {"target": [], "time": []}}}, "displayed_time": "28.44", "trialTime": 29299, "trial_type": "mouselab-mdp", "trial_index": 54, "time_elapsed": 1840539, "internal_node_id": "0.0-6.0-1.0-39.0"}}, {"uniqueid": "w44177737:a21805129", "current_trial": 55, "dateTime": 1693581680802, "trialdata": {"rt": 53860, "response": {"Q0": "$-2 to $2", "Q1": "$-16 to $16", "Q2": "$-88 to $88", "Q3": "The cost for clicking on nodes varied between nodes.", "Q4": "Slightly motivated"}, "question_order": [0, 1, 2, 3, 4], "trial_id": "final_quiz_control", "trial_type": "survey-multi-choice", "trial_index": 55, "time_elapsed": 1894406, "internal_node_id": "0.0-6.0-2.0"}}, {"uniqueid": "w44177737:a21805129", "current_trial": 56, "dateTime": 1693581870994, "trialdata": {"rt": 189993, "response": {"Q0": "I thought it was better to inspect the farthest nodes because that was where you could earn the most cash or lose the most cash. The nodes closer to the spider felt inconsequential as they usually did not reward a large amount of cash or resulted in a large loss.", "Q1": "I used to look at more nodes closer to the spider in the beginning or tried random nodes. Later on I tried to find numbers that were in the 80s or 70s and stopped my search then and there.", "Q2": "It was difficult as you have to balance how much money you are losing to inspect nodes and hoping to find one that will pay off. If you can't find one that will pay a large amount sometimes you will have to cut your losses and go for a node path that gives less cash."}, "trial_id": "self_report_control", "trial_type": "survey-text", "trial_index": 56, "time_elapsed": 2084599, "internal_node_id": "0.0-6.0-3.0"}}, {"uniqueid": "w44177737:a21805129", "current_trial": 57, "dateTime": 1693581894768, "trialdata": {"rt": 23732, "response": {"gender": "female", "age": "30", "colorblind": "0", "effort": "0"}, "trial_type": "survey-html-form", "trial_index": 57, "time_elapsed": 2108373, "internal_node_id": "0.0-6.0-4.0"}}, {"uniqueid": "w44177737:a21805129", "current_trial": 58, "dateTime": 1693582011913, "trialdata": {"rt": 117138, "response": {"Q0": "No.", "Q1": "I felt like the spider was familiar but the game felt completely different to what I played before. The web felt bigger here and I don't remember a node inspector.", "Q2": ""}, "trial_type": "survey-text", "trial_index": 58, "time_elapsed": 2225517, "internal_node_id": "0.0-6.0-5.0"}}, {"uniqueid": "w44177737:a21805129", "current_trial": 59, "dateTime": 1693582043444, "trialdata": {"rt": 31524, "stimulus": "<h1>Completion Code Instructions (1/2)</h1>\n<br><br><br><br>\nYou have reached the end of the experiment! The completion code consists of two parts: (1) a code with 2 characters (2) a code with 6 characters. On this page, you will receive the second part of the code. The first part of the completion code will be on the next page.\n<br><br>\nThe second part of your completion code is: <b>EWEK22</b>\n<br><br>\nPlease note this down. Then, press 'Next' in order to find the first part of your completion code. Once the data has been saved, you will receive this code either in this window or in the original browser window where you started the experiment.\n <br><br>\n<h2 style='color: red;'>Note: this is <strong>NOT</strong> the full completion code. Copy this down and click 'Next' to get the full completion code on the next page.</h2>", "response": 0, "trial_type": "html-button-response", "trial_index": 59, "time_elapsed": 2257049, "internal_node_id": "0.0-6.0-6.0"}}, {"uniqueid": "w44177737:a21805129", "current_trial": 60, "dateTime": 1693582044465, "trialdata": {"success": true, "trial_type": "fullscreen", "trial_index": 60, "time_elapsed": 2258070, "internal_node_id": "0.0-7.0"}}], "questiondata": {"params": {"CODE": "C6DMOQA6", "MIN_TIME": 14, "inspectCost": 1, "startTime": "Fri Sep 01 2023 10:49:46 GMT-0400 (Eastern Daylight Time)", "bonusRate": 0.002, "variance": "1_2_4_8_44", "branching": "31123"}, "final_score": 2080.4}, "eventdata": [{"eventtype": "initialized", "value": null, "timestamp": 1693579785739, "interval": 0}, {"eventtype": "window_resize", "value": [1028, 744], "timestamp": 1693579785739, "interval": 0}, {"eventtype": "window_resize", "value": [1028, 744], "timestamp": 1693579785979, "interval": 240}, {"eventtype": "window_resize", "value": [1536, 864], "timestamp": 1693579788406, "interval": 2427}, {"eventtype": "focus", "value": "off", "timestamp": 1693580361912, "interval": 573506}, {"eventtype": "focus", "value": "on", "timestamp": 1693580361912, "interval": 0}, {"eventtype": "window_resize", "value": [1028, 744], "timestamp": 1693580362123, "interval": 211}, {"eventtype": "window_resize", "value": [1536, 864], "timestamp": 1693580363855, "interval": 1732}, {"eventtype": "window_resize", "value": [1028, 744], "timestamp": 1693582043689, "interval": 1679834}], "useragent": "Mozilla/5.0 (Windows NT 10.0; Win64; x64) AppleWebKit/537.36 (KHTML, like Gecko) Chrome/116.0.0.0 Safari/537.36", "mode": "live", "id": "w44177737:a21805129", "status": "user data saved", "Beginhit": "2023-09-01 14:49:43.782851", "Beginexp": "2023-09-01 14:49:48.80144", "Endhit": "2023-09-01 15:27:24.338917", "psiturkStatus": 3, "browser": "<redacted>", "platform": "windows", "language": "en-US"}