{"condition": 0, "counterbalance": 0, "assignmentId": "a37677642", "workerId": "w14584874", "hitId": "h47257919", "currenttrial": 54, "bonus": 0, "data": [{"uniqueid": "w14584874:a37677642", "current_trial": 0, "dateTime": 1693480724358, "trialdata": {"success": true, "trial_type": "fullscreen", "trial_index": 0, "time_elapsed": 7968, "internal_node_id": "0.0-0.0"}}, {"uniqueid": "w14584874:a37677642", "current_trial": 1, "dateTime": 1693480759106, "trialdata": {"view_history": [{"page_index": 0, "viewing_time": 34737}], "rt": 34739, "trial_id": "exp_instructions_control", "trial_type": "instructions", "trial_index": 1, "time_elapsed": 42716, "internal_node_id": "0.0-1.0"}}, {"uniqueid": "w14584874:a37677642", "current_trial": 2, "dateTime": 1693481108995, "trialdata": {"view_history": [{"page_index": 0, "viewing_time": 127259}, {"page_index": 1, "viewing_time": 747}, {"page_index": 0, "viewing_time": 1049}, {"page_index": 1, "viewing_time": 115093}, {"page_index": 2, "viewing_time": 53354}, {"page_index": 3, "viewing_time": 52383}], "rt": 349886, "trial_id": "mouselab_instructions_1_control", "trial_type": "instructions", "trial_index": 2, "time_elapsed": 392606, "internal_node_id": "0.0-2.0-1.0"}}, {"uniqueid": "w14584874:a37677642", "current_trial": 3, "dateTime": 1693481136036, "trialdata": {"revealed_states": [], "clicked_states": [], "num_clicks_accrued": [0, 0, 0, 0, 0, 0, 0, 0, 0, 0, 0, 0, 0], "stateRewards": ["", 10, -10, -10, -10, -10, -10, 10, 10, -10, -10, 10, 10, -10, 10, 10, -10, 10, 10, 10, 10, 10, 10, 10, 10, -10, 10, -10, -10, -10, -10, -10, 10, 10], "withholdReward": false, "trial_id": "practice_1", "block": "test", "trialIndex": 0, "score": 13.5, "costs": 0, "simulationMode": [null, null, null, null, null], "rewards": [10, -10, 10, 10, -10], "path": ["0", "0", "12", "13", "14", "15", "16"], "rt": [1281, 745, 1660, 240, 447], "actions": ["right", "right", "right", "up", "up"], "actionTimes": [6547, 7810, 9990, 10758, 11738], "queries": {"click": {"state": {"target": [], "time": []}, "edge": {"target": [], "time": []}}, "mouseover": {"state": {"target": [], "time": []}, "edge": {"target": [], "time": []}}, "mouseout": {"state": {"target": ["1", "0", "0"], "time": [3738, 15944, 21999]}, "edge": {"target": [], "time": []}}}, "displayed_time": "12.28", "trialTime": 25926, "trial_type": "mouselab-mdp", "trial_index": 3, "time_elapsed": 419645, "internal_node_id": "0.0-2.0-2.0-0.0"}}, {"uniqueid": "w14584874:a37677642", "current_trial": 4, "dateTime": 1693481154134, "trialdata": {"revealed_states": [], "clicked_states": ["1"], "num_clicks_accrued": [0, 0, 0, 0, 0, 0, 0, 0, 0, 0, 0, 0, 0], "stateRewards": ["", 10, -10, -10, 10, 10, 10, -10, -10, -10, -10, 10, 10, -10, -10, 10, -10, -10, -10, -10, -10, 10, 10, -10, 10, -10, -10, 10, -10, 10, -10, -10, 10, 10], "withholdReward": false, "trial_id": "practice_2", "block": "test", "trialIndex": 1, "score": 13, "costs": -0.5, "simulationMode": [null, null, null, null, null], "rewards": [10, -10, -10, 10, 10], "path": ["0", "0", "1", "2", "3", "4", "6"], "rt": [3833, 72, 915, 539, 606], "actions": ["up", "up", "up", "right", "right"], "actionTimes": [7097, 7683, 9111, 10173, 11320], "queries": {"click": {"state": {"target": ["1"], "time": [5388]}, "edge": {"target": [], "time": []}}, "mouseover": {"state": {"target": ["12", "1"], "time": [4193, 4775]}, "edge": {"target": [], "time": []}}, "mouseout": {"state": {"target": ["0", "12"], "time": [3893, 4310]}, "edge": {"target": [], "time": []}}}, "displayed_time": "11.83", "trialTime": 17651, "trial_type": "mouselab-mdp", "trial_index": 4, "time_elapsed": 437744, "internal_node_id": "0.0-2.0-2.0-1.0"}}, {"uniqueid": "w14584874:a37677642", "current_trial": 5, "dateTime": 1693481210549, "trialdata": {"view_history": [{"page_index": 0, "viewing_time": 44606}, {"page_index": 1, "viewing_time": 11802}], "rt": 56408, "trial_id": "mouselab_instructions_2_control", "trial_type": "instructions", "trial_index": 5, "time_elapsed": 494160, "internal_node_id": "0.0-2.0-3.0"}}, {"uniqueid": "w14584874:a37677642", "current_trial": 6, "dateTime": 1693481246748, "trialdata": {"rt": 36191, "response": {"Q0": "The cost for clicking on nodes may vary between nodes.", "Q1": "The better I perform the higher my bonus will be.", "Q2": "No, the amount of cash at each node of the web may be different each time.", "Q3": "To get the highest total score.", "Q4": "Only before moving the spider.", "Q5": "3 seconds"}, "question_order": [0, 1, 2, 3, 4, 5], "correct": {"Q0": "The cost for clicking on nodes may vary between nodes.", "Q1": "The better I perform the higher my bonus will be.", "Q2": "No, the amount of cash at each node of the web may be different each time.", "Q3": "To get the highest total score.", "Q4": "Only before moving the spider.", "Q5": "3 seconds"}, "trial_id": "mouselab_quiz_control", "trial_type": "survey-multi-choice", "trial_index": 6, "time_elapsed": 530359, "internal_node_id": "0.0-2.0-4.0"}}, {"uniqueid": "w14584874:a37677642", "current_trial": 7, "dateTime": 1693481255172, "trialdata": {"rt": 8413, "response": {"Q0": "No"}, "question_order": [0], "trial_id": "repeat_check", "trial_type": "survey-multi-choice", "trial_index": 7, "time_elapsed": 538782, "internal_node_id": "0.0-4.0-0.0"}}, {"uniqueid": "w14584874:a37677642", "current_trial": 8, "dateTime": 1693481282076, "trialdata": {"rt": 26896, "stimulus": "\n<h1> Get ready to start the game! </h1>\n\nThank you for reading the instructions. Get ready start with the 40 rounds of this game.\n<br><br>\nIf you need to take a break, feel free to take one after the end of a round, before continuing to the next one.\n<br><br>\nRemember, the more money the spider gets, the bigger your bonus will be!\n<br><br>\n<div style='text-align: center;'>Press <code>space</code> to begin.</div>\n\n<br><br>\n(If, at any point, the <code>space</code> key does not take you to the next page, click once on the text and try again.)", "response": " ", "trial_id": "mdp_ready", "trial_type": "html-keyboard-response", "trial_index": 8, "time_elapsed": 565687, "internal_node_id": "0.0-6.0-0.0"}}, {"uniqueid": "w14584874:a37677642", "current_trial": 9, "dateTime": 1693481305371, "trialdata": {"revealed_states": [], "clicked_states": [], "num_clicks_accrued": [0, 0, 0, 0, 0, 0, 0, 0, 0, 0, 0, 0, 0], "stateRewards": ["", 2, 3, -3, 4, 72, -28, 34, -12, 57, -64, -15, 2, 1, -4, -15, 2, 49, 31, -1, -42, -58, 31, -2, 1, -2, -13, -75, -19, -22, -6, 61, 10, -56], "withholdReward": false, "trial_id": "mdp_trial_1", "block": "test", "trialIndex": 2, "score": -25, "costs": 0, "simulationMode": [null, null, null, null, null], "rewards": [2, 3, -3, -12, -15], "path": ["0", "0", "1", "2", "3", "8", "11"], "rt": [695, 337, 200, 100, 102], "actions": ["up", "up", "up", "left", "left"], "actionTimes": [3726, 4595, 5342, 5941, 6576], "queries": {"click": {"state": {"target": [], "time": []}, "edge": {"target": [], "time": []}}, "mouseover": {"state": {"target": [], "time": []}, "edge": {"target": [], "time": []}}, "mouseout": {"state": {"target": ["0"], "time": [12504]}, "edge": {"target": [], "time": []}}}, "displayed_time": "17.04", "trialTime": 22696, "trial_type": "mouselab-mdp", "trial_index": 9, "time_elapsed": 588981, "internal_node_id": "0.0-6.0-1.0-0.0"}}, {"uniqueid": "w14584874:a37677642", "current_trial": 10, "dateTime": 1693481326656, "trialdata": {"revealed_states": [], "clicked_states": ["1"], "num_clicks_accrued": [0, 0, 0, 0, 0, 0, 0, 0, 0, 0, 0, 0, 0], "stateRewards": ["", -1, 2, 5, -6, 13, -64, -47, 8, -79, -80, -33, 1, 2, -2, -16, 56, -71, -10, 3, 29, 44, 85, -1, 4, 5, 4, -36, -56, 19, 8, 52, -13, -2], "withholdReward": false, "trial_id": "mdp_trial_2", "block": "test", "trialIndex": 3, "score": 46.6, "costs": -1.4, "simulationMode": [null, null, null, null, null, null], "rewards": [1, 2, -2, 3, 44], "path": ["0", "0", "12", "13", "14", "19", "21"], "rt": [1630, 549, 320, 818, 296, 195], "actions": ["up", "right", "right", "right", "down", "down"], "actionTimes": [4230, 4787, 5611, 6974, 7795, 8519], "queries": {"click": {"state": {"target": ["1"], "time": [3642]}, "edge": {"target": [], "time": []}}, "mouseover": {"state": {"target": ["1"], "time": [3087]}, "edge": {"target": [], "time": []}}, "mouseout": {"state": {"target": ["0", "1", "13", "19", "19"], "time": [2617, 9872, 10221, 11906, 18156]}, "edge": {"target": [], "time": []}}}, "displayed_time": "16.61", "trialTime": 20753, "trial_type": "mouselab-mdp", "trial_index": 10, "time_elapsed": 610265, "internal_node_id": "0.0-6.0-1.0-1.0"}}, {"uniqueid": "w14584874:a37677642", "current_trial": 11, "dateTime": 1693481345351, "trialdata": {"revealed_states": [], "clicked_states": ["23"], "num_clicks_accrued": [0, 0, 0, 0, 0, 0, 0, 0, 0, 0, 0, 0, 0], "stateRewards": ["", -1, 4, -8, 12, 14, 69, -8, 5, -72, -14, 56, -1, -1, -1, 9, 67, 19, 11, -9, -88, -58, 3, 2, -4, -8, 4, 62, 77, -74, 5, -31, 65, 88], "withholdReward": false, "trial_id": "mdp_trial_3", "block": "test", "trialIndex": 4, "score": 58.6, "costs": -1.4, "simulationMode": [null, null, null, null, null, null], "rewards": [2, -4, -8, 5, 65], "path": ["0", "0", "23", "24", "25", "30", "32"], "rt": [2245, 750, 264, 659, 52, 1290], "actions": ["left", "left", "left", "left", "down", "down"], "actionTimes": [4463, 5224, 6005, 7172, 7742, 9546], "queries": {"click": {"state": {"target": ["23"], "time": [3652]}, "edge": {"target": [], "time": []}}, "mouseover": {"state": {"target": ["23", "23"], "time": [2716, 3208]}, "edge": {"target": [], "time": []}}, "mouseout": {"state": {"target": ["0", "23", "23"], "time": [1364, 2807, 11061]}, "edge": {"target": [], "time": []}}}, "displayed_time": "16.22", "trialTime": 18089, "trial_type": "mouselab-mdp", "trial_index": 11, "time_elapsed": 628961, "internal_node_id": "0.0-6.0-1.0-2.0"}}, {"uniqueid": "w14584874:a37677642", "current_trial": 12, "dateTime": 1693481370523, "trialdata": {"revealed_states": [], "clicked_states": ["1"], "num_clicks_accrued": [0, 0, 0, 0, 0, 0, 0, 0, 0, 0, 0, 0, 0], "stateRewards": ["", 2, -1, -4, -13, 74, 77, 3, 2, -43, -2, -11, 2, 3, 7, 11, -26, -29, -33, -3, -3, -13, -3, 1, 3, -7, 14, -59, 33, 9, -5, 34, 79, 68], "withholdReward": false, "trial_id": "mdp_trial_4", "block": "test", "trialIndex": 5, "score": 59.6, "costs": -1.4, "simulationMode": [null, null, null, null, null, null], "rewards": [2, -1, -4, -13, 77], "path": ["0", "0", "1", "2", "3", "4", "6"], "rt": [2043, 668, 286, 3792, 347, 364], "actions": ["up", "up", "up", "up", "right", "right"], "actionTimes": [7938, 8610, 9409, 13752, 14654, 15536], "queries": {"click": {"state": {"target": ["1"], "time": [7493]}, "edge": {"target": [], "time": []}}, "mouseover": {"state": {"target": ["1"], "time": [6872]}, "edge": {"target": [], "time": []}}, "mouseout": {"state": {"target": ["1", "3", "3", "2"], "time": [11155, 12173, 16747, 21125]}, "edge": {"target": [], "time": []}}}, "displayed_time": "19.91", "trialTime": 24436, "trial_type": "mouselab-mdp", "trial_index": 12, "time_elapsed": 654133, "internal_node_id": "0.0-6.0-1.0-3.0"}}, {"uniqueid": "w14584874:a37677642", "current_trial": 13, "dateTime": 1693481389587, "trialdata": {"revealed_states": [], "clicked_states": ["12"], "num_clicks_accrued": [0, 0, 0, 0, 0, 0, 0, 0, 0, 0, 0, 0, 0], "stateRewards": ["", -1, 3, -4, -14, 78, 67, 2, 13, -32, 28, 39, -2, 1, -4, -4, -4, -42, -86, 11, 64, -29, -32, -1, -4, 2, -7, 5, 68, -61, 2, -21, 85, 50], "withholdReward": false, "trial_id": "mdp_trial_5", "block": "test", "trialIndex": 6, "score": -96.4, "costs": -1.4, "simulationMode": [null, null, null, null, null, null], "rewards": [-2, 1, -4, -4, -86], "path": ["0", "0", "12", "13", "14", "15", "18"], "rt": [2474, 628, 404, 441, 31, 184], "actions": ["right", "right", "right", "right", "up", "left"], "actionTimes": [4717, 5355, 6268, 7231, 7764, 8463], "queries": {"click": {"state": {"target": ["12"], "time": [4151]}, "edge": {"target": [], "time": []}}, "mouseover": {"state": {"target": ["12"], "time": [3294]}, "edge": {"target": [], "time": []}}, "mouseout": {"state": {"target": ["0", "12"], "time": [2764, 10069]}, "edge": {"target": [], "time": []}}}, "displayed_time": "16.26", "trialTime": 18314, "trial_type": "mouselab-mdp", "trial_index": 13, "time_elapsed": 673197, "internal_node_id": "0.0-6.0-1.0-4.0"}}, {"uniqueid": "w14584874:a37677642", "current_trial": 14, "dateTime": 1693481410751, "trialdata": {"revealed_states": [], "clicked_states": ["1"], "num_clicks_accrued": [0, 0, 0, 0, 0, 0, 0, 0, 0, 0, 0, 0, 0], "stateRewards": ["", 1, -2, -2, 10, -31, -77, 35, 9, -47, 8, 48, -2, 1, -4, -3, -26, -50, 43, -11, 76, -38, 17, 1, -1, 6, 10, 15, -9, 12, -8, 85, 11, -55], "withholdReward": false, "trial_id": "mdp_trial_6", "block": "test", "trialIndex": 7, "score": -55.4, "costs": -1.4, "simulationMode": [null, null, null, null, null], "rewards": [-2, 1, -4, -11, -38], "path": ["0", "0", "12", "13", "14", "19", "21"], "rt": [3213, 260, 794, 512, 423], "actions": ["right", "right", "right", "down", "down"], "actionTimes": [6149, 6943, 8272, 9387, 10342], "queries": {"click": {"state": {"target": ["1"], "time": [4079]}, "edge": {"target": [], "time": []}}, "mouseover": {"state": {"target": ["1", "12"], "time": [3430, 5015]}, "edge": {"target": [], "time": []}}, "mouseout": {"state": {"target": ["12", "1", "1", "12"], "time": [1792, 4277, 4644, 11932]}, "edge": {"target": [], "time": []}}}, "displayed_time": "16.95", "trialTime": 20448, "trial_type": "mouselab-mdp", "trial_index": 14, "time_elapsed": 694360, "internal_node_id": "0.0-6.0-1.0-5.0"}}, {"uniqueid": "w14584874:a37677642", "current_trial": 15, "dateTime": 1693481444674, "trialdata": {"revealed_states": [], "clicked_states": [], "num_clicks_accrued": [0, 0, 0, 0, 0, 0, 0, 0, 0, 0, 0, 0, 0], "stateRewards": ["", 2, -1, 5, 8, 75, -35, -77, 1, -9, -81, -58, 1, 2, -7, 5, 77, -16, 19, 16, -10, -18, 40, -2, 3, 7, -5, 64, 1, -62, 10, 27, 10, 65], "withholdReward": false, "trial_id": "mdp_trial_7", "block": "test", "trialIndex": 8, "score": -21, "costs": 0, "simulationMode": [null, null, null, null, null], "rewards": [2, -1, 5, 8, -35], "path": ["0", "0", "1", "2", "3", "4", "6"], "rt": [3217, 2818, 54, 2000, 188], "actions": ["up", "up", "up", "right", "right"], "actionTimes": [18535, 25624, 26182, 28693, 29430], "queries": {"click": {"state": {"target": [], "time": []}, "edge": {"target": [], "time": []}}, "mouseover": {"state": {"target": ["0", "0"], "time": [15349, 18532]}, "edge": {"target": [], "time": []}}, "mouseout": {"state": {"target": ["0", "0"], "time": [15621, 18563]}, "edge": {"target": [], "time": []}}}, "displayed_time": "29.95", "trialTime": 33315, "trial_type": "mouselab-mdp", "trial_index": 15, "time_elapsed": 728283, "internal_node_id": "0.0-6.0-1.0-6.0"}}, {"uniqueid": "w14584874:a37677642", "current_trial": 16, "dateTime": 1693481463779, "trialdata": {"revealed_states": [], "clicked_states": ["23"], "num_clicks_accrued": [0, 0, 0, 0, 0, 0, 0, 0, 0, 0, 0, 0, 0], "stateRewards": ["", 1, -3, -6, -5, 47, 80, -29, 11, -71, 10, -29, -2, 3, -6, 12, 2, -78, -6, 8, 34, -16, -5, -1, 3, 3, -13, 84, -36, -62, -3, -27, 66, 15], "withholdReward": false, "trial_id": "mdp_trial_8", "block": "test", "trialIndex": 9, "score": -45.4, "costs": -1.4, "simulationMode": [null, null, null, null, null], "rewards": [-1, 3, 3, -13, -36], "path": ["0", "0", "23", "24", "25", "26", "28"], "rt": [3078, 386, 607, 1188, 590], "actions": ["left", "left", "left", "up", "right"], "actionTimes": [5689, 6601, 7726, 9426, 10567], "queries": {"click": {"state": {"target": ["23"], "time": [4030]}, "edge": {"target": [], "time": []}}, "mouseover": {"state": {"target": ["0", "23", "24"], "time": [3114, 3571, 5336]}, "edge": {"target": [], "time": []}}, "mouseout": {"state": {"target": ["0", "1", "0", "23", "23", "24"], "time": [1202, 1671, 3131, 4230, 5329, 5363]}, "edge": {"target": [], "time": []}}}, "displayed_time": "16.63", "trialTime": 18030, "trial_type": "mouselab-mdp", "trial_index": 16, "time_elapsed": 747389, "internal_node_id": "0.0-6.0-1.0-7.0"}}, {"uniqueid": "w14584874:a37677642", "current_trial": 17, "dateTime": 1693481482925, "trialdata": {"revealed_states": [], "clicked_states": ["1"], "num_clicks_accrued": [0, 0, 0, 0, 0, 0, 0, 0, 0, 0, 0, 0, 0], "stateRewards": ["", -2, 2, 3, -7, -31, -33, 29, -8, -57, 50, -83, -1, -1, 5, 13, -23, -62, 25, 5, -66, -85, 14, 1, -2, -1, 16, 71, 33, -19, -14, 5, -43, 79], "withholdReward": false, "trial_id": "mdp_trial_9", "block": "test", "trialIndex": 10, "score": 43.6, "costs": -1.4, "simulationMode": [null, null, null, null, null, null], "rewards": [-2, 2, 3, -8, 50], "path": ["0", "0", "1", "2", "3", "8", "10"], "rt": [2368, 1738, 504, 742, 333, 164], "actions": ["up", "up", "up", "up", "left", "down"], "actionTimes": [4715, 6457, 7491, 8779, 9640, 10319], "queries": {"click": {"state": {"target": ["1"], "time": [4255]}, "edge": {"target": [], "time": []}}, "mouseover": {"state": {"target": ["1"], "time": [3621]}, "edge": {"target": [], "time": []}}, "mouseout": {"state": {"target": ["0", "1", "1"], "time": [3551, 14522, 15874]}, "edge": {"target": [], "time": []}}}, "displayed_time": "16.35", "trialTime": 18446, "trial_type": "mouselab-mdp", "trial_index": 17, "time_elapsed": 766535, "internal_node_id": "0.0-6.0-1.0-8.0"}}, {"uniqueid": "w14584874:a37677642", "current_trial": 18, "dateTime": 1693481504467, "trialdata": {"revealed_states": [], "clicked_states": ["1", "2"], "num_clicks_accrued": [0, 0, 0, 0, 0, 0, 0, 0, 0, 0, 0, 0, 0], "stateRewards": ["", -2, -1, -2, -15, 87, 57, 29, -10, 77, -80, -7, 1, -3, 6, 14, -11, 87, -59, 4, -71, 16, -11, 2, 2, -7, 2, -47, 61, 50, 14, -20, 17, 81], "withholdReward": false, "trial_id": "mdp_trial_10", "block": "test", "trialIndex": 11, "score": 34.2, "costs": -2.8, "simulationMode": [null, null, null, null, null, null], "rewards": [-2, -1, -2, -15, 57], "path": ["0", "0", "1", "2", "3", "4", "6"], "rt": [3284, 1515, 297, 1104, 717, 346], "actions": ["up", "up", "up", "up", "right", "right"], "actionTimes": [6502, 8026, 8845, 10434, 11662, 12548], "queries": {"click": {"state": {"target": ["1", "2"], "time": [4319, 6338]}, "edge": {"target": [], "time": []}}, "mouseover": {"state": {"target": ["1", "2"], "time": [3710, 4834]}, "edge": {"target": [], "time": []}}, "mouseout": {"state": {"target": ["1", "0", "1", "2", "1", "0"], "time": [2035, 3232, 4784, 18494, 18894, 18945]}, "edge": {"target": [], "time": []}}}, "displayed_time": "17.23", "trialTime": 20654, "trial_type": "mouselab-mdp", "trial_index": 18, "time_elapsed": 788077, "internal_node_id": "0.0-6.0-1.0-9.0"}}, {"uniqueid": "w14584874:a37677642", "current_trial": 19, "dateTime": 1693481523853, "trialdata": {"revealed_states": [], "clicked_states": ["25"], "num_clicks_accrued": [0, 0, 0, 0, 0, 0, 0, 0, 0, 0, 0, 0, 0], "stateRewards": ["", -2, 3, -1, 2, -72, 63, 20, -1, 62, -66, 39, -2, 3, -6, 14, 22, 47, 1, 8, -49, -1, -41, 2, 2, -6, -16, -64, -60, -34, 16, 54, 22, -7], "withholdReward": false, "trial_id": "mdp_trial_11", "block": "test", "trialIndex": 12, "score": 66.6, "costs": -1.4, "simulationMode": [null, null, null, null, null, null], "rewards": [2, 2, -6, 16, 54], "path": ["0", "0", "23", "24", "25", "30", "31"], "rt": [2637, 845, 77, 199, 90, 386], "actions": ["left", "left", "left", "left", "down", "right"], "actionTimes": [5171, 6026, 6674, 7405, 8012, 8900], "queries": {"click": {"state": {"target": ["25"], "time": [4852]}, "edge": {"target": [], "time": []}}, "mouseover": {"state": {"target": ["23", "24", "25"], "time": [3292, 3642, 4394]}, "edge": {"target": [], "time": []}}, "mouseout": {"state": {"target": ["0", "23", "24", "25", "25"], "time": [3225, 3605, 4075, 12180, 14666]}, "edge": {"target": [], "time": []}}}, "displayed_time": "16.54", "trialTime": 18599, "trial_type": "mouselab-mdp", "trial_index": 19, "time_elapsed": 807463, "internal_node_id": "0.0-6.0-1.0-10.0"}}, {"uniqueid": "w14584874:a37677642", "current_trial": 20, "dateTime": 1693481543394, "trialdata": {"revealed_states": [], "clicked_states": ["25", "26"], "num_clicks_accrued": [0, 0, 0, 0, 0, 0, 0, 0, 0, 0, 0, 0, 0], "stateRewards": ["", -1, -3, -3, 1, -38, 2, -53, -2, -1, -81, 70, -1, 1, -5, -9, 46, 15, 35, -1, -22, 38, 59, -2, 4, -8, 13, 1, -83, -43, 4, 76, 13, 48], "withholdReward": false, "trial_id": "mdp_trial_12", "block": "test", "trialIndex": 13, "score": 5.199999999999999, "costs": -2.8, "simulationMode": [null, null, null, null, null], "rewards": [-2, 4, -8, 13, 1], "path": ["0", "0", "23", "24", "25", "26", "27"], "rt": [5709, 96, 104, 215, 348], "actions": ["left", "left", "left", "up", "up"], "actionTimes": [7497, 8116, 8742, 9483, 10351], "queries": {"click": {"state": {"target": ["25", "26"], "time": [3087, 5284]}, "edge": {"target": [], "time": []}}, "mouseover": {"state": {"target": ["23", "24", "25", "25", "26"], "time": [1998, 2050, 2100, 2631, 3466]}, "edge": {"target": [], "time": []}}, "mouseout": {"state": {"target": ["24", "23", "23", "24", "25", "25", "26", "26", "24"], "time": [407, 606, 2031, 2072, 2134, 3295, 5497, 17687, 17738]}, "edge": {"target": [], "time": []}}}, "displayed_time": "15.79", "trialTime": 18739, "trial_type": "mouselab-mdp", "trial_index": 20, "time_elapsed": 827004, "internal_node_id": "0.0-6.0-1.0-11.0"}}, {"uniqueid": "w14584874:a37677642", "current_trial": 21, "dateTime": 1693481563247, "trialdata": {"revealed_states": [], "clicked_states": [], "num_clicks_accrued": [0, 0, 0, 0, 0, 0, 0, 0, 0, 0, 0, 0, 0], "stateRewards": ["", -1, 2, -6, 6, 43, 78, 78, -2, 55, -29, -17, -2, -4, 1, -15, 13, 7, -79, 8, -28, -68, 36, -1, -3, 3, -16, 84, -18, 87, 10, 32, 13, -81], "withholdReward": false, "trial_id": "mdp_trial_13", "block": "test", "trialIndex": 14, "score": -36, "costs": 0, "simulationMode": [null, null, null, null, null], "rewards": [-1, 2, -6, -2, -29], "path": ["0", "0", "1", "2", "3", "8", "10"], "rt": [2321, 931, 580, 224, 497], "actions": ["up", "up", "up", "left", "down"], "actionTimes": [6085, 7540, 8639, 9378, 10421], "queries": {"click": {"state": {"target": [], "time": []}, "edge": {"target": [], "time": []}}, "mouseover": {"state": {"target": [], "time": []}, "edge": {"target": [], "time": []}}, "mouseout": {"state": {"target": ["0"], "time": [15786]}, "edge": {"target": [], "time": []}}}, "displayed_time": "17.77", "trialTime": 19254, "trial_type": "mouselab-mdp", "trial_index": 21, "time_elapsed": 846856, "internal_node_id": "0.0-6.0-1.0-12.0"}}, {"uniqueid": "w14584874:a37677642", "current_trial": 22, "dateTime": 1693481583201, "trialdata": {"revealed_states": [], "clicked_states": ["2", "4"], "num_clicks_accrued": [0, 0, 0, 0, 0, 0, 0, 0, 0, 0, 0, 0, 0], "stateRewards": ["", -1, -3, -5, -14, -13, -47, 79, 8, -60, -64, 41, -1, 2, 3, 13, -46, 61, -79, -11, -64, -65, 23, 1, -2, 6, -14, 46, 32, 21, 7, 75, -66, 15], "withholdReward": false, "trial_id": "mdp_trial_14", "block": "test", "trialIndex": 15, "score": -63.8, "costs": -2.8, "simulationMode": [null, null, null, null, null], "rewards": [-1, -3, -5, 8, -60], "path": ["0", "0", "1", "2", "3", "8", "9"], "rt": [7037, 67, 103, 231, 765], "actions": ["up", "up", "up", "left", "up"], "actionTimes": [8972, 9537, 10155, 10896, 12190], "queries": {"click": {"state": {"target": ["2", "4"], "time": [3501, 5971]}, "edge": {"target": [], "time": []}}, "mouseover": {"state": {"target": ["1", "2", "3", "4"], "time": [2689, 2954, 4258, 5215]}, "edge": {"target": [], "time": []}}, "mouseout": {"state": {"target": ["0", "1", "2", "3", "4", "2", "1", "0"], "time": [1143, 2798, 3900, 5147, 8651, 16787, 17234, 17421]}, "edge": {"target": [], "time": []}}}, "displayed_time": "15.94", "trialTime": 19195, "trial_type": "mouselab-mdp", "trial_index": 22, "time_elapsed": 866811, "internal_node_id": "0.0-6.0-1.0-13.0"}}, {"uniqueid": "w14584874:a37677642", "current_trial": 23, "dateTime": 1693481609049, "trialdata": {"revealed_states": [], "clicked_states": ["13", "14", "15", "16"], "num_clicks_accrued": [0, 0, 0, 0, 0, 0, 0, 0, 0, 0, 0, 0, 0], "stateRewards": ["", -1, 3, 8, 9, -53, 20, -84, 2, -28, -62, -31, -1, -2, -7, 2, 51, 58, 45, -4, -17, -41, 36, 2, -2, -7, -15, 29, -54, -37, -16, -43, 65, -17], "withholdReward": false, "trial_id": "mdp_trial_15", "block": "test", "trialIndex": 16, "score": 37.4, "costs": -5.6, "simulationMode": [null, null, null, null, null], "rewards": [-1, -2, -7, 2, 51], "path": ["0", "0", "12", "13", "14", "15", "16"], "rt": [11234, 6, 71, 87, 835], "actions": ["right", "right", "right", "up", "up"], "actionTimes": [13819, 14332, 14924, 15537, 16884], "queries": {"click": {"state": {"target": ["13", "14", "15", "16"], "time": [4083, 6121, 7945, 10446]}, "edge": {"target": [], "time": []}}, "mouseover": {"state": {"target": ["12", "13", "14", "15", "16"], "time": [3227, 3686, 4835, 6556, 9923]}, "edge": {"target": [], "time": []}}, "mouseout": {"state": {"target": ["0", "12", "13", "14", "15", "16", "15", "13"], "time": [814, 3519, 4534, 6525, 8138, 12789, 19766, 19789]}, "edge": {"target": [], "time": []}}}, "displayed_time": "17.42", "trialTime": 25149, "trial_type": "mouselab-mdp", "trial_index": 23, "time_elapsed": 892658, "internal_node_id": "0.0-6.0-1.0-14.0"}}, {"uniqueid": "w14584874:a37677642", "current_trial": 24, "dateTime": 1693481636572, "trialdata": {"revealed_states": [], "clicked_states": ["12", "13", "14", "19", "22"], "num_clicks_accrued": [0, 0, 0, 0, 0, 0, 0, 0, 0, 0, 0, 0, 0], "stateRewards": ["", -2, 2, 8, -6, -25, 3, 87, 2, -62, -2, 74, -2, -1, 2, -1, 79, 49, -37, -14, 5, 67, -9, -1, 2, -2, 5, 15, 38, 32, -14, -38, -38, 30], "withholdReward": false, "trial_id": "mdp_trial_16", "block": "test", "trialIndex": 17, "score": 1, "costs": -7, "simulationMode": [null, null, null, null, null], "rewards": [-2, 2, 8, 2, -2], "path": ["0", "0", "1", "2", "3", "8", "10"], "rt": [12017, 178, 382, 36, 22], "actions": ["up", "up", "up", "left", "down"], "actionTimes": [14195, 14906, 15795, 16332, 16887], "queries": {"click": {"state": {"target": ["12", "13", "14", "19", "22"], "time": [3482, 5703, 7786, 9878, 11565]}, "edge": {"target": [], "time": []}}, "mouseover": {"state": {"target": ["12", "13", "14", "19", "22", "22"], "time": [2957, 4137, 6610, 8442, 10660, 10925]}, "edge": {"target": [], "time": []}}, "mouseout": {"state": {"target": ["0", "12", "13", "14", "19", "22", "22", "12", "0"], "time": [2929, 4002, 6383, 8291, 10624, 10693, 22182, 22250, 22920]}, "edge": {"target": [], "time": []}}}, "displayed_time": "17.43", "trialTime": 26286, "trial_type": "mouselab-mdp", "trial_index": 24, "time_elapsed": 920181, "internal_node_id": "0.0-6.0-1.0-15.0"}}, {"uniqueid": "w14584874:a37677642", "current_trial": 25, "dateTime": 1693481664852, "trialdata": {"revealed_states": [], "clicked_states": ["25", "26", "27", "30", "32"], "num_clicks_accrued": [0, 0, 0, 0, 0, 0, 0, 0, 0, 0, 0, 0, 0], "stateRewards": ["", 2, -1, 3, -12, -83, 6, -33, 9, 28, 24, -50, -2, -1, -2, -5, -87, 37, 82, 12, 80, -5, 10, -2, -3, -6, 9, 22, -1, 16, 9, 77, -62, 58], "withholdReward": false, "trial_id": "mdp_trial_17", "block": "test", "trialIndex": 18, "score": 13, "costs": -7, "simulationMode": [null, null, null, null, null], "rewards": [-2, -3, -6, 9, 22], "path": ["0", "0", "23", "24", "25", "26", "27"], "rt": [13912, 432, 53, 162, 1034], "actions": ["left", "left", "left", "up", "up"], "actionTimes": [16460, 17443, 18031, 18755, 20327], "queries": {"click": {"state": {"target": ["25", "26", "27", "30", "32"], "time": [4981, 6674, 9362, 11661, 13973]}, "edge": {"target": [], "time": []}}, "mouseover": {"state": {"target": ["12", "0", "25", "26", "27", "27", "25", "30", "32"], "time": [3508, 3706, 4185, 6213, 8255, 9010, 10457, 10659, 13462]}, "edge": {"target": [], "time": []}}, "mouseout": {"state": {"target": ["0", "12", "0", "25", "26", "27", "27", "27", "25", "30", "32"], "time": [1119, 3525, 3756, 5185, 7939, 8309, 9560, 10422, 10472, 13218, 14178]}, "edge": {"target": [], "time": []}}}, "displayed_time": "20.83", "trialTime": 27651, "trial_type": "mouselab-mdp", "trial_index": 25, "time_elapsed": 948461, "internal_node_id": "0.0-6.0-1.0-16.0"}}, {"uniqueid": "w14584874:a37677642", "current_trial": 26, "dateTime": 1693481688655, "trialdata": {"revealed_states": [], "clicked_states": ["25", "33", "29", "27", "26"], "num_clicks_accrued": [0, 0, 0, 0, 0, 0, 0, 0, 0, 0, 0, 0, 0], "stateRewards": ["", 2, -3, -4, -1, 25, -16, 16, 10, -71, -20, -55, 1, 3, -4, -9, 1, 32, 11, -6, 32, -50, -41, -1, 4, 4, -8, 7, -81, 70, 2, -52, 45, -10], "withholdReward": false, "trial_id": "mdp_trial_18", "block": "test", "trialIndex": 19, "score": 62, "costs": -7, "simulationMode": [null, null, null, null, null], "rewards": [-1, 4, 4, -8, 70], "path": ["0", "0", "23", "24", "25", "26", "29"], "rt": [13632, 599, 129, 86, 49], "actions": ["left", "left", "left", "up", "left"], "actionTimes": [16340, 17462, 18088, 18698, 19265], "queries": {"click": {"state": {"target": ["25", "33", "29", "27", "26"], "time": [4157, 6736, 9243, 11933, 14345]}, "edge": {"target": [], "time": []}}, "mouseover": {"state": {"target": ["23", "24", "25", "30", "33", "29", "27", "26"], "time": [3077, 3187, 3589, 5753, 6305, 8372, 11241, 13797]}, "edge": {"target": [], "time": []}}, "mouseout": {"state": {"target": ["12", "0", "0", "23", "24", "25", "30", "33", "29", "27", "26", "23"], "time": [1299, 1400, 3051, 3153, 3420, 5466, 6056, 6937, 9437, 13726, 20735, 20795]}, "edge": {"target": [], "time": []}}}, "displayed_time": "19.78", "trialTime": 23122, "trial_type": "mouselab-mdp", "trial_index": 26, "time_elapsed": 972265, "internal_node_id": "0.0-6.0-1.0-17.0"}}, {"uniqueid": "w14584874:a37677642", "current_trial": 27, "dateTime": 1693481723120, "trialdata": {"revealed_states": [], "clicked_states": ["4", "6", "5", "7", "3", "9", "11", "10"], "num_clicks_accrued": [0, 0, 0, 0, 0, 0, 0, 0, 0, 0, 0, 0, 0], "stateRewards": ["", 1, 1, 1, -3, -7, -1, -41, -10, 20, -72, -63, 1, -4, -2, 2, -66, 30, -84, -2, 49, 23, 71, -1, -4, 4, -12, 67, 5, 18, -16, 88, 56, -5], "withholdReward": false, "trial_id": "mdp_trial_19", "block": "test", "trialIndex": 20, "score": 1.7999999999999972, "costs": -11.200000000000001, "simulationMode": [null, null, null, null, null], "rewards": [1, 1, 1, -10, 20], "path": ["0", "0", "1", "2", "3", "8", "9"], "rt": [18897, 252, 648, 41, 958], "actions": ["up", "up", "up", "left", "up"], "actionTimes": [22349, 23117, 24315, 24908, 26384], "queries": {"click": {"state": {"target": ["4", "6", "5", "7", "3", "9", "11", "10"], "time": [5408, 7209, 9045, 10852, 13085, 15999, 18025, 20200]}, "edge": {"target": [], "time": []}}, "mouseover": {"state": {"target": ["1", "4", "6", "5", "7", "3", "9", "11", "10"], "time": [3879, 4831, 6681, 8245, 10347, 12314, 15331, 17466, 19837]}, "edge": {"target": [], "time": []}}, "mouseout": {"state": {"target": ["1", "4", "6", "5", "4", "7", "3", "9", "11", "10", "10", "0"], "time": [4030, 6618, 8145, 9895, 10016, 11045, 14849, 17100, 19132, 20399, 28122, 28990]}, "edge": {"target": [], "time": []}}}, "displayed_time": "26.93", "trialTime": 33604, "trial_type": "mouselab-mdp", "trial_index": 27, "time_elapsed": 1006730, "internal_node_id": "0.0-6.0-1.0-18.0"}}, {"uniqueid": "w14584874:a37677642", "current_trial": 28, "dateTime": 1693481744976, "trialdata": {"revealed_states": [], "clicked_states": ["16", "17", "14", "18"], "num_clicks_accrued": [0, 0, 0, 0, 0, 0, 0, 0, 0, 0, 0, 0, 0], "stateRewards": ["", 1, -3, 4, 13, -72, 52, 5, 5, -58, 5, 14, 2, 1, 3, -14, -86, -4, 73, 6, -58, -50, 49, 2, -3, -4, 2, 33, -41, 42, -11, 81, 45, 53], "withholdReward": false, "trial_id": "mdp_trial_20", "block": "test", "trialIndex": 21, "score": 59.4, "costs": -5.6, "simulationMode": [null, null, null, null, null], "rewards": [2, 1, 3, -14, 73], "path": ["0", "0", "12", "13", "14", "15", "18"], "rt": [9253, 75, 8, 31, 1023], "actions": ["right", "right", "right", "up", "left"], "actionTimes": [11850, 12445, 12956, 13508, 15049], "queries": {"click": {"state": {"target": ["16", "17", "14", "18"], "time": [3968, 5647, 7446, 9271]}, "edge": {"target": [], "time": []}}, "mouseover": {"state": {"target": ["12", "18", "15", "16", "17", "14", "18", "18"], "time": [2773, 2845, 2895, 3451, 5163, 6673, 8423, 8756]}, "edge": {"target": [], "time": []}}, "mouseout": {"state": {"target": ["17", "13", "0", "12", "18", "15", "16", "17", "14", "18", "18", "18", "12"], "time": [706, 755, 2746, 2801, 2869, 3241, 4843, 6520, 7823, 8488, 9476, 11173, 18292]}, "edge": {"target": [], "time": []}}}, "displayed_time": "16.60", "trialTime": 21189, "trial_type": "mouselab-mdp", "trial_index": 28, "time_elapsed": 1028586, "internal_node_id": "0.0-6.0-1.0-19.0"}}, {"uniqueid": "w14584874:a37677642", "current_trial": 29, "dateTime": 1693481763354, "trialdata": {"revealed_states": [], "clicked_states": ["22", "21", "20"], "num_clicks_accrued": [0, 0, 0, 0, 0, 0, 0, 0, 0, 0, 0, 0, 0], "stateRewards": ["", -2, -4, -6, 12, -58, -70, -80, 2, 16, -88, -62, 1, 2, -5, 11, 77, -35, -44, -5, 18, -83, 87, 1, -3, -5, 13, -44, -21, -86, 10, -52, 8, 29], "withholdReward": false, "trial_id": "mdp_trial_21", "block": "test", "trialIndex": 22, "score": 75.8, "costs": -4.199999999999999, "simulationMode": [null, null, null, null, null], "rewards": [1, 2, -5, -5, 87], "path": ["0", "0", "12", "13", "14", "19", "22"], "rt": [7440, 20, 129, 1251, 160], "actions": ["right", "right", "right", "down", "left"], "actionTimes": [9487, 10056, 10711, 12467, 13141], "queries": {"click": {"state": {"target": ["22", "21", "20"], "time": [3190, 4935, 6541]}, "edge": {"target": [], "time": []}}, "mouseover": {"state": {"target": ["22", "21", "21", "20", "20", "14"], "time": [2339, 4082, 4422, 5356, 5960, 7773]}, "edge": {"target": [], "time": []}}, "mouseout": {"state": {"target": ["0", "22", "21", "21", "20", "20"], "time": [2194, 4065, 4126, 5137, 5457, 6711]}, "edge": {"target": [], "time": []}}}, "displayed_time": "16.05", "trialTime": 17727, "trial_type": "mouselab-mdp", "trial_index": 29, "time_elapsed": 1046963, "internal_node_id": "0.0-6.0-1.0-20.0"}}, {"uniqueid": "w14584874:a37677642", "current_trial": 30, "dateTime": 1693481783479, "trialdata": {"revealed_states": [], "clicked_states": ["31", "32", "33", "25"], "num_clicks_accrued": [0, 0, 0, 0, 0, 0, 0, 0, 0, 0, 0, 0, 0], "stateRewards": ["", 1, 2, -8, 9, 18, -83, -11, 6, -64, -48, 17, -2, -2, -5, -3, -24, -3, -86, -2, 48, -41, -22, -2, 4, 7, 8, 81, 13, -48, 10, 61, 19, 57], "withholdReward": false, "trial_id": "mdp_trial_22", "block": "test", "trialIndex": 23, "score": 74.4, "costs": -5.6, "simulationMode": [null, null, null, null, null], "rewards": [-2, 4, 7, 10, 61], "path": ["0", "0", "23", "24", "25", "30", "31"], "rt": [10331, 5, 62, 110, 155], "actions": ["left", "left", "left", "down", "right"], "actionTimes": [12554, 13089, 13675, 14300, 14989], "queries": {"click": {"state": {"target": ["31", "32", "33", "25"], "time": [4739, 6337, 8295, 10388]}, "edge": {"target": [], "time": []}}, "mouseover": {"state": {"target": ["1", "2", "10", "28", "24", "31", "32", "33", "25"], "time": [2986, 3046, 3403, 3503, 3561, 4337, 5585, 7569, 9870]}, "edge": {"target": [], "time": []}}, "mouseout": {"state": {"target": ["14", "13", "12", "1", "2", "10", "28", "24", "31", "32", "33", "25"], "time": [883, 914, 982, 3019, 3073, 3438, 3525, 3870, 4944, 7330, 9311, 17245]}, "edge": {"target": [], "time": []}}}, "displayed_time": "16.23", "trialTime": 19518, "trial_type": "mouselab-mdp", "trial_index": 30, "time_elapsed": 1067088, "internal_node_id": "0.0-6.0-1.0-21.0"}}, {"uniqueid": "w14584874:a37677642", "current_trial": 31, "dateTime": 1693481805309, "trialdata": {"revealed_states": [], "clicked_states": ["10", "11", "9"], "num_clicks_accrued": [0, 0, 0, 0, 0, 0, 0, 0, 0, 0, 0, 0, 0], "stateRewards": ["", -2, -4, 2, 10, -17, 18, 73, 11, -32, 23, -13, -2, -4, 7, 12, -25, 66, -23, 15, 40, -76, -9, 1, 2, -7, -5, -20, 24, 3, -5, 16, -73, 70], "withholdReward": false, "trial_id": "mdp_trial_23", "block": "test", "trialIndex": 24, "score": 25.8, "costs": -4.199999999999999, "simulationMode": [null, null, null, null, null], "rewards": [-2, -4, 2, 11, 23], "path": ["0", "0", "1", "2", "3", "8", "10"], "rt": [9723, 362, 908, 77, 22], "actions": ["up", "up", "up", "left", "down"], "actionTimes": [12744, 13645, 15068, 15655, 16194], "queries": {"click": {"state": {"target": ["10", "11", "9"], "time": [4540, 7771, 10154]}, "edge": {"target": [], "time": []}}, "mouseover": {"state": {"target": ["1", "2", "10", "11", "11", "9"], "time": [3652, 3869, 4106, 5169, 7038, 8556]}, "edge": {"target": [], "time": []}}, "mouseout": {"state": {"target": ["0", "1", "2", "10", "11", "11", "9", "8", "10"], "time": [3569, 3717, 3926, 5096, 6453, 8208, 17893, 17916, 17960]}, "edge": {"target": [], "time": []}}}, "displayed_time": "17.04", "trialTime": 21110, "trial_type": "mouselab-mdp", "trial_index": 31, "time_elapsed": 1088919, "internal_node_id": "0.0-6.0-1.0-22.0"}}, {"uniqueid": "w14584874:a37677642", "current_trial": 32, "dateTime": 1693481827382, "trialdata": {"revealed_states": [], "clicked_states": ["17", "16", "18", "14"], "num_clicks_accrued": [0, 0, 0, 0, 0, 0, 0, 0, 0, 0, 0, 0, 0], "stateRewards": ["", 1, 1, 7, -11, 80, -20, -53, -14, 3, 31, 27, 2, -1, -8, -10, 33, 41, 86, 9, 78, -37, -13, -1, -2, -6, -8, -80, 75, 4, -16, -49, -74, 24], "withholdReward": false, "trial_id": "mdp_trial_24", "block": "test", "trialIndex": 25, "score": 63.4, "costs": -5.6, "simulationMode": [null, null, null, null, null], "rewards": [2, -1, -8, -10, 86], "path": ["0", "0", "12", "13", "14", "15", "18"], "rt": [10980, 709, 206, 215, 6], "actions": ["right", "right", "right", "up", "left"], "actionTimes": [13111, 14334, 15041, 15751, 16282], "queries": {"click": {"state": {"target": ["17", "16", "18", "14"], "time": [3873, 6771, 8388, 11075]}, "edge": {"target": [], "time": []}}, "mouseover": {"state": {"target": ["13", "17", "16", "16", "18", "14"], "time": [2812, 3229, 4351, 6279, 7345, 10615]}, "edge": {"target": [], "time": []}}, "mouseout": {"state": {"target": ["0", "13", "17", "16", "16", "18", "14", "22", "13"], "time": [1143, 2848, 4323, 5795, 7170, 10231, 11276, 20574, 20616]}, "edge": {"target": [], "time": []}}}, "displayed_time": "16.82", "trialTime": 21380, "trial_type": "mouselab-mdp", "trial_index": 32, "time_elapsed": 1110992, "internal_node_id": "0.0-6.0-1.0-23.0"}}, {"uniqueid": "w14584874:a37677642", "current_trial": 33, "dateTime": 1693481863919, "trialdata": {"revealed_states": [], "clicked_states": ["8", "11", "10", "9"], "num_clicks_accrued": [0, 0, 0, 0, 0, 0, 0, 0, 0, 0, 0, 0, 0], "stateRewards": ["", 1, -2, -8, -13, 4, 34, -84, -4, -49, 88, -70, -1, 3, -4, 10, -77, 13, -34, 15, -21, -16, 27, 1, -2, 8, -8, -6, 38, -26, 6, -15, 66, -3], "withholdReward": false, "trial_id": "mdp_trial_25", "block": "test", "trialIndex": 26, "score": 69.4, "costs": -5.6, "simulationMode": [null, null, null, null, null], "rewards": [1, -2, -8, -4, 88], "path": ["0", "0", "1", "2", "3", "8", "10"], "rt": [10900, 570, 153, 1143, 128], "actions": ["up", "up", "up", "left", "down"], "actionTimes": [28496, 29626, 30294, 32165, 32830], "queries": {"click": {"state": {"target": ["8", "11", "10", "9"], "time": [20479, 22722, 24447, 26102]}, "edge": {"target": [], "time": []}}, "mouseover": {"state": {"target": ["1", "2", "8", "8", "11", "10", "8", "9"], "time": [18298, 18620, 19515, 20050, 21723, 23384, 25242, 25293]}, "edge": {"target": [], "time": []}}, "mouseout": {"state": {"target": ["18", "12", "1", "2", "8", "8", "11", "10", "8", "9"], "time": [841, 967, 18368, 19335, 19830, 21271, 23268, 25220, 25257, 27667]}, "edge": {"target": [], "time": []}}}, "displayed_time": "33.36", "trialTime": 35905, "trial_type": "mouselab-mdp", "trial_index": 33, "time_elapsed": 1147528, "internal_node_id": "0.0-6.0-1.0-24.0"}}, {"uniqueid": "w14584874:a37677642", "current_trial": 34, "dateTime": 1693481885675, "trialdata": {"revealed_states": [], "clicked_states": ["32", "31", "33"], "num_clicks_accrued": [0, 0, 0, 0, 0, 0, 0, 0, 0, 0, 0, 0, 0], "stateRewards": ["", -1, 1, -5, -6, -78, 47, -13, 12, 48, -88, 20, 2, -3, -2, 13, -20, 37, -57, 14, -38, 30, 31, -2, -2, 8, 2, -23, 78, 28, 12, -74, -88, 8], "withholdReward": false, "trial_id": "mdp_trial_26", "block": "test", "trialIndex": 27, "score": 79.8, "costs": -4.199999999999999, "simulationMode": [null, null, null, null, null], "rewards": [-2, -2, 8, 2, 78], "path": ["0", "0", "23", "24", "25", "26", "28"], "rt": [9454, 623, 92, 149, 288], "actions": ["left", "left", "left", "up", "right"], "actionTimes": [12210, 13359, 13964, 14655, 15478], "queries": {"click": {"state": {"target": ["32", "31", "33"], "time": [4084, 6925, 9181]}, "edge": {"target": [], "time": []}}, "mouseover": {"state": {"target": ["23", "31", "30", "32", "31", "31", "31", "30", "33"], "time": [2881, 3171, 3250, 3552, 4465, 4914, 6399, 7354, 7403]}, "edge": {"target": [], "time": []}}, "mouseout": {"state": {"target": ["2", "12", "12", "23", "31", "30", "32", "31", "31", "31", "30", "33", "33", "30", "30"], "time": [915, 1065, 1248, 2965, 3197, 3521, 4447, 4514, 6085, 7349, 7384, 11119, 11487, 12360, 17589]}, "edge": {"target": [], "time": []}}}, "displayed_time": "16.76", "trialTime": 20935, "trial_type": "mouselab-mdp", "trial_index": 34, "time_elapsed": 1169284, "internal_node_id": "0.0-6.0-1.0-25.0"}}, {"uniqueid": "w14584874:a37677642", "current_trial": 35, "dateTime": 1693481904643, "trialdata": {"revealed_states": [], "clicked_states": ["28", "27", "29"], "num_clicks_accrued": [0, 0, 0, 0, 0, 0, 0, 0, 0, 0, 0, 0, 0], "stateRewards": ["", 1, -2, -8, -3, 31, -84, -55, -14, 15, -58, 17, -2, -3, 7, 7, -12, 48, 67, 4, -44, -68, 46, 2, 3, -5, -7, 76, 27, 5, 11, 57, 52, 59], "withholdReward": false, "trial_id": "mdp_trial_27", "block": "test", "trialIndex": 28, "score": 64.8, "costs": -4.199999999999999, "simulationMode": [null, null, null, null, null], "rewards": [2, 3, -5, -7, 76], "path": ["0", "0", "23", "24", "25", "26", "27"], "rt": [9247, 571, 205, 58, 75], "actions": ["left", "left", "left", "up", "up"], "actionTimes": [11744, 12881, 13607, 14228, 14838], "queries": {"click": {"state": {"target": ["28", "27", "29"], "time": [4527, 6849, 8937]}, "edge": {"target": [], "time": []}}, "mouseover": {"state": {"target": ["28", "28", "27", "29", "25"], "time": [3480, 3941, 4957, 7610, 11633]}, "edge": {"target": [], "time": []}}, "mouseout": {"state": {"target": ["0", "28", "28", "27", "29"], "time": [1352, 3557, 4945, 7241, 10777]}, "edge": {"target": [], "time": []}}}, "displayed_time": "16.52", "trialTime": 18285, "trial_type": "mouselab-mdp", "trial_index": 35, "time_elapsed": 1188253, "internal_node_id": "0.0-6.0-1.0-26.0"}}, {"uniqueid": "w14584874:a37677642", "current_trial": 36, "dateTime": 1693481923581, "trialdata": {"revealed_states": [], "clicked_states": ["11", "9", "10"], "num_clicks_accrued": [0, 0, 0, 0, 0, 0, 0, 0, 0, 0, 0, 0, 0], "stateRewards": ["", -2, -1, -4, -15, -14, -67, 32, -3, -59, 63, 31, 2, -1, -7, -15, 71, -66, -27, -3, -54, -39, 72, 2, 1, 1, -13, 77, -40, 35, -9, 35, 75, 57], "withholdReward": false, "trial_id": "mdp_trial_28", "block": "test", "trialIndex": 29, "score": 48.8, "costs": -4.199999999999999, "simulationMode": [null, null, null, null, null], "rewards": [-2, -1, -4, -3, 63], "path": ["0", "0", "1", "2", "3", "8", "10"], "rt": [9565, 513, 79, 74, 4], "actions": ["up", "up", "up", "left", "down"], "actionTimes": [11771, 12833, 13435, 14038, 14558], "queries": {"click": {"state": {"target": ["11", "9", "10"], "time": [4707, 7568, 9633]}, "edge": {"target": [], "time": []}}, "mouseover": {"state": {"target": ["1", "2", "3", "8", "11", "10", "8", "9", "8", "10"], "time": [2818, 3030, 3933, 4045, 4199, 5164, 6589, 6635, 8646, 9135]}, "edge": {"target": [], "time": []}}, "mouseout": {"state": {"target": ["25", "24", "0", "0", "1", "2", "3", "8", "11", "10", "8", "9", "9", "8", "10"], "time": [843, 876, 975, 2787, 2863, 3645, 4016, 4077, 5143, 6583, 6609, 7752, 8417, 8866, 9836]}, "edge": {"target": [], "time": []}}}, "displayed_time": "16.22", "trialTime": 18304, "trial_type": "mouselab-mdp", "trial_index": 36, "time_elapsed": 1207190, "internal_node_id": "0.0-6.0-1.0-27.0"}}, {"uniqueid": "w14584874:a37677642", "current_trial": 37, "dateTime": 1693481942960, "trialdata": {"revealed_states": [], "clicked_states": ["20", "21", "22", "17"], "num_clicks_accrued": [0, 0, 0, 0, 0, 0, 0, 0, 0, 0, 0, 0, 0], "stateRewards": ["", 2, 4, 4, 9, -88, -10, 44, 16, -54, 64, 78, 1, 2, 5, 16, 80, 36, 7, -4, 9, -47, -70, -1, -3, 6, -16, 11, 80, 28, 8, -1, 34, -17], "withholdReward": false, "trial_id": "mdp_trial_29", "block": "test", "trialIndex": 30, "score": 54.4, "costs": -5.6, "simulationMode": [null, null, null, null, null], "rewards": [1, 2, 5, 16, 36], "path": ["0", "0", "12", "13", "14", "15", "17"], "rt": [10626, 639, 203, 87, 42], "actions": ["right", "right", "right", "up", "right"], "actionTimes": [13290, 14465, 15182, 15769, 16344], "queries": {"click": {"state": {"target": ["20", "21", "22", "17"], "time": [4854, 7105, 8669, 11262]}, "edge": {"target": [], "time": []}}, "mouseover": {"state": {"target": ["12", "13", "14", "19", "20", "21", "22", "14", "17"], "time": [3389, 3490, 3588, 3959, 4342, 5389, 7794, 10026, 10761]}, "edge": {"target": [], "time": []}}, "mouseout": {"state": {"target": ["10", "1", "12", "13", "14", "19", "20", "21", "22", "14", "17"], "time": [1265, 1388, 3424, 3570, 3676, 4176, 5356, 7559, 9758, 10060, 12913]}, "edge": {"target": [], "time": []}}}, "displayed_time": "16.90", "trialTime": 18786, "trial_type": "mouselab-mdp", "trial_index": 37, "time_elapsed": 1226570, "internal_node_id": "0.0-6.0-1.0-28.0"}}, {"uniqueid": "w14584874:a37677642", "current_trial": 38, "dateTime": 1693481965256, "trialdata": {"revealed_states": [], "clicked_states": ["17", "16", "18"], "num_clicks_accrued": [0, 0, 0, 0, 0, 0, 0, 0, 0, 0, 0, 0, 0], "stateRewards": ["", 1, -1, 8, 4, 76, -33, -17, -3, -1, -54, -74, -2, 2, -5, 13, -51, 63, 83, 1, 84, 29, -36, 2, -1, 7, -12, -10, -44, -43, -14, 8, -69, 19], "withholdReward": false, "trial_id": "mdp_trial_30", "block": "test", "trialIndex": 31, "score": 86.8, "costs": -4.199999999999999, "simulationMode": [null, null, null, null, null], "rewards": [-2, 2, -5, 13, 83], "path": ["0", "0", "12", "13", "14", "15", "18"], "rt": [9142, 109, 7, 61, 861], "actions": ["right", "right", "right", "up", "left"], "actionTimes": [11453, 12113, 12672, 13255, 14642], "queries": {"click": {"state": {"target": ["17", "16", "18"], "time": [4448, 6613, 8519]}, "edge": {"target": [], "time": []}}, "mouseover": {"state": {"target": ["18", "15", "17", "16", "18", "14"], "time": [3139, 3189, 3722, 5339, 7806, 10324]}, "edge": {"target": [], "time": []}}, "mouseout": {"state": {"target": ["14", "13", "12", "18", "15", "17", "16", "18", "18", "14"], "time": [903, 953, 985, 3170, 3405, 4658, 7309, 8722, 9807, 18762]}, "edge": {"target": [], "time": []}}}, "displayed_time": "16.32", "trialTime": 21653, "trial_type": "mouselab-mdp", "trial_index": 38, "time_elapsed": 1248866, "internal_node_id": "0.0-6.0-1.0-29.0"}}, {"uniqueid": "w14584874:a37677642", "current_trial": 39, "dateTime": 1693481987355, "trialdata": {"revealed_states": [], "clicked_states": ["10", "11", "9", "3"], "num_clicks_accrued": [0, 0, 0, 0, 0, 0, 0, 0, 0, 0, 0, 0, 0], "stateRewards": ["", -2, 1, -3, -16, -39, -52, 30, -7, -41, -59, 11, 2, 1, 8, 2, -11, -26, -42, -13, 87, -59, -48, -1, -1, -1, 16, -79, 31, 50, -1, -84, 34, -82], "withholdReward": false, "trial_id": "mdp_trial_31", "block": "test", "trialIndex": 32, "score": -64.6, "costs": -5.6, "simulationMode": [null, null, null, null, null], "rewards": [-2, 1, -3, -16, -39], "path": ["0", "0", "1", "2", "3", "4", "5"], "rt": [11139, 488, 81, 706, 54], "actions": ["up", "up", "up", "right", "up"], "actionTimes": [13914, 14910, 15517, 16760, 17344], "queries": {"click": {"state": {"target": ["10", "11", "9", "3"], "time": [5125, 7195, 8783, 11667]}, "edge": {"target": [], "time": []}}, "mouseover": {"state": {"target": ["1", "2", "10", "11", "9", "3", "3", "4"], "time": [3381, 3979, 4762, 5833, 8031, 10534, 11301, 13319]}, "edge": {"target": [], "time": []}}, "mouseout": {"state": {"target": ["14", "1", "0", "1", "2", "10", "11", "9", "3", "3", "4", "4", "7"], "time": [1146, 1212, 3262, 3849, 4063, 5315, 7681, 10231, 10882, 12468, 13351, 19904, 19926]}, "edge": {"target": [], "time": []}}}, "displayed_time": "17.86", "trialTime": 21517, "trial_type": "mouselab-mdp", "trial_index": 39, "time_elapsed": 1270964, "internal_node_id": "0.0-6.0-1.0-30.0"}}, {"uniqueid": "w14584874:a37677642", "current_trial": 40, "dateTime": 1693482010161, "trialdata": {"revealed_states": [], "clicked_states": ["32", "31", "33", "25"], "num_clicks_accrued": [0, 0, 0, 0, 0, 0, 0, 0, 0, 0, 0, 0, 0], "stateRewards": ["", -1, -4, 8, 8, -68, 47, 24, -7, -61, 49, -69, -1, -1, 8, -7, 42, 1, -45, -11, 10, -63, -6, 1, 4, 6, -16, 79, -37, -58, -12, 81, 18, -53], "withholdReward": false, "trial_id": "mdp_trial_32", "block": "test", "trialIndex": 33, "score": 11.4, "costs": -5.6, "simulationMode": [null, null, null, null, null], "rewards": [1, 4, 6, -12, 18], "path": ["0", "0", "23", "24", "25", "30", "32"], "rt": [10657, 549, 173, 57, 32], "actions": ["left", "left", "left", "down", "down"], "actionTimes": [12857, 13929, 14597, 15149, 15718], "queries": {"click": {"state": {"target": ["32", "31", "33", "25"], "time": [4494, 6625, 8735, 10974]}, "edge": {"target": [], "time": []}}, "mouseover": {"state": {"target": ["23", "24", "25", "30", "32", "31", "30", "33", "25", "25"], "time": [2621, 2693, 2972, 3303, 4086, 5008, 7100, 7134, 9839, 10319]}, "edge": {"target": [], "time": []}}, "mouseout": {"state": {"target": ["23", "24", "25", "30", "32", "31", "30", "33", "25", "25"], "time": [2654, 2736, 3272, 3769, 4691, 7075, 7127, 9805, 9875, 19425]}, "edge": {"target": [], "time": []}}}, "displayed_time": "16.26", "trialTime": 22168, "trial_type": "mouselab-mdp", "trial_index": 40, "time_elapsed": 1293771, "internal_node_id": "0.0-6.0-1.0-31.0"}}, {"uniqueid": "w14584874:a37677642", "current_trial": 41, "dateTime": 1693482029312, "trialdata": {"revealed_states": [], "clicked_states": ["25", "31", "32", "33"], "num_clicks_accrued": [0, 0, 0, 0, 0, 0, 0, 0, 0, 0, 0, 0, 0], "stateRewards": ["", -2, 3, 8, -9, 59, 41, -50, -1, 82, 66, 33, 2, -2, 7, 8, 1, -38, 12, -16, 24, -37, 67, 1, 4, -2, 5, 35, -83, 28, 8, -27, 69, -64], "withholdReward": false, "trial_id": "mdp_trial_33", "block": "test", "trialIndex": 34, "score": 74.4, "costs": -5.6, "simulationMode": [null, null, null, null, null], "rewards": [1, 4, -2, 8, 69], "path": ["0", "0", "23", "24", "25", "30", "32"], "rt": [9609, 9, 148, 19, 38], "actions": ["left", "left", "left", "down", "down"], "actionTimes": [11337, 11885, 12590, 13127, 13701], "queries": {"click": {"state": {"target": ["25", "31", "32", "33"], "time": [3177, 5304, 6914, 8885]}, "edge": {"target": [], "time": []}}, "mouseover": {"state": {"target": ["23", "24", "25", "31", "32", "33"], "time": [2239, 2319, 2605, 3951, 5945, 7896]}, "edge": {"target": [], "time": []}}, "mouseout": {"state": {"target": ["0", "23", "24", "25", "31", "32", "33", "30", "31"], "time": [2203, 2263, 2473, 3674, 5866, 7604, 10206, 17308, 17357]}, "edge": {"target": [], "time": []}}}, "displayed_time": "15.74", "trialTime": 18525, "trial_type": "mouselab-mdp", "trial_index": 41, "time_elapsed": 1312922, "internal_node_id": "0.0-6.0-1.0-32.0"}}, {"uniqueid": "w14584874:a37677642", "current_trial": 42, "dateTime": 1693482050720, "trialdata": {"revealed_states": [], "clicked_states": ["27", "28", "29", "31"], "num_clicks_accrued": [0, 0, 0, 0, 0, 0, 0, 0, 0, 0, 0, 0, 0], "stateRewards": ["", -2, -3, 1, -14, 48, -49, 67, -1, -35, -48, 3, -2, 1, -4, -5, 86, -84, 39, 1, 48, 41, -42, -1, -4, 2, -7, 18, -86, 17, 7, -9, 57, -69], "withholdReward": false, "trial_id": "mdp_trial_34", "block": "test", "trialIndex": 35, "score": 1.4000000000000004, "costs": -5.6, "simulationMode": [null, null, null, null, null], "rewards": [-1, -4, 2, -7, 17], "path": ["0", "0", "23", "24", "25", "26", "29"], "rt": [11108, 7, 134, 1794, 860], "actions": ["left", "left", "left", "up", "left"], "actionTimes": [13767, 14302, 14967, 17282, 18690], "queries": {"click": {"state": {"target": ["27", "28", "29", "31"], "time": [4397, 5933, 7691, 11226]}, "edge": {"target": [], "time": []}}, "mouseover": {"state": {"target": ["28", "26", "27", "28", "26", "29", "30", "30", "31"], "time": [3198, 3380, 3830, 4962, 6523, 7061, 8682, 9733, 10839]}, "edge": {"target": [], "time": []}}, "mouseout": {"state": {"target": ["23", "0", "28", "26", "27", "28", "26", "29", "30", "30", "31"], "time": [1228, 1262, 3249, 3515, 4944, 6488, 6797, 8630, 8751, 9847, 13600]}, "edge": {"target": [], "time": []}}}, "displayed_time": "19.23", "trialTime": 20784, "trial_type": "mouselab-mdp", "trial_index": 42, "time_elapsed": 1334330, "internal_node_id": "0.0-6.0-1.0-33.0"}}, {"uniqueid": "w14584874:a37677642", "current_trial": 43, "dateTime": 1693482070393, "trialdata": {"revealed_states": [], "clicked_states": ["10", "11", "9", "3"], "num_clicks_accrued": [0, 0, 0, 0, 0, 0, 0, 0, 0, 0, 0, 0, 0], "stateRewards": ["", -2, 2, -5, 1, 42, -63, -58, -6, 2, 16, 81, -2, 4, 7, -10, 33, 3, -33, -2, -52, -84, -27, 2, -3, -3, 15, -74, -14, -5, -5, -84, 79, -31], "withholdReward": false, "trial_id": "mdp_trial_35", "block": "test", "trialIndex": 36, "score": 64.4, "costs": -5.6, "simulationMode": [null, null, null, null, null], "rewards": [-2, 2, -5, -6, 81], "path": ["0", "0", "1", "2", "3", "8", "11"], "rt": [10891, 109, 103, 87, 90], "actions": ["up", "up", "up", "left", "left"], "actionTimes": [13716, 14342, 14969, 15585, 16214], "queries": {"click": {"state": {"target": ["10", "11", "9", "3"], "time": [4607, 6991, 8898, 11582]}, "edge": {"target": [], "time": []}}, "mouseover": {"state": {"target": ["10", "10", "11", "9", "3", "2"], "time": [3492, 4212, 5324, 7952, 10966, 12714]}, "edge": {"target": [], "time": []}}, "mouseout": {"state": {"target": ["31", "10", "10", "11", "9", "9", "3", "2"], "time": [1006, 3559, 5208, 7506, 9111, 10595, 12511, 13580]}, "edge": {"target": [], "time": []}}}, "displayed_time": "16.83", "trialTime": 19011, "trial_type": "mouselab-mdp", "trial_index": 43, "time_elapsed": 1354002, "internal_node_id": "0.0-6.0-1.0-34.0"}}, {"uniqueid": "w14584874:a37677642", "current_trial": 44, "dateTime": 1693482089383, "trialdata": {"revealed_states": [], "clicked_states": ["7", "6", "5"], "num_clicks_accrued": [0, 0, 0, 0, 0, 0, 0, 0, 0, 0, 0, 0, 0], "stateRewards": ["", 2, -1, -1, -9, -81, -30, 55, -6, 78, 25, 62, 2, 4, -1, 9, -85, 1, -19, 1, -60, 12, -34, 1, 4, -1, -13, -24, -16, -83, -8, 16, 43, 9], "withholdReward": false, "trial_id": "mdp_trial_36", "block": "test", "trialIndex": 37, "score": 41.8, "costs": -4.199999999999999, "simulationMode": [null, null, null, null, null], "rewards": [2, -1, -1, -9, 55], "path": ["0", "0", "1", "2", "3", "4", "7"], "rt": [7686, 62, 177, 47, 96], "actions": ["up", "up", "up", "right", "down"], "actionTimes": [10096, 10673, 11389, 11971, 12620], "queries": {"click": {"state": {"target": ["7", "6", "5"], "time": [4042, 6422, 8002]}, "edge": {"target": [], "time": []}}, "mouseover": {"state": {"target": ["7", "6", "5", "5"], "time": [3589, 4988, 6854, 7389]}, "edge": {"target": [], "time": []}}, "mouseout": {"state": {"target": ["1", "0", "0", "7", "6", "5", "5", "4"], "time": [771, 819, 2836, 4554, 6821, 6870, 17382, 17565]}, "edge": {"target": [], "time": []}}}, "displayed_time": "16.42", "trialTime": 18235, "trial_type": "mouselab-mdp", "trial_index": 44, "time_elapsed": 1372992, "internal_node_id": "0.0-6.0-1.0-35.0"}}, {"uniqueid": "w14584874:a37677642", "current_trial": 45, "dateTime": 1693482109135, "trialdata": {"revealed_states": [], "clicked_states": ["16", "18", "17"], "num_clicks_accrued": [0, 0, 0, 0, 0, 0, 0, 0, 0, 0, 0, 0, 0], "stateRewards": ["", -2, -4, -2, 10, -8, -15, -47, 7, -84, 53, 5, -1, 2, -7, 3, 83, 31, 47, -1, 30, -8, 69, 2, -4, -1, 8, -7, 12, -8, -8, -13, 30, -84], "withholdReward": false, "trial_id": "mdp_trial_37", "block": "test", "trialIndex": 38, "score": 75.8, "costs": -4.199999999999999, "simulationMode": [null, null, null, null, null], "rewards": [-1, 2, -7, 3, 83], "path": ["0", "0", "12", "13", "14", "15", "16"], "rt": [8385, 64, 173, 91, 182], "actions": ["right", "right", "right", "up", "up"], "actionTimes": [11632, 12192, 12896, 13503, 14204], "queries": {"click": {"state": {"target": ["16", "18", "17"], "time": [4954, 7687, 9494]}, "edge": {"target": [], "time": []}}, "mouseover": {"state": {"target": ["12", "15", "16", "17", "15", "18", "15", "17"], "time": [3463, 4029, 4362, 5853, 6815, 7139, 8260, 8294]}, "edge": {"target": [], "time": []}}, "mouseout": {"state": {"target": ["7", "0", "12", "15", "16", "17", "15", "18", "15", "17", "17"], "time": [1156, 3421, 3609, 4296, 5560, 6791, 6968, 8256, 8276, 9725, 11360]}, "edge": {"target": [], "time": []}}}, "displayed_time": "17.25", "trialTime": 19035, "trial_type": "mouselab-mdp", "trial_index": 45, "time_elapsed": 1392745, "internal_node_id": "0.0-6.0-1.0-36.0"}}, {"uniqueid": "w14584874:a37677642", "current_trial": 46, "dateTime": 1693482130248, "trialdata": {"revealed_states": [], "clicked_states": ["21", "22", "20"], "num_clicks_accrued": [0, 0, 0, 0, 0, 0, 0, 0, 0, 0, 0, 0, 0], "stateRewards": ["", 1, 2, -5, 14, 54, -14, -25, 16, -5, -87, 78, -1, 1, 3, -3, 52, 53, 53, -10, 73, -69, -48, 2, 3, 1, 8, -62, -7, 85, 7, 82, 52, -28], "withholdReward": false, "trial_id": "mdp_trial_38", "block": "test", "trialIndex": 39, "score": 61.8, "costs": -4.199999999999999, "simulationMode": [null, null, null, null, null], "rewards": [-1, 1, 3, -10, 73], "path": ["0", "0", "12", "13", "14", "19", "20"], "rt": [8273, 38, 98, 42, 226], "actions": ["right", "right", "right", "down", "right"], "actionTimes": [10778, 11343, 11988, 12559, 13327], "queries": {"click": {"state": {"target": ["21", "22", "20"], "time": [3978, 6373, 8117]}, "edge": {"target": [], "time": []}}, "mouseover": {"state": {"target": ["0", "22", "21", "22", "19", "20"], "time": [2935, 3086, 3386, 4902, 6874, 7374]}, "edge": {"target": [], "time": []}}, "mouseout": {"state": {"target": ["17", "14", "13", "12", "0", "22", "21", "22", "19", "20", "13"], "time": [865, 900, 919, 1215, 2972, 3108, 4186, 6870, 6894, 15475, 15555]}, "edge": {"target": [], "time": []}}}, "displayed_time": "16.51", "trialTime": 20434, "trial_type": "mouselab-mdp", "trial_index": 46, "time_elapsed": 1413858, "internal_node_id": "0.0-6.0-1.0-37.0"}}, {"uniqueid": "w14584874:a37677642", "current_trial": 47, "dateTime": 1693482153493, "trialdata": {"revealed_states": [], "clicked_states": ["10", "11", "9"], "num_clicks_accrued": [0, 0, 0, 0, 0, 0, 0, 0, 0, 0, 0, 0, 0], "stateRewards": ["", -1, 3, -7, 16, -32, -74, -48, 2, 10, 15, -30, 1, 1, -2, 10, 12, -83, 67, 13, -66, 47, 65, -2, 4, 2, -14, -8, -57, 24, 9, 65, 12, 46], "withholdReward": false, "trial_id": "mdp_trial_39", "block": "test", "trialIndex": 40, "score": 7.800000000000001, "costs": -4.199999999999999, "simulationMode": [null, null, null, null, null], "rewards": [-1, 3, -7, 2, 15], "path": ["0", "0", "1", "2", "3", "8", "10"], "rt": [8617, 322, 217, 5, 110], "actions": ["up", "up", "up", "left", "down"], "actionTimes": [11779, 12614, 13372, 13881, 14505], "queries": {"click": {"state": {"target": ["10", "11", "9"], "time": [5069, 7077, 9164]}, "edge": {"target": [], "time": []}}, "mouseover": {"state": {"target": ["1", "10", "11", "9", "9"], "time": [3987, 4570, 6638, 7920, 8597]}, "edge": {"target": [], "time": []}}, "mouseout": {"state": {"target": ["0", "1", "10", "11", "9", "9", "9", "2", "1"], "time": [1001, 4196, 5742, 7636, 7936, 9369, 11054, 18144, 20933]}, "edge": {"target": [], "time": []}}}, "displayed_time": "17.17", "trialTime": 22553, "trial_type": "mouselab-mdp", "trial_index": 47, "time_elapsed": 1437103, "internal_node_id": "0.0-6.0-1.0-38.0"}}, {"uniqueid": "w14584874:a37677642", "current_trial": 48, "dateTime": 1693482174719, "trialdata": {"revealed_states": [], "clicked_states": ["31", "32", "33"], "num_clicks_accrued": [0, 0, 0, 0, 0, 0, 0, 0, 0, 0, 0, 0, 0], "stateRewards": ["", -2, 2, 3, -7, 76, 63, 21, 15, 35, -8, -44, 1, 1, -2, -12, 23, 24, 76, -9, 46, 66, -49, -2, -1, 7, 12, 40, -71, -45, -6, 38, -49, 46], "withholdReward": false, "trial_id": "mdp_trial_40", "block": "test", "trialIndex": 41, "score": 39.8, "costs": -4.199999999999999, "simulationMode": [null, null, null, null, null], "rewards": [-2, -1, 7, -6, 46], "path": ["0", "0", "23", "24", "25", "30", "33"], "rt": [8975, 252, 77, 956, 78], "actions": ["left", "left", "left", "down", "left"], "actionTimes": [11620, 12397, 13011, 14484, 15110], "queries": {"click": {"state": {"target": ["31", "32", "33"], "time": [5008, 7194, 9575]}, "edge": {"target": [], "time": []}}, "mouseover": {"state": {"target": ["12", "0", "23", "24", "31", "32", "32", "33", "33"], "time": [3375, 3437, 3491, 3775, 4902, 5769, 6772, 7621, 8288]}, "edge": {"target": [], "time": []}}, "mouseout": {"state": {"target": ["1", "12", "0", "12", "0", "23", "24", "31", "32", "32", "33", "33"], "time": [1184, 1484, 1521, 3406, 3482, 3523, 4886, 5421, 5888, 7603, 7639, 9790]}, "edge": {"target": [], "time": []}}}, "displayed_time": "16.66", "trialTime": 20536, "trial_type": "mouselab-mdp", "trial_index": 48, "time_elapsed": 1458329, "internal_node_id": "0.0-6.0-1.0-39.0"}}, {"uniqueid": "w14584874:a37677642", "current_trial": 49, "dateTime": 1693482230610, "trialdata": {"rt": 55804, "response": {"Q0": "$-2 to $2", "Q1": "$-16 to $16", "Q2": "$-88 to $88", "Q3": "The cost was always $1.4.", "Q4": "Very motivated"}, "question_order": [0, 1, 2, 3, 4], "trial_id": "final_quiz_control", "trial_type": "survey-multi-choice", "trial_index": 49, "time_elapsed": 1514221, "internal_node_id": "0.0-6.0-2.0"}}, {"uniqueid": "w14584874:a37677642", "current_trial": 50, "dateTime": 1693482461957, "trialdata": {"rt": 230548, "response": {"Q0": "The strategy I used was to inspect all the last nodes and choose the path with the highest last node ", "Q1": "I improved by not revealing the nodes closest to me and only doing the last ones", "Q2": "The disappearing values after I had revealed it"}, "trial_id": "self_report_control", "trial_type": "survey-text", "trial_index": 50, "time_elapsed": 1745568, "internal_node_id": "0.0-6.0-3.0"}}, {"uniqueid": "w14584874:a37677642", "current_trial": 51, "dateTime": 1693482534462, "trialdata": {"rt": 72382, "response": {"gender": "female", "age": "22", "colorblind": "0", "effort": "0"}, "trial_type": "survey-html-form", "trial_index": 51, "time_elapsed": 1818073, "internal_node_id": "0.0-6.0-4.0"}}, {"uniqueid": "w14584874:a37677642", "current_trial": 52, "dateTime": 1693482589570, "trialdata": {"rt": 55088, "response": {"Q0": "Nothing was confusing", "Q1": "No I have never played this game before", "Q2": "Nice game"}, "trial_type": "survey-text", "trial_index": 52, "time_elapsed": 1873181, "internal_node_id": "0.0-6.0-5.0"}}, {"uniqueid": "w14584874:a37677642", "current_trial": 53, "dateTime": 1693482621295, "trialdata": {"rt": 31705, "stimulus": "<h1>Completion Code Instructions (1/2)</h1>\n<br><br><br><br>\nYou have reached the end of the experiment! The completion code consists of two parts: (1) a code with 2 characters (2) a code with 6 characters. On this page, you will receive the second part of the code. The first part of the completion code will be on the next page.\n<br><br>\nThe second part of your completion code is: <b>EWEK22</b>\n<br><br>\nPlease note this down. Then, press 'Finish HIT' in order to find the first part of your completion code. Once the data has been saved, you will receive this code either in this window or in the original browser window where you started the experiment.\n", "response": 0, "trial_type": "html-button-response", "trial_index": 53, "time_elapsed": 1904906, "internal_node_id": "0.0-6.0-6.0"}}], "questiondata": {"params": {"CODE": "C6DMOQA6", "MIN_TIME": 14, "inspectCost": 1, "startTime": "Thu Aug 31 2023 13:18:34 GMT+0200 (South Africa Standard Time)", "bonusRate": 0.002, "variance": "1_2_4_8_44", "branching": "31123"}}, "eventdata": [{"eventtype": "initialized", "value": null, "timestamp": 1693480713874, "interval": 0}, {"eventtype": "window_resize", "value": [1024, 654], "timestamp": 1693480713875, "interval": 1}, {"eventtype": "window_resize", "value": [1024, 654], "timestamp": 1693480714472, "interval": 597}, {"eventtype": "window_resize", "value": [1366, 768], "timestamp": 1693480723684, "interval": 9212}], "useragent": "Mozilla/5.0 (Windows NT 10.0; Win64; x64) AppleWebKit/537.36 (KHTML, like Gecko) Chrome/116.0.0.0 Safari/537.36", "mode": "live", "id": "w14584874:a37677642", "status": "user data saved", "Beginhit": "2023-08-31 11:18:31.578385", "Beginexp": "2023-08-31 11:18:46.07051", "Endhit": "2023-08-31 11:50:28.186145", "psiturkStatus": 3, "browser": "<redacted>", "platform": "windows", "language": "en-ZA"}