{"condition": 0, "counterbalance": 0, "assignmentId": "a30850158", "workerId": "w27172308", "hitId": "h22325922", "currenttrial": 55, "bonus": 0, "data": [{"uniqueid": "w27172308:a30850158", "current_trial": 0, "dateTime": 1691141987005, "trialdata": {"success": true, "trial_type": "fullscreen", "trial_index": 0, "time_elapsed": 3685, "internal_node_id": "0.0-0.0"}}, {"uniqueid": "w27172308:a30850158", "current_trial": 1, "dateTime": 1691142039029, "trialdata": {"view_history": [{"page_index": 0, "viewing_time": 52012}], "rt": 52013, "trial_id": "exp_instructions_control", "trial_type": "instructions", "trial_index": 1, "time_elapsed": 55710, "internal_node_id": "0.0-1.0"}}, {"uniqueid": "w27172308:a30850158", "current_trial": 2, "dateTime": 1691142047468, "trialdata": {"success": true, "trial_type": "fullscreen", "trial_index": 2, "time_elapsed": 64149, "internal_node_id": "0.0-2.0-0.0"}}, {"uniqueid": "w27172308:a30850158", "current_trial": 3, "dateTime": 1691142501854, "trialdata": {"view_history": [{"page_index": 0, "viewing_time": 146170}, {"page_index": 1, "viewing_time": 159162}, {"page_index": 2, "viewing_time": 57148}, {"page_index": 3, "viewing_time": 91901}], "rt": 454381, "trial_id": "mouselab_instructions_1_control", "trial_type": "instructions", "trial_index": 3, "time_elapsed": 518535, "internal_node_id": "0.0-2.0-1.0"}}, {"uniqueid": "w27172308:a30850158", "current_trial": 4, "dateTime": 1691142536951, "trialdata": {"revealed_states": [], "clicked_states": ["1", "2", "3", "4", "5"], "num_clicks_accrued": [0, 0, 0, 0, 0, 0, 0, 0, 0, 0, 0, 0, 0], "stateRewards": ["", 10, 10, -10, 10, -10, -10, 10, -10, -10, 10, 10, 10, -10, 10, -10, -10, 10, 10, 10, 10, -10, 10, -10, 10, -10, 10, -10, -10, -10, 10, 10, -10, -10], "withholdReward": false, "trial_id": "practice_1", "block": "test", "trialIndex": 0, "score": 11, "costs": -2.5, "simulationMode": [null, null, null, null, null], "rewards": [10, 10, -10, 10, -10], "path": ["0", "0", "1", "2", "3", "4", "5"], "rt": [24715, 326, 128, 109, 279], "actions": ["up", "up", "up", "right", "up"], "actionTimes": [26140, 26978, 27629, 28244, 29029], "queries": {"click": {"state": {"target": ["1", "2", "3", "4", "5"], "time": [3472, 6102, 9043, 14349, 16090]}, "edge": {"target": [], "time": []}}, "mouseover": {"state": {"target": ["1", "0", "0", "2", "3", "1", "1", "2", "3", "4", "5", "7", "12"], "time": [2724, 4693, 5014, 5524, 8275, 10845, 12043, 13242, 13461, 13851, 15573, 17879, 24690]}, "edge": {"target": [], "time": []}}, "mouseout": {"state": {"target": ["0", "0", "1", "0", "0", "1", "2", "3", "2", "1", "1", "2", "3", "4", "5", "4", "7", "12"], "time": [18, 2583, 4105, 4710, 5037, 5464, 8119, 9960, 10242, 11236, 13176, 13295, 13560, 15407, 17762, 17844, 17924, 24973]}, "edge": {"target": [], "time": []}}}, "displayed_time": "29.55", "trialTime": 33771, "trial_type": "mouselab-mdp", "trial_index": 4, "time_elapsed": 553630, "internal_node_id": "0.0-2.0-2.0-0.0"}}, {"uniqueid": "w27172308:a30850158", "current_trial": 5, "dateTime": 1691142558555, "trialdata": {"revealed_states": [], "clicked_states": ["23", "24", "25", "30", "33"], "num_clicks_accrued": [0, 0, 0, 0, 0, 0, 0, 0, 0, 0, 0, 0, 0], "stateRewards": ["", -10, -10, -10, -10, 10, -10, -10, -10, -10, -10, 10, 10, 10, -10, 10, 10, 10, 10, 10, -10, 10, -10, 10, 10, 10, -10, -10, 10, -10, -10, -10, -10, -10], "withholdReward": false, "trial_id": "practice_2", "block": "test", "trialIndex": 1, "score": 11, "costs": -2.5, "simulationMode": [null, null, null, null, null], "rewards": [10, 10, 10, -10, -10], "path": ["0", "0", "23", "24", "25", "30", "33"], "rt": [11389, 447, 175, 93, 49], "actions": ["left", "left", "left", "down", "left"], "actionTimes": [13846, 14820, 15514, 16117, 16673], "queries": {"click": {"state": {"target": ["23", "24", "25", "30", "33"], "time": [4018, 6418, 9155, 10474, 11947]}, "edge": {"target": [], "time": []}}, "mouseover": {"state": {"target": ["23", "24", "25", "30", "33"], "time": [3419, 5330, 8401, 9824, 11172]}, "edge": {"target": [], "time": []}}, "mouseout": {"state": {"target": ["0", "23", "24", "25", "30", "33"], "time": [3360, 5265, 8259, 9735, 11137, 12488]}, "edge": {"target": [], "time": []}}}, "displayed_time": "17.19", "trialTime": 21259, "trial_type": "mouselab-mdp", "trial_index": 5, "time_elapsed": 575233, "internal_node_id": "0.0-2.0-2.0-1.0"}}, {"uniqueid": "w27172308:a30850158", "current_trial": 6, "dateTime": 1691142678996, "trialdata": {"view_history": [{"page_index": 0, "viewing_time": 100113}, {"page_index": 1, "viewing_time": 20317}], "rt": 120430, "trial_id": "mouselab_instructions_2_control", "trial_type": "instructions", "trial_index": 6, "time_elapsed": 695677, "internal_node_id": "0.0-2.0-3.0"}}, {"uniqueid": "w27172308:a30850158", "current_trial": 7, "dateTime": 1691142832141, "trialdata": {"rt": 153139, "response": {"Q0": "The cost for clicking on nodes may vary between nodes.", "Q1": "The better I perform the higher my bonus will be.", "Q2": "No, the amount of cash at each node of the web may be different each time.", "Q3": "To get the highest total score.", "Q4": "Only before moving the spider.", "Q5": "3 seconds"}, "question_order": [0, 1, 2, 3, 4, 5], "correct": {"Q0": "The cost for clicking on nodes may vary between nodes.", "Q1": "The better I perform the higher my bonus will be.", "Q2": "No, the amount of cash at each node of the web may be different each time.", "Q3": "To get the highest total score.", "Q4": "Only before moving the spider.", "Q5": "3 seconds"}, "trial_id": "mouselab_quiz_control", "trial_type": "survey-multi-choice", "trial_index": 7, "time_elapsed": 848822, "internal_node_id": "0.0-2.0-4.0"}}, {"uniqueid": "w27172308:a30850158", "current_trial": 8, "dateTime": 1691142854246, "trialdata": {"rt": 22094, "stimulus": "\n<h1> Get ready to start the game! </h1>\n\nThank you for reading the instructions. Get ready start with the 40 rounds of this game.\n<br><br>\nIf you need to take a break, feel free to take one after the end of a round, before continuing to the next one.\n<br><br>\nRemember, the more money the spider gets, the bigger your bonus will be!\n<br><br>\n<div style='text-align: center;'>Press <code>space</code> to begin.</div>\n\n<br><br>\n(If, at any point, the <code>space</code> key does not take you to the next page, click once on the text and try again.)", "response": " ", "trial_id": "mdp_ready", "trial_type": "html-keyboard-response", "trial_index": 8, "time_elapsed": 870926, "internal_node_id": "0.0-4.0-0.0"}}, {"uniqueid": "w27172308:a30850158", "current_trial": 9, "dateTime": 1691142876936, "trialdata": {"revealed_states": [], "clicked_states": [], "num_clicks_accrued": [0, 0, 0, 0, 0, 0, 0, 0, 0, 0, 0, 0, 0], "stateRewards": ["", -2, 1, -5, 2, -68, 80, 33, 10, 67, -59, 20, -1, -3, 3, 14, 74, -2, 24, -16, 63, 80, 46, -1, 4, 6, 12, 83, -38, -43, -4, 43, 14, -79], "withholdReward": false, "trial_id": "mdp_trial_1", "block": "test", "trialIndex": 2, "score": 24, "costs": 0, "simulationMode": [null, null, null, null, null], "rewards": [-2, 1, -5, 10, 20], "path": ["0", "0", "1", "2", "3", "8", "11"], "rt": [2164, 401, 397, 2763, 188], "actions": ["up", "up", "up", "left", "left"], "actionTimes": [6201, 7115, 8027, 11309, 12018], "queries": {"click": {"state": {"target": [], "time": []}, "edge": {"target": [], "time": []}}, "mouseover": {"state": {"target": ["1", "0"], "time": [4776, 5106]}, "edge": {"target": [], "time": []}}, "mouseout": {"state": {"target": ["8", "10", "1", "0", "1", "0", "0", "1", "0"], "time": [957, 1021, 1411, 4650, 5007, 5365, 16566, 19116, 19231]}, "edge": {"target": [], "time": []}}}, "displayed_time": "18.04", "trialTime": 22328, "trial_type": "mouselab-mdp", "trial_index": 9, "time_elapsed": 893615, "internal_node_id": "0.0-4.0-1.0-0.0"}}, {"uniqueid": "w27172308:a30850158", "current_trial": 10, "dateTime": 1691142896847, "trialdata": {"revealed_states": [], "clicked_states": [], "num_clicks_accrued": [0, 0, 0, 0, 0, 0, 0, 0, 0, 0, 0, 0, 0], "stateRewards": ["", 1, 4, 5, 8, -55, -11, 8, 16, -37, 77, -22, -2, 3, -8, -10, 45, 87, -67, 4, 17, -33, -22, -1, -3, 7, 6, -39, -85, 75, -1, 7, -48, 45], "withholdReward": false, "trial_id": "mdp_trial_2", "block": "test", "trialIndex": 3, "score": 70, "costs": 0, "simulationMode": [null, null, null, null, null], "rewards": [-2, 3, -8, -10, 87], "path": ["0", "0", "12", "13", "14", "15", "17"], "rt": [1803, 304, 185, 1030, 69], "actions": ["right", "right", "right", "up", "right"], "actionTimes": [4470, 5302, 6016, 7546, 8137], "queries": {"click": {"state": {"target": [], "time": []}, "edge": {"target": [], "time": []}}, "mouseover": {"state": {"target": [], "time": []}, "edge": {"target": [], "time": []}}, "mouseout": {"state": {"target": ["0", "0", "23"], "time": [1646, 17454, 17513]}, "edge": {"target": [], "time": []}}}, "displayed_time": "16.67", "trialTime": 19564, "trial_type": "mouselab-mdp", "trial_index": 10, "time_elapsed": 913526, "internal_node_id": "0.0-4.0-1.0-1.0"}}, {"uniqueid": "w27172308:a30850158", "current_trial": 11, "dateTime": 1691142920883, "trialdata": {"revealed_states": [], "clicked_states": ["23"], "num_clicks_accrued": [0, 0, 0, 0, 0, 0, 0, 0, 0, 0, 0, 0, 0], "stateRewards": ["", -2, -1, -5, 10, -36, -70, 68, -9, 86, 71, -10, 2, -4, 7, -7, 66, 44, -66, -13, -69, 43, 15, -2, 2, 6, -13, 62, 57, 50, -10, -69, 42, -72], "withholdReward": false, "trial_id": "mdp_trial_3", "block": "test", "trialIndex": 4, "score": -69.4, "costs": -1.4, "simulationMode": [null, null, null, null, null], "rewards": [2, -4, 7, -7, -66], "path": ["0", "0", "12", "13", "14", "15", "18"], "rt": [4139, 1830, 275, 665, 4], "actions": ["right", "right", "right", "up", "left"], "actionTimes": [6514, 8863, 9659, 10849, 11374], "queries": {"click": {"state": {"target": ["23"], "time": [3486]}, "edge": {"target": [], "time": []}}, "mouseover": {"state": {"target": ["23", "0"], "time": [2930, 4465]}, "edge": {"target": [], "time": []}}, "mouseout": {"state": {"target": ["0", "23", "0", "0", "23", "31"], "time": [2686, 4416, 4513, 20629, 20742, 20905]}, "edge": {"target": [], "time": []}}}, "displayed_time": "16.38", "trialTime": 23682, "trial_type": "mouselab-mdp", "trial_index": 11, "time_elapsed": 937562, "internal_node_id": "0.0-4.0-1.0-2.0"}}, {"uniqueid": "w27172308:a30850158", "current_trial": 12, "dateTime": 1691142940032, "trialdata": {"revealed_states": [], "clicked_states": [], "num_clicks_accrued": [0, 0, 0, 0, 0, 0, 0, 0, 0, 0, 0, 0, 0], "stateRewards": ["", -1, -3, -7, -4, -85, -70, 79, 8, 84, -66, 42, 2, -2, -3, -16, -54, -66, 68, -3, 21, -14, 7, -2, -1, -3, -8, 75, 80, 86, -7, -84, 73, -16], "withholdReward": false, "trial_id": "mdp_trial_4", "block": "test", "trialIndex": 5, "score": -100, "costs": 0, "simulationMode": [null, null, null, null, null], "rewards": [-1, -3, -7, -4, -85], "path": ["0", "0", "1", "2", "3", "4", "5"], "rt": [1726, 58, 74, 1800, 1110], "actions": ["up", "up", "up", "right", "up"], "actionTimes": [3198, 3769, 4354, 6663, 8290], "queries": {"click": {"state": {"target": [], "time": []}, "edge": {"target": [], "time": []}}, "mouseover": {"state": {"target": [], "time": []}, "edge": {"target": [], "time": []}}, "mouseout": {"state": {"target": [], "time": []}, "edge": {"target": [], "time": []}}}, "displayed_time": "15.48", "trialTime": 18748, "trial_type": "mouselab-mdp", "trial_index": 12, "time_elapsed": 956710, "internal_node_id": "0.0-4.0-1.0-3.0"}}, {"uniqueid": "w27172308:a30850158", "current_trial": 13, "dateTime": 1691142958799, "trialdata": {"revealed_states": [], "clicked_states": [], "num_clicks_accrued": [0, 0, 0, 0, 0, 0, 0, 0, 0, 0, 0, 0, 0], "stateRewards": ["", 2, -1, -4, -13, 74, 77, 3, 2, -43, -2, -11, 2, 3, 7, 11, -26, -29, -33, -3, -3, -13, -3, 1, 3, -7, 14, -59, 33, 9, -5, 34, 79, 68], "withholdReward": false, "trial_id": "mdp_trial_5", "block": "test", "trialIndex": 6, "score": -4, "costs": 0, "simulationMode": [null, null, null, null, null], "rewards": [2, 3, 7, -3, -13], "path": ["0", "0", "12", "13", "14", "19", "21"], "rt": [10077, 57, 202, 752, 309], "actions": ["right", "right", "right", "down", "down"], "actionTimes": [11163, 11732, 12460, 13712, 14534], "queries": {"click": {"state": {"target": [], "time": []}, "edge": {"target": [], "time": []}}, "mouseover": {"state": {"target": ["12", "13", "15", "17", "15", "12", "12", "13"], "time": [2190, 2734, 3287, 4434, 7433, 7702, 9513, 9654]}, "edge": {"target": [], "time": []}}, "mouseout": {"state": {"target": ["0", "12", "13", "15", "17", "15", "12", "12"], "time": [1824, 2684, 3194, 4173, 7413, 7471, 8680, 9621]}, "edge": {"target": [], "time": []}}}, "displayed_time": "15.09", "trialTime": 18356, "trial_type": "mouselab-mdp", "trial_index": 13, "time_elapsed": 975478, "internal_node_id": "0.0-4.0-1.0-4.0"}}, {"uniqueid": "w27172308:a30850158", "current_trial": 14, "dateTime": 1691142982849, "trialdata": {"revealed_states": [], "clicked_states": ["23", "12", "16", "17"], "num_clicks_accrued": [0, 0, 0, 0, 0, 0, 0, 0, 0, 0, 0, 0, 0], "stateRewards": ["", 1, 3, 1, -13, 52, -28, 67, -14, 3, 63, -70, -1, -4, 7, -11, -10, 47, -18, 6, 69, -9, -61, 2, 3, -6, 10, 63, -34, 40, -6, -79, -35, -32], "withholdReward": false, "trial_id": "mdp_trial_6", "block": "test", "trialIndex": 7, "score": 32.4, "costs": -5.6, "simulationMode": [null, null, null, null, null], "rewards": [-1, -4, 7, -11, 47], "path": ["0", "0", "12", "13", "14", "15", "17"], "rt": [10392, 130, 217, 112, 31], "actions": ["right", "right", "right", "up", "right"], "actionTimes": [13803, 14454, 15173, 15784, 16319], "queries": {"click": {"state": {"target": ["23", "12", "16", "17"], "time": [4416, 6381, 8111, 10127]}, "edge": {"target": [], "time": []}}, "mouseover": {"state": {"target": ["23", "12", "18", "15", "16", "17", "15", "18", "22", "22", "12"], "time": [3883, 5865, 7134, 7172, 7433, 9418, 10674, 10719, 11731, 12270, 12985]}, "edge": {"target": [], "time": []}}, "mouseout": {"state": {"target": ["13", "0", "23", "12", "18", "15", "16", "17", "15", "18", "22", "22"], "time": [401, 3823, 5234, 7116, 7167, 7189, 8854, 10658, 10703, 10752, 11766, 12301]}, "edge": {"target": [], "time": []}}}, "displayed_time": "17.41", "trialTime": 23648, "trial_type": "mouselab-mdp", "trial_index": 14, "time_elapsed": 999527, "internal_node_id": "0.0-4.0-1.0-5.0"}}, {"uniqueid": "w27172308:a30850158", "current_trial": 15, "dateTime": 1691143004789, "trialdata": {"revealed_states": [], "clicked_states": ["29", "20"], "num_clicks_accrued": [0, 0, 0, 0, 0, 0, 0, 0, 0, 0, 0, 0, 0], "stateRewards": ["", -1, 2, -6, 6, -82, -19, -39, -16, -83, 11, -33, -2, -2, 4, -6, -82, -1, -19, -6, -10, -67, -41, -2, 1, -7, 16, -23, -78, -52, 14, 31, -71, 74], "withholdReward": false, "trial_id": "mdp_trial_7", "block": "test", "trialIndex": 8, "score": -56.8, "costs": -2.8, "simulationMode": [null, null, null, null, null], "rewards": [-1, 2, -6, -16, -33], "path": ["0", "0", "1", "2", "3", "8", "11"], "rt": [13437, 26, 80, 1086, 58], "actions": ["up", "up", "up", "left", "left"], "actionTimes": [14803, 15346, 15931, 17522, 18095], "queries": {"click": {"state": {"target": ["29", "20"], "time": [3037, 6686]}, "edge": {"target": [], "time": []}}, "mouseover": {"state": {"target": ["28", "26", "29", "26", "28", "12", "13", "14", "20", "21", "22", "12", "2", "8", "9", "1", "1", "0"], "time": [1795, 2026, 2525, 4362, 5530, 5593, 5614, 5630, 6036, 9222, 9798, 10378, 10477, 10820, 11295, 13268, 13754, 13988]}, "edge": {"target": [], "time": []}}, "mouseout": {"state": {"target": ["12", "28", "26", "29", "26", "28", "12", "13", "14", "20", "21", "22", "12", "2", "8", "9", "1", "1", "0"], "time": [523, 1925, 2109, 3136, 5468, 5563, 5610, 5626, 5642, 8146, 9548, 10347, 10395, 10543, 10846, 13194, 13291, 13920, 14021]}, "edge": {"target": [], "time": []}}}, "displayed_time": "18.62", "trialTime": 21523, "trial_type": "mouselab-mdp", "trial_index": 15, "time_elapsed": 1021467, "internal_node_id": "0.0-4.0-1.0-6.0"}}, {"uniqueid": "w27172308:a30850158", "current_trial": 16, "dateTime": 1691143027811, "trialdata": {"revealed_states": [], "clicked_states": ["33", "32", "9", "6", "11"], "num_clicks_accrued": [0, 0, 0, 0, 0, 0, 0, 0, 0, 0, 0, 0, 0], "stateRewards": ["", 1, -1, 8, -3, 38, 85, -20, -4, 8, 23, 73, 2, -4, 6, -13, 44, 7, -28, -11, -77, 45, -69, 1, -1, -7, -11, 75, -51, -87, 7, 36, -53, -26], "withholdReward": false, "trial_id": "mdp_trial_8", "block": "test", "trialIndex": 9, "score": 83, "costs": -7, "simulationMode": [null, null, null, null, null], "rewards": [1, -1, 8, -3, 85], "path": ["0", "0", "1", "2", "3", "4", "6"], "rt": [15036, 265, 89, 99, 700], "actions": ["up", "up", "up", "right", "right"], "actionTimes": [16496, 17288, 17891, 18499, 19701], "queries": {"click": {"state": {"target": ["33", "32", "9", "6", "11"], "time": [2945, 6089, 8784, 12316, 14698]}, "edge": {"target": [], "time": []}}, "mouseover": {"state": {"target": ["24", "25", "33", "33", "29", "32", "32", "31", "23", "1", "9", "4", "5", "6", "4", "3", "11", "2", "1"], "time": [1900, 1926, 2279, 2500, 4582, 5367, 5676, 6778, 7028, 7111, 8352, 10925, 11350, 11818, 13840, 13869, 14361, 15213, 15663]}, "edge": {"target": [], "time": []}}, "mouseout": {"state": {"target": ["0", "24", "25", "33", "33", "29", "33", "32", "32", "31", "23", "1", "9", "4", "5", "6", "4", "3", "11", "2"], "time": [929, 1919, 1941, 2326, 3509, 4868, 4941, 5393, 6695, 6994, 7047, 7394, 10747, 11199, 11684, 13799, 13856, 13912, 14805, 15233]}, "edge": {"target": [], "time": []}}}, "displayed_time": "20.22", "trialTime": 22577, "trial_type": "mouselab-mdp", "trial_index": 16, "time_elapsed": 1044492, "internal_node_id": "0.0-4.0-1.0-7.0"}}, {"uniqueid": "w27172308:a30850158", "current_trial": 17, "dateTime": 1691143059834, "trialdata": {"revealed_states": [], "clicked_states": ["20", "5", "6", "9", "11"], "num_clicks_accrued": [0, 0, 0, 0, 0, 0, 0, 0, 0, 0, 0, 0, 0], "stateRewards": ["", -1, -3, -3, 1, -38, 2, -53, -2, -1, -81, 70, -1, 1, -5, -9, 46, 15, 35, -1, -22, 38, 59, -2, 4, -8, 13, 1, -83, -43, 4, 76, 13, 48], "withholdReward": false, "trial_id": "mdp_trial_9", "block": "test", "trialIndex": 10, "score": 54, "costs": -7, "simulationMode": [null, null, null, null, null], "rewards": [-1, -3, -3, -2, 70], "path": ["0", "0", "1", "2", "3", "8", "11"], "rt": [15492, 170, 807, 177, 37], "actions": ["up", "up", "up", "left", "left"], "actionTimes": [22285, 22985, 24299, 25004, 25547], "queries": {"click": {"state": {"target": ["20", "5", "6", "9", "11"], "time": [8388, 11353, 13524, 15888, 18054]}, "edge": {"target": [], "time": []}}, "mouseover": {"state": {"target": ["12", "20", "19", "20", "14", "18", "4", "5", "5", "6", "9", "9", "11", "27", "29", "26", "12", "1"], "time": [7241, 7624, 7732, 7984, 9000, 9237, 9806, 10360, 10972, 12267, 14354, 14602, 16773, 18988, 19539, 21251, 21303, 21652]}, "edge": {"target": [], "time": []}}, "mouseout": {"state": {"target": ["1", "0", "12", "13", "12", "12", "20", "19", "20", "14", "18", "4", "5", "5", "6", "9", "9", "11", "27", "29", "26", "12"], "time": [922, 1585, 1980, 2047, 5918, 7258, 7651, 7906, 8948, 9200, 9263, 9839, 10665, 11933, 13937, 14436, 16338, 18638, 19022, 21231, 21264, 21607]}, "edge": {"target": [], "time": []}}}, "displayed_time": "26.04", "trialTime": 31645, "trial_type": "mouselab-mdp", "trial_index": 17, "time_elapsed": 1076513, "internal_node_id": "0.0-4.0-1.0-8.0"}}, {"uniqueid": "w27172308:a30850158", "current_trial": 18, "dateTime": 1691143083315, "trialdata": {"revealed_states": [], "clicked_states": [], "num_clicks_accrued": [0, 0, 0, 0, 0, 0, 0, 0, 0, 0, 0, 0, 0], "stateRewards": ["", 1, 2, -3, 6, -88, 74, -45, 7, -46, 40, -77, 1, -4, 4, 3, 22, -25, -59, 8, -83, 19, -60, -1, -1, -1, -8, 26, -29, 64, -7, -88, -51, -55], "withholdReward": false, "trial_id": "mdp_trial_10", "block": "test", "trialIndex": 11, "score": -98, "costs": 0, "simulationMode": [null, null, null, null, null], "rewards": [-1, -1, -1, -7, -88], "path": ["0", "0", "23", "24", "25", "30", "31"], "rt": [1571, 339, 191, 5, 90], "actions": ["left", "left", "left", "down", "right"], "actionTimes": [3438, 4302, 5026, 5533, 6135], "queries": {"click": {"state": {"target": [], "time": []}, "edge": {"target": [], "time": []}}, "mouseover": {"state": {"target": [], "time": []}, "edge": {"target": [], "time": []}}, "mouseout": {"state": {"target": ["1", "0", "0", "24", "30", "30", "32"], "time": [793, 2445, 16619, 17570, 17961, 19782, 21884]}, "edge": {"target": [], "time": []}}}, "displayed_time": "15.87", "trialTime": 23107, "trial_type": "mouselab-mdp", "trial_index": 18, "time_elapsed": 1099994, "internal_node_id": "0.0-4.0-1.0-9.0"}}, {"uniqueid": "w27172308:a30850158", "current_trial": 19, "dateTime": 1691143110170, "trialdata": {"revealed_states": [], "clicked_states": ["33", "32", "31", "29", "27", "28", "21"], "num_clicks_accrued": [0, 0, 0, 0, 0, 0, 0, 0, 0, 0, 0, 0, 0], "stateRewards": ["", 2, -1, 5, 8, 75, -35, -77, 1, -9, -81, -58, 1, 2, -7, 5, 77, -16, 19, 16, -10, -18, 40, -2, 3, 7, -5, 64, 1, -62, 10, 27, 10, 65], "withholdReward": false, "trial_id": "mdp_trial_11", "block": "test", "trialIndex": 12, "score": 57.2, "costs": -9.8, "simulationMode": [null, null, null, null, null], "rewards": [-2, 3, 7, -5, 64], "path": ["0", "0", "23", "24", "25", "26", "27"], "rt": [17603, 127, 407, 66, 319], "actions": ["left", "left", "left", "up", "up"], "actionTimes": [19546, 20192, 21104, 21696, 22533], "queries": {"click": {"state": {"target": ["33", "32", "31", "29", "27", "28", "21"], "time": [3423, 5114, 8765, 11445, 13276, 15150, 17594]}, "edge": {"target": [], "time": []}}, "mouseover": {"state": {"target": ["31", "30", "33", "32", "31", "25", "27", "26", "24", "31", "31", "26", "27", "29", "27", "28", "21", "22", "0"], "time": [2421, 2440, 2925, 3938, 5955, 7074, 7532, 7732, 7821, 8058, 8396, 9190, 9227, 10741, 12391, 14375, 17232, 18277, 18894]}, "edge": {"target": [], "time": []}}, "mouseout": {"state": {"target": ["0", "31", "30", "33", "32", "31", "25", "27", "26", "24", "31", "31", "26", "27", "29", "27", "28", "21", "22", "0"], "time": [2397, 2436, 2453, 3856, 5590, 7048, 7088, 7707, 7751, 8027, 8075, 9124, 9209, 10669, 11891, 13940, 15877, 18226, 18327, 18964]}, "edge": {"target": [], "time": []}}}, "displayed_time": "23.05", "trialTime": 26435, "trial_type": "mouselab-mdp", "trial_index": 19, "time_elapsed": 1126849, "internal_node_id": "0.0-4.0-1.0-10.0"}}, {"uniqueid": "w27172308:a30850158", "current_trial": 20, "dateTime": 1691143130237, "trialdata": {"revealed_states": [], "clicked_states": ["32", "9", "11", "5", "6"], "num_clicks_accrued": [0, 0, 0, 0, 0, 0, 0, 0, 0, 0, 0, 0, 0], "stateRewards": ["", -1, 2, -2, 5, 80, -61, -27, 12, 44, -26, -75, -2, -4, 1, -16, 42, -49, -50, 4, -44, 2, 80, -2, -2, 5, -2, 59, 10, 24, 7, -48, -86, -44], "withholdReward": false, "trial_id": "mdp_trial_12", "block": "test", "trialIndex": 13, "score": 77, "costs": -7, "simulationMode": [null, null, null, null, null], "rewards": [-1, 2, -2, 5, 80], "path": ["0", "0", "1", "2", "3", "4", "5"], "rt": [12675, 159, 125, 717, 7], "actions": ["up", "up", "up", "right", "up"], "actionTimes": [14070, 14748, 15381, 16606, 17129], "queries": {"click": {"state": {"target": ["32", "9", "11", "5", "6"], "time": [3116, 5913, 8101, 10415, 12517]}, "edge": {"target": [], "time": []}}, "mouseover": {"state": {"target": ["30", "32", "33", "33", "25", "10", "8", "9", "9", "11", "5", "6", "7", "1"], "time": [2252, 2579, 3914, 4181, 4764, 4828, 5114, 5212, 5514, 6999, 9018, 11203, 12954, 13237]}, "edge": {"target": [], "time": []}}, "mouseout": {"state": {"target": ["0", "30", "32", "33", "33", "25", "10", "8", "9", "9", "11", "5", "6", "7", "1"], "time": [1821, 2562, 3847, 3932, 4761, 4779, 5088, 5162, 5295, 6566, 8214, 10868, 12918, 12975, 18612]}, "edge": {"target": [], "time": []}}}, "displayed_time": "17.64", "trialTime": 19653, "trial_type": "mouselab-mdp", "trial_index": 20, "time_elapsed": 1146917, "internal_node_id": "0.0-4.0-1.0-11.0"}}, {"uniqueid": "w27172308:a30850158", "current_trial": 21, "dateTime": 1691143158897, "trialdata": {"revealed_states": [], "clicked_states": ["17", "18", "16", "6", "7", "5", "20", "21"], "num_clicks_accrued": [0, 0, 0, 0, 0, 0, 0, 0, 0, 0, 0, 0, 0], "stateRewards": ["", 2, 3, 6, -5, -74, -53, 17, -12, 46, 44, 18, -2, 4, 1, -8, 22, -23, -49, 9, -45, 55, 81, 1, -1, -7, -16, -83, -71, -45, 2, 51, 82, 61], "withholdReward": false, "trial_id": "mdp_trial_13", "block": "test", "trialIndex": 14, "score": 55.8, "costs": -11.200000000000001, "simulationMode": [null, null, null, null, null], "rewards": [-2, 4, 1, 9, 55], "path": ["0", "0", "12", "13", "14", "19", "21"], "rt": [20505, 7, 42, 160, 97], "actions": ["right", "right", "right", "down", "down"], "actionTimes": [22165, 22701, 23268, 23951, 24557], "queries": {"click": {"state": {"target": ["17", "18", "16", "6", "7", "5", "20", "21"], "time": [3033, 5396, 7623, 9296, 12018, 13619, 16372, 18142]}, "edge": {"target": [], "time": []}}, "mouseover": {"state": {"target": ["13", "14", "15", "17", "16", "18", "16", "6", "16", "6", "5", "4", "7", "4", "5", "4", "18", "19", "13", "13", "22", "20", "21", "22", "22", "12", "12"], "time": [1779, 1813, 2136, 2732, 3650, 4812, 5917, 6963, 7233, 8018, 10052, 11297, 11335, 12486, 12585, 14088, 14117, 14161, 14469, 14837, 14895, 16043, 17671, 18704, 19054, 20835, 21185]}, "edge": {"target": [], "time": []}}, "mouseout": {"state": {"target": ["0", "13", "14", "15", "17", "16", "18", "16", "6", "16", "6", "5", "4", "7", "4", "5", "4", "18", "19", "13", "13", "22", "20", "21", "22", "22", "12"], "time": [1747, 1795, 1829, 2364, 3415, 4596, 5497, 6850, 7124, 7743, 9428, 11288, 11308, 12112, 12520, 14069, 14110, 14141, 14419, 14502, 14866, 14936, 17304, 18604, 18887, 20652, 20852]}, "edge": {"target": [], "time": []}}}, "displayed_time": "25.06", "trialTime": 28261, "trial_type": "mouselab-mdp", "trial_index": 21, "time_elapsed": 1175578, "internal_node_id": "0.0-4.0-1.0-12.0"}}, {"uniqueid": "w27172308:a30850158", "current_trial": 22, "dateTime": 1691143176274, "trialdata": {"revealed_states": [], "clicked_states": ["27", "33"], "num_clicks_accrued": [0, 0, 0, 0, 0, 0, 0, 0, 0, 0, 0, 0, 0], "stateRewards": ["", 1, -3, -2, 14, 49, -40, -39, 2, 26, -61, 73, 1, -4, -8, 12, 79, 29, -65, -13, 55, -26, 27, -1, 3, 3, 9, -17, -60, -18, -8, 35, -88, 69], "withholdReward": false, "trial_id": "mdp_trial_14", "block": "test", "trialIndex": 15, "score": 63.2, "costs": -2.8, "simulationMode": [null, null, null, null, null], "rewards": [-1, 3, 3, -8, 69], "path": ["0", "0", "23", "24", "25", "30", "33"], "rt": [7806, 27, 327, 289, 526], "actions": ["left", "left", "left", "down", "left"], "actionTimes": [9725, 10272, 11105, 11899, 12952], "queries": {"click": {"state": {"target": ["27", "33"], "time": [3717, 6369]}, "edge": {"target": [], "time": []}}, "mouseover": {"state": {"target": ["23", "24", "26", "27", "29", "33", "29", "26"], "time": [2572, 2940, 3034, 3335, 4504, 5885, 7122, 8302]}, "edge": {"target": [], "time": []}}, "mouseout": {"state": {"target": ["12", "0", "23", "24", "26", "27", "29", "33", "29", "26"], "time": [464, 2350, 2650, 2969, 3191, 4156, 5384, 6725, 8268, 8434]}, "edge": {"target": [], "time": []}}}, "displayed_time": "15.92", "trialTime": 16983, "trial_type": "mouselab-mdp", "trial_index": 22, "time_elapsed": 1192955, "internal_node_id": "0.0-4.0-1.0-13.0"}}, {"uniqueid": "w27172308:a30850158", "current_trial": 23, "dateTime": 1691143194785, "trialdata": {"revealed_states": [], "clicked_states": ["20", "31"], "num_clicks_accrued": [0, 0, 0, 0, 0, 0, 0, 0, 0, 0, 0, 0, 0], "stateRewards": ["", 1, 3, -2, 15, 51, 15, -19, 11, 67, -45, -73, 2, 4, -2, -13, 36, 9, -28, 10, -30, 31, 16, 1, 2, -1, -16, 14, -22, 36, -1, 88, -5, 45], "withholdReward": false, "trial_id": "mdp_trial_15", "block": "test", "trialIndex": 16, "score": -6.8, "costs": -2.8, "simulationMode": [null, null, null, null, null], "rewards": [1, 2, -1, -1, -5], "path": ["0", "0", "23", "24", "25", "30", "32"], "rt": [6751, 125, 457, 77, 128], "actions": ["left", "left", "left", "down", "down"], "actionTimes": [8258, 8898, 9865, 10467, 11102], "queries": {"click": {"state": {"target": ["20", "31"], "time": [3121, 4928]}, "edge": {"target": [], "time": []}}, "mouseover": {"state": {"target": ["12", "13", "14", "20", "22", "31", "31", "32", "32", "30", "23"], "time": [2064, 2100, 2380, 2564, 3526, 4150, 4359, 5512, 5969, 7298, 7416]}, "edge": {"target": [], "time": []}}, "mouseout": {"state": {"target": ["0", "12", "13", "14", "20", "22", "31", "31", "32", "32", "30", "23", "31", "30"], "time": [2030, 2083, 2114, 2481, 3247, 3547, 4203, 5443, 5819, 7289, 7320, 7450, 15415, 17454]}, "edge": {"target": [], "time": []}}}, "displayed_time": "15.51", "trialTime": 18097, "trial_type": "mouselab-mdp", "trial_index": 23, "time_elapsed": 1211464, "internal_node_id": "0.0-4.0-1.0-14.0"}}, {"uniqueid": "w27172308:a30850158", "current_trial": 24, "dateTime": 1691143217890, "trialdata": {"revealed_states": [], "clicked_states": ["31", "33", "32", "27", "29", "9"], "num_clicks_accrued": [0, 0, 0, 0, 0, 0, 0, 0, 0, 0, 0, 0, 0], "stateRewards": ["", 2, -3, -5, 5, 11, -9, -33, 6, 67, 6, -30, -1, -2, -6, 13, 55, 13, 72, -14, 75, 21, -66, -2, -4, 6, 15, -1, -35, 60, 2, 51, -73, 12], "withholdReward": false, "trial_id": "mdp_trial_16", "block": "test", "trialIndex": 17, "score": 58.6, "costs": -8.4, "simulationMode": [null, null, null, null, null], "rewards": [2, -3, -5, 6, 67], "path": ["0", "0", "1", "2", "3", "8", "9"], "rt": [15327, 50, 11, 174, 102], "actions": ["up", "up", "up", "left", "up"], "actionTimes": [17057, 17619, 18161, 18853, 19466], "queries": {"click": {"state": {"target": ["31", "33", "32", "27", "29", "9"], "time": [2943, 5194, 7303, 9450, 11443, 13426]}, "edge": {"target": [], "time": []}}, "mouseover": {"state": {"target": ["31", "31", "30", "33", "32", "32", "30", "25", "26", "27", "27", "29", "11", "9", "5", "4", "7"], "time": [2202, 2579, 3309, 3552, 5654, 5840, 7726, 7768, 7843, 8189, 8487, 10157, 12140, 12242, 14273, 16088, 16111]}, "edge": {"target": [], "time": []}}, "mouseout": {"state": {"target": ["31", "0", "31", "31", "30", "33", "32", "32", "30", "25", "26", "27", "27", "29", "27", "11", "9", "5", "4", "7"], "time": [623, 2144, 2233, 3286, 3470, 5604, 5722, 7705, 7748, 7792, 8155, 8337, 9889, 11790, 11855, 12191, 13890, 16067, 16106, 16125]}, "edge": {"target": [], "time": []}}}, "displayed_time": "20.01", "trialTime": 22666, "trial_type": "mouselab-mdp", "trial_index": 24, "time_elapsed": 1234569, "internal_node_id": "0.0-4.0-1.0-15.0"}}, {"uniqueid": "w27172308:a30850158", "current_trial": 25, "dateTime": 1691143240724, "trialdata": {"revealed_states": [], "clicked_states": ["5", "6", "9", "11", "29"], "num_clicks_accrued": [0, 0, 0, 0, 0, 0, 0, 0, 0, 0, 0, 0, 0], "stateRewards": ["", 2, -1, 4, -9, -43, 7, 54, -13, 38, -40, -83, -1, 2, -8, -10, 34, -33, 11, -14, -79, 65, 26, 1, 2, 4, 10, 21, 1, 86, 4, -53, 28, -29], "withholdReward": false, "trial_id": "mdp_trial_17", "block": "test", "trialIndex": 18, "score": 96, "costs": -7, "simulationMode": [null, null, null, null, null], "rewards": [1, 2, 4, 10, 86], "path": ["0", "0", "23", "24", "25", "26", "29"], "rt": [13886, 263, 522, 259, 1014], "actions": ["left", "left", "left", "up", "left"], "actionTimes": [15479, 16256, 17299, 18084, 19623], "queries": {"click": {"state": {"target": ["5", "6", "9", "11", "29"], "time": [2726, 4791, 6793, 9654, 12126]}, "edge": {"target": [], "time": []}}, "mouseover": {"state": {"target": ["4", "5", "6", "4", "9", "11", "11", "27", "27", "29", "27", "28", "23"], "time": [2017, 2368, 3816, 5037, 5150, 7225, 8745, 10003, 10369, 11549, 12686, 14274, 14419]}, "edge": {"target": [], "time": []}}, "mouseout": {"state": {"target": ["0", "0", "4", "5", "5", "6", "4", "9", "11", "11", "27", "27", "29", "27", "28", "23"], "time": [585, 1649, 2047, 2827, 3349, 5017, 5055, 7170, 7261, 9936, 10088, 11135, 12239, 14256, 14305, 14522]}, "edge": {"target": [], "time": []}}}, "displayed_time": "20.14", "trialTime": 22423, "trial_type": "mouselab-mdp", "trial_index": 25, "time_elapsed": 1257404, "internal_node_id": "0.0-4.0-1.0-16.0"}}, {"uniqueid": "w27172308:a30850158", "current_trial": 26, "dateTime": 1691143257420, "trialdata": {"revealed_states": [], "clicked_states": ["16"], "num_clicks_accrued": [0, 0, 0, 0, 0, 0, 0, 0, 0, 0, 0, 0, 0], "stateRewards": ["", -2, 4, -7, -3, -76, 39, -28, 10, 14, 12, 60, 2, -3, 6, -10, 88, -34, -41, -3, 72, -13, -56, 1, 3, 2, 8, -51, 23, -57, 1, 14, -46, -16], "withholdReward": false, "trial_id": "mdp_trial_18", "block": "test", "trialIndex": 19, "score": 81.6, "costs": -1.4, "simulationMode": [null, null, null, null, null], "rewards": [2, -3, 6, -10, 88], "path": ["0", "0", "12", "13", "14", "15", "16"], "rt": [4864, 107, 74, 357, 57], "actions": ["right", "right", "right", "up", "up"], "actionTimes": [6560, 7182, 7768, 8635, 9218], "queries": {"click": {"state": {"target": ["16"], "time": [3377]}, "edge": {"target": [], "time": []}}, "mouseover": {"state": {"target": ["12", "15", "18", "16", "17", "13", "12"], "time": [1818, 2284, 2624, 3001, 4239, 5575, 5854]}, "edge": {"target": [], "time": []}}, "mouseout": {"state": {"target": ["0", "12", "15", "18", "16", "17", "13", "12"], "time": [1784, 1967, 2611, 2786, 3840, 5306, 5605, 5871]}, "edge": {"target": [], "time": []}}}, "displayed_time": "15.70", "trialTime": 16282, "trial_type": "mouselab-mdp", "trial_index": 26, "time_elapsed": 1274099, "internal_node_id": "0.0-4.0-1.0-17.0"}}, {"uniqueid": "w27172308:a30850158", "current_trial": 27, "dateTime": 1691143274402, "trialdata": {"revealed_states": [], "clicked_states": ["29", "21"], "num_clicks_accrued": [0, 0, 0, 0, 0, 0, 0, 0, 0, 0, 0, 0, 0], "stateRewards": ["", -2, 2, 3, -7, 76, 63, 21, 15, 35, -8, -44, 1, 1, -2, -12, 23, 24, 76, -9, 46, 66, -49, -2, -1, 7, 12, 40, -71, -45, -6, 38, -49, 46], "withholdReward": false, "trial_id": "mdp_trial_19", "block": "test", "trialIndex": 20, "score": 54.2, "costs": -2.8, "simulationMode": [null, null, null, null, null], "rewards": [1, 1, -2, -9, 66], "path": ["0", "0", "12", "13", "14", "19", "21"], "rt": [6484, 623, 81, 389, 44], "actions": ["right", "right", "right", "down", "down"], "actionTimes": [8024, 9175, 9788, 10675, 11248], "queries": {"click": {"state": {"target": ["29", "21"], "time": [2555, 4669]}, "edge": {"target": [], "time": []}}, "mouseover": {"state": {"target": ["28", "26", "26", "29", "23", "21", "21", "20", "12", "0"], "time": [1708, 1760, 2014, 2076, 3066, 3551, 3966, 5169, 6829, 7322]}, "edge": {"target": [], "time": []}}, "mouseout": {"state": {"target": ["0", "0", "28", "26", "26", "29", "23", "21", "21", "20", "12", "0"], "time": [601, 1610, 1743, 1794, 2044, 3027, 3088, 3596, 5063, 6789, 6846, 7348]}, "edge": {"target": [], "time": []}}}, "displayed_time": "15.54", "trialTime": 16534, "trial_type": "mouselab-mdp", "trial_index": 27, "time_elapsed": 1291082, "internal_node_id": "0.0-4.0-1.0-18.0"}}, {"uniqueid": "w27172308:a30850158", "current_trial": 28, "dateTime": 1691143294835, "trialdata": {"revealed_states": [], "clicked_states": ["5", "6", "11", "9"], "num_clicks_accrued": [0, 0, 0, 0, 0, 0, 0, 0, 0, 0, 0, 0, 0], "stateRewards": ["", -1, -4, 8, 8, -68, 47, 24, -7, -61, 49, -69, -1, -1, 8, -7, 42, 1, -45, -11, 10, -63, -6, 1, 4, 6, -16, 79, -37, -58, -12, 81, 18, -53], "withholdReward": false, "trial_id": "mdp_trial_20", "block": "test", "trialIndex": 21, "score": 52.4, "costs": -5.6, "simulationMode": [null, null, null, null, null], "rewards": [-1, -4, 8, 8, 47], "path": ["0", "0", "1", "2", "3", "4", "6"], "rt": [11841, 206, 525, 465, 44], "actions": ["up", "up", "up", "right", "right"], "actionTimes": [15030, 15782, 16815, 17788, 18351], "queries": {"click": {"state": {"target": ["5", "6", "11", "9"], "time": [4792, 6959, 9590, 12100]}, "edge": {"target": [], "time": []}}, "mouseover": {"state": {"target": ["2", "5", "6", "6", "9", "9", "11", "9", "10", "10"], "time": [3622, 4315, 5415, 5950, 7570, 7970, 9131, 11582, 13155, 13420]}, "edge": {"target": [], "time": []}}, "mouseout": {"state": {"target": ["0", "23", "24", "25", "25", "24", "0", "2", "5", "6", "6", "9", "9", "11", "9", "10", "10"], "time": [1687, 1730, 1835, 1962, 2112, 2128, 3603, 3637, 5257, 5614, 7449, 7606, 8630, 11518, 12602, 13215, 14064]}, "edge": {"target": [], "time": []}}}, "displayed_time": "18.88", "trialTime": 20012, "trial_type": "mouselab-mdp", "trial_index": 28, "time_elapsed": 1311514, "internal_node_id": "0.0-4.0-1.0-19.0"}}, {"uniqueid": "w27172308:a30850158", "current_trial": 29, "dateTime": 1691143330353, "trialdata": {"revealed_states": [], "clicked_states": ["27", "29", "11", "10", "9", "5", "16", "18", "17", "20"], "num_clicks_accrued": [0, 0, 0, 0, 0, 0, 0, 0, 0, 0, 0, 0, 0], "stateRewards": ["", -2, 3, -5, -7, 66, 43, -60, -4, -70, -75, 4, -1, 2, 2, -13, 54, 11, -40, -1, 77, 32, 15, -2, 3, -8, -9, -35, 83, -27, 6, -74, -34, 44], "withholdReward": false, "trial_id": "mdp_trial_21", "block": "test", "trialIndex": 22, "score": 65, "costs": -14.000000000000002, "simulationMode": [null, null, null, null, null], "rewards": [-1, 2, 2, -1, 77], "path": ["0", "0", "12", "13", "14", "19", "20"], "rt": [28375, 49, 7, 397, 30], "actions": ["right", "right", "right", "down", "right"], "actionTimes": [31131, 31702, 32224, 33147, 33698], "queries": {"click": {"state": {"target": ["27", "29", "11", "10", "9", "5", "16", "18", "17", "20"], "time": [3921, 6375, 9351, 11486, 14237, 16910, 19643, 22347, 24596, 27887]}, "edge": {"target": [], "time": []}}, "mouseover": {"state": {"target": ["23", "28", "26", "27", "29", "33", "32", "23", "3", "9", "8", "11", "10", "9", "9", "8", "9", "4", "5", "6", "16", "16", "18", "15", "17", "20", "20", "19", "13", "12"], "time": [3097, 3151, 3202, 3503, 4757, 6905, 7308, 7921, 8306, 8642, 8812, 8971, 10240, 12023, 12258, 13508, 13791, 15163, 16442, 18126, 18555, 19032, 21692, 23712, 24192, 27096, 27422, 29948, 30060, 30294]}, "edge": {"target": [], "time": []}}, "mouseout": {"state": {"target": ["1", "23", "28", "26", "27", "29", "29", "33", "32", "23", "3", "9", "8", "11", "11", "10", "9", "9", "8", "9", "4", "5", "6", "16", "16", "18", "15", "17", "20", "20", "19", "13"], "time": [1808, 3118, 3168, 3434, 4422, 6474, 6788, 6964, 7871, 7936, 8352, 8720, 8876, 9449, 10123, 11822, 12061, 13431, 13674, 15074, 15558, 17984, 18504, 18907, 21608, 23675, 23733, 27011, 27128, 29927, 29970, 30175]}, "edge": {"target": [], "time": []}}}, "displayed_time": "34.20", "trialTime": 34982, "trial_type": "mouselab-mdp", "trial_index": 29, "time_elapsed": 1347032, "internal_node_id": "0.0-4.0-1.0-20.0"}}, {"uniqueid": "w27172308:a30850158", "current_trial": 30, "dateTime": 1691143347490, "trialdata": {"revealed_states": [], "clicked_states": ["33"], "num_clicks_accrued": [0, 0, 0, 0, 0, 0, 0, 0, 0, 0, 0, 0, 0], "stateRewards": ["", 2, -4, -4, 13, -80, 62, 13, -11, 57, -13, -44, 1, 4, 3, -4, -29, -88, 15, 16, -58, 68, -45, -1, -3, -1, -9, -44, -86, -19, -7, -36, 59, 66], "withholdReward": false, "trial_id": "mdp_trial_22", "block": "test", "trialIndex": 23, "score": 52.6, "costs": -1.4, "simulationMode": [null, null, null, null, null], "rewards": [-1, -3, -1, -7, 66], "path": ["0", "0", "23", "24", "25", "30", "33"], "rt": [4171, 257, 363, 64, 27], "actions": ["left", "left", "left", "down", "left"], "actionTimes": [6448, 7232, 8106, 8688, 9235], "queries": {"click": {"state": {"target": ["33"], "time": [3704]}, "edge": {"target": [], "time": []}}, "mouseover": {"state": {"target": ["23", "33", "32"], "time": [2782, 3066, 4397]}, "edge": {"target": [], "time": []}}, "mouseout": {"state": {"target": ["12", "0", "23", "33", "32"], "time": [1001, 2740, 2898, 4308, 5742]}, "edge": {"target": [], "time": []}}}, "displayed_time": "16.28", "trialTime": 16686, "trial_type": "mouselab-mdp", "trial_index": 30, "time_elapsed": 1364169, "internal_node_id": "0.0-4.0-1.0-21.0"}}, {"uniqueid": "w27172308:a30850158", "current_trial": 31, "dateTime": 1691143374622, "trialdata": {"revealed_states": [], "clicked_states": ["29", "27", "9", "5", "6", "16", "17"], "num_clicks_accrued": [0, 0, 0, 0, 0, 0, 0, 0, 0, 0, 0, 0, 0], "stateRewards": ["", 2, -3, -8, 14, -7, -51, 73, 2, 36, 36, -43, -1, 3, -4, 1, 6, 87, -65, 15, 61, -42, -83, -1, 3, -2, -7, 30, -48, 35, 13, 26, 60, 78], "withholdReward": false, "trial_id": "mdp_trial_23", "block": "test", "trialIndex": 24, "score": 76.2, "costs": -9.8, "simulationMode": [null, null, null, null, null], "rewards": [-1, 3, -4, 1, 87], "path": ["0", "0", "12", "13", "14", "15", "17"], "rt": [18316, 123, 1356, 148, 625], "actions": ["right", "right", "right", "up", "right"], "actionTimes": [20546, 21186, 23066, 23729, 24854], "queries": {"click": {"state": {"target": ["29", "27", "9", "5", "6", "16", "17"], "time": [3567, 5805, 8061, 10385, 12724, 14854, 17298]}, "edge": {"target": [], "time": []}}, "mouseover": {"state": {"target": ["23", "29", "27", "8", "9", "5", "5", "6", "16", "17", "20", "13"], "time": [2398, 3142, 4175, 6110, 6535, 8451, 8811, 10924, 13362, 16760, 19168, 19508]}, "edge": {"target": [], "time": []}}, "mouseout": {"state": {"target": ["0", "23", "29", "27", "8", "9", "5", "5", "6", "16", "17", "20", "13"], "time": [2364, 2416, 4008, 6052, 6148, 8390, 8475, 10887, 13341, 16082, 18493, 19409, 19555]}, "edge": {"target": [], "time": []}}}, "displayed_time": "25.38", "trialTime": 26663, "trial_type": "mouselab-mdp", "trial_index": 31, "time_elapsed": 1391301, "internal_node_id": "0.0-4.0-1.0-22.0"}}, {"uniqueid": "w27172308:a30850158", "current_trial": 32, "dateTime": 1691143394879, "trialdata": {"revealed_states": [], "clicked_states": ["32", "31", "33", "29"], "num_clicks_accrued": [0, 0, 0, 0, 0, 0, 0, 0, 0, 0, 0, 0, 0], "stateRewards": ["", 1, -4, 6, -3, 40, 76, -51, 5, -24, -63, 44, -2, -2, 8, 1, 76, -85, -58, 10, 59, 20, 11, -2, 3, -3, 3, -82, -10, 54, -7, -57, -6, -32], "withholdReward": false, "trial_id": "mdp_trial_24", "block": "test", "trialIndex": 25, "score": 49.4, "costs": -5.6, "simulationMode": [null, null, null, null, null], "rewards": [-2, 3, -3, 3, 54], "path": ["0", "0", "23", "24", "25", "26", "29"], "rt": [12826, 9, 124, 56, 648], "actions": ["left", "left", "left", "up", "left"], "actionTimes": [15021, 15559, 16206, 16772, 17948], "queries": {"click": {"state": {"target": ["32", "31", "33", "29"], "time": [3920, 6637, 9540, 11564]}, "edge": {"target": [], "time": []}}, "mouseover": {"state": {"target": ["0", "24", "30", "32", "31", "30", "31", "30", "33", "33", "29", "29", "27", "11", "9", "8", "10"], "time": [2438, 2604, 2854, 3531, 4796, 6043, 6255, 7166, 7278, 9127, 10036, 10460, 11945, 12368, 12690, 14162, 14183]}, "edge": {"target": [], "time": []}}, "mouseout": {"state": {"target": ["12", "0", "24", "30", "32", "31", "30", "31", "30", "33", "33", "29", "29", "27", "11", "9", "8", "10"], "time": [828, 2488, 2671, 3122, 4441, 5951, 6176, 7142, 7240, 7780, 9978, 10057, 11873, 12295, 12633, 14145, 14179, 14199]}, "edge": {"target": [], "time": []}}}, "displayed_time": "18.47", "trialTime": 19816, "trial_type": "mouselab-mdp", "trial_index": 32, "time_elapsed": 1411558, "internal_node_id": "0.0-4.0-1.0-23.0"}}, {"uniqueid": "w27172308:a30850158", "current_trial": 33, "dateTime": 1691143411510, "trialdata": {"revealed_states": [], "clicked_states": ["9", "11", "7", "18"], "num_clicks_accrued": [0, 0, 0, 0, 0, 0, 0, 0, 0, 0, 0, 0, 0], "stateRewards": ["", 2, 3, -2, -8, -8, -41, 74, 15, -23, -80, 1, 1, 3, 3, -15, -63, -78, 67, 13, 75, -41, 86, 2, -2, 6, -3, -8, -49, 50, -6, 83, 74, 80], "withholdReward": false, "trial_id": "mdp_trial_25", "block": "test", "trialIndex": 26, "score": 63.4, "costs": -5.6, "simulationMode": [null, null, null, null, null], "rewards": [2, 3, -2, -8, 74], "path": ["0", "0", "1", "2", "3", "4", "7"], "rt": [8861, 16, 31, 551, 36], "actions": ["up", "up", "up", "right", "down"], "actionTimes": [10662, 11178, 11725, 12781, 13333], "queries": {"click": {"state": {"target": ["9", "11", "7", "18"], "time": [3063, 5676, 7375, 8922]}, "edge": {"target": [], "time": []}}, "mouseover": {"state": {"target": ["1", "2", "3", "9", "11", "11", "8", "6", "7", "18"], "time": [2151, 2204, 2238, 2654, 3768, 5269, 6100, 6647, 6808, 8311]}, "edge": {"target": [], "time": []}}, "mouseout": {"state": {"target": ["0", "1", "2", "3", "9", "11", "11", "8", "6", "7", "7", "18"], "time": [2086, 2201, 2235, 2547, 3511, 5076, 6078, 6139, 6667, 7506, 7924, 9547]}, "edge": {"target": [], "time": []}}}, "displayed_time": "15.80", "trialTime": 16187, "trial_type": "mouselab-mdp", "trial_index": 33, "time_elapsed": 1428189, "internal_node_id": "0.0-4.0-1.0-24.0"}}, {"uniqueid": "w27172308:a30850158", "current_trial": 34, "dateTime": 1691143434807, "trialdata": {"revealed_states": [], "clicked_states": ["27", "33", "31", "22", "18"], "num_clicks_accrued": [0, 0, 0, 0, 0, 0, 0, 0, 0, 0, 0, 0, 0], "stateRewards": ["", -2, 1, 6, -2, -10, -78, -69, 14, -15, 7, -1, 1, -1, -2, 13, 77, 32, 87, 5, -74, 30, -26, 1, 3, 4, 12, 39, 54, -43, 2, 10, 23, 13], "withholdReward": false, "trial_id": "mdp_trial_26", "block": "test", "trialIndex": 27, "score": 91, "costs": -7, "simulationMode": [null, null, null, null, null], "rewards": [1, -1, -2, 13, 87], "path": ["0", "0", "12", "13", "14", "15", "18"], "rt": [14232, 275, 180, 701, 647], "actions": ["right", "right", "right", "up", "left"], "actionTimes": [15747, 16551, 17254, 18459, 19621], "queries": {"click": {"state": {"target": ["27", "33", "31", "22", "18"], "time": [2873, 5546, 7669, 10229, 12954]}, "edge": {"target": [], "time": []}}, "mouseover": {"state": {"target": ["23", "24", "25", "26", "27", "29", "33", "33", "30", "31", "22", "22", "20", "14", "18", "15", "17", "17", "15", "13"], "time": [1946, 2014, 2146, 2212, 2436, 3565, 4856, 5098, 6082, 6353, 9622, 9806, 11513, 12358, 12432, 13402, 13431, 14119, 15092, 15136]}, "edge": {"target": [], "time": []}}, "mouseout": {"state": {"target": ["23", "24", "25", "26", "27", "29", "33", "33", "30", "31", "22", "22", "20", "14", "18", "15", "17", "17", "15"], "time": [1996, 2095, 2179, 2279, 3433, 4531, 4925, 6058, 6153, 8138, 9647, 11054, 12048, 12384, 13065, 13426, 13470, 15071, 15111]}, "edge": {"target": [], "time": []}}}, "displayed_time": "20.14", "trialTime": 22791, "trial_type": "mouselab-mdp", "trial_index": 34, "time_elapsed": 1451486, "internal_node_id": "0.0-4.0-1.0-25.0"}}, {"uniqueid": "w27172308:a30850158", "current_trial": 35, "dateTime": 1691143455316, "trialdata": {"revealed_states": [], "clicked_states": ["17", "18", "11", "5"], "num_clicks_accrued": [0, 0, 0, 0, 0, 0, 0, 0, 0, 0, 0, 0, 0], "stateRewards": ["", 1, 1, 4, 11, 83, -66, 18, -16, -23, 5, 25, 1, -3, 1, -12, 18, 24, -86, -11, -64, 36, 40, 2, 1, -6, 13, 55, 29, 72, -2, 81, -72, -41], "withholdReward": false, "trial_id": "mdp_trial_27", "block": "test", "trialIndex": 28, "score": 94.4, "costs": -5.6, "simulationMode": [null, null, null, null, null], "rewards": [1, 1, 4, 11, 83], "path": ["0", "0", "1", "2", "3", "4", "5"], "rt": [11581, 224, 313, 990, 825], "actions": ["up", "up", "up", "right", "up"], "actionTimes": [13427, 14177, 15014, 16524, 17876], "queries": {"click": {"state": {"target": ["17", "18", "11", "5"], "time": [3416, 5623, 7957, 10465]}, "edge": {"target": [], "time": []}}, "mouseover": {"state": {"target": ["12", "13", "14", "15", "17", "15", "18", "7", "2", "8", "11", "10", "10", "3", "5", "6", "6", "7"], "time": [2298, 2332, 2699, 2822, 3073, 3838, 4083, 6214, 6275, 6570, 7060, 8567, 9385, 9410, 9896, 11093, 11495, 12727]}, "edge": {"target": [], "time": []}}, "mouseout": {"state": {"target": ["13", "12", "0", "12", "13", "14", "15", "17", "15", "18", "7", "2", "8", "11", "10", "10", "3", "5", "6", "6", "7"], "time": [828, 990, 1171, 2329, 2348, 2758, 2873, 3797, 3879, 6171, 6253, 6329, 6915, 8498, 8589, 9406, 9428, 11014, 11115, 12680, 12745]}, "edge": {"target": [], "time": []}}}, "displayed_time": "18.40", "trialTime": 20052, "trial_type": "mouselab-mdp", "trial_index": 35, "time_elapsed": 1471995, "internal_node_id": "0.0-4.0-1.0-26.0"}}, {"uniqueid": "w27172308:a30850158", "current_trial": 36, "dateTime": 1691143472418, "trialdata": {"revealed_states": [], "clicked_states": ["28", "27", "29"], "num_clicks_accrued": [0, 0, 0, 0, 0, 0, 0, 0, 0, 0, 0, 0, 0], "stateRewards": ["", 2, 3, -6, -5, -3, 55, 40, 11, 61, 11, 51, 2, -4, -6, 9, -25, 29, -15, -6, 7, -77, -2, -2, -4, 1, 14, -43, -1, 56, -12, -54, 41, -74], "withholdReward": false, "trial_id": "mdp_trial_28", "block": "test", "trialIndex": 29, "score": 60.8, "costs": -4.199999999999999, "simulationMode": [null, null, null, null, null], "rewards": [-2, -4, 1, 14, 56], "path": ["0", "0", "23", "24", "25", "26", "29"], "rt": [8796, 82, 53, 61, 9], "actions": ["left", "left", "left", "up", "left"], "actionTimes": [10690, 11271, 11858, 12434, 12965], "queries": {"click": {"state": {"target": ["28", "27", "29"], "time": [3389, 5994, 7727]}, "edge": {"target": [], "time": []}}, "mouseover": {"state": {"target": ["23", "24", "28", "27", "27", "29", "33", "30", "31"], "time": [2599, 2680, 2930, 3832, 5214, 7035, 8576, 9583, 9898]}, "edge": {"target": [], "time": []}}, "mouseout": {"state": {"target": ["1", "0", "23", "24", "28", "27", "27", "29", "33", "30", "31"], "time": [964, 2576, 2631, 2729, 3754, 4878, 6451, 7976, 9559, 9708, 10299]}, "edge": {"target": [], "time": []}}}, "displayed_time": "15.89", "trialTime": 16621, "trial_type": "mouselab-mdp", "trial_index": 36, "time_elapsed": 1489097, "internal_node_id": "0.0-4.0-1.0-27.0"}}, {"uniqueid": "w27172308:a30850158", "current_trial": 37, "dateTime": 1691143489201, "trialdata": {"revealed_states": [], "clicked_states": ["32"], "num_clicks_accrued": [0, 0, 0, 0, 0, 0, 0, 0, 0, 0, 0, 0, 0], "stateRewards": ["", 1, 4, 7, -16, -84, -6, -46, -12, -7, -49, -26, -1, 2, -4, 2, 22, 37, -64, 1, 88, -13, -10, 1, -4, -2, 5, 2, -10, -34, 9, 66, 55, 38], "withholdReward": false, "trial_id": "mdp_trial_29", "block": "test", "trialIndex": 30, "score": 57.6, "costs": -1.4, "simulationMode": [null, null, null, null, null], "rewards": [1, -4, -2, 9, 55], "path": ["0", "0", "23", "24", "25", "30", "32"], "rt": [6109, 164, 224, 219, 9], "actions": ["left", "left", "left", "down", "down"], "actionTimes": [7972, 8652, 9431, 10156, 10698], "queries": {"click": {"state": {"target": ["32"], "time": [4078]}, "edge": {"target": [], "time": []}}, "mouseover": {"state": {"target": ["32", "0"], "time": [3383, 5932]}, "edge": {"target": [], "time": []}}, "mouseout": {"state": {"target": ["32", "0", "32", "0", "0"], "time": [334, 2479, 4784, 6473, 13137]}, "edge": {"target": [], "time": []}}}, "displayed_time": "15.86", "trialTime": 16296, "trial_type": "mouselab-mdp", "trial_index": 37, "time_elapsed": 1505880, "internal_node_id": "0.0-4.0-1.0-28.0"}}, {"uniqueid": "w27172308:a30850158", "current_trial": 38, "dateTime": 1691143507436, "trialdata": {"revealed_states": [], "clicked_states": ["20", "18", "10", "11"], "num_clicks_accrued": [0, 0, 0, 0, 0, 0, 0, 0, 0, 0, 0, 0, 0], "stateRewards": ["", 1, -4, -6, -1, -21, 17, -72, 10, 77, 67, -46, -1, 4, -2, 14, -66, -49, -45, -15, -52, 23, -67, 2, -2, -2, 15, -3, 45, -64, 5, -44, 83, 61], "withholdReward": false, "trial_id": "mdp_trial_30", "block": "test", "trialIndex": 31, "score": 62.4, "costs": -5.6, "simulationMode": [null, null, null, null, null], "rewards": [1, -4, -6, 10, 67], "path": ["0", "0", "1", "2", "3", "8", "10"], "rt": [10608, 143, 10, 984, 534], "actions": ["up", "up", "up", "left", "down"], "actionTimes": [12193, 12854, 13372, 14874, 15908], "queries": {"click": {"state": {"target": ["20", "18", "10", "11"], "time": [2596, 6497, 8562, 10202]}, "edge": {"target": [], "time": []}}, "mouseover": {"state": {"target": ["13", "20", "19", "21", "22", "13", "18", "11", "10", "11", "11", "11", "28"], "time": [1646, 2102, 3075, 3211, 4763, 4863, 6110, 7641, 8032, 8927, 9243, 9751, 10950]}, "edge": {"target": [], "time": []}}, "mouseout": {"state": {"target": ["22", "13", "12", "0", "13", "20", "19", "21", "22", "13", "18", "11", "10", "11", "11", "11", "28"], "time": [482, 552, 590, 1643, 1661, 3033, 3190, 4650, 4830, 5007, 6873, 7779, 8666, 9002, 9282, 10658, 10973]}, "edge": {"target": [], "time": []}}}, "displayed_time": "16.43", "trialTime": 17745, "trial_type": "mouselab-mdp", "trial_index": 38, "time_elapsed": 1524115, "internal_node_id": "0.0-4.0-1.0-29.0"}}, {"uniqueid": "w27172308:a30850158", "current_trial": 39, "dateTime": 1691143530714, "trialdata": {"revealed_states": [], "clicked_states": ["9", "11", "7", "18", "5", "6"], "num_clicks_accrued": [0, 0, 0, 0, 0, 0, 0, 0, 0, 0, 0, 0, 0], "stateRewards": ["", 2, -1, 1, 10, -52, 86, -22, -2, -14, -63, 38, 1, 3, 7, -8, 11, -32, -27, 9, -71, 40, -87, -2, -1, 5, -7, 12, 31, -57, 13, 86, -58, 29], "withholdReward": false, "trial_id": "mdp_trial_31", "block": "test", "trialIndex": 32, "score": 89.6, "costs": -8.4, "simulationMode": [null, null, null, null, null], "rewards": [2, -1, 1, 10, 86], "path": ["0", "0", "1", "2", "3", "4", "6"], "rt": [16001, 276, 41, 77, 50], "actions": ["up", "up", "up", "right", "right"], "actionTimes": [18546, 19339, 19903, 20488, 21045], "queries": {"click": {"state": {"target": ["9", "11", "7", "18", "5", "6"], "time": [3696, 5936, 8333, 10474, 13100, 15374]}, "edge": {"target": [], "time": []}}, "mouseover": {"state": {"target": ["1", "9", "11", "8", "3", "4", "6", "7", "15", "15", "18", "16", "4", "5", "6", "6", "16", "14", "19", "22", "32", "33", "25", "24"], "time": [2901, 2982, 4286, 6317, 6365, 6712, 6795, 7896, 8812, 9164, 9206, 10941, 11557, 11605, 13754, 14873, 15778, 16018, 16350, 16468, 16937, 17471, 17539, 17574]}, "edge": {"target": [], "time": []}}, "mouseout": {"state": {"target": ["1", "12", "0", "1", "9", "11", "8", "3", "4", "6", "7", "15", "15", "18", "16", "4", "5", "6", "6", "16", "14", "19", "22", "32", "33", "25", "24"], "time": [1106, 1384, 2793, 2921, 4207, 6276, 6341, 6385, 6753, 7184, 8773, 8833, 9185, 10879, 11159, 11581, 13693, 13778, 15718, 15819, 16325, 16373, 16525, 17209, 17520, 17555, 17592]}, "edge": {"target": [], "time": []}}}, "displayed_time": "21.56", "trialTime": 22787, "trial_type": "mouselab-mdp", "trial_index": 39, "time_elapsed": 1547393, "internal_node_id": "0.0-4.0-1.0-30.0"}}, {"uniqueid": "w27172308:a30850158", "current_trial": 40, "dateTime": 1691143553258, "trialdata": {"revealed_states": [], "clicked_states": ["27", "6", "18", "29", "33", "31"], "num_clicks_accrued": [0, 0, 0, 0, 0, 0, 0, 0, 0, 0, 0, 0, 0], "stateRewards": ["", -1, -3, -6, 14, 41, 18, 63, -14, 80, 21, 17, -2, -4, -2, -5, 13, 70, 8, -4, -64, -10, -20, 2, -1, 4, -1, -17, -55, 42, -7, 47, 54, 15], "withholdReward": false, "trial_id": "mdp_trial_32", "block": "test", "trialIndex": 33, "score": 36.6, "costs": -8.4, "simulationMode": [null, null, null, null, null], "rewards": [2, -1, 4, -7, 47], "path": ["0", "0", "23", "24", "25", "30", "31"], "rt": [14634, 115, 201, 514, 601], "actions": ["left", "left", "left", "down", "right"], "actionTimes": [17058, 17694, 18400, 19413, 20537], "queries": {"click": {"state": {"target": ["27", "6", "18", "29", "33", "31"], "time": [3574, 5219, 7881, 10180, 12213, 14190]}, "edge": {"target": [], "time": []}}, "mouseover": {"state": {"target": ["28", "27", "2", "2", "10", "3", "6", "18", "24", "25", "26", "29", "33", "33", "30", "31", "32"], "time": [2817, 3151, 4020, 4103, 4185, 4249, 4712, 6066, 8212, 8478, 8521, 8828, 10807, 11230, 12876, 13252, 16273]}, "edge": {"target": [], "time": []}}, "mouseout": {"state": {"target": ["30", "23", "28", "27", "2", "2", "10", "3", "6", "6", "18", "24", "25", "26", "29", "33", "33", "30", "31", "31", "32"], "time": [1174, 1507, 2836, 3685, 4062, 4145, 4206, 4270, 5375, 5716, 8171, 8234, 8499, 8542, 10747, 11077, 12849, 13175, 14916, 16241, 16306]}, "edge": {"target": [], "time": []}}}, "displayed_time": "21.06", "trialTime": 22057, "trial_type": "mouselab-mdp", "trial_index": 40, "time_elapsed": 1569937, "internal_node_id": "0.0-4.0-1.0-31.0"}}, {"uniqueid": "w27172308:a30850158", "current_trial": 41, "dateTime": 1691143577300, "trialdata": {"revealed_states": [], "clicked_states": ["20", "18", "16", "17", "21", "9", "31"], "num_clicks_accrued": [0, 0, 0, 0, 0, 0, 0, 0, 0, 0, 0, 0, 0], "stateRewards": ["", -2, -3, 8, -4, -30, 31, 69, 9, 66, 87, 64, -2, 2, 8, 5, 47, 16, -39, -8, -54, 51, -19, 1, -2, -2, -11, -25, -26, 43, -9, 19, -84, 86], "withholdReward": false, "trial_id": "mdp_trial_33", "block": "test", "trialIndex": 34, "score": 68.2, "costs": -9.8, "simulationMode": [null, null, null, null, null], "rewards": [-2, -3, 8, 9, 66], "path": ["0", "0", "1", "2", "3", "8", "9"], "rt": [15834, 78, 418, 380, 463], "actions": ["up", "up", "up", "left", "up"], "actionTimes": [17970, 18552, 19489, 20385, 21368], "queries": {"click": {"state": {"target": ["20", "18", "16", "17", "21", "9", "31"], "time": [3612, 5339, 7375, 9228, 11241, 14266, 16275]}, "edge": {"target": [], "time": []}}, "mouseover": {"state": {"target": ["12", "12", "0", "12", "20", "14", "18", "16", "17", "19", "21", "22", "13", "7", "4", "3", "8", "9", "11", "24", "32", "31"], "time": [2258, 2408, 2508, 2608, 3163, 4135, 4513, 5904, 8032, 10027, 10094, 11833, 12725, 12797, 12863, 13174, 13457, 13550, 14626, 14746, 15038, 15676]}, "edge": {"target": [], "time": []}}, "mouseout": {"state": {"target": ["0", "12", "12", "0", "12", "20", "14", "18", "16", "17", "17", "19", "21", "22", "13", "7", "4", "3", "8", "9", "11", "24", "32", "31"], "time": [1500, 2325, 2491, 2592, 2626, 3721, 4276, 5460, 7787, 9344, 9613, 10072, 11670, 12387, 12769, 12830, 12945, 13216, 13496, 14603, 14649, 14954, 15207, 16739]}, "edge": {"target": [], "time": []}}}, "displayed_time": "21.92", "trialTime": 23534, "trial_type": "mouselab-mdp", "trial_index": 41, "time_elapsed": 1593980, "internal_node_id": "0.0-4.0-1.0-32.0"}}, {"uniqueid": "w27172308:a30850158", "current_trial": 42, "dateTime": 1691143614540, "trialdata": {"revealed_states": [], "clicked_states": ["11", "9", "7", "10", "29", "28", "31", "33", "32", "22", "21", "20"], "num_clicks_accrued": [0, 0, 0, 0, 0, 0, 0, 0, 0, 0, 0, 0, 0], "stateRewards": ["", -2, 1, -3, -16, -39, -52, 30, -7, -41, -59, 11, 2, 1, 8, 2, -11, -26, -42, -13, 87, -59, -48, -1, -1, -1, 16, -79, 31, 50, -1, -84, 34, -82], "withholdReward": false, "trial_id": "mdp_trial_34", "block": "test", "trialIndex": 35, "score": 68.2, "costs": -16.8, "simulationMode": [null, null, null, null, null], "rewards": [2, 1, 8, -13, 87], "path": ["0", "0", "12", "13", "14", "19", "20"], "rt": [28371, 118, 12, 326, 58], "actions": ["right", "right", "right", "down", "right"], "actionTimes": [31228, 31880, 32392, 33244, 33827], "queries": {"click": {"state": {"target": ["11", "9", "7", "10", "29", "28", "31", "33", "32", "22", "21", "20"], "time": [4167, 6225, 8100, 9909, 11804, 14110, 16058, 18114, 22115, 24216, 26079, 28085]}, "edge": {"target": [], "time": []}}, "mouseover": {"state": {"target": ["11", "9", "5", "7", "2", "10", "27", "29", "26", "28", "28", "25", "30", "32", "31", "30", "33", "32", "22", "21", "20", "17", "17", "15", "18", "12"], "time": [3648, 5090, 6594, 7340, 8474, 8608, 10991, 11267, 12179, 12448, 13646, 14479, 14509, 14850, 15249, 16529, 16714, 18668, 23436, 24664, 26622, 28649, 29004, 30365, 30455, 30572]}, "edge": {"target": [], "time": []}}, "mouseout": {"state": {"target": ["0", "11", "9", "5", "7", "2", "10", "27", "29", "26", "28", "28", "25", "30", "32", "31", "30", "33", "32", "32", "22", "21", "20", "17", "17", "15", "18", "12"], "time": [3236, 4720, 6340, 6637, 8447, 8548, 10506, 11013, 12139, 12237, 13384, 14465, 14504, 14530, 14934, 16500, 16593, 18607, 22133, 23015, 24637, 26337, 28529, 28707, 30344, 30406, 30489, 30606]}, "edge": {"target": [], "time": []}}}, "displayed_time": "34.35", "trialTime": 36703, "trial_type": "mouselab-mdp", "trial_index": 42, "time_elapsed": 1631218, "internal_node_id": "0.0-4.0-1.0-33.0"}}, {"uniqueid": "w27172308:a30850158", "current_trial": 43, "dateTime": 1691143639441, "trialdata": {"revealed_states": [], "clicked_states": ["27", "20", "22", "5", "18", "7", "9"], "num_clicks_accrued": [0, 0, 0, 0, 0, 0, 0, 0, 0, 0, 0, 0, 0], "stateRewards": ["", -2, -4, 2, 10, -17, 18, 73, 11, -32, 23, -13, -2, -4, 7, 12, -25, 66, -23, 15, 40, -76, -9, 1, 2, -7, -5, -20, 24, 3, -5, 16, -73, 70], "withholdReward": false, "trial_id": "mdp_trial_35", "block": "test", "trialIndex": 36, "score": 69.2, "costs": -9.8, "simulationMode": [null, null, null, null, null], "rewards": [-2, -4, 2, 10, 73], "path": ["0", "0", "1", "2", "3", "4", "7"], "rt": [17609, 152, 306, 641, 258], "actions": ["up", "up", "up", "right", "down"], "actionTimes": [19354, 20030, 20848, 22013, 22797], "queries": {"click": {"state": {"target": ["27", "20", "22", "5", "18", "7", "9"], "time": [3869, 6830, 9001, 11622, 14352, 16131, 17736]}, "edge": {"target": [], "time": []}}, "mouseover": {"state": {"target": ["23", "24", "26", "27", "26", "1", "18", "20", "20", "19", "22", "21", "21", "19", "14", "13", "7", "4", "5", "18", "7", "3", "9", "8", "10"], "time": [2225, 2328, 2611, 3479, 4723, 5459, 5835, 6163, 6397, 7345, 7646, 9462, 9927, 9973, 10018, 10356, 10419, 10764, 10996, 12660, 15717, 16735, 17153, 18355, 18437]}, "edge": {"target": [], "time": []}}, "mouseout": {"state": {"target": ["0", "23", "24", "26", "27", "26", "1", "18", "20", "20", "19", "22", "21", "21", "19", "14", "13", "7", "4", "5", "18", "7", "3", "9", "8", "10"], "time": [2195, 2290, 2359, 3084, 4589, 4745, 5475, 5857, 6212, 7289, 7554, 9403, 9544, 9951, 9996, 10060, 10377, 10440, 10847, 11942, 14781, 16257, 16757, 18332, 18416, 18459]}, "edge": {"target": [], "time": []}}}, "displayed_time": "23.32", "trialTime": 24388, "trial_type": "mouselab-mdp", "trial_index": 43, "time_elapsed": 1656120, "internal_node_id": "0.0-4.0-1.0-34.0"}}, {"uniqueid": "w27172308:a30850158", "current_trial": 44, "dateTime": 1691143656722, "trialdata": {"revealed_states": [], "clicked_states": ["9", "10", "31"], "num_clicks_accrued": [0, 0, 0, 0, 0, 0, 0, 0, 0, 0, 0, 0, 0], "stateRewards": ["", -1, 1, 3, -8, -23, -15, -14, -11, -23, 58, 68, 1, 3, 5, 12, -17, -41, -7, -10, -4, 82, 10, 1, 4, -4, 11, 73, 55, -55, -1, -86, -86, 54], "withholdReward": false, "trial_id": "mdp_trial_36", "block": "test", "trialIndex": 37, "score": 45.8, "costs": -4.199999999999999, "simulationMode": [null, null, null, null, null], "rewards": [-1, 1, 3, -11, 58], "path": ["0", "0", "1", "2", "3", "8", "10"], "rt": [7941, 135, 76, 737, 479], "actions": ["up", "up", "up", "left", "down"], "actionTimes": [9707, 10369, 10945, 12191, 13195], "queries": {"click": {"state": {"target": ["9", "10", "31"], "time": [2936, 5288, 7493]}, "edge": {"target": [], "time": []}}, "mouseover": {"state": {"target": ["10", "11", "9", "11", "8", "10", "10", "28", "31", "23"], "time": [1783, 1990, 2523, 4113, 4231, 4592, 4863, 5833, 6793, 8056]}, "edge": {"target": [], "time": []}}, "mouseout": {"state": {"target": ["28", "10", "11", "9", "11", "8", "10", "10", "28", "31", "23", "31"], "time": [506, 1858, 2223, 3553, 4190, 4293, 4626, 5755, 6108, 7613, 8115, 8156]}, "edge": {"target": [], "time": []}}}, "displayed_time": "15.77", "trialTime": 16725, "trial_type": "mouselab-mdp", "trial_index": 44, "time_elapsed": 1673401, "internal_node_id": "0.0-4.0-1.0-35.0"}}, {"uniqueid": "w27172308:a30850158", "current_trial": 45, "dateTime": 1691143677442, "trialdata": {"revealed_states": [], "clicked_states": ["22", "18", "17", "7"], "num_clicks_accrued": [0, 0, 0, 0, 0, 0, 0, 0, 0, 0, 0, 0, 0], "stateRewards": ["", -2, 2, 8, -6, -25, 3, 87, 2, -62, -2, 74, -2, -1, 2, -1, 79, 49, -37, -14, 5, 67, -9, -1, 2, -2, 5, 15, 38, 32, -14, -38, -38, 30], "withholdReward": false, "trial_id": "mdp_trial_37", "block": "test", "trialIndex": 38, "score": 83.4, "costs": -5.6, "simulationMode": [null, null, null, null, null], "rewards": [-2, 2, 8, -6, 87], "path": ["0", "0", "1", "2", "3", "4", "7"], "rt": [12579, 433, 83, 166, 86], "actions": ["up", "up", "up", "right", "down"], "actionTimes": [15998, 16961, 17574, 18241, 18827], "queries": {"click": {"state": {"target": ["22", "18", "17", "7"], "time": [5793, 7869, 10105, 13095]}, "edge": {"target": [], "time": []}}, "mouseover": {"state": {"target": ["12", "13", "14", "19", "22", "13", "18", "18", "16", "16", "17", "15", "6", "6", "5", "4", "7", "6", "2", "1"], "time": [3593, 3614, 3904, 3959, 5342, 6243, 6402, 6951, 8573, 8893, 9407, 10568, 11714, 11986, 12097, 12346, 12680, 14082, 15331, 15402]}, "edge": {"target": [], "time": []}}, "mouseout": {"state": {"target": ["19", "20", "24", "23", "0", "12", "13", "14", "19", "22", "13", "18", "18", "18", "16", "16", "17", "17", "15", "18", "6", "6", "5", "4", "7", "6", "2"], "time": [1281, 1315, 2116, 2517, 3543, 3610, 3630, 3937, 4331, 5901, 6288, 6529, 7984, 8464, 8689, 9126, 10219, 10541, 10609, 11605, 11730, 12007, 12164, 12398, 13848, 15273, 15380]}, "edge": {"target": [], "time": []}}}, "displayed_time": "19.35", "trialTime": 20193, "trial_type": "mouselab-mdp", "trial_index": 45, "time_elapsed": 1694121, "internal_node_id": "0.0-4.0-1.0-36.0"}}, {"uniqueid": "w27172308:a30850158", "current_trial": 46, "dateTime": 1691143694128, "trialdata": {"revealed_states": [], "clicked_states": ["11", "10"], "num_clicks_accrued": [0, 0, 0, 0, 0, 0, 0, 0, 0, 0, 0, 0, 0], "stateRewards": ["", -2, -3, 4, 1, 33, -53, 15, 9, -12, 61, -6, -2, 4, 6, -11, 47, -43, -7, -11, 46, 23, -28, -1, -1, 3, -10, 11, 76, -76, 10, 18, -38, 87], "withholdReward": false, "trial_id": "mdp_trial_38", "block": "test", "trialIndex": 39, "score": 66.2, "costs": -2.8, "simulationMode": [null, null, null, null, null], "rewards": [-2, -3, 4, 9, 61], "path": ["0", "0", "1", "2", "3", "8", "10"], "rt": [5991, 81, 525, 461, 602], "actions": ["up", "up", "up", "left", "down"], "actionTimes": [7764, 8366, 9393, 10379, 11513], "queries": {"click": {"state": {"target": ["11", "10"], "time": [2725, 4943]}, "edge": {"target": [], "time": []}}, "mouseover": {"state": {"target": ["11", "10", "10", "28", "28", "30"], "time": [2153, 4139, 4460, 5357, 5793, 7289]}, "edge": {"target": [], "time": []}}, "mouseout": {"state": {"target": ["1", "0", "11", "11", "10", "10", "28", "28", "30"], "time": [705, 1791, 2847, 3920, 4162, 5352, 5396, 7226, 7320]}, "edge": {"target": [], "time": []}}}, "displayed_time": "15.78", "trialTime": 16164, "trial_type": "mouselab-mdp", "trial_index": 46, "time_elapsed": 1710807, "internal_node_id": "0.0-4.0-1.0-37.0"}}, {"uniqueid": "w27172308:a30850158", "current_trial": 47, "dateTime": 1691143748266, "trialdata": {"revealed_states": [], "clicked_states": ["29", "28", "31", "30", "33", "32", "18", "17", "16", "20", "21", "22", "5", "7", "6", "9", "10", "11", "27", "25"], "num_clicks_accrued": [0, 0, 0, 0, 0, 0, 0, 0, 0, 0, 0, 0, 0], "stateRewards": ["", 2, -1, -2, -5, -47, -57, -33, -11, 31, -18, -72, -2, 1, -4, -8, -46, -53, -50, 15, -85, -9, 39, -2, -2, 1, 14, -1, -8, 53, -12, -41, -74, 62], "withholdReward": false, "trial_id": "mdp_trial_39", "block": "test", "trialIndex": 40, "score": 19.000000000000014, "costs": -27.99999999999999, "simulationMode": [null, null, null, null, null], "rewards": [-2, -2, 1, -12, 62], "path": ["0", "0", "23", "24", "25", "30", "33"], "rt": [46412, 433, 264, 467, 75], "actions": ["left", "left", "left", "down", "left"], "actionTimes": [48112, 49073, 49860, 50833, 51438], "queries": {"click": {"state": {"target": ["29", "28", "31", "30", "33", "32", "18", "17", "16", "20", "21", "22", "5", "7", "6", "9", "10", "11", "27", "25"], "time": [3008, 5182, 7252, 9271, 11381, 13600, 17171, 19432, 21503, 23497, 25631, 27491, 30222, 32290, 34360, 36406, 38447, 40580, 42706, 45689]}, "edge": {"target": [], "time": []}}, "mouseover": {"state": {"target": ["23", "29", "26", "28", "24", "31", "30", "33", "32", "32", "30", "25", "12", "18", "15", "17", "16", "15", "14", "19", "20", "21", "22", "7", "4", "5", "5", "4", "7", "6", "9", "8", "10", "11", "27", "26", "25", "24", "23", "0", "23"], "time": [2176, 2578, 3516, 3853, 5781, 5847, 7708, 9652, 11871, 12222, 14167, 14373, 16520, 16634, 18141, 19024, 20004, 21986, 22111, 22453, 22795, 24181, 26184, 28796, 29355, 29414, 29783, 30758, 30802, 33018, 34797, 36915, 37113, 39525, 41399, 43747, 44938, 46120, 46167, 46287, 46599]}, "edge": {"target": [], "time": []}}, "mouseout": {"state": {"target": ["31", "23", "0", "23", "29", "26", "28", "24", "31", "30", "33", "32", "32", "30", "25", "12", "18", "15", "17", "16", "15", "14", "19", "20", "21", "22", "7", "4", "5", "5", "4", "7", "6", "9", "8", "10", "11", "27", "26", "25", "24", "23", "0", "23"], "time": [690, 822, 1855, 2202, 3492, 3750, 5776, 5803, 7666, 9549, 11850, 12012, 14138, 14190, 15832, 16549, 18117, 18191, 19819, 21944, 22049, 22392, 22476, 24057, 25984, 28489, 29334, 29384, 29623, 30735, 30781, 32583, 34687, 36861, 36977, 38550, 41183, 43628, 44168, 46095, 46146, 46207, 46483, 46641]}, "edge": {"target": [], "time": []}}}, "displayed_time": "51.95", "trialTime": 53618, "trial_type": "mouselab-mdp", "trial_index": 47, "time_elapsed": 1764946, "internal_node_id": "0.0-4.0-1.0-38.0"}}, {"uniqueid": "w27172308:a30850158", "current_trial": 48, "dateTime": 1691143794337, "trialdata": {"revealed_states": [], "clicked_states": ["27", "28", "10", "7", "16", "18", "17", "22", "21", "20", "4", "8", "31", "24", "33", "32", "30"], "num_clicks_accrued": [0, 0, 0, 0, 0, 0, 0, 0, 0, 0, 0, 0, 0], "stateRewards": ["", -2, -4, -8, 8, 63, -50, -19, -7, -17, -31, 31, 1, 3, -5, 12, -35, -63, -29, -4, -17, -75, -79, -2, -3, -2, 8, -3, -85, 10, -2, -82, -82, 56], "withholdReward": false, "trial_id": "mdp_trial_40", "block": "test", "trialIndex": 41, "score": 23.200000000000003, "costs": -23.799999999999994, "simulationMode": [null, null, null, null, null], "rewards": [-2, -3, -2, -2, 56], "path": ["0", "0", "23", "24", "25", "30", "33"], "rt": [39217, 491, 202, 11, 48], "actions": ["left", "left", "left", "down", "left"], "actionTimes": [41650, 42663, 43389, 43902, 44470], "queries": {"click": {"state": {"target": ["27", "28", "10", "7", "16", "18", "17", "22", "21", "20", "4", "8", "31", "24", "33", "32", "30"], "time": [3478, 5176, 7143, 9113, 11880, 13885, 15848, 18035, 20003, 22191, 24503, 26671, 29527, 32681, 34713, 36831, 39335]}, "edge": {"target": [], "time": []}}, "mouseover": {"state": {"target": ["28", "27", "28", "8", "3", "2", "10", "2", "7", "18", "15", "16", "18", "15", "17", "17", "14", "22", "21", "20", "19", "13", "7", "4", "3", "8", "11", "26", "25", "31", "30", "30", "24", "33", "32", "30", "25"], "time": [2835, 3200, 3780, 5724, 6015, 6442, 6709, 7549, 7715, 9827, 11044, 11496, 12590, 14306, 14353, 14659, 16239, 16665, 18493, 20506, 22681, 22922, 23292, 23690, 24959, 25562, 27373, 28340, 28651, 29090, 30439, 31563, 32096, 33335, 35237, 37712, 40414]}, "edge": {"target": [], "time": []}}, "mouseout": {"state": {"target": ["0", "28", "27", "28", "8", "3", "2", "10", "2", "7", "18", "15", "16", "18", "15", "17", "17", "14", "22", "21", "20", "19", "13", "7", "4", "4", "3", "8", "11", "26", "25", "31", "30", "30", "24", "33", "32", "30", "25"], "time": [2764, 3051, 3729, 5662, 6010, 6036, 6466, 7261, 7593, 9386, 10768, 11072, 12215, 14002, 14329, 14376, 16217, 16282, 18146, 20372, 22658, 22703, 22946, 23315, 24602, 24932, 25422, 27196, 28274, 28644, 28674, 30240, 30463, 32013, 33014, 35177, 36954, 39986, 40437]}, "edge": {"target": [], "time": []}}}, "displayed_time": "44.99", "trialTime": 45548, "trial_type": "mouselab-mdp", "trial_index": 48, "time_elapsed": 1811015, "internal_node_id": "0.0-4.0-1.0-39.0"}}, {"uniqueid": "w27172308:a30850158", "current_trial": 49, "dateTime": 1691143892581, "trialdata": {"rt": 97554, "response": {"Q0": "$-2 to $2", "Q1": "$-4 to $4", "Q2": "$-88 to $88", "Q3": "The cost for clicking on nodes varied between nodes.", "Q4": "Very motivated"}, "question_order": [0, 1, 2, 3, 4], "trial_id": "final_quiz_control", "trial_type": "survey-multi-choice", "trial_index": 49, "time_elapsed": 1909262, "internal_node_id": "0.0-4.0-2.0"}}, {"uniqueid": "w27172308:a30850158", "current_trial": 50, "dateTime": 1691144165892, "trialdata": {"rt": 272796, "response": {"Q0": "I used the inspector node on the nodes that were on the end of the web to minimise the cost of revealing the nodes.", "Q1": "Yes I started to reveal more nodes (even the ones on the middle) and went for the highest one.", "Q2": "It wasn't difficult as I kept on playing I gott used to the game more and more and it helped me to improve."}, "trial_id": "self_report_control", "trial_type": "survey-text", "trial_index": 50, "time_elapsed": 2182573, "internal_node_id": "0.0-4.0-3.0"}}, {"uniqueid": "w27172308:a30850158", "current_trial": 51, "dateTime": 1691144218564, "trialdata": {"rt": 52495, "response": {"gender": "female", "age": "27", "colorblind": "0", "effort": "0"}, "trial_type": "survey-html-form", "trial_index": 51, "time_elapsed": 2235245, "internal_node_id": "0.0-4.0-4.0"}}, {"uniqueid": "w27172308:a30850158", "current_trial": 52, "dateTime": 1691144357946, "trialdata": {"rt": 139368, "response": {"Q0": "No, the instruction were clear and easy to understand.", "Q1": "No", "Q2": ""}, "trial_type": "survey-text", "trial_index": 52, "time_elapsed": 2374626, "internal_node_id": "0.0-4.0-5.0"}}, {"uniqueid": "w27172308:a30850158", "current_trial": 53, "dateTime": 1691144365071, "trialdata": {"rt": 7020, "stimulus": "Press 'Finish HIT' in order to reach the completion code. Once the data has been saved, you will receive the code either in this window or in the original browser window where you started the experiment.\n", "response": 0, "trial_type": "html-button-response", "trial_index": 53, "time_elapsed": 2381752, "internal_node_id": "0.0-5.0"}}, {"uniqueid": "w27172308:a30850158", "current_trial": 54, "dateTime": 1691144366479, "trialdata": {"success": true, "trial_type": "fullscreen", "trial_index": 54, "time_elapsed": 2383160, "internal_node_id": "0.0-6.0"}}], "questiondata": {"params": {"CODE": "C6DMOQA6", "MIN_TIME": 14, "inspectCost": 1, "startTime": "Fri Aug 04 2023 11:39:38 GMT+0200 (South Africa Standard Time)", "bonusRate": 0.002, "variance": "1_2_4_8_44", "branching": "31123"}}, "eventdata": [{"eventtype": "initialized", "value": null, "timestamp": 1691141977858, "interval": 0}, {"eventtype": "window_resize", "value": [1028, 752], "timestamp": 1691141977858, "interval": 0}, {"eventtype": "window_resize", "value": [1028, 752], "timestamp": 1691141978396, "interval": 538}, {"eventtype": "window_resize", "value": [1536, 766], "timestamp": 1691141983213, "interval": 4817}, {"eventtype": "window_resize", "value": [1536, 864], "timestamp": 1691141986253, "interval": 3040}], "useragent": "Mozilla/5.0 (Windows NT 10.0; Win64; x64) AppleWebKit/537.36 (KHTML, like Gecko) Chrome/115.0.0.0 Safari/537.36", "mode": "live", "id": "w27172308:a30850158", "status": "user data saved", "Beginhit": "2023-08-04 09:39:25.736696", "Beginexp": "2023-08-04 09:39:47.161535", "Endhit": "2023-08-04 10:19:29.550514", "psiturkStatus": 3, "browser": "<redacted>", "platform": "windows", "language": "en-GB"}