{"condition": 1, "counterbalance": 0, "assignmentId": "a68757058", "workerId": "w93915883", "hitId": "h52730866", "currenttrial": 62, "bonus": 0, "data": [{"uniqueid": "w93915883:a68757058", "current_trial": 0, "dateTime": 1693481056639, "trialdata": {"success": true, "trial_type": "fullscreen", "trial_index": 0, "time_elapsed": 14576, "internal_node_id": "0.0-0.0"}}, {"uniqueid": "w93915883:a68757058", "current_trial": 1, "dateTime": 1693481093228, "trialdata": {"view_history": [{"page_index": 0, "viewing_time": 36574}], "rt": 36574, "trial_id": "exp_instructions_misaligned", "trial_type": "instructions", "trial_index": 1, "time_elapsed": 51166, "internal_node_id": "0.0-1.0"}}, {"uniqueid": "w93915883:a68757058", "current_trial": 2, "dateTime": 1693481483581, "trialdata": {"view_history": [{"page_index": 0, "viewing_time": 192334}, {"page_index": 1, "viewing_time": 101017}, {"page_index": 2, "viewing_time": 26850}, {"page_index": 3, "viewing_time": 70150}], "rt": 390351, "trial_id": "mouselab_instructions_1_misaligned", "trial_type": "instructions", "trial_index": 2, "time_elapsed": 441519, "internal_node_id": "0.0-2.0-1.0"}}, {"uniqueid": "w93915883:a68757058", "current_trial": 3, "dateTime": 1693481521647, "trialdata": {"revealed_states": [], "clicked_states": [], "num_clicks_accrued": [0, 0, 0, 0, 0, 0, 0, 0, 0, 0, 0, 0, 0], "stateRewards": ["", 10, 10, 10, -10, 10, 10, -10, -10, 10, 10, -10, -10, 10, 10, 10, 10, 10, 10, 10, 10, -10, 10, -10, 10, 10, -10, -10, 10, -10, 10, 10, 10, 10], "withholdReward": false, "trial_id": "practice_1", "block": "test", "trialIndex": 0, "score": 33.5, "costs": 0, "simulationMode": [null, null, null, null, null], "rewards": [10, 10, 10, -10, 10], "path": ["0", "0", "1", "2", "3", "4", "6"], "rt": [2989, 529, 3743, 672, 511], "actions": ["up", "up", "up", "right", "right"], "actionTimes": [16365, 17417, 21678, 22869, 23888], "queries": {"click": {"state": {"target": [], "time": []}, "edge": {"target": [], "time": []}}, "mouseover": {"state": {"target": [], "time": []}, "edge": {"target": [], "time": []}}, "mouseout": {"state": {"target": ["12", "0"], "time": [3104, 3219]}, "edge": {"target": [], "time": []}}}, "displayed_time": "24.41", "trialTime": 36614, "trial_type": "mouselab-mdp", "trial_index": 3, "time_elapsed": 479583, "internal_node_id": "0.0-2.0-2.0-0.0"}}, {"uniqueid": "w93915883:a68757058", "current_trial": 4, "dateTime": 1693481530974, "trialdata": {"revealed_states": [], "clicked_states": [], "num_clicks_accrued": [0, 0, 0, 0, 0, 0, 0, 0, 0, 0, 0, 0, 0], "stateRewards": ["", -10, 10, 10, -10, 10, -10, -10, 10, -10, -10, -10, 10, 10, 10, 10, -10, 10, 10, -10, -10, 10, -10, 10, 10, -10, -10, -10, 10, 10, 10, 10, -10, 10], "withholdReward": false, "trial_id": "practice_2", "block": "test", "trialIndex": 1, "score": 33.5, "costs": 0, "simulationMode": [null, null, null, null, null], "rewards": [10, 10, 10, -10, 10], "path": ["0", "0", "12", "13", "14", "19", "21"], "rt": [779, 193, 328, 270, 480], "actions": ["right", "right", "right", "down", "down"], "actionTimes": [2859, 3569, 4419, 5211, 6204], "queries": {"click": {"state": {"target": [], "time": []}, "edge": {"target": [], "time": []}}, "mouseover": {"state": {"target": [], "time": []}, "edge": {"target": [], "time": []}}, "mouseout": {"state": {"target": ["0"], "time": [1850]}, "edge": {"target": [], "time": []}}}, "displayed_time": "6.72", "trialTime": 9030, "trial_type": "mouselab-mdp", "trial_index": 4, "time_elapsed": 488910, "internal_node_id": "0.0-2.0-2.0-1.0"}}, {"uniqueid": "w93915883:a68757058", "current_trial": 5, "dateTime": 1693481596114, "trialdata": {"view_history": [{"page_index": 0, "viewing_time": 46488}, {"page_index": 1, "viewing_time": 18645}], "rt": 65133, "trial_id": "mouselab_instructions_2_misaligned", "trial_type": "instructions", "trial_index": 5, "time_elapsed": 554052, "internal_node_id": "0.0-2.0-3.0"}}, {"uniqueid": "w93915883:a68757058", "current_trial": 6, "dateTime": 1693481779629, "trialdata": {"rt": 183510, "response": {"Q0": "The cost for clicking on nodes may vary between nodes.", "Q1": "The better I perform the higher my bonus will be.", "Q2": "No, the structure of the web will be different each time.", "Q3": "To get the highest total score.", "Q4": "Any time during the round.", "Q5": "3 seconds"}, "question_order": [0, 1, 2, 3, 4, 5], "correct": {"Q0": "The cost for clicking on nodes may vary between nodes.", "Q1": "The better I perform the higher my bonus will be.", "Q2": "No, the amount of cash at each node of the web may be different each time.", "Q3": "To get the highest total score.", "Q4": "Only before moving the spider.", "Q5": "3 seconds"}, "trial_id": "mouselab_quiz_misaligned", "trial_type": "survey-multi-choice", "trial_index": 6, "time_elapsed": 737567, "internal_node_id": "0.0-2.0-4.0"}}, {"uniqueid": "w93915883:a68757058", "current_trial": 7, "dateTime": 1693481791985, "trialdata": {"success": true, "trial_type": "fullscreen", "trial_index": 7, "time_elapsed": 749922, "internal_node_id": "0.0-2.1-0.1-0.1"}}, {"uniqueid": "w93915883:a68757058", "current_trial": 8, "dateTime": 1693481847132, "trialdata": {"view_history": [{"page_index": 0, "viewing_time": 16409}, {"page_index": 1, "viewing_time": 6286}, {"page_index": 2, "viewing_time": 14869}, {"page_index": 3, "viewing_time": 17580}], "rt": 55144, "trial_id": "mouselab_instructions_1_misaligned", "trial_type": "instructions", "trial_index": 8, "time_elapsed": 805070, "internal_node_id": "0.0-2.1-1.1"}}, {"uniqueid": "w93915883:a68757058", "current_trial": 9, "dateTime": 1693481859830, "trialdata": {"revealed_states": [], "clicked_states": [], "num_clicks_accrued": [0, 0, 0, 0, 0, 0, 0, 0, 0, 0, 0, 0, 0], "stateRewards": ["", 10, 10, 10, -10, 10, 10, -10, -10, 10, 10, -10, -10, 10, 10, 10, 10, 10, 10, 10, 10, -10, 10, -10, 10, 10, -10, -10, 10, -10, 10, 10, 10, 10], "withholdReward": false, "trial_id": "practice_1", "block": "test", "trialIndex": 2, "score": 13.5, "costs": 0, "simulationMode": [null, null, null, null, null], "rewards": [-10, 10, 10, 10, -10], "path": ["0", "0", "12", "13", "14", "19", "21"], "rt": [1572, 464, 300, 194, 331], "actions": ["right", "right", "right", "down", "down"], "actionTimes": [4628, 5612, 6431, 7143, 7994], "queries": {"click": {"state": {"target": [], "time": []}, "edge": {"target": [], "time": []}}, "mouseover": {"state": {"target": [], "time": []}, "edge": {"target": [], "time": []}}, "mouseout": {"state": {"target": [], "time": []}, "edge": {"target": [], "time": []}}}, "displayed_time": "8.51", "trialTime": 12416, "trial_type": "mouselab-mdp", "trial_index": 9, "time_elapsed": 817766, "internal_node_id": "0.0-2.1-2.1-0.1"}}, {"uniqueid": "w93915883:a68757058", "current_trial": 10, "dateTime": 1693481874525, "trialdata": {"revealed_states": [], "clicked_states": [], "num_clicks_accrued": [0, 0, 0, 0, 0, 0, 0, 0, 0, 0, 0, 0, 0], "stateRewards": ["", -10, 10, 10, -10, 10, -10, -10, 10, -10, -10, -10, 10, 10, 10, 10, -10, 10, 10, -10, -10, 10, -10, 10, 10, -10, -10, -10, 10, 10, 10, 10, -10, 10], "withholdReward": false, "trial_id": "practice_2", "block": "test", "trialIndex": 3, "score": 33.5, "costs": 0, "simulationMode": [null, null, null, null, null], "rewards": [10, 10, 10, -10, 10], "path": ["0", "0", "12", "13", "14", "19", "21"], "rt": [2694, 530, 288, 635, 2212], "actions": ["right", "right", "right", "down", "down"], "actionTimes": [4273, 5317, 6125, 7269, 9996], "queries": {"click": {"state": {"target": [], "time": []}, "edge": {"target": [], "time": []}}, "mouseover": {"state": {"target": [], "time": []}, "edge": {"target": [], "time": []}}, "mouseout": {"state": {"target": [], "time": []}, "edge": {"target": [], "time": []}}}, "displayed_time": "10.51", "trialTime": 14383, "trial_type": "mouselab-mdp", "trial_index": 10, "time_elapsed": 832462, "internal_node_id": "0.0-2.1-2.1-1.1"}}, {"uniqueid": "w93915883:a68757058", "current_trial": 11, "dateTime": 1693481907636, "trialdata": {"view_history": [{"page_index": 0, "viewing_time": 31101}, {"page_index": 1, "viewing_time": 2001}], "rt": 33102, "trial_id": "mouselab_instructions_2_misaligned", "trial_type": "instructions", "trial_index": 11, "time_elapsed": 865574, "internal_node_id": "0.0-2.1-3.1"}}, {"uniqueid": "w93915883:a68757058", "current_trial": 12, "dateTime": 1693482097939, "trialdata": {"rt": 190299, "response": {"Q0": "The cost for clicking on nodes may vary between nodes.", "Q1": "The better I perform the higher my bonus will be.", "Q2": "No, the amount of cash at each node of the web may be different each time.", "Q3": "To get the highest total score.", "Q4": "Only before moving the spider.", "Q5": "3 seconds"}, "question_order": [0, 1, 2, 3, 4, 5], "correct": {"Q0": "The cost for clicking on nodes may vary between nodes.", "Q1": "The better I perform the higher my bonus will be.", "Q2": "No, the amount of cash at each node of the web may be different each time.", "Q3": "To get the highest total score.", "Q4": "Only before moving the spider.", "Q5": "3 seconds"}, "trial_id": "mouselab_quiz_misaligned", "trial_type": "survey-multi-choice", "trial_index": 12, "time_elapsed": 1055877, "internal_node_id": "0.0-2.1-4.1"}}, {"uniqueid": "w93915883:a68757058", "current_trial": 13, "dateTime": 1693482118769, "trialdata": {"rt": 20822, "response": {"Q0": "No"}, "question_order": [0], "trial_id": "repeat_check", "trial_type": "survey-multi-choice", "trial_index": 13, "time_elapsed": 1076706, "internal_node_id": "0.0-4.0-0.0"}}, {"uniqueid": "w93915883:a68757058", "current_trial": 14, "dateTime": 1693482128492, "trialdata": {"rt": 9716, "stimulus": "\n<h1> Get ready to start the game! </h1>\n\nThank you for reading the instructions. Get ready start with the 40 rounds of this game.\n<br><br>\nIf you need to take a break, feel free to take one after the end of a round, before continuing to the next one.\n<br><br>\nRemember, the more money the spider gets, the bigger your bonus will be!\n<br><br>\n<div style='text-align: center;'>Press <code>space</code> to begin.</div>\n\n<br><br>\n(If, at any point, the <code>space</code> key does not take you to the next page, click once on the text and try again.)", "response": " ", "trial_id": "mdp_ready", "trial_type": "html-keyboard-response", "trial_index": 14, "time_elapsed": 1086430, "internal_node_id": "0.0-6.0-0.0"}}, {"uniqueid": "w93915883:a68757058", "current_trial": 15, "dateTime": 1693482152398, "trialdata": {"revealed_states": [], "clicked_states": [], "num_clicks_accrued": [0, 0, 0, 0, 0, 0, 0, 0, 0, 0, 0, 0, 0], "stateRewards": ["", 2, 3, -3, 4, 72, -28, 34, -12, 57, -64, -15, 2, 1, -4, -15, 2, 49, 31, -1, -42, -58, 31, -2, 1, -2, -13, -75, -19, -22, -6, 61, 10, -56], "withholdReward": false, "trial_id": "mdp_trial_1", "block": "test", "trialIndex": 4, "score": -60, "costs": 0, "simulationMode": [null, null, null, null, null], "rewards": [2, 1, -4, -1, -58], "path": ["0", "0", "12", "13", "14", "19", "21"], "rt": [1131, 485, 693, 648, 2327], "actions": ["right", "right", "right", "down", "down"], "actionTimes": [4379, 5373, 6579, 7748, 10592], "queries": {"click": {"state": {"target": [], "time": []}, "edge": {"target": [], "time": []}}, "mouseover": {"state": {"target": [], "time": []}, "edge": {"target": [], "time": []}}, "mouseout": {"state": {"target": ["0"], "time": [1957]}, "edge": {"target": [], "time": []}}}, "displayed_time": "17.25", "trialTime": 23564, "trial_type": "mouselab-mdp", "trial_index": 15, "time_elapsed": 1110333, "internal_node_id": "0.0-6.0-1.0-0.0"}}, {"uniqueid": "w93915883:a68757058", "current_trial": 16, "dateTime": 1693482169558, "trialdata": {"revealed_states": [], "clicked_states": [], "num_clicks_accrued": [0, 0, 0, 0, 0, 0, 0, 0, 0, 0, 0, 0, 0], "stateRewards": ["", -1, 3, 8, 10, -86, 61, -36, 10, 17, -60, 24, -1, -3, 3, 11, 50, 60, 33, -3, -20, 58, -6, 1, -4, -4, 13, -70, -71, 43, 14, 52, 82, -11], "withholdReward": false, "trial_id": "mdp_trial_2", "block": "test", "trialIndex": 5, "score": 37, "costs": 0, "simulationMode": [null, null, null, null, null], "rewards": [-1, 3, 8, 10, 17], "path": ["0", "0", "1", "2", "3", "8", "9"], "rt": [4344, 296, 354, 1196, 28], "actions": ["up", "up", "up", "left", "up"], "actionTimes": [5965, 6827, 7698, 9407, 9953], "queries": {"click": {"state": {"target": [], "time": []}, "edge": {"target": [], "time": []}}, "mouseover": {"state": {"target": [], "time": []}, "edge": {"target": [], "time": []}}, "mouseout": {"state": {"target": ["0"], "time": [1369]}, "edge": {"target": [], "time": []}}}, "displayed_time": "15.62", "trialTime": 16803, "trial_type": "mouselab-mdp", "trial_index": 16, "time_elapsed": 1127494, "internal_node_id": "0.0-6.0-1.0-1.0"}}, {"uniqueid": "w93915883:a68757058", "current_trial": 17, "dateTime": 1693482188113, "trialdata": {"revealed_states": [], "clicked_states": [], "num_clicks_accrued": [0, 0, 0, 0, 0, 0, 0, 0, 0, 0, 0, 0, 0], "stateRewards": ["", -2, -1, -3, -1, -78, -6, 2, -1, 22, -88, 32, 2, 2, -7, -8, -51, -17, 54, 2, -44, 54, 75, 2, -2, -8, -15, -29, 12, -67, 15, -1, -47, -47], "withholdReward": false, "trial_id": "mdp_trial_3", "block": "test", "trialIndex": 6, "score": -52, "costs": 0, "simulationMode": [null, null, null, null, null], "rewards": [2, -2, -8, -15, -29], "path": ["0", "0", "23", "24", "25", "26", "27"], "rt": [5161, 147, 1095, 1225, 401], "actions": ["left", "left", "left", "up", "up"], "actionTimes": [6878, 7539, 9153, 10899, 11820], "queries": {"click": {"state": {"target": [], "time": []}, "edge": {"target": [], "time": []}}, "mouseover": {"state": {"target": [], "time": []}, "edge": {"target": [], "time": []}}, "mouseout": {"state": {"target": ["0"], "time": [1460]}, "edge": {"target": [], "time": []}}}, "displayed_time": "15.72", "trialTime": 18146, "trial_type": "mouselab-mdp", "trial_index": 17, "time_elapsed": 1146049, "internal_node_id": "0.0-6.0-1.0-2.0"}}, {"uniqueid": "w93915883:a68757058", "current_trial": 18, "dateTime": 1693482207571, "trialdata": {"revealed_states": [], "clicked_states": [], "num_clicks_accrued": [0, 0, 0, 0, 0, 0, 0, 0, 0, 0, 0, 0, 0], "stateRewards": ["", -1, -2, 4, 9, 10, -75, 39, 16, -43, 88, -19, -1, 1, 2, 4, -31, 10, 73, 12, 41, -64, -81, -2, 2, -6, 1, -81, -1, -26, 3, -59, -3, -20], "withholdReward": false, "trial_id": "mdp_trial_4", "block": "test", "trialIndex": 7, "score": 20, "costs": 0, "simulationMode": [null, null, null, null, null], "rewards": [-1, -2, 4, 9, 10], "path": ["0", "0", "1", "2", "3", "4", "5"], "rt": [3932, 157, 336, 42, 616], "actions": ["up", "up", "up", "right", "up"], "actionTimes": [7655, 8324, 9169, 9727, 10881], "queries": {"click": {"state": {"target": [], "time": []}, "edge": {"target": [], "time": []}}, "mouseover": {"state": {"target": [], "time": []}, "edge": {"target": [], "time": []}}, "mouseout": {"state": {"target": ["0"], "time": [2471]}, "edge": {"target": [], "time": []}}}, "displayed_time": "17.73", "trialTime": 19039, "trial_type": "mouselab-mdp", "trial_index": 18, "time_elapsed": 1165508, "internal_node_id": "0.0-6.0-1.0-3.0"}}, {"uniqueid": "w93915883:a68757058", "current_trial": 19, "dateTime": 1693482224811, "trialdata": {"revealed_states": [], "clicked_states": [], "num_clicks_accrued": [0, 0, 0, 0, 0, 0, 0, 0, 0, 0, 0, 0, 0], "stateRewards": ["", -1, -4, -1, -11, 43, 69, 39, 4, 17, -20, -82, -2, -1, 4, 8, -79, 24, -79, 11, 36, 64, 41, 2, 4, -1, 11, -79, -47, 75, -3, 63, -36, -19], "withholdReward": false, "trial_id": "mdp_trial_5", "block": "test", "trialIndex": 8, "score": -70, "costs": 0, "simulationMode": [null, null, null, null, null], "rewards": [-2, -1, 4, 8, -79], "path": ["0", "0", "12", "13", "14", "15", "16"], "rt": [3376, 175, 378, 451, 78], "actions": ["right", "right", "right", "up", "up"], "actionTimes": [5053, 5747, 6631, 7604, 8196], "queries": {"click": {"state": {"target": [], "time": []}, "edge": {"target": [], "time": []}}, "mouseover": {"state": {"target": [], "time": []}, "edge": {"target": [], "time": []}}, "mouseout": {"state": {"target": ["0"], "time": [1399]}, "edge": {"target": [], "time": []}}}, "displayed_time": "15.68", "trialTime": 16808, "trial_type": "mouselab-mdp", "trial_index": 19, "time_elapsed": 1182748, "internal_node_id": "0.0-6.0-1.0-4.0"}}, {"uniqueid": "w93915883:a68757058", "current_trial": 20, "dateTime": 1693482241823, "trialdata": {"revealed_states": [], "clicked_states": [], "num_clicks_accrued": [0, 0, 0, 0, 0, 0, 0, 0, 0, 0, 0, 0, 0], "stateRewards": ["", -2, 1, -8, 12, -65, -79, 16, 7, -80, -17, -45, -2, 2, -5, -2, -85, 23, -4, -7, 48, 27, -76, 2, 3, 5, 2, 43, 71, -13, 7, -49, 59, -31], "withholdReward": false, "trial_id": "mdp_trial_6", "block": "test", "trialIndex": 9, "score": -62, "costs": 0, "simulationMode": [null, null, null, null, null], "rewards": [-2, 1, -8, 12, -65], "path": ["0", "0", "1", "2", "3", "4", "5"], "rt": [3174, 807, 320, 208, 3], "actions": ["up", "up", "up", "right", "up"], "actionTimes": [4917, 6241, 7084, 7801, 8312], "queries": {"click": {"state": {"target": [], "time": []}, "edge": {"target": [], "time": []}}, "mouseover": {"state": {"target": [], "time": []}, "edge": {"target": [], "time": []}}, "mouseout": {"state": {"target": ["0"], "time": [1447]}, "edge": {"target": [], "time": []}}}, "displayed_time": "15.75", "trialTime": 16567, "trial_type": "mouselab-mdp", "trial_index": 20, "time_elapsed": 1199760, "internal_node_id": "0.0-6.0-1.0-5.0"}}, {"uniqueid": "w93915883:a68757058", "current_trial": 21, "dateTime": 1693482258864, "trialdata": {"revealed_states": [], "clicked_states": [], "num_clicks_accrued": [0, 0, 0, 0, 0, 0, 0, 0, 0, 0, 0, 0, 0], "stateRewards": ["", 1, 3, 1, -13, 52, -28, 67, -14, 3, 63, -70, -1, -4, 7, -11, -10, 47, -18, 6, 69, -9, -61, 2, 3, -6, 10, 63, -34, 40, -6, -79, -35, -32], "withholdReward": false, "trial_id": "mdp_trial_7", "block": "test", "trialIndex": 10, "score": 38, "costs": 0, "simulationMode": [null, null, null, null, null], "rewards": [-1, -4, 7, -11, 47], "path": ["0", "0", "12", "13", "14", "15", "17"], "rt": [3518, 594, 533, 1572, 685], "actions": ["right", "right", "right", "up", "right"], "actionTimes": [5132, 6252, 7306, 9401, 10601], "queries": {"click": {"state": {"target": [], "time": []}, "edge": {"target": [], "time": []}}, "mouseover": {"state": {"target": [], "time": []}, "edge": {"target": [], "time": []}}, "mouseout": {"state": {"target": ["0"], "time": [1228]}, "edge": {"target": [], "time": []}}}, "displayed_time": "15.62", "trialTime": 16505, "trial_type": "mouselab-mdp", "trial_index": 21, "time_elapsed": 1216801, "internal_node_id": "0.0-6.0-1.0-6.0"}}, {"uniqueid": "w93915883:a68757058", "current_trial": 22, "dateTime": 1693482275733, "trialdata": {"revealed_states": [], "clicked_states": [], "num_clicks_accrued": [0, 0, 0, 0, 0, 0, 0, 0, 0, 0, 0, 0, 0], "stateRewards": ["", -1, 1, -5, -6, -78, 47, -13, 12, 48, -88, 20, 2, -3, -2, 13, -20, 37, -57, 14, -38, 30, 31, -2, -2, 8, 2, -23, 78, 28, 12, -74, -88, 8], "withholdReward": false, "trial_id": "mdp_trial_8", "block": "test", "trialIndex": 11, "score": -27, "costs": 0, "simulationMode": [null, null, null, null, null], "rewards": [2, -3, -2, 14, -38], "path": ["0", "0", "12", "13", "14", "19", "20"], "rt": [2463, 357, 425, 97, 127], "actions": ["right", "right", "right", "down", "right"], "actionTimes": [4114, 4990, 5924, 6528, 7174], "queries": {"click": {"state": {"target": [], "time": []}, "edge": {"target": [], "time": []}}, "mouseover": {"state": {"target": [], "time": []}, "edge": {"target": [], "time": []}}, "mouseout": {"state": {"target": ["0"], "time": [1313]}, "edge": {"target": [], "time": []}}}, "displayed_time": "15.65", "trialTime": 16459, "trial_type": "mouselab-mdp", "trial_index": 22, "time_elapsed": 1233670, "internal_node_id": "0.0-6.0-1.0-7.0"}}, {"uniqueid": "w93915883:a68757058", "current_trial": 23, "dateTime": 1693482294005, "trialdata": {"revealed_states": [], "clicked_states": [], "num_clicks_accrued": [0, 0, 0, 0, 0, 0, 0, 0, 0, 0, 0, 0, 0], "stateRewards": ["", 1, 1, 6, -14, -40, 37, 16, -13, 33, -68, 49, 2, 4, 3, 6, 55, 27, 32, 10, -65, 20, -87, 2, 1, -6, -5, -42, 12, 29, -8, 16, 76, -33], "withholdReward": false, "trial_id": "mdp_trial_9", "block": "test", "trialIndex": 12, "score": -46, "costs": 0, "simulationMode": [null, null, null, null, null], "rewards": [2, 4, 3, 10, -65], "path": ["0", "0", "12", "13", "14", "19", "20"], "rt": [2407, 218, 237, 2884, 1079], "actions": ["right", "right", "right", "down", "right"], "actionTimes": [5761, 6500, 7245, 10644, 12233], "queries": {"click": {"state": {"target": [], "time": []}, "edge": {"target": [], "time": []}}, "mouseover": {"state": {"target": [], "time": []}, "edge": {"target": [], "time": []}}, "mouseout": {"state": {"target": ["0"], "time": [3086]}, "edge": {"target": [], "time": []}}}, "displayed_time": "17.36", "trialTime": 17784, "trial_type": "mouselab-mdp", "trial_index": 23, "time_elapsed": 1251942, "internal_node_id": "0.0-6.0-1.0-8.0"}}, {"uniqueid": "w93915883:a68757058", "current_trial": 24, "dateTime": 1693482311301, "trialdata": {"revealed_states": [], "clicked_states": [], "num_clicks_accrued": [0, 0, 0, 0, 0, 0, 0, 0, 0, 0, 0, 0, 0], "stateRewards": ["", 1, 2, -3, 6, -88, 74, -45, 7, -46, 40, -77, 1, -4, 4, 3, 22, -25, -59, 8, -83, 19, -60, -1, -1, -1, -8, 26, -29, 64, -7, -88, -51, -55], "withholdReward": false, "trial_id": "mdp_trial_10", "block": "test", "trialIndex": 13, "score": -39, "costs": 0, "simulationMode": [null, null, null, null, null], "rewards": [1, 2, -3, 7, -46], "path": ["0", "0", "1", "2", "3", "8", "9"], "rt": [2229, 187, 195, 15, 652], "actions": ["up", "up", "up", "left", "up"], "actionTimes": [4495, 5201, 5909, 6445, 7631], "queries": {"click": {"state": {"target": [], "time": []}, "edge": {"target": [], "time": []}}, "mouseover": {"state": {"target": [], "time": []}, "edge": {"target": [], "time": []}}, "mouseout": {"state": {"target": ["0"], "time": [1171]}, "edge": {"target": [], "time": []}}}, "displayed_time": "16.27", "trialTime": 16888, "trial_type": "mouselab-mdp", "trial_index": 24, "time_elapsed": 1269237, "internal_node_id": "0.0-6.0-1.0-9.0"}}, {"uniqueid": "w93915883:a68757058", "current_trial": 25, "dateTime": 1693482329929, "trialdata": {"revealed_states": [], "clicked_states": [], "num_clicks_accrued": [0, 0, 0, 0, 0, 0, 0, 0, 0, 0, 0, 0, 0], "stateRewards": ["", 1, 1, -2, 7, -31, -6, 76, 1, -36, -16, -53, 2, 1, 7, 13, -47, -10, 47, -7, 72, 46, -56, -2, -2, -2, 11, -80, 44, 38, 16, 67, 85, -78], "withholdReward": false, "trial_id": "mdp_trial_11", "block": "test", "trialIndex": 14, "score": 75, "costs": 0, "simulationMode": [null, null, null, null, null], "rewards": [2, 1, 7, -7, 72], "path": ["0", "0", "12", "13", "14", "19", "20"], "rt": [4134, 640, 558, 1700, 118], "actions": ["right", "right", "right", "down", "right"], "actionTimes": [5648, 6802, 7899, 10109, 10739], "queries": {"click": {"state": {"target": [], "time": []}, "edge": {"target": [], "time": []}}, "mouseover": {"state": {"target": [], "time": []}, "edge": {"target": [], "time": []}}, "mouseout": {"state": {"target": ["0"], "time": [1239]}, "edge": {"target": [], "time": []}}}, "displayed_time": "15.52", "trialTime": 18184, "trial_type": "mouselab-mdp", "trial_index": 25, "time_elapsed": 1287865, "internal_node_id": "0.0-6.0-1.0-10.0"}}, {"uniqueid": "w93915883:a68757058", "current_trial": 26, "dateTime": 1693482351793, "trialdata": {"revealed_states": [], "clicked_states": [], "num_clicks_accrued": [0, 0, 0, 0, 0, 0, 0, 0, 0, 0, 0, 0, 0], "stateRewards": ["", 1, -1, -7, -7, -22, 15, -13, 13, 26, -32, 38, -1, 1, -7, -4, 16, -62, 86, 12, -54, 56, 64, -2, -1, 6, 14, -57, 37, 62, -6, -25, 50, -70], "withholdReward": false, "trial_id": "mdp_trial_12", "block": "test", "trialIndex": 15, "score": -49, "costs": 0, "simulationMode": [null, null, null, null, null], "rewards": [-1, 1, -7, 12, -54], "path": ["0", "0", "12", "13", "14", "19", "20"], "rt": [1233, 44, 337, 106, 11], "actions": ["right", "right", "right", "down", "right"], "actionTimes": [4293, 4863, 5731, 6349, 6872], "queries": {"click": {"state": {"target": [], "time": []}, "edge": {"target": [], "time": []}}, "mouseover": {"state": {"target": [], "time": []}, "edge": {"target": [], "time": []}}, "mouseout": {"state": {"target": ["0"], "time": [1632]}, "edge": {"target": [], "time": []}}}, "displayed_time": "17.06", "trialTime": 21442, "trial_type": "mouselab-mdp", "trial_index": 26, "time_elapsed": 1309729, "internal_node_id": "0.0-6.0-1.0-11.0"}}, {"uniqueid": "w93915883:a68757058", "current_trial": 27, "dateTime": 1693482373802, "trialdata": {"revealed_states": [], "clicked_states": [], "num_clicks_accrued": [0, 0, 0, 0, 0, 0, 0, 0, 0, 0, 0, 0, 0], "stateRewards": ["", -2, -4, 2, 10, -17, 18, 73, 11, -32, 23, -13, -2, -4, 7, 12, -25, 66, -23, 15, 40, -76, -9, 1, 2, -7, -5, -20, 24, 3, -5, 16, -73, 70], "withholdReward": false, "trial_id": "mdp_trial_13", "block": "test", "trialIndex": 16, "score": 79, "costs": 0, "simulationMode": [null, null, null, null, null], "rewards": [-2, -4, 7, 12, 66], "path": ["0", "0", "12", "13", "14", "15", "17"], "rt": [905, 625, 312, 53, 574], "actions": ["right", "right", "right", "up", "right"], "actionTimes": [2641, 3787, 4622, 5196, 6299], "queries": {"click": {"state": {"target": [], "time": []}, "edge": {"target": [], "time": []}}, "mouseover": {"state": {"target": [], "time": []}, "edge": {"target": [], "time": []}}, "mouseout": {"state": {"target": ["0"], "time": [1382]}, "edge": {"target": [], "time": []}}}, "displayed_time": "15.74", "trialTime": 21510, "trial_type": "mouselab-mdp", "trial_index": 27, "time_elapsed": 1331738, "internal_node_id": "0.0-6.0-1.0-12.0"}}, {"uniqueid": "w93915883:a68757058", "current_trial": 28, "dateTime": 1693482390981, "trialdata": {"revealed_states": [], "clicked_states": [], "num_clicks_accrued": [0, 0, 0, 0, 0, 0, 0, 0, 0, 0, 0, 0, 0], "stateRewards": ["", 1, -3, -1, 9, -34, -40, 22, -7, 45, 53, -11, 2, 4, 5, 15, 21, 37, -49, -3, 80, -28, -34, 1, -3, 1, 1, -40, -6, -5, -16, -85, -86, 59], "withholdReward": false, "trial_id": "mdp_trial_14", "block": "test", "trialIndex": 17, "score": 63, "costs": 0, "simulationMode": [null, null, null, null, null], "rewards": [2, 4, 5, 15, 37], "path": ["0", "0", "12", "13", "14", "15", "17"], "rt": [1872, 246, 224, 28, 311], "actions": ["right", "right", "right", "up", "right"], "actionTimes": [3546, 4306, 5048, 5584, 6416], "queries": {"click": {"state": {"target": [], "time": []}, "edge": {"target": [], "time": []}}, "mouseover": {"state": {"target": [], "time": []}, "edge": {"target": [], "time": []}}, "mouseout": {"state": {"target": ["0"], "time": [1418]}, "edge": {"target": [], "time": []}}}, "displayed_time": "15.68", "trialTime": 16687, "trial_type": "mouselab-mdp", "trial_index": 28, "time_elapsed": 1348918, "internal_node_id": "0.0-6.0-1.0-13.0"}}, {"uniqueid": "w93915883:a68757058", "current_trial": 29, "dateTime": 1693482408087, "trialdata": {"revealed_states": [], "clicked_states": [], "num_clicks_accrued": [0, 0, 0, 0, 0, 0, 0, 0, 0, 0, 0, 0, 0], "stateRewards": ["", 1, -2, -2, 10, -31, -77, 35, 9, -47, 8, 48, -2, 1, -4, -3, -26, -50, 43, -11, 76, -38, 17, 1, -1, 6, 10, 15, -9, 12, -8, 85, 11, -55], "withholdReward": false, "trial_id": "mdp_trial_15", "block": "test", "trialIndex": 18, "score": -57, "costs": 0, "simulationMode": [null, null, null, null, null], "rewards": [1, -1, 6, -8, -55], "path": ["0", "0", "23", "24", "25", "30", "33"], "rt": [3622, 473, 3, 150, 702], "actions": ["left", "left", "left", "down", "left"], "actionTimes": [5157, 6145, 6668, 7358, 8570], "queries": {"click": {"state": {"target": [], "time": []}, "edge": {"target": [], "time": []}}, "mouseover": {"state": {"target": [], "time": []}, "edge": {"target": [], "time": []}}, "mouseout": {"state": {"target": ["0"], "time": [1216]}, "edge": {"target": [], "time": []}}}, "displayed_time": "15.54", "trialTime": 16678, "trial_type": "mouselab-mdp", "trial_index": 29, "time_elapsed": 1366023, "internal_node_id": "0.0-6.0-1.0-14.0"}}, {"uniqueid": "w93915883:a68757058", "current_trial": 30, "dateTime": 1693482425031, "trialdata": {"revealed_states": [], "clicked_states": [], "num_clicks_accrued": [0, 0, 0, 0, 0, 0, 0, 0, 0, 0, 0, 0, 0], "stateRewards": ["", 2, -1, -2, -5, -47, -57, -33, -11, 31, -18, -72, -2, 1, -4, -8, -46, -53, -50, 15, -85, -9, 39, -2, -2, 1, 14, -1, -8, 53, -12, -41, -74, 62], "withholdReward": false, "trial_id": "mdp_trial_16", "block": "test", "trialIndex": 19, "score": -66, "costs": 0, "simulationMode": [null, null, null, null, null], "rewards": [-2, 1, -4, -8, -53], "path": ["0", "0", "12", "13", "14", "15", "17"], "rt": [1760, 187, 517, 11, 645], "actions": ["right", "right", "right", "up", "right"], "actionTimes": [3341, 4044, 5074, 5599, 6780], "queries": {"click": {"state": {"target": [], "time": []}, "edge": {"target": [], "time": []}}, "mouseover": {"state": {"target": [], "time": []}, "edge": {"target": [], "time": []}}, "mouseout": {"state": {"target": ["0"], "time": [1297]}, "edge": {"target": [], "time": []}}}, "displayed_time": "15.58", "trialTime": 16479, "trial_type": "mouselab-mdp", "trial_index": 30, "time_elapsed": 1382968, "internal_node_id": "0.0-6.0-1.0-15.0"}}, {"uniqueid": "w93915883:a68757058", "current_trial": 31, "dateTime": 1693482442199, "trialdata": {"revealed_states": [], "clicked_states": [], "num_clicks_accrued": [0, 0, 0, 0, 0, 0, 0, 0, 0, 0, 0, 0, 0], "stateRewards": ["", -1, 1, -1, 2, 19, 85, -18, 2, -3, -26, 36, 2, 4, 7, -9, -18, 70, 72, -5, 35, -20, -28, 1, -2, -4, -3, -59, -11, -63, -2, -72, 59, -69], "withholdReward": false, "trial_id": "mdp_trial_17", "block": "test", "trialIndex": 20, "score": 43, "costs": 0, "simulationMode": [null, null, null, null, null], "rewards": [2, 4, 7, -5, 35], "path": ["0", "0", "12", "13", "14", "19", "20"], "rt": [3060, 385, 11, 4, 587], "actions": ["right", "right", "right", "down", "right"], "actionTimes": [4630, 5531, 6056, 6599, 7713], "queries": {"click": {"state": {"target": [], "time": []}, "edge": {"target": [], "time": []}}, "mouseover": {"state": {"target": [], "time": []}, "edge": {"target": [], "time": []}}, "mouseout": {"state": {"target": ["0"], "time": [1190]}, "edge": {"target": [], "time": []}}}, "displayed_time": "15.57", "trialTime": 16678, "trial_type": "mouselab-mdp", "trial_index": 31, "time_elapsed": 1400135, "internal_node_id": "0.0-6.0-1.0-16.0"}}, {"uniqueid": "w93915883:a68757058", "current_trial": 32, "dateTime": 1693482459924, "trialdata": {"revealed_states": [], "clicked_states": [], "num_clicks_accrued": [0, 0, 0, 0, 0, 0, 0, 0, 0, 0, 0, 0, 0], "stateRewards": ["", 1, 2, -5, 14, 54, -14, -25, 16, -5, -87, 78, -1, 1, 3, -3, 52, 53, 53, -10, 73, -69, -48, 2, 3, 1, 8, -62, -7, 85, 7, 82, 52, -28], "withholdReward": false, "trial_id": "mdp_trial_18", "block": "test", "trialIndex": 21, "score": -55, "costs": 0, "simulationMode": [null, null, null, null, null], "rewards": [-1, 1, 3, -10, -48], "path": ["0", "0", "12", "13", "14", "19", "22"], "rt": [1715, 469, 207, 556, 81], "actions": ["right", "right", "right", "down", "left"], "actionTimes": [3992, 4975, 5695, 6761, 7349], "queries": {"click": {"state": {"target": [], "time": []}, "edge": {"target": [], "time": []}}, "mouseover": {"state": {"target": [], "time": []}, "edge": {"target": [], "time": []}}, "mouseout": {"state": {"target": ["0"], "time": [1977]}, "edge": {"target": [], "time": []}}}, "displayed_time": "16.28", "trialTime": 17185, "trial_type": "mouselab-mdp", "trial_index": 32, "time_elapsed": 1417860, "internal_node_id": "0.0-6.0-1.0-17.0"}}, {"uniqueid": "w93915883:a68757058", "current_trial": 33, "dateTime": 1693482479355, "trialdata": {"revealed_states": [], "clicked_states": [], "num_clicks_accrued": [0, 0, 0, 0, 0, 0, 0, 0, 0, 0, 0, 0, 0], "stateRewards": ["", 1, 2, 2, -15, -84, 28, -26, 13, 31, 86, 30, -2, 1, -1, -8, 66, -40, -1, -10, -32, 57, -17, 1, 2, -2, 9, -23, 77, 85, 12, -32, -62, -35], "withholdReward": false, "trial_id": "mdp_trial_19", "block": "test", "trialIndex": 22, "score": -44, "costs": 0, "simulationMode": [null, null, null, null, null], "rewards": [-2, 1, -1, -10, -32], "path": ["0", "0", "12", "13", "14", "19", "20"], "rt": [1979, 153, 6, 401, 425], "actions": ["right", "right", "right", "down", "right"], "actionTimes": [3610, 4279, 4796, 5724, 6663], "queries": {"click": {"state": {"target": [], "time": []}, "edge": {"target": [], "time": []}}, "mouseover": {"state": {"target": [], "time": []}, "edge": {"target": [], "time": []}}, "mouseout": {"state": {"target": ["0"], "time": [1302]}, "edge": {"target": [], "time": []}}}, "displayed_time": "15.63", "trialTime": 18975, "trial_type": "mouselab-mdp", "trial_index": 33, "time_elapsed": 1437291, "internal_node_id": "0.0-6.0-1.0-18.0"}}, {"uniqueid": "w93915883:a68757058", "current_trial": 34, "dateTime": 1693482496790, "trialdata": {"revealed_states": [], "clicked_states": [], "num_clicks_accrued": [0, 0, 0, 0, 0, 0, 0, 0, 0, 0, 0, 0, 0], "stateRewards": ["", 1, -4, -4, 8, 1, -79, 68, -10, -79, 8, -74, -1, -3, -6, 14, 43, 23, 9, 5, -51, 63, 61, -2, 4, 6, -10, 69, -32, 57, 15, -80, -80, -77], "withholdReward": false, "trial_id": "mdp_trial_20", "block": "test", "trialIndex": 23, "score": -78, "costs": 0, "simulationMode": [null, null, null, null, null], "rewards": [1, -4, -4, 8, -79], "path": ["0", "0", "1", "2", "3", "4", "6"], "rt": [744, 53, 383, 166, 43], "actions": ["up", "up", "up", "right", "right"], "actionTimes": [2239, 2813, 3758, 4444, 5004], "queries": {"click": {"state": {"target": [], "time": []}, "edge": {"target": [], "time": []}}, "mouseover": {"state": {"target": [], "time": []}, "edge": {"target": [], "time": []}}, "mouseout": {"state": {"target": ["0"], "time": [1202]}, "edge": {"target": [], "time": []}}}, "displayed_time": "15.50", "trialTime": 16936, "trial_type": "mouselab-mdp", "trial_index": 34, "time_elapsed": 1454726, "internal_node_id": "0.0-6.0-1.0-19.0"}}, {"uniqueid": "w93915883:a68757058", "current_trial": 35, "dateTime": 1693482515838, "trialdata": {"revealed_states": [], "clicked_states": [], "num_clicks_accrued": [0, 0, 0, 0, 0, 0, 0, 0, 0, 0, 0, 0, 0], "stateRewards": ["", -2, -4, -8, 8, 63, -50, -19, -7, -17, -31, 31, 1, 3, -5, 12, -35, -63, -29, -4, -17, -75, -79, -2, -3, -2, 8, -3, -85, 10, -2, -82, -82, 56], "withholdReward": false, "trial_id": "mdp_trial_21", "block": "test", "trialIndex": 24, "score": 47, "costs": 0, "simulationMode": [null, null, null, null, null], "rewards": [-2, -3, -2, -2, 56], "path": ["0", "0", "23", "24", "25", "30", "33"], "rt": [1409, 66, 561, 89, 53], "actions": ["left", "left", "left", "down", "left"], "actionTimes": [5095, 5684, 6789, 7387, 7950], "queries": {"click": {"state": {"target": [], "time": []}, "edge": {"target": [], "time": []}}, "mouseover": {"state": {"target": [], "time": []}, "edge": {"target": [], "time": []}}, "mouseout": {"state": {"target": ["0"], "time": [3319]}, "edge": {"target": [], "time": []}}}, "displayed_time": "17.69", "trialTime": 18602, "trial_type": "mouselab-mdp", "trial_index": 35, "time_elapsed": 1473774, "internal_node_id": "0.0-6.0-1.0-20.0"}}, {"uniqueid": "w93915883:a68757058", "current_trial": 36, "dateTime": 1693482533921, "trialdata": {"revealed_states": [], "clicked_states": [], "num_clicks_accrued": [0, 0, 0, 0, 0, 0, 0, 0, 0, 0, 0, 0, 0], "stateRewards": ["", -1, 1, -6, -1, 80, 23, 2, -11, 73, -81, 59, 1, 3, 5, -1, -26, 28, -3, 16, -59, -13, -50, -2, -2, 2, 15, -50, 86, 17, -4, 37, 35, 44], "withholdReward": false, "trial_id": "mdp_trial_22", "block": "test", "trialIndex": 25, "score": -98, "costs": 0, "simulationMode": [null, null, null, null, null], "rewards": [-1, 1, -6, -11, -81], "path": ["0", "0", "1", "2", "3", "8", "10"], "rt": [1068, 135, 344, 588, 450], "actions": ["up", "up", "up", "left", "down"], "actionTimes": [2455, 3114, 3972, 5078, 6040], "queries": {"click": {"state": {"target": [], "time": []}, "edge": {"target": [], "time": []}}, "mouseover": {"state": {"target": [], "time": []}, "edge": {"target": [], "time": []}}, "mouseout": {"state": {"target": ["0"], "time": [1070]}, "edge": {"target": [], "time": []}}}, "displayed_time": "15.40", "trialTime": 17565, "trial_type": "mouselab-mdp", "trial_index": 36, "time_elapsed": 1491857, "internal_node_id": "0.0-6.0-1.0-21.0"}}, {"uniqueid": "w93915883:a68757058", "current_trial": 37, "dateTime": 1693482553144, "trialdata": {"revealed_states": [], "clicked_states": [], "num_clicks_accrued": [0, 0, 0, 0, 0, 0, 0, 0, 0, 0, 0, 0, 0], "stateRewards": ["", 1, -1, 4, -2, -75, -75, 84, -9, -60, -79, 59, 2, -4, 8, 9, -17, -82, 80, 14, -4, 49, 49, -1, 3, 6, -11, -33, 34, 55, 9, -57, 5, 59], "withholdReward": false, "trial_id": "mdp_trial_23", "block": "test", "trialIndex": 26, "score": 16, "costs": 0, "simulationMode": [null, null, null, null, null], "rewards": [2, -4, 8, 14, -4], "path": ["0", "0", "12", "13", "14", "19", "20"], "rt": [1147, 209, 8, 91, 166], "actions": ["right", "right", "right", "down", "right"], "actionTimes": [4524, 5245, 5776, 6394, 7082], "queries": {"click": {"state": {"target": [], "time": []}, "edge": {"target": [], "time": []}}, "mouseover": {"state": {"target": [], "time": []}, "edge": {"target": [], "time": []}}, "mouseout": {"state": {"target": ["0"], "time": [2938]}, "edge": {"target": [], "time": []}}}, "displayed_time": "17.38", "trialTime": 18742, "trial_type": "mouselab-mdp", "trial_index": 37, "time_elapsed": 1511081, "internal_node_id": "0.0-6.0-1.0-22.0"}}, {"uniqueid": "w93915883:a68757058", "current_trial": 38, "dateTime": 1693482570209, "trialdata": {"revealed_states": [], "clicked_states": [], "num_clicks_accrued": [0, 0, 0, 0, 0, 0, 0, 0, 0, 0, 0, 0, 0], "stateRewards": ["", -2, 4, -3, -13, 63, -36, 62, 11, 78, 34, -51, 2, -2, 8, -6, -40, -18, 31, 9, 64, 39, 79, 1, 4, -4, 15, -12, 76, 73, -10, -77, 86, -4], "withholdReward": false, "trial_id": "mdp_trial_24", "block": "test", "trialIndex": 27, "score": -16, "costs": 0, "simulationMode": [null, null, null, null, null], "rewards": [2, -2, 8, -6, -18], "path": ["0", "0", "12", "13", "14", "15", "17"], "rt": [1067, 24, 45, 85, 462], "actions": ["right", "right", "right", "up", "right"], "actionTimes": [2681, 3216, 3785, 4398, 5368], "queries": {"click": {"state": {"target": [], "time": []}, "edge": {"target": [], "time": []}}, "mouseover": {"state": {"target": [], "time": []}, "edge": {"target": [], "time": []}}, "mouseout": {"state": {"target": ["0"], "time": [1284]}, "edge": {"target": [], "time": []}}}, "displayed_time": "15.62", "trialTime": 16504, "trial_type": "mouselab-mdp", "trial_index": 38, "time_elapsed": 1528146, "internal_node_id": "0.0-6.0-1.0-23.0"}}, {"uniqueid": "w93915883:a68757058", "current_trial": 39, "dateTime": 1693482587085, "trialdata": {"revealed_states": [], "clicked_states": [], "num_clicks_accrued": [0, 0, 0, 0, 0, 0, 0, 0, 0, 0, 0, 0, 0], "stateRewards": ["", 1, -1, 1, -14, -10, 67, -28, -11, 72, 40, -65, -1, 1, 1, -2, 8, -55, 34, -10, 61, 33, -15, 2, -4, 7, 4, -75, 63, -21, -16, 61, 19, 21], "withholdReward": false, "trial_id": "mdp_trial_25", "block": "test", "trialIndex": 28, "score": 54, "costs": 0, "simulationMode": [null, null, null, null, null], "rewards": [1, -1, 1, -14, 67], "path": ["0", "0", "1", "2", "3", "4", "6"], "rt": [500, 124, 146, 185, 69], "actions": ["up", "up", "up", "right", "right"], "actionTimes": [2062, 2705, 3359, 4067, 4647], "queries": {"click": {"state": {"target": [], "time": []}, "edge": {"target": [], "time": []}}, "mouseover": {"state": {"target": [], "time": []}, "edge": {"target": [], "time": []}}, "mouseout": {"state": {"target": ["0"], "time": [1223]}, "edge": {"target": [], "time": []}}}, "displayed_time": "15.56", "trialTime": 16323, "trial_type": "mouselab-mdp", "trial_index": 39, "time_elapsed": 1545021, "internal_node_id": "0.0-6.0-1.0-24.0"}}, {"uniqueid": "w93915883:a68757058", "current_trial": 40, "dateTime": 1693482607367, "trialdata": {"revealed_states": [], "clicked_states": [], "num_clicks_accrued": [0, 0, 0, 0, 0, 0, 0, 0, 0, 0, 0, 0, 0], "stateRewards": ["", -1, -3, -6, -2, -7, 80, -45, -3, -38, -72, 76, 2, 1, 7, 4, -62, 14, -74, 14, -87, -21, -88, -2, 1, -7, -10, 66, 56, -76, 10, -29, -72, -70], "withholdReward": false, "trial_id": "mdp_trial_26", "block": "test", "trialIndex": 29, "score": -51, "costs": 0, "simulationMode": [null, null, null, null, null], "rewards": [-1, -3, -6, -3, -38], "path": ["0", "0", "1", "2", "3", "8", "9"], "rt": [610, 22, 354, 187, 6], "actions": ["up", "up", "up", "left", "up"], "actionTimes": [2174, 2714, 3596, 4312, 4830], "queries": {"click": {"state": {"target": [], "time": []}, "edge": {"target": [], "time": []}}, "mouseover": {"state": {"target": [], "time": []}, "edge": {"target": [], "time": []}}, "mouseout": {"state": {"target": ["0"], "time": [1220]}, "edge": {"target": [], "time": []}}}, "displayed_time": "15.57", "trialTime": 19790, "trial_type": "mouselab-mdp", "trial_index": 40, "time_elapsed": 1565304, "internal_node_id": "0.0-6.0-1.0-25.0"}}, {"uniqueid": "w93915883:a68757058", "current_trial": 41, "dateTime": 1693482624554, "trialdata": {"revealed_states": [], "clicked_states": [], "num_clicks_accrued": [0, 0, 0, 0, 0, 0, 0, 0, 0, 0, 0, 0, 0], "stateRewards": ["", 1, 3, 3, -10, 52, 68, 59, 12, 7, 49, 21, -2, -3, -4, -2, -2, 63, 63, -4, 44, 43, -76, -2, -3, -6, 13, 48, 36, 12, -5, -36, -33, -11], "withholdReward": false, "trial_id": "mdp_trial_27", "block": "test", "trialIndex": 30, "score": 30, "costs": 0, "simulationMode": [null, null, null, null, null], "rewards": [-2, -3, -4, -4, 43], "path": ["0", "0", "12", "13", "14", "19", "21"], "rt": [514, 613, 29, 91, 338], "actions": ["right", "right", "right", "down", "down"], "actionTimes": [1993, 3130, 3677, 4287, 5135], "queries": {"click": {"state": {"target": [], "time": []}, "edge": {"target": [], "time": []}}, "mouseover": {"state": {"target": [], "time": []}, "edge": {"target": [], "time": []}}, "mouseout": {"state": {"target": ["0"], "time": [1150]}, "edge": {"target": [], "time": []}}}, "displayed_time": "15.48", "trialTime": 16478, "trial_type": "mouselab-mdp", "trial_index": 41, "time_elapsed": 1582490, "internal_node_id": "0.0-6.0-1.0-26.0"}}, {"uniqueid": "w93915883:a68757058", "current_trial": 42, "dateTime": 1693482641721, "trialdata": {"revealed_states": [], "clicked_states": [], "num_clicks_accrued": [0, 0, 0, 0, 0, 0, 0, 0, 0, 0, 0, 0, 0], "stateRewards": ["", 2, 4, 7, 7, -79, -2, -21, -5, -53, 47, -21, 1, -3, -1, 7, 83, 7, 84, -7, 80, -37, 69, 2, -4, 5, 2, 4, -20, -30, 7, 71, 44, -81], "withholdReward": false, "trial_id": "mdp_trial_28", "block": "test", "trialIndex": 31, "score": -15, "costs": 0, "simulationMode": [null, null, null, null, null], "rewards": [2, -4, 5, 2, -20], "path": ["0", "0", "23", "24", "25", "26", "28"], "rt": [850, 170, 189, 113, 146], "actions": ["left", "left", "left", "up", "right"], "actionTimes": [2551, 3237, 3938, 4560, 5228], "queries": {"click": {"state": {"target": [], "time": []}, "edge": {"target": [], "time": []}}, "mouseover": {"state": {"target": [], "time": []}, "edge": {"target": [], "time": []}}, "mouseout": {"state": {"target": ["0"], "time": [1352]}, "edge": {"target": [], "time": []}}}, "displayed_time": "15.70", "trialTime": 16618, "trial_type": "mouselab-mdp", "trial_index": 42, "time_elapsed": 1599657, "internal_node_id": "0.0-6.0-1.0-27.0"}}, {"uniqueid": "w93915883:a68757058", "current_trial": 43, "dateTime": 1693482661342, "trialdata": {"revealed_states": [], "clicked_states": [], "num_clicks_accrued": [0, 0, 0, 0, 0, 0, 0, 0, 0, 0, 0, 0, 0], "stateRewards": ["", -1, 2, -2, 13, -56, -28, 10, 14, 53, -80, -29, 1, -3, -3, -14, 14, 9, -40, -9, 18, 18, 48, 1, 1, 1, -9, 64, -39, -9, 7, -52, -78, 7], "withholdReward": false, "trial_id": "mdp_trial_29", "block": "test", "trialIndex": 32, "score": -68, "costs": 0, "simulationMode": [null, null, null, null, null], "rewards": [1, 1, 1, 7, -78], "path": ["0", "0", "23", "24", "25", "30", "32"], "rt": [608, 210, 87, 200, 6], "actions": ["left", "left", "left", "down", "down"], "actionTimes": [3175, 3908, 4519, 5229, 5750], "queries": {"click": {"state": {"target": [], "time": []}, "edge": {"target": [], "time": []}}, "mouseover": {"state": {"target": [], "time": []}, "edge": {"target": [], "time": []}}, "mouseout": {"state": {"target": ["0"], "time": [2212]}, "edge": {"target": [], "time": []}}}, "displayed_time": "16.57", "trialTime": 19112, "trial_type": "mouselab-mdp", "trial_index": 43, "time_elapsed": 1619279, "internal_node_id": "0.0-6.0-1.0-28.0"}}, {"uniqueid": "w93915883:a68757058", "current_trial": 44, "dateTime": 1693482679557, "trialdata": {"revealed_states": [], "clicked_states": [], "num_clicks_accrued": [0, 0, 0, 0, 0, 0, 0, 0, 0, 0, 0, 0, 0], "stateRewards": ["", 2, 4, 4, 9, -88, -10, 44, 16, -54, 64, 78, 1, 2, 5, 16, 80, 36, 7, -4, 9, -47, -70, -1, -3, 6, -16, 11, 80, 28, 8, -1, 34, -17], "withholdReward": false, "trial_id": "mdp_trial_30", "block": "test", "trialIndex": 33, "score": 104, "costs": 0, "simulationMode": [null, null, null, null, null], "rewards": [2, 4, 4, 16, 78], "path": ["0", "0", "1", "2", "3", "8", "11"], "rt": [643, 42, 66, 63, 690], "actions": ["up", "up", "up", "left", "left"], "actionTimes": [2203, 2757, 3330, 3909, 5119], "queries": {"click": {"state": {"target": [], "time": []}, "edge": {"target": [], "time": []}}, "mouseover": {"state": {"target": [], "time": []}, "edge": {"target": [], "time": []}}, "mouseout": {"state": {"target": ["0"], "time": [1234]}, "edge": {"target": [], "time": []}}}, "displayed_time": "15.56", "trialTime": 17656, "trial_type": "mouselab-mdp", "trial_index": 44, "time_elapsed": 1637495, "internal_node_id": "0.0-6.0-1.0-29.0"}}, {"uniqueid": "w93915883:a68757058", "current_trial": 45, "dateTime": 1693482696682, "trialdata": {"revealed_states": [], "clicked_states": [], "num_clicks_accrued": [0, 0, 0, 0, 0, 0, 0, 0, 0, 0, 0, 0, 0], "stateRewards": ["", 2, -4, 1, -12, -59, -53, -74, 16, -88, -66, 66, 1, -2, 8, -9, -14, 22, 25, -1, -39, 47, -14, -1, -1, -2, 1, -4, 52, -26, 15, -7, 46, 43], "withholdReward": false, "trial_id": "mdp_trial_31", "block": "test", "trialIndex": 34, "score": 81, "costs": 0, "simulationMode": [null, null, null, null, null], "rewards": [2, -4, 1, 16, 66], "path": ["0", "0", "1", "2", "3", "8", "11"], "rt": [537, 81, 123, 169, 80], "actions": ["up", "up", "up", "left", "left"], "actionTimes": [2086, 2679, 3320, 3997, 4592], "queries": {"click": {"state": {"target": [], "time": []}, "edge": {"target": [], "time": []}}, "mouseover": {"state": {"target": [], "time": []}, "edge": {"target": [], "time": []}}, "mouseout": {"state": {"target": ["0"], "time": [1185]}, "edge": {"target": [], "time": []}}}, "displayed_time": "15.55", "trialTime": 16601, "trial_type": "mouselab-mdp", "trial_index": 45, "time_elapsed": 1654618, "internal_node_id": "0.0-6.0-1.0-30.0"}}, {"uniqueid": "w93915883:a68757058", "current_trial": 46, "dateTime": 1693482715994, "trialdata": {"revealed_states": [], "clicked_states": [], "num_clicks_accrued": [0, 0, 0, 0, 0, 0, 0, 0, 0, 0, 0, 0, 0], "stateRewards": ["", -2, 2, -5, -6, 10, -66, -58, -10, -11, -63, -70, -1, -4, -5, 7, 66, -64, -43, -3, 45, -37, 4, -2, -2, -6, -4, -30, 33, 43, 15, -32, -65, -59], "withholdReward": false, "trial_id": "mdp_trial_32", "block": "test", "trialIndex": 35, "score": -78, "costs": 0, "simulationMode": [null, null, null, null, null], "rewards": [-2, 2, -5, -10, -63], "path": ["0", "0", "1", "2", "3", "8", "10"], "rt": [558, 145, 131, 63, 963], "actions": ["up", "up", "up", "left", "down"], "actionTimes": [3480, 4138, 4790, 5373, 6852], "queries": {"click": {"state": {"target": [], "time": []}, "edge": {"target": [], "time": []}}, "mouseover": {"state": {"target": [], "time": []}, "edge": {"target": [], "time": []}}, "mouseout": {"state": {"target": ["0"], "time": [1318]}, "edge": {"target": [], "time": []}}}, "displayed_time": "16.92", "trialTime": 18767, "trial_type": "mouselab-mdp", "trial_index": 46, "time_elapsed": 1673930, "internal_node_id": "0.0-6.0-1.0-31.0"}}, {"uniqueid": "w93915883:a68757058", "current_trial": 47, "dateTime": 1693482732989, "trialdata": {"revealed_states": [], "clicked_states": [], "num_clicks_accrued": [0, 0, 0, 0, 0, 0, 0, 0, 0, 0, 0, 0, 0], "stateRewards": ["", -2, -3, 4, 1, 33, -53, 15, 9, -12, 61, -6, -2, 4, 6, -11, 47, -43, -7, -11, 46, 23, -28, -1, -1, 3, -10, 11, 76, -76, 10, 18, -38, 87], "withholdReward": false, "trial_id": "mdp_trial_33", "block": "test", "trialIndex": 36, "score": 20, "costs": 0, "simulationMode": [null, null, null, null, null], "rewards": [-2, 4, 6, -11, 23], "path": ["0", "0", "12", "13", "14", "19", "21"], "rt": [706, 134, 132, 98, 39], "actions": ["right", "right", "right", "down", "down"], "actionTimes": [2331, 2981, 3626, 4242, 4799], "queries": {"click": {"state": {"target": [], "time": []}, "edge": {"target": [], "time": []}}, "mouseover": {"state": {"target": [], "time": []}, "edge": {"target": [], "time": []}}, "mouseout": {"state": {"target": ["0"], "time": [1256]}, "edge": {"target": [], "time": []}}}, "displayed_time": "15.63", "trialTime": 16357, "trial_type": "mouselab-mdp", "trial_index": 47, "time_elapsed": 1690926, "internal_node_id": "0.0-6.0-1.0-32.0"}}, {"uniqueid": "w93915883:a68757058", "current_trial": 48, "dateTime": 1693482750502, "trialdata": {"revealed_states": [], "clicked_states": [], "num_clicks_accrued": [0, 0, 0, 0, 0, 0, 0, 0, 0, 0, 0, 0, 0], "stateRewards": ["", 1, -4, 6, -3, 40, 76, -51, 5, -24, -63, 44, -2, -2, 8, 1, 76, -85, -58, 10, 59, 20, 11, -2, 3, -3, 3, -82, -10, 54, -7, -57, -6, -32], "withholdReward": false, "trial_id": "mdp_trial_34", "block": "test", "trialIndex": 37, "score": -80, "costs": 0, "simulationMode": [null, null, null, null, null], "rewards": [-2, -2, 8, 1, -85], "path": ["0", "0", "12", "13", "14", "15", "17"], "rt": [447, 97, 88, 88, 60], "actions": ["right", "right", "right", "up", "right"], "actionTimes": [2133, 2745, 3351, 3951, 4522], "queries": {"click": {"state": {"target": [], "time": []}, "edge": {"target": [], "time": []}}, "mouseover": {"state": {"target": [], "time": []}, "edge": {"target": [], "time": []}}, "mouseout": {"state": {"target": ["0"], "time": [1303]}, "edge": {"target": [], "time": []}}}, "displayed_time": "15.69", "trialTime": 16977, "trial_type": "mouselab-mdp", "trial_index": 48, "time_elapsed": 1708438, "internal_node_id": "0.0-6.0-1.0-33.0"}}, {"uniqueid": "w93915883:a68757058", "current_trial": 49, "dateTime": 1693482769179, "trialdata": {"revealed_states": [], "clicked_states": [], "num_clicks_accrued": [0, 0, 0, 0, 0, 0, 0, 0, 0, 0, 0, 0, 0], "stateRewards": ["", -1, 2, -2, 5, 80, -61, -27, 12, 44, -26, -75, -2, -4, 1, -16, 42, -49, -50, 4, -44, 2, 80, -2, -2, 5, -2, 59, 10, 24, 7, -48, -86, -44], "withholdReward": false, "trial_id": "mdp_trial_35", "block": "test", "trialIndex": 38, "score": 23, "costs": 0, "simulationMode": [null, null, null, null, null], "rewards": [-2, -2, 5, -2, 24], "path": ["0", "0", "23", "24", "25", "26", "29"], "rt": [774, 231, 6, 424, 343], "actions": ["left", "left", "left", "up", "left"], "actionTimes": [2190, 2935, 3460, 4410, 5261], "queries": {"click": {"state": {"target": [], "time": []}, "edge": {"target": [], "time": []}}, "mouseover": {"state": {"target": [], "time": []}, "edge": {"target": [], "time": []}}, "mouseout": {"state": {"target": ["0"], "time": [1045]}, "edge": {"target": [], "time": []}}}, "displayed_time": "15.42", "trialTime": 17918, "trial_type": "mouselab-mdp", "trial_index": 49, "time_elapsed": 1727116, "internal_node_id": "0.0-6.0-1.0-34.0"}}, {"uniqueid": "w93915883:a68757058", "current_trial": 50, "dateTime": 1693482787086, "trialdata": {"revealed_states": [], "clicked_states": [], "num_clicks_accrued": [0, 0, 0, 0, 0, 0, 0, 0, 0, 0, 0, 0, 0], "stateRewards": ["", 1, 2, -3, -5, 66, -50, -47, -5, 1, 28, -27, 1, 1, -1, -6, 37, -25, 56, 1, -82, -66, -40, -1, -4, -7, 15, -61, -23, 26, 10, 14, -56, 29], "withholdReward": false, "trial_id": "mdp_trial_36", "block": "test", "trialIndex": 39, "score": 27, "costs": 0, "simulationMode": [null, null, null, null, null], "rewards": [-1, -4, -7, 10, 29], "path": ["0", "0", "23", "24", "25", "30", "33"], "rt": [921, 26, 109, 29, 23], "actions": ["left", "left", "left", "down", "left"], "actionTimes": [2984, 3517, 4149, 4688, 5228], "queries": {"click": {"state": {"target": [], "time": []}, "edge": {"target": [], "time": []}}, "mouseover": {"state": {"target": [], "time": []}, "edge": {"target": [], "time": []}}, "mouseout": {"state": {"target": ["0"], "time": [1715]}, "edge": {"target": [], "time": []}}}, "displayed_time": "16.07", "trialTime": 17342, "trial_type": "mouselab-mdp", "trial_index": 50, "time_elapsed": 1745023, "internal_node_id": "0.0-6.0-1.0-35.0"}}, {"uniqueid": "w93915883:a68757058", "current_trial": 51, "dateTime": 1693482804979, "trialdata": {"revealed_states": [], "clicked_states": [], "num_clicks_accrued": [0, 0, 0, 0, 0, 0, 0, 0, 0, 0, 0, 0, 0], "stateRewards": ["", 2, -1, 1, 10, -52, 86, -22, -2, -14, -63, 38, 1, 3, 7, -8, 11, -32, -27, 9, -71, 40, -87, -2, -1, 5, -7, 12, 31, -57, 13, 86, -58, 29], "withholdReward": false, "trial_id": "mdp_trial_37", "block": "test", "trialIndex": 40, "score": 98, "costs": 0, "simulationMode": [null, null, null, null, null], "rewards": [2, -1, 1, 10, 86], "path": ["0", "0", "1", "2", "3", "4", "6"], "rt": [678, 25, 204, 462, 752], "actions": ["up", "up", "up", "right", "right"], "actionTimes": [2467, 3000, 3728, 4702, 6020], "queries": {"click": {"state": {"target": [], "time": []}, "edge": {"target": [], "time": []}}, "mouseover": {"state": {"target": [], "time": []}, "edge": {"target": [], "time": []}}, "mouseout": {"state": {"target": ["0"], "time": [1338]}, "edge": {"target": [], "time": []}}}, "displayed_time": "15.79", "trialTime": 17255, "trial_type": "mouselab-mdp", "trial_index": 51, "time_elapsed": 1762915, "internal_node_id": "0.0-6.0-1.0-36.0"}}, {"uniqueid": "w93915883:a68757058", "current_trial": 52, "dateTime": 1693482822491, "trialdata": {"revealed_states": [], "clicked_states": [], "num_clicks_accrued": [0, 0, 0, 0, 0, 0, 0, 0, 0, 0, 0, 0, 0], "stateRewards": ["", 2, 3, -1, 6, 44, -4, -59, -14, -3, 64, 16, 1, -3, 3, 6, 3, 49, 19, 3, -49, -14, -86, 1, 2, -3, -8, -33, 14, 32, -13, -77, -47, -67], "withholdReward": false, "trial_id": "mdp_trial_38", "block": "test", "trialIndex": 41, "score": 56, "costs": 0, "simulationMode": [null, null, null, null, null], "rewards": [1, -3, 3, 6, 49], "path": ["0", "0", "12", "13", "14", "15", "17"], "rt": [1511, 8, 131, 326, 189], "actions": ["right", "right", "right", "up", "right"], "actionTimes": [3145, 3671, 4327, 5173, 5885], "queries": {"click": {"state": {"target": [], "time": []}, "edge": {"target": [], "time": []}}, "mouseover": {"state": {"target": [], "time": []}, "edge": {"target": [], "time": []}}, "mouseout": {"state": {"target": ["0"], "time": [1266]}, "edge": {"target": [], "time": []}}}, "displayed_time": "15.64", "trialTime": 16966, "trial_type": "mouselab-mdp", "trial_index": 52, "time_elapsed": 1780428, "internal_node_id": "0.0-6.0-1.0-37.0"}}, {"uniqueid": "w93915883:a68757058", "current_trial": 53, "dateTime": 1693482840842, "trialdata": {"revealed_states": [], "clicked_states": [], "num_clicks_accrued": [0, 0, 0, 0, 0, 0, 0, 0, 0, 0, 0, 0, 0], "stateRewards": ["", -1, 4, -8, 12, 14, 69, -8, 5, -72, -14, 56, -1, -1, -1, 9, 67, 19, 11, -9, -88, -58, 3, 2, -4, -8, 4, 62, 77, -74, 5, -31, 65, 88], "withholdReward": false, "trial_id": "mdp_trial_39", "block": "test", "trialIndex": 42, "score": 83, "costs": 0, "simulationMode": [null, null, null, null, null], "rewards": [2, -4, -8, 5, 88], "path": ["0", "0", "23", "24", "25", "30", "33"], "rt": [2555, 16, 88, 145, 18], "actions": ["left", "left", "left", "down", "left"], "actionTimes": [4803, 5327, 5949, 6605, 7144], "queries": {"click": {"state": {"target": [], "time": []}, "edge": {"target": [], "time": []}}, "mouseover": {"state": {"target": [], "time": []}, "edge": {"target": [], "time": []}}, "mouseout": {"state": {"target": ["0"], "time": [1727]}, "edge": {"target": [], "time": []}}}, "displayed_time": "16.25", "trialTime": 17823, "trial_type": "mouselab-mdp", "trial_index": 53, "time_elapsed": 1798779, "internal_node_id": "0.0-6.0-1.0-38.0"}}, {"uniqueid": "w93915883:a68757058", "current_trial": 54, "dateTime": 1693482858430, "trialdata": {"revealed_states": [], "clicked_states": [], "num_clicks_accrued": [0, 0, 0, 0, 0, 0, 0, 0, 0, 0, 0, 0, 0], "stateRewards": ["", 2, -4, 4, 9, 69, 9, -75, 12, -86, 66, 25, -1, 3, 2, -13, -88, -3, 1, 4, -69, 49, -84, 2, -1, 4, 2, -18, -81, -52, -15, -69, -54, 25], "withholdReward": false, "trial_id": "mdp_trial_40", "block": "test", "trialIndex": 43, "score": 80, "costs": 0, "simulationMode": [null, null, null, null, null], "rewards": [2, -4, 4, 9, 69], "path": ["0", "0", "1", "2", "3", "4", "5"], "rt": [1189, 106, 7, 68, 138], "actions": ["up", "up", "up", "right", "up"], "actionTimes": [2878, 3506, 4018, 4612, 5265], "queries": {"click": {"state": {"target": [], "time": []}, "edge": {"target": [], "time": []}}, "mouseover": {"state": {"target": [], "time": []}, "edge": {"target": [], "time": []}}, "mouseout": {"state": {"target": ["0"], "time": [1331]}, "edge": {"target": [], "time": []}}}, "displayed_time": "15.69", "trialTime": 17030, "trial_type": "mouselab-mdp", "trial_index": 54, "time_elapsed": 1816366, "internal_node_id": "0.0-6.0-1.0-39.0"}}, {"uniqueid": "w93915883:a68757058", "current_trial": 55, "dateTime": 1693482954220, "trialdata": {"rt": 94375, "response": {"Q0": "$-88 to $88", "Q1": "$-16 to $16", "Q2": "$-88 to $88", "Q3": "The cost for clicking on nodes varied between nodes.", "Q4": "Slightly motivated"}, "question_order": [0, 1, 2, 3, 4], "trial_id": "final_quiz_control", "trial_type": "survey-multi-choice", "trial_index": 55, "time_elapsed": 1912158, "internal_node_id": "0.0-6.0-2.0"}}, {"uniqueid": "w93915883:a68757058", "current_trial": 56, "dateTime": 1693483135440, "trialdata": {"rt": 180533, "response": {"Q0": "I had no strategy as I kept loosing No matter the pattern I tried to repeat.", "Q1": "No, I did not find any room for improvement .", "Q2": "Very difficult, the results were always different."}, "trial_id": "self_report_control", "trial_type": "survey-text", "trial_index": 56, "time_elapsed": 2093378, "internal_node_id": "0.0-6.0-3.0"}}, {"uniqueid": "w93915883:a68757058", "current_trial": 57, "dateTime": 1693483211565, "trialdata": {"rt": 76086, "response": {"Q0": "Neither disagree nor agree", "Q1": "Disagree", "Q2": "Disagree", "Q3": "Disagree", "Q4": "Disagree", "Q5": "Neither disagree nor agree", "Q6": "Neither disagree nor agree"}, "question_order": [0, 1, 2, 3, 4, 5, 6], "trial_id": "self_report_2", "trial_type": "survey-multi-choice", "trial_index": 57, "time_elapsed": 2169503, "internal_node_id": "0.0-6.0-4.0"}}, {"uniqueid": "w93915883:a68757058", "current_trial": 58, "dateTime": 1693483244250, "trialdata": {"rt": 32597, "response": {"gender": "female", "age": "27", "colorblind": "0", "effort": "0"}, "trial_type": "survey-html-form", "trial_index": 58, "time_elapsed": 2202188, "internal_node_id": "0.0-6.0-5.0"}}, {"uniqueid": "w93915883:a68757058", "current_trial": 59, "dateTime": 1693483286435, "trialdata": {"rt": 42171, "response": {"Q0": "The nodes", "Q1": "No", "Q2": ""}, "trial_type": "survey-text", "trial_index": 59, "time_elapsed": 2244373, "internal_node_id": "0.0-6.0-6.0"}}, {"uniqueid": "w93915883:a68757058", "current_trial": 60, "dateTime": 1693483296451, "trialdata": {"rt": 9996, "stimulus": "<h1>Completion Code Instructions (1/2)</h1>\n<br><br><br><br>\nYou have reached the end of the experiment! The completion code consists of two parts: (1) a code with 2 characters (2) a code with 6 characters. On this page, you will receive the second part of the code. The first part of the completion code will be on the next page.\n<br><br>\nThe second part of your completion code is: <b>EWEK22</b>\n<br><br>\nPlease note this down. Then, press 'Finish HIT' in order to find the first part of your completion code. Once the data has been saved, you will receive this code either in this window or in the original browser window where you started the experiment.\n", "response": 0, "trial_type": "html-button-response", "trial_index": 60, "time_elapsed": 2254389, "internal_node_id": "0.0-6.0-7.0"}}, {"uniqueid": "w93915883:a68757058", "current_trial": 61, "dateTime": 1693483298802, "trialdata": {"success": true, "trial_type": "fullscreen", "trial_index": 61, "time_elapsed": 2256740, "internal_node_id": "0.0-7.0"}}], "questiondata": {"params": {"CODE": "C6DMOQA6", "MIN_TIME": 14, "inspectCost": 1, "startTime": "Thu Aug 31 2023 13:23:58 GMT+0200 (South Africa Standard Time)", "bonusRate": 0.002, "variance": "1_2_4_8_44", "branching": "31123"}, "final_score": -37}, "eventdata": [{"eventtype": "initialized", "value": null, "timestamp": 1693481038207, "interval": 0}, {"eventtype": "window_resize", "value": [1366, 670], "timestamp": 1693481038207, "interval": 0}, {"eventtype": "window_resize", "value": [1366, 670], "timestamp": 1693481038705, "interval": 498}, {"eventtype": "focus", "value": "off", "timestamp": 1693481047228, "interval": 8523}, {"eventtype": "focus", "value": "on", "timestamp": 1693481055538, "interval": 8310}, {"eventtype": "window_resize", "value": [1366, 768], "timestamp": 1693481055919, "interval": 381}, {"eventtype": "window_resize", "value": [1517, 853], "timestamp": 1693481191042, "interval": 135123}, {"eventtype": "window_resize", "value": [1707, 960], "timestamp": 1693481191280, "interval": 238}, {"eventtype": "window_resize", "value": [1821, 1024], "timestamp": 1693481196442, "interval": 5162}, {"eventtype": "window_resize", "value": [2049, 1152], "timestamp": 1693481198211, "interval": 1769}, {"eventtype": "window_resize", "value": [1821, 1024], "timestamp": 1693481205769, "interval": 7558}, {"eventtype": "window_resize", "value": [1707, 960], "timestamp": 1693481208030, "interval": 2261}, {"eventtype": "focus", "value": "off", "timestamp": 1693481787848, "interval": 579818}, {"eventtype": "focus", "value": "on", "timestamp": 1693481787848, "interval": 0}, {"eventtype": "window_resize", "value": [1707, 837], "timestamp": 1693481788063, "interval": 215}, {"eventtype": "window_resize", "value": [1707, 960], "timestamp": 1693481791206, "interval": 3143}, {"eventtype": "window_resize", "value": [1517, 853], "timestamp": 1693482973373, "interval": 1182167}], "useragent": "Mozilla/5.0 (Windows NT 10.0; Win64; x64) AppleWebKit/537.36 (KHTML, like Gecko) Chrome/116.0.0.0 Safari/537.36", "mode": "live", "id": "w93915883:a68757058", "status": "user data saved", "Beginhit": "2023-08-31 11:23:53.384773", "Beginexp": "2023-08-31 11:24:18.146056", "Endhit": "2023-08-31 12:01:48.243914", "psiturkStatus": 3, "browser": "<redacted>", "platform": "windows", "language": "en-US"}