{"condition": 0, "counterbalance": 0, "assignmentId": "a87481739", "workerId": "w83231964", "hitId": "h34958384", "currenttrial": 13, "bonus": 0, "data": [{"uniqueid": "w83231964:a87481739", "current_trial": 0, "dateTime": 1693567768010, "trialdata": {"success": true, "trial_type": "fullscreen", "trial_index": 0, "time_elapsed": 4569, "internal_node_id": "0.0-0.0"}}, {"uniqueid": "w83231964:a87481739", "current_trial": 1, "dateTime": 1693567782608, "trialdata": {"view_history": [{"page_index": 0, "viewing_time": 14566}], "rt": 14567, "trial_id": "exp_instructions_control", "trial_type": "instructions", "trial_index": 1, "time_elapsed": 19168, "internal_node_id": "0.0-1.0"}}, {"uniqueid": "w83231964:a87481739", "current_trial": 2, "dateTime": 1693567963929, "trialdata": {"view_history": [{"page_index": 0, "viewing_time": 73128}, {"page_index": 1, "viewing_time": 57216}, {"page_index": 2, "viewing_time": 32616}, {"page_index": 3, "viewing_time": 18344}], "rt": 181305, "trial_id": "mouselab_instructions_1_control", "trial_type": "instructions", "trial_index": 2, "time_elapsed": 200489, "internal_node_id": "0.0-2.0-1.0"}}, {"uniqueid": "w83231964:a87481739", "current_trial": 3, "dateTime": 1693567998832, "trialdata": {"revealed_states": [], "clicked_states": ["1", "23"], "num_clicks_accrued": [0, 0, 0, 0, 0, 0, 0, 0, 0, 0, 0, 0, 0], "stateRewards": ["", 10, 10, -10, 10, -10, -10, 10, 10, 10, 10, 10, -10, 10, 10, -10, 10, -10, -10, -10, -10, -10, 10, -10, -10, 10, 10, 10, -10, 10, 10, 10, 10, 10], "withholdReward": false, "trial_id": "practice_1", "block": "test", "trialIndex": 0, "score": 32.5, "costs": -1, "simulationMode": [null, null, null, null, null], "rewards": [10, 10, -10, 10, 10], "path": ["0", "0", "1", "2", "3", "8", "11"], "rt": [12745, 2408, 4268, 1161, 1121], "actions": ["up", "up", "up", "left", "left"], "actionTimes": [16512, 19476, 24269, 25961, 27586], "queries": {"click": {"state": {"target": ["1", "23"], "time": [11639, 14690]}, "edge": {"target": [], "time": []}}, "mouseover": {"state": {"target": ["1", "0", "23"], "time": [11308, 12635, 12792]}, "edge": {"target": [], "time": []}}, "mouseout": {"state": {"target": ["13", "14", "13", "12", "0", "1", "1", "0", "23", "13", "12", "22", "21"], "time": [709, 957, 1400, 2419, 11266, 11744, 12011, 12742, 17711, 20836, 29117, 29159, 29676]}, "edge": {"target": [], "time": []}}}, "displayed_time": "28.10", "trialTime": 33259, "trial_type": "mouselab-mdp", "trial_index": 3, "time_elapsed": 235389, "internal_node_id": "0.0-2.0-2.0-0.0"}}, {"uniqueid": "w83231964:a87481739", "current_trial": 4, "dateTime": 1693568022196, "trialdata": {"revealed_states": [], "clicked_states": ["12"], "num_clicks_accrued": [0, 0, 0, 0, 0, 0, 0, 0, 0, 0, 0, 0, 0], "stateRewards": ["", -10, 10, -10, 10, 10, -10, 10, 10, -10, 10, -10, -10, 10, 10, -10, 10, 10, -10, -10, -10, -10, -10, 10, -10, -10, -10, 10, 10, -10, -10, -10, -10, -10], "withholdReward": false, "trial_id": "practice_2", "block": "test", "trialIndex": 1, "score": -27, "costs": -0.5, "simulationMode": [null, null, null, null, null], "rewards": [10, -10, -10, -10, -10], "path": ["0", "0", "23", "24", "25", "30", "33"], "rt": [5226, 1028, 1542, 4264, 1181], "actions": ["left", "left", "left", "down", "left"], "actionTimes": [8286, 9846, 11918, 16690, 18390], "queries": {"click": {"state": {"target": ["12"], "time": [5136]}, "edge": {"target": [], "time": []}}, "mouseover": {"state": {"target": ["12"], "time": [5002]}, "edge": {"target": [], "time": []}}, "mouseout": {"state": {"target": ["0", "12"], "time": [3093, 5325]}, "edge": {"target": [], "time": []}}}, "displayed_time": "18.91", "trialTime": 22354, "trial_type": "mouselab-mdp", "trial_index": 4, "time_elapsed": 258755, "internal_node_id": "0.0-2.0-2.0-1.0"}}, {"uniqueid": "w83231964:a87481739", "current_trial": 5, "dateTime": 1693568048613, "trialdata": {"view_history": [{"page_index": 0, "viewing_time": 17438}, {"page_index": 1, "viewing_time": 8970}], "rt": 26410, "trial_id": "mouselab_instructions_2_control", "trial_type": "instructions", "trial_index": 5, "time_elapsed": 285173, "internal_node_id": "0.0-2.0-3.0"}}, {"uniqueid": "w83231964:a87481739", "current_trial": 6, "dateTime": 1693568106254, "trialdata": {"rt": 57621, "response": {"Q0": "The cost for clicking on nodes may vary between nodes.", "Q1": "The better I perform the higher my bonus will be.", "Q2": "No, the structure of the web will be different each time.", "Q3": "To get the highest total score.", "Q4": "Only before moving the spider.", "Q5": "10 seconds"}, "question_order": [0, 1, 2, 3, 4, 5], "correct": {"Q0": "The cost for clicking on nodes may vary between nodes.", "Q1": "The better I perform the higher my bonus will be.", "Q2": "No, the amount of cash at each node of the web may be different each time.", "Q3": "To get the highest total score.", "Q4": "Only before moving the spider.", "Q5": "3 seconds"}, "trial_id": "mouselab_quiz_control", "trial_type": "survey-multi-choice", "trial_index": 6, "time_elapsed": 342813, "internal_node_id": "0.0-2.0-4.0"}}, {"uniqueid": "w83231964:a87481739", "current_trial": 7, "dateTime": 1693568120836, "trialdata": {"success": true, "trial_type": "fullscreen", "trial_index": 7, "time_elapsed": 357395, "internal_node_id": "0.0-2.1-0.1-0.1"}}, {"uniqueid": "w83231964:a87481739", "current_trial": 8, "dateTime": 1693568146824, "trialdata": {"view_history": [{"page_index": 0, "viewing_time": 10662}, {"page_index": 1, "viewing_time": 12344}, {"page_index": 2, "viewing_time": 1953}, {"page_index": 3, "viewing_time": 1024}], "rt": 25983, "trial_id": "mouselab_instructions_1_control", "trial_type": "instructions", "trial_index": 8, "time_elapsed": 383384, "internal_node_id": "0.0-2.1-1.1"}}, {"uniqueid": "w83231964:a87481739", "current_trial": 9, "dateTime": 1693568155075, "trialdata": {"revealed_states": [], "clicked_states": [], "num_clicks_accrued": [0, 0, 0, 0, 0, 0, 0, 0, 0, 0, 0, 0, 0], "stateRewards": ["", 10, 10, -10, 10, -10, -10, 10, 10, 10, 10, 10, -10, 10, 10, -10, 10, -10, -10, -10, -10, -10, 10, -10, -10, 10, 10, 10, -10, 10, 10, 10, 10, 10], "withholdReward": false, "trial_id": "practice_1", "block": "test", "trialIndex": 2, "score": -6.5, "costs": 0, "simulationMode": [null, null, null, null, null], "rewards": [-10, 10, 10, -10, -10], "path": ["0", "0", "12", "13", "14", "15", "17"], "rt": [33, 744, 14, 29, 89], "actions": ["right", "right", "right", "up", "right"], "actionTimes": [2578, 3389, 3935, 4481, 5138], "queries": {"click": {"state": {"target": [], "time": []}, "edge": {"target": [], "time": []}}, "mouseover": {"state": {"target": [], "time": []}, "edge": {"target": [], "time": []}}, "mouseout": {"state": {"target": ["0", "23", "23", "0"], "time": [1583, 3118, 3752, 5818]}, "edge": {"target": [], "time": []}}}, "displayed_time": "5.66", "trialTime": 7194, "trial_type": "mouselab-mdp", "trial_index": 9, "time_elapsed": 391634, "internal_node_id": "0.0-2.1-2.1-0.1"}}, {"uniqueid": "w83231964:a87481739", "current_trial": 10, "dateTime": 1693568162597, "trialdata": {"revealed_states": [], "clicked_states": [], "num_clicks_accrued": [0, 0, 0, 0, 0, 0, 0, 0, 0, 0, 0, 0, 0], "stateRewards": ["", -10, 10, -10, 10, 10, -10, 10, 10, -10, 10, -10, -10, 10, 10, -10, 10, 10, -10, -10, -10, -10, -10, 10, -10, -10, -10, 10, 10, -10, -10, -10, -10, -10], "withholdReward": false, "trial_id": "practice_2", "block": "test", "trialIndex": 3, "score": -26.5, "costs": 0, "simulationMode": [null, null, null, null, null], "rewards": [10, -10, -10, -10, -10], "path": ["0", "0", "23", "24", "25", "26", "29"], "rt": [30, 368, 62, 402, 7], "actions": ["left", "left", "left", "up", "left"], "actionTimes": [2199, 2660, 3257, 4212, 4751], "queries": {"click": {"state": {"target": [], "time": []}, "edge": {"target": [], "time": []}}, "mouseover": {"state": {"target": [], "time": []}, "edge": {"target": [], "time": []}}, "mouseout": {"state": {"target": ["0"], "time": [5351]}, "edge": {"target": [], "time": []}}}, "displayed_time": "5.30", "trialTime": 6461, "trial_type": "mouselab-mdp", "trial_index": 10, "time_elapsed": 399155, "internal_node_id": "0.0-2.1-2.1-1.1"}}, {"uniqueid": "w83231964:a87481739", "current_trial": 11, "dateTime": 1693568166089, "trialdata": {"view_history": [{"page_index": 0, "viewing_time": 2165}, {"page_index": 1, "viewing_time": 1312}], "rt": 3478, "trial_id": "mouselab_instructions_2_control", "trial_type": "instructions", "trial_index": 11, "time_elapsed": 402649, "internal_node_id": "0.0-2.1-3.1"}}, {"uniqueid": "w83231964:a87481739", "current_trial": 12, "dateTime": 1693568189026, "trialdata": {"rt": 22924, "response": {"Q0": "The cost for clicking on nodes may vary between nodes.", "Q1": "The better I perform the higher my bonus will be.", "Q2": "No, the structure of the web will be different each time.", "Q3": "To get the highest total score.", "Q4": "Only before moving the spider.", "Q5": "3 seconds"}, "question_order": [0, 1, 2, 3, 4, 5], "correct": {"Q0": "The cost for clicking on nodes may vary between nodes.", "Q1": "The better I perform the higher my bonus will be.", "Q2": "No, the amount of cash at each node of the web may be different each time.", "Q3": "To get the highest total score.", "Q4": "Only before moving the spider.", "Q5": "3 seconds"}, "trial_id": "mouselab_quiz_control", "trial_type": "survey-multi-choice", "trial_index": 12, "time_elapsed": 425586, "internal_node_id": "0.0-2.1-4.1"}}], "questiondata": {"params": {"CODE": "C6DMOQA6", "MIN_TIME": 14, "inspectCost": 1, "startTime": "Fri Sep 01 2023 13:29:21 GMT+0200 (South Africa Standard Time)", "bonusRate": 0.002, "variance": "1_2_4_8_44", "branching": "31123"}}, "eventdata": [{"eventtype": "initialized", "value": null, "timestamp": 1693567760855, "interval": 0}, {"eventtype": "window_resize", "value": [1024, 767], "timestamp": 1693567760855, "interval": 0}, {"eventtype": "window_resize", "value": [1024, 767], "timestamp": 1693567761374, "interval": 519}, {"eventtype": "window_resize", "value": [1920, 982], "timestamp": 1693567763383, "interval": 2009}, {"eventtype": "window_resize", "value": [1920, 1080], "timestamp": 1693567767240, "interval": 3857}, {"eventtype": "focus", "value": "off", "timestamp": 1693568117264, "interval": 350024}, {"eventtype": "focus", "value": "on", "timestamp": 1693568117265, "interval": 1}, {"eventtype": "window_resize", "value": [1920, 982], "timestamp": 1693568117496, "interval": 231}, {"eventtype": "window_resize", "value": [1920, 1080], "timestamp": 1693568120073, "interval": 2577}, {"eventtype": "focus", "value": "off", "timestamp": 1693568190771, "interval": 70698}, {"eventtype": "focus", "value": "on", "timestamp": 1693568190772, "interval": 1}, {"eventtype": "window_resize", "value": [1920, 982], "timestamp": 1693568190992, "interval": 220}], "useragent": "Mozilla/5.0 (Windows NT 10.0; Win64; x64) AppleWebKit/537.36 (KHTML, like Gecko) Chrome/116.0.0.0 Safari/537.36", "mode": "live", "id": "w83231964:a87481739", "status": "user data saved", "Beginhit": "2023-09-01 11:29:16.720192", "Beginexp": "2023-09-01 11:29:27.571588", "Endhit": null, "psiturkStatus": 6, "browser": "<redacted>", "platform": "windows", "language": "en-GB", "excludeReason": "quizfail"}