{"condition": 1, "counterbalance": 0, "assignmentId": "a28859837", "workerId": "w62316961", "hitId": "h29376836", "currenttrial": 56, "bonus": 0, "data": [{"uniqueid": "w62316961:a28859837", "current_trial": 0, "dateTime": 1691071543872, "trialdata": {"success": true, "trial_type": "fullscreen", "trial_index": 0, "time_elapsed": 4625, "internal_node_id": "0.0-0.0"}}, {"uniqueid": "w62316961:a28859837", "current_trial": 1, "dateTime": 1691071576535, "trialdata": {"view_history": [{"page_index": 0, "viewing_time": 32645}], "rt": 32646, "trial_id": "exp_instructions_misaligned", "trial_type": "instructions", "trial_index": 1, "time_elapsed": 37289, "internal_node_id": "0.0-1.0"}}, {"uniqueid": "w62316961:a28859837", "current_trial": 2, "dateTime": 1691071582998, "trialdata": {"success": true, "trial_type": "fullscreen", "trial_index": 2, "time_elapsed": 43752, "internal_node_id": "0.0-2.0-0.0"}}, {"uniqueid": "w62316961:a28859837", "current_trial": 3, "dateTime": 1691071878215, "trialdata": {"view_history": [{"page_index": 0, "viewing_time": 76104}, {"page_index": 1, "viewing_time": 136531}, {"page_index": 2, "viewing_time": 36945}, {"page_index": 3, "viewing_time": 45625}], "rt": 295206, "trial_id": "mouselab_instructions_1_misaligned", "trial_type": "instructions", "trial_index": 3, "time_elapsed": 338969, "internal_node_id": "0.0-2.0-1.0"}}, {"uniqueid": "w62316961:a28859837", "current_trial": 4, "dateTime": 1691071921320, "trialdata": {"revealed_states": [], "clicked_states": ["24", "28", "12", "13", "19", "2", "1", "23", "25", "30"], "num_clicks_accrued": [0, 0, 0, 0, 0, 0, 0, 0, 0, 0, 0, 0, 0], "stateRewards": ["", -10, -10, -10, -10, 10, -10, -10, 10, -10, 10, -10, -10, -10, -10, 10, -10, -10, 10, 10, 10, -10, -10, 10, 10, 10, 10, 10, -10, 10, -10, -10, 10, -10], "withholdReward": false, "trial_id": "practice_1", "block": "test", "trialIndex": 0, "score": 48.5, "costs": -5, "simulationMode": [null, null, null, null, null], "rewards": [10, 10, 10, 10, 10], "path": ["0", "0", "23", "24", "25", "26", "27"], "rt": [23615, 1719, 1020, 858, 664], "actions": ["left", "left", "left", "up", "up"], "actionTimes": [27369, 29591, 31109, 32490, 33653], "queries": {"click": {"state": {"target": ["24", "28", "12", "13", "19", "2", "1", "23", "25", "30"], "time": [6287, 7651, 9010, 10218, 11575, 15731, 17081, 20363, 21997, 23367]}, "edge": {"target": [], "time": []}}, "mouseover": {"state": {"target": ["23", "24", "28", "12", "13", "14", "13", "19", "14", "2", "1", "12", "23", "24", "25", "30", "31"], "time": [5287, 5752, 7256, 8719, 9422, 9471, 9887, 11204, 12187, 14943, 16606, 18234, 19669, 20950, 21452, 22823, 24593]}, "edge": {"target": [], "time": []}}, "mouseout": {"state": {"target": ["0", "23", "24", "28", "12", "13", "14", "13", "19", "14", "2", "1", "1", "12", "23", "24", "25", "30", "31"], "time": [2246, 5519, 6921, 8138, 9403, 9440, 9737, 10703, 11803, 12224, 16286, 17312, 17738, 18568, 20938, 21025, 22674, 24586, 24636]}, "edge": {"target": [], "time": []}}}, "displayed_time": "34.15", "trialTime": 41981, "trial_type": "mouselab-mdp", "trial_index": 4, "time_elapsed": 382072, "internal_node_id": "0.0-2.0-2.0-0.0"}}, {"uniqueid": "w62316961:a28859837", "current_trial": 5, "dateTime": 1691071964227, "trialdata": {"revealed_states": [], "clicked_states": ["12", "1", "23", "2", "3", "13", "14", "22", "24", "25", "26"], "num_clicks_accrued": [0, 0, 0, 0, 0, 0, 0, 0, 0, 0, 0, 0, 0], "stateRewards": ["", 10, -10, -10, 10, 10, 10, 10, 10, 10, 10, 10, -10, -10, -10, -10, -10, -10, 10, -10, -10, -10, 10, -10, 10, 10, 10, -10, -10, -10, -10, -10, 10, -10], "withholdReward": false, "trial_id": "practice_2", "block": "test", "trialIndex": 1, "score": 8, "costs": -5.5, "simulationMode": [null, null, null, null, null], "rewards": [-10, 10, 10, 10, -10], "path": ["0", "0", "23", "24", "25", "26", "29"], "rt": [28812, 213, 264, 912, 186], "actions": ["left", "left", "left", "up", "left"], "actionTimes": [32145, 32872, 33659, 35092, 35796], "queries": {"click": {"state": {"target": ["12", "1", "23", "2", "3", "13", "14", "22", "24", "25", "26"], "time": [6052, 7609, 8732, 12566, 15230, 18419, 19995, 22000, 25544, 27125, 28994]}, "edge": {"target": [], "time": []}}, "mouseover": {"state": {"target": ["12", "1", "23", "2", "3", "2", "3", "7", "3", "7", "13", "14", "22", "23", "23", "24", "25", "25", "26", "27", "28", "24"], "time": [5631, 7196, 8102, 9692, 11489, 12297, 12985, 14379, 14795, 15782, 18029, 19306, 20729, 22663, 23332, 24196, 26007, 26537, 28087, 29668, 30218, 30265]}, "edge": {"target": [], "time": []}}, "mouseout": {"state": {"target": ["12", "12", "1", "1", "23", "2", "3", "2", "3", "7", "3", "7", "13", "14", "22", "23", "23", "24", "25", "25", "26", "27", "28", "24"], "time": [1979, 6487, 7819, 8019, 9520, 11475, 12030, 12778, 14146, 14640, 15749, 15851, 19110, 20568, 22485, 22965, 24079, 25981, 26051, 27919, 29603, 30198, 30233, 30313]}, "edge": {"target": [], "time": []}}}, "displayed_time": "36.31", "trialTime": 42036, "trial_type": "mouselab-mdp", "trial_index": 5, "time_elapsed": 424979, "internal_node_id": "0.0-2.0-2.0-1.0"}}, {"uniqueid": "w62316961:a28859837", "current_trial": 6, "dateTime": 1691072008979, "trialdata": {"view_history": [{"page_index": 0, "viewing_time": 34252}, {"page_index": 1, "viewing_time": 10486}], "rt": 44740, "trial_id": "mouselab_instructions_2_misaligned", "trial_type": "instructions", "trial_index": 6, "time_elapsed": 469733, "internal_node_id": "0.0-2.0-3.0"}}, {"uniqueid": "w62316961:a28859837", "current_trial": 7, "dateTime": 1691072060929, "trialdata": {"rt": 51931, "response": {"Q0": "The cost for clicking on nodes may vary between nodes.", "Q1": "The better I perform the higher my bonus will be.", "Q2": "No, the amount of cash at each node of the web may be different each time.", "Q3": "To get the highest total score.", "Q4": "Only before moving the spider.", "Q5": "3 seconds"}, "question_order": [0, 1, 2, 3, 4, 5], "correct": {"Q0": "The cost for clicking on nodes may vary between nodes.", "Q1": "The better I perform the higher my bonus will be.", "Q2": "No, the amount of cash at each node of the web may be different each time.", "Q3": "To get the highest total score.", "Q4": "Only before moving the spider.", "Q5": "3 seconds"}, "trial_id": "mouselab_quiz_misaligned", "trial_type": "survey-multi-choice", "trial_index": 7, "time_elapsed": 521683, "internal_node_id": "0.0-2.0-4.0"}}, {"uniqueid": "w62316961:a28859837", "current_trial": 8, "dateTime": 1691072073817, "trialdata": {"rt": 12864, "stimulus": "\n<h1> Get ready to start the game! </h1>\n\nThank you for reading the instructions. Get ready start with the 40 rounds of this game.\n<br><br>\nIf you need to take a break, feel free to take one after the end of a round, before continuing to the next one.\n<br><br>\nRemember, the more money the spider gets, the bigger your bonus will be!\n<br><br>\n<div style='text-align: center;'>Press <code>space</code> to begin.</div>\n\n<br><br>\n(If, at any point, the <code>space</code> key does not take you to the next page, click once on the text and try again.)", "response": " ", "trial_id": "mdp_ready", "trial_type": "html-keyboard-response", "trial_index": 8, "time_elapsed": 534571, "internal_node_id": "0.0-4.0-0.0"}}, {"uniqueid": "w62316961:a28859837", "current_trial": 9, "dateTime": 1691072099953, "trialdata": {"revealed_states": [], "clicked_states": ["23", "1", "12", "22"], "num_clicks_accrued": [0, 0, 0, 0, 0, 0, 0, 0, 0, 0, 0, 0, 0], "stateRewards": ["", 1, 2, -8, 9, 18, -83, -11, 6, -64, -48, 17, -2, -2, -5, -3, -24, -3, -86, -2, 48, -41, -22, -2, 4, 7, 8, 81, 13, -48, 10, 61, 19, 57], "withholdReward": false, "trial_id": "mdp_trial_1", "block": "test", "trialIndex": 2, "score": 78.6, "costs": -1.4, "simulationMode": [null, null, null, null, null], "rewards": [-2, 4, 7, 10, 61], "path": ["0", "0", "23", "24", "25", "30", "31"], "rt": [13992, 344, 417, 425, 463], "actions": ["left", "left", "left", "down", "right"], "actionTimes": [17255, 18104, 19040, 19967, 20940], "queries": {"click": {"state": {"target": ["23", "1", "12", "22"], "time": [5689, 7748, 8909, 11812]}, "edge": {"target": [], "time": []}}, "mouseover": {"state": {"target": ["23", "1", "12", "13", "22", "12", "2"], "time": [5289, 7305, 8326, 9427, 10538, 13263, 13332]}, "edge": {"target": [], "time": []}}, "mouseout": {"state": {"target": ["1", "0", "23", "1", "12", "13", "22", "12", "2", "22"], "time": [2038, 5071, 6395, 7961, 9407, 9452, 13176, 13287, 14987, 15456]}, "edge": {"target": [], "time": []}}}, "displayed_time": "21.44", "trialTime": 25494, "trial_type": "mouselab-mdp", "trial_index": 9, "time_elapsed": 560704, "internal_node_id": "0.0-4.0-1.0-0.0"}}, {"uniqueid": "w62316961:a28859837", "current_trial": 10, "dateTime": 1691072135488, "trialdata": {"revealed_states": [], "clicked_states": ["1", "3", "6", "14", "19", "30", "25"], "num_clicks_accrued": [0, 0, 0, 0, 0, 0, 0, 0, 0, 0, 0, 0, 0], "stateRewards": ["", -2, -4, -2, 10, -8, -15, -47, 7, -84, 53, 5, -1, 2, -7, 3, 83, 31, 47, -1, 30, -8, 69, 2, -4, -1, 8, -7, 12, -8, -8, -13, 30, -84], "withholdReward": false, "trial_id": "mdp_trial_2", "block": "test", "trialIndex": 3, "score": -9.85, "costs": -7.85, "simulationMode": [null, null, null, null, null], "rewards": [2, -4, -1, 8, -7], "path": ["0", "0", "23", "24", "25", "26", "27"], "rt": [22899, 249, 195, 454, 969], "actions": ["left", "left", "left", "up", "up"], "actionTimes": [25436, 26183, 26879, 27862, 29352], "queries": {"click": {"state": {"target": ["1", "3", "6", "14", "19", "30", "25"], "time": [4854, 6977, 9711, 14686, 16662, 18606, 20301]}, "edge": {"target": [], "time": []}}, "mouseover": {"state": {"target": ["1", "2", "3", "4", "6", "15", "19", "14", "19", "19", "30", "30", "25", "26"], "time": [3712, 5545, 5850, 8214, 9281, 11023, 13447, 14145, 15491, 16014, 17811, 18147, 19671, 21448]}, "edge": {"target": [], "time": []}}, "mouseout": {"state": {"target": ["0", "1", "2", "3", "4", "6", "15", "19", "14", "19", "19", "30", "30", "25", "26"], "time": [3596, 5518, 5566, 7999, 8646, 10489, 11055, 13929, 15454, 15714, 17316, 17835, 19566, 20529, 21468]}, "edge": {"target": [], "time": []}}}, "displayed_time": "29.85", "trialTime": 34722, "trial_type": "mouselab-mdp", "trial_index": 10, "time_elapsed": 596240, "internal_node_id": "0.0-4.0-1.0-1.0"}}, {"uniqueid": "w62316961:a28859837", "current_trial": 11, "dateTime": 1691072155797, "trialdata": {"revealed_states": [], "clicked_states": [], "num_clicks_accrued": [0, 0, 0, 0, 0, 0, 0, 0, 0, 0, 0, 0, 0], "stateRewards": ["", -2, -3, 8, 14, -73, 73, 84, -12, -2, -50, -17, 2, 1, -2, -9, -44, -27, -33, 16, -63, -47, -66, -2, 1, 4, -5, -33, -11, 50, 9, 38, -79, 31], "withholdReward": false, "trial_id": "mdp_trial_3", "block": "test", "trialIndex": 4, "score": 101, "costs": 0, "simulationMode": [null, null, null, null, null], "rewards": [-2, -3, 8, 14, 84], "path": ["0", "0", "1", "2", "3", "4", "7"], "rt": [10749, 357, 412, 457, 59], "actions": ["up", "up", "up", "right", "down"], "actionTimes": [13276, 14136, 15057, 16018, 16601], "queries": {"click": {"state": {"target": [], "time": []}, "edge": {"target": [], "time": []}}, "mouseover": {"state": {"target": ["1", "4", "7", "22", "21"], "time": [5363, 6189, 9259, 9391, 9452]}, "edge": {"target": [], "time": []}}, "mouseout": {"state": {"target": ["28", "23", "0", "1", "4", "7", "22", "21"], "time": [1224, 1272, 1748, 5457, 9241, 9292, 9409, 9491]}, "edge": {"target": [], "time": []}}}, "displayed_time": "17.12", "trialTime": 19461, "trial_type": "mouselab-mdp", "trial_index": 11, "time_elapsed": 616549, "internal_node_id": "0.0-4.0-1.0-2.0"}}, {"uniqueid": "w62316961:a28859837", "current_trial": 12, "dateTime": 1691072176187, "trialdata": {"revealed_states": [], "clicked_states": ["13", "26"], "num_clicks_accrued": [0, 0, 0, 0, 0, 0, 0, 0, 0, 0, 0, 0, 0], "stateRewards": ["", 2, -4, 7, 3, 23, -42, 4, 7, -81, -33, 7, -2, -4, 5, -1, 50, -57, -14, -13, -14, 44, 55, -2, -2, 5, -2, 33, 1, 57, -13, -7, 58, 87], "withholdReward": false, "trial_id": "mdp_trial_4", "block": "test", "trialIndex": 5, "score": 29.1, "costs": -1.9, "simulationMode": [null, null, null, null, null], "rewards": [2, -4, 7, 3, 23], "path": ["0", "0", "1", "2", "3", "4", "5"], "rt": [5876, 406, 375, 547, 170], "actions": ["up", "up", "up", "right", "up"], "actionTimes": [8300, 9223, 10107, 11163, 11873], "queries": {"click": {"state": {"target": ["13", "26"], "time": [3641, 6110]}, "edge": {"target": [], "time": []}}, "mouseover": {"state": {"target": ["12", "13", "12", "26"], "time": [2997, 3078, 4570, 5746]}, "edge": {"target": [], "time": []}}, "mouseout": {"state": {"target": ["0", "12", "13", "12"], "time": [2967, 3015, 4551, 4593]}, "edge": {"target": [], "time": []}}}, "displayed_time": "16.43", "trialTime": 19539, "trial_type": "mouselab-mdp", "trial_index": 12, "time_elapsed": 636939, "internal_node_id": "0.0-4.0-1.0-3.0"}}, {"uniqueid": "w62316961:a28859837", "current_trial": 13, "dateTime": 1691072200155, "trialdata": {"revealed_states": [], "clicked_states": ["19", "30", "26", "4", "8"], "num_clicks_accrued": [0, 0, 0, 0, 0, 0, 0, 0, 0, 0, 0, 0, 0], "stateRewards": ["", -1, -2, 4, 9, 10, -75, 39, 16, -43, 88, -19, -1, 1, 2, 4, -31, 10, 73, 12, 41, -64, -81, -2, 2, -6, 1, -81, -1, -26, 3, -59, -3, -20], "withholdReward": false, "trial_id": "mdp_trial_5", "block": "test", "trialIndex": 6, "score": 47.25, "costs": -7.75, "simulationMode": [null, null, null, null, null], "rewards": [-1, 1, 2, 12, 41], "path": ["0", "0", "12", "13", "14", "19", "20"], "rt": [12842, 223, 182, 190, 388], "actions": ["right", "right", "right", "down", "right"], "actionTimes": [15576, 16306, 17019, 17728, 18634], "queries": {"click": {"state": {"target": ["19", "30", "26", "4", "8"], "time": [5249, 7497, 9769, 11402, 12939]}, "edge": {"target": [], "time": []}}, "mouseover": {"state": {"target": ["12", "19", "22", "31", "30", "26", "10", "2", "4", "3", "8", "8", "1", "0"], "time": [3963, 4746, 6185, 6679, 7127, 9378, 10433, 10461, 10683, 12037, 12082, 12467, 13568, 13837]}, "edge": {"target": [], "time": []}}, "mouseout": {"state": {"target": ["26", "28", "23", "0", "12", "19", "22", "31", "30", "26", "10", "2", "4", "3", "8", "8", "1", "0"], "time": [1244, 1277, 1327, 1810, 3982, 5459, 6207, 6713, 8202, 10398, 10453, 10482, 12027, 12072, 12117, 13510, 13736, 13872]}, "edge": {"target": [], "time": []}}}, "displayed_time": "19.16", "trialTime": 23042, "trial_type": "mouselab-mdp", "trial_index": 13, "time_elapsed": 660907, "internal_node_id": "0.0-4.0-1.0-4.0"}}, {"uniqueid": "w62316961:a28859837", "current_trial": 14, "dateTime": 1691072220818, "trialdata": {"revealed_states": [], "clicked_states": ["4", "8", "30", "19"], "num_clicks_accrued": [0, 0, 0, 0, 0, 0, 0, 0, 0, 0, 0, 0, 0], "stateRewards": ["", -1, -3, -6, 14, 41, 18, 63, -14, 80, 21, 17, -2, -4, -2, -5, 13, 70, 8, -4, -64, -10, -20, 2, -1, 4, -1, -17, -55, 42, -7, 47, 54, 15], "withholdReward": false, "trial_id": "mdp_trial_6", "block": "test", "trialIndex": 7, "score": 38.8, "costs": -6.2, "simulationMode": [null, null, null, null, null], "rewards": [-1, -3, -6, 14, 41], "path": ["0", "0", "1", "2", "3", "4", "5"], "rt": [10382, 214, 186, 257, 1088], "actions": ["up", "up", "up", "right", "up"], "actionTimes": [12690, 13441, 14142, 14912, 16526], "queries": {"click": {"state": {"target": ["4", "8", "30", "19"], "time": [5170, 6501, 8983, 10673]}, "edge": {"target": [], "time": []}}, "mouseover": {"state": {"target": ["1", "2", "4", "8", "10", "28", "25", "30", "19"], "time": [3551, 3913, 4279, 5958, 7091, 7157, 7761, 8662, 10232]}, "edge": {"target": [], "time": []}}, "mouseout": {"state": {"target": ["0", "1", "2", "4", "8", "10", "28", "25", "30", "19"], "time": [3518, 3565, 4045, 5800, 7083, 7131, 7349, 8146, 9215, 11243]}, "edge": {"target": [], "time": []}}}, "displayed_time": "17.04", "trialTime": 19794, "trial_type": "mouselab-mdp", "trial_index": 14, "time_elapsed": 681571, "internal_node_id": "0.0-4.0-1.0-5.0"}}, {"uniqueid": "w62316961:a28859837", "current_trial": 15, "dateTime": 1691072243387, "trialdata": {"revealed_states": [], "clicked_states": ["19", "15", "4", "8", "26"], "num_clicks_accrued": [0, 0, 0, 0, 0, 0, 0, 0, 0, 0, 0, 0, 0], "stateRewards": ["", 2, -1, 5, 8, 75, -35, -77, 1, -9, -81, -58, 1, 2, -7, 5, 77, -16, 19, 16, -10, -18, 40, -2, 3, 7, -5, 64, 1, -62, 10, 27, 10, 65], "withholdReward": false, "trial_id": "mdp_trial_7", "block": "test", "trialIndex": 8, "score": -13.75, "costs": -7.75, "simulationMode": [null, null, null, null, null], "rewards": [1, 2, -7, 16, -18], "path": ["0", "0", "12", "13", "14", "19", "21"], "rt": [11379, 361, 194, 206, 215], "actions": ["right", "right", "right", "down", "down"], "actionTimes": [13596, 14474, 15194, 15909, 16652], "queries": {"click": {"state": {"target": ["19", "15", "4", "8", "26"], "time": [4510, 6517, 8356, 9533, 10943]}, "edge": {"target": [], "time": []}}, "mouseover": {"state": {"target": ["12", "22", "19", "14", "15", "15", "15", "10", "3", "4", "3", "8", "26", "26", "25", "30"], "time": [3313, 3444, 3661, 4907, 5003, 5833, 6160, 7135, 7575, 7977, 8730, 9101, 10148, 10539, 11532, 11661]}, "edge": {"target": [], "time": []}}, "mouseout": {"state": {"target": ["0", "12", "22", "19", "14", "15", "15", "15", "10", "3", "4", "3", "8", "26", "26", "25", "30"], "time": [3295, 3361, 3576, 4882, 4972, 5346, 6032, 7077, 7273, 7684, 8695, 8818, 9917, 10508, 11522, 11569, 12449]}, "edge": {"target": [], "time": []}}}, "displayed_time": "17.18", "trialTime": 21491, "trial_type": "mouselab-mdp", "trial_index": 15, "time_elapsed": 704139, "internal_node_id": "0.0-4.0-1.0-6.0"}}, {"uniqueid": "w62316961:a28859837", "current_trial": 16, "dateTime": 1691072265800, "trialdata": {"revealed_states": [], "clicked_states": ["12", "19", "30", "26", "4", "8"], "num_clicks_accrued": [0, 0, 0, 0, 0, 0, 0, 0, 0, 0, 0, 0, 0], "stateRewards": ["", 1, 1, -3, 7, 49, 78, 26, -5, 26, 48, -43, -1, -3, 2, -5, 4, -1, -60, 10, -35, 51, 81, -2, 1, -7, -5, -39, -86, -54, 4, -3, 74, 77], "withholdReward": false, "trial_id": "mdp_trial_8", "block": "test", "trialIndex": 9, "score": 81.5, "costs": -7.5, "simulationMode": [null, null, null, null, null], "rewards": [-1, -3, 2, 10, 81], "path": ["0", "0", "12", "13", "14", "19", "22"], "rt": [11976, 392, 330, 428, 1307], "actions": ["right", "right", "right", "down", "left"], "actionTimes": [13930, 14833, 15704, 16671, 18512], "queries": {"click": {"state": {"target": ["12", "19", "30", "26", "4", "8"], "time": [2997, 5144, 7226, 8523, 10254, 12174]}, "edge": {"target": [], "time": []}}, "mouseover": {"state": {"target": ["12", "13", "19", "21", "31", "30", "30", "26", "10", "3", "4", "4", "7", "0", "11", "8"], "time": [2460, 3565, 3625, 5783, 6171, 6214, 6858, 7766, 8938, 9048, 9349, 9875, 10734, 10810, 11327, 11674]}, "edge": {"target": [], "time": []}}, "mouseout": {"state": {"target": ["0", "12", "13", "19", "21", "31", "30", "30", "26", "10", "3", "4", "4", "7", "0", "11", "8"], "time": [2424, 3207, 3597, 5764, 6083, 6205, 6241, 7711, 8775, 8998, 9166, 9384, 10726, 10774, 10843, 11509, 12745]}, "edge": {"target": [], "time": []}}}, "displayed_time": "19.03", "trialTime": 21520, "trial_type": "mouselab-mdp", "trial_index": 16, "time_elapsed": 726552, "internal_node_id": "0.0-4.0-1.0-7.0"}}, {"uniqueid": "w62316961:a28859837", "current_trial": 17, "dateTime": 1691072286406, "trialdata": {"revealed_states": [], "clicked_states": ["30", "32", "19"], "num_clicks_accrued": [0, 0, 0, 0, 0, 0, 0, 0, 0, 0, 0, 0, 0], "stateRewards": ["", 1, 1, -7, -9, -44, 24, -83, -15, 44, -24, 72, -2, -3, 4, -5, 57, 55, 29, -11, 22, 12, -25, -1, 2, 7, 12, 33, -8, 47, -4, 8, 50, -4], "withholdReward": false, "trial_id": "mdp_trial_9", "block": "test", "trialIndex": 10, "score": 48.75, "costs": -5.25, "simulationMode": [null, null, null, null, null], "rewards": [-1, 2, 7, -4, 50], "path": ["0", "0", "23", "24", "25", "30", "32"], "rt": [8627, 265, 272, 278, 265], "actions": ["left", "left", "left", "down", "down"], "actionTimes": [10965, 11789, 12588, 13394, 14183], "queries": {"click": {"state": {"target": ["30", "32", "19"], "time": [4339, 5425, 9214]}, "edge": {"target": [], "time": []}}, "mouseover": {"state": {"target": ["0", "23", "24", "30", "32", "22", "21", "19", "19", "31", "30"], "time": [3020, 3170, 3287, 3721, 4942, 5860, 6894, 8433, 8769, 9918, 9968]}, "edge": {"target": [], "time": []}}, "mouseout": {"state": {"target": ["0", "0", "23", "24", "30", "32", "22", "21", "19", "19", "31", "30"], "time": [1259, 3041, 3236, 3605, 4864, 5776, 5902, 8423, 8492, 9425, 9956, 10004]}, "edge": {"target": [], "time": []}}}, "displayed_time": "16.34", "trialTime": 19722, "trial_type": "mouselab-mdp", "trial_index": 17, "time_elapsed": 747157, "internal_node_id": "0.0-4.0-1.0-8.0"}}, {"uniqueid": "w62316961:a28859837", "current_trial": 18, "dateTime": 1691072405097, "trialdata": {"revealed_states": [], "clicked_states": ["15"], "num_clicks_accrued": [0, 0, 0, 0, 0, 0, 0, 0, 0, 0, 0, 0, 0], "stateRewards": ["", 1, 3, -2, 15, 51, 15, -19, 11, 67, -45, -73, 2, 4, -2, -13, 36, 9, -28, 10, -30, 31, 16, 1, 2, -1, -16, 14, -22, 36, -1, 88, -5, 45], "withholdReward": false, "trial_id": "mdp_trial_10", "block": "test", "trialIndex": 11, "score": 28.45, "costs": -1.55, "simulationMode": [null, null, null, null, null], "rewards": [2, 4, -2, 10, 16], "path": ["0", "0", "12", "13", "14", "19", "22"], "rt": [7789, 304, 756, 429, 414], "actions": ["right", "right", "right", "down", "left"], "actionTimes": [11057, 11890, 13165, 14097, 15023], "queries": {"click": {"state": {"target": ["15"], "time": [5133]}, "edge": {"target": [], "time": []}}, "mouseover": {"state": {"target": ["13", "15", "16", "6", "4", "4", "6", "6", "4", "3", "8", "10"], "time": [4230, 4595, 5667, 6714, 7198, 7462, 7731, 7988, 8780, 8823, 8895, 9797]}, "edge": {"target": [], "time": []}}, "mouseout": {"state": {"target": ["0", "13", "15", "16", "6", "4", "4", "6", "6", "4", "3", "8", "10"], "time": [4198, 4276, 5360, 6645, 7179, 7344, 7712, 7827, 8761, 8814, 8840, 9696, 9830]}, "edge": {"target": [], "time": []}}}, "displayed_time": "17.27", "trialTime": 117707, "trial_type": "mouselab-mdp", "trial_index": 18, "time_elapsed": 865849, "internal_node_id": "0.0-4.0-1.0-9.0"}}, {"uniqueid": "w62316961:a28859837", "current_trial": 19, "dateTime": 1691072424676, "trialdata": {"revealed_states": [], "clicked_states": ["25", "8", "4", "15", "19"], "num_clicks_accrued": [0, 0, 0, 0, 0, 0, 0, 0, 0, 0, 0, 0, 0], "stateRewards": ["", -1, -2, -1, -10, -57, 73, -72, -16, 75, -14, -46, -2, -3, -7, -1, -61, -60, 76, -4, 50, 4, 14, 2, 2, -7, 12, -65, -32, 15, -8, -76, -25, -61], "withholdReward": false, "trial_id": "mdp_trial_11", "block": "test", "trialIndex": 12, "score": -9.149999999999999, "costs": -7.1499999999999995, "simulationMode": [null, null, null, null, null], "rewards": [-2, -3, -7, -4, 14], "path": ["0", "0", "12", "13", "14", "19", "22"], "rt": [9930, 162, 226, 182, 520], "actions": ["right", "right", "right", "down", "left"], "actionTimes": [12071, 12760, 13490, 14200, 15217], "queries": {"click": {"state": {"target": ["25", "8", "4", "15", "19"], "time": [3870, 5431, 6677, 8138, 10000]}, "edge": {"target": [], "time": []}}, "mouseover": {"state": {"target": ["23", "24", "25", "11", "8", "3", "4", "15", "14", "19", "22"], "time": [2662, 2993, 3526, 4781, 5093, 5891, 5946, 7716, 8819, 9494, 10421]}, "edge": {"target": [], "time": []}}, "mouseout": {"state": {"target": ["0", "23", "24", "25", "11", "8", "3", "4", "15", "14", "19", "22"], "time": [2629, 2711, 3228, 4414, 4808, 5882, 5915, 7164, 8796, 8943, 10400, 10580]}, "edge": {"target": [], "time": []}}}, "displayed_time": "16.14", "trialTime": 18506, "trial_type": "mouselab-mdp", "trial_index": 19, "time_elapsed": 885428, "internal_node_id": "0.0-4.0-1.0-10.0"}}, {"uniqueid": "w62316961:a28859837", "current_trial": 20, "dateTime": 1691072447020, "trialdata": {"revealed_states": [], "clicked_states": ["21", "16"], "num_clicks_accrued": [0, 0, 0, 0, 0, 0, 0, 0, 0, 0, 0, 0, 0], "stateRewards": ["", -1, -3, 1, 13, -64, -29, 12, -4, -33, 50, 56, 2, -3, 4, 11, -64, -58, -55, 12, 47, 38, -25, -2, 2, 5, -15, 85, 7, 84, 10, 8, 57, 26], "withholdReward": false, "trial_id": "mdp_trial_12", "block": "test", "trialIndex": 13, "score": 48.7, "costs": -4.3, "simulationMode": [null, null, null, null, null], "rewards": [2, -3, 4, 12, 38], "path": ["0", "0", "12", "13", "14", "19", "21"], "rt": [10662, 172, 173, 376, 260], "actions": ["right", "right", "right", "down", "down"], "actionTimes": [13177, 13889, 14664, 15558, 16335], "queries": {"click": {"state": {"target": ["21", "16"], "time": [4697, 9258]}, "edge": {"target": [], "time": []}}, "mouseover": {"state": {"target": ["12", "22", "19", "21", "16"], "time": [3156, 3337, 3806, 4370, 5547]}, "edge": {"target": [], "time": []}}, "mouseout": {"state": {"target": ["0", "12", "22", "19", "21", "16"], "time": [3136, 3188, 3786, 3841, 5174, 9921]}, "edge": {"target": [], "time": []}}}, "displayed_time": "16.85", "trialTime": 21311, "trial_type": "mouselab-mdp", "trial_index": 20, "time_elapsed": 907772, "internal_node_id": "0.0-4.0-1.0-11.0"}}, {"uniqueid": "w62316961:a28859837", "current_trial": 21, "dateTime": 1691072474762, "trialdata": {"revealed_states": [], "clicked_states": ["25", "33"], "num_clicks_accrued": [0, 0, 0, 0, 0, 0, 0, 0, 0, 0, 0, 0, 0], "stateRewards": ["", 2, 3, -1, 6, 44, -4, -59, -14, -3, 64, 16, 1, -3, 3, 6, 3, 49, 19, 3, -49, -14, -86, 1, 2, -3, -8, -33, 14, 32, -13, -77, -47, -67], "withholdReward": false, "trial_id": "mdp_trial_13", "block": "test", "trialIndex": 14, "score": -44.1, "costs": -3.0999999999999996, "simulationMode": [null, null, null, null, null], "rewards": [1, 2, -3, -8, -33], "path": ["0", "0", "23", "24", "25", "26", "27"], "rt": [16024, 176, 656, 42, 533], "actions": ["left", "left", "left", "up", "up"], "actionTimes": [18345, 19033, 20190, 20817, 21868], "queries": {"click": {"state": {"target": ["25", "33"], "time": [4450, 6445]}, "edge": {"target": [], "time": []}}, "mouseover": {"state": {"target": ["23", "24", "25", "30", "33", "10", "5", "6", "16", "15", "15", "16", "6", "5", "5", "4", "7"], "time": [3530, 3567, 3962, 5141, 5746, 7512, 8557, 10213, 10279, 10463, 11011, 11048, 11112, 11332, 11796, 13165, 13206]}, "edge": {"target": [], "time": []}}, "mouseout": {"state": {"target": ["0", "23", "24", "25", "30", "33", "25", "10", "5", "6", "16", "15", "15", "16", "6", "5", "5", "4", "7"], "time": [961, 3548, 3583, 5134, 5250, 7297, 7337, 7893, 8827, 10234, 10315, 10579, 11032, 11066, 11312, 11349, 13145, 13199, 13230]}, "edge": {"target": [], "time": []}}}, "displayed_time": "22.37", "trialTime": 26697, "trial_type": "mouselab-mdp", "trial_index": 21, "time_elapsed": 935514, "internal_node_id": "0.0-4.0-1.0-12.0"}}, {"uniqueid": "w62316961:a28859837", "current_trial": 22, "dateTime": 1691072494857, "trialdata": {"revealed_states": [], "clicked_states": ["23", "15", "28"], "num_clicks_accrued": [0, 0, 0, 0, 0, 0, 0, 0, 0, 0, 0, 0, 0], "stateRewards": ["", 1, 2, -6, -13, -51, 22, -4, -12, -44, -12, 6, -2, -2, -2, -14, -46, -4, -77, -2, 36, -79, 41, 2, -4, 2, -6, -55, 59, 70, -5, 39, -19, 24], "withholdReward": false, "trial_id": "mdp_trial_14", "block": "test", "trialIndex": 15, "score": 49.55, "costs": -3.45, "simulationMode": [null, null, null, null, null], "rewards": [2, -4, 2, -6, 59], "path": ["0", "0", "23", "24", "25", "26", "28"], "rt": [11022, 300, 312, 396, 90], "actions": ["left", "left", "left", "up", "right"], "actionTimes": [13193, 14031, 14849, 15764, 16445], "queries": {"click": {"state": {"target": ["23", "15", "28"], "time": [3747, 5516, 8230]}, "edge": {"target": [], "time": []}}, "mouseover": {"state": {"target": ["23", "0", "13", "15", "12", "0", "23", "24", "28", "1", "12"], "time": [3099, 4244, 4353, 4849, 6235, 6464, 6998, 7565, 7765, 9175, 10572]}, "edge": {"target": [], "time": []}}, "mouseout": {"state": {"target": ["0", "23", "0", "13", "15", "12", "0", "23", "24", "28", "1"], "time": [2766, 4235, 4335, 4386, 6170, 6303, 6932, 7114, 7651, 8847, 10324]}, "edge": {"target": [], "time": []}}}, "displayed_time": "16.99", "trialTime": 18962, "trial_type": "mouselab-mdp", "trial_index": 22, "time_elapsed": 955609, "internal_node_id": "0.0-4.0-1.0-13.0"}}, {"uniqueid": "w62316961:a28859837", "current_trial": 23, "dateTime": 1691072521775, "trialdata": {"revealed_states": [], "clicked_states": ["30", "8", "4", "15", "19"], "num_clicks_accrued": [0, 0, 0, 0, 0, 0, 0, 0, 0, 0, 0, 0, 0], "stateRewards": ["", -1, -3, -7, -4, -85, -70, 79, 8, 84, -66, 42, 2, -2, -3, -16, -54, -66, 68, -3, 21, -14, 7, -2, -1, -3, -8, 75, 80, 86, -7, -84, 73, -16], "withholdReward": false, "trial_id": "mdp_trial_15", "block": "test", "trialIndex": 16, "score": -36.75, "costs": -7.75, "simulationMode": [null, null, null, null, null], "rewards": [-2, -1, -3, -7, -16], "path": ["0", "0", "23", "24", "25", "30", "33"], "rt": [13332, 265, 200, 269, 1397], "actions": ["left", "left", "left", "down", "left"], "actionTimes": [16627, 17392, 18151, 18937, 20847], "queries": {"click": {"state": {"target": ["30", "8", "4", "15", "19"], "time": [5656, 7201, 8811, 10152, 11938]}, "edge": {"target": [], "time": []}}, "mouseover": {"state": {"target": ["23", "24", "25", "30", "11", "11", "8", "3", "4", "15", "14", "19", "22", "24", "25", "26", "24"], "time": [3927, 4073, 4873, 5203, 6162, 6560, 6607, 7805, 8055, 9653, 11317, 11454, 12744, 14157, 14222, 14740, 15943]}, "edge": {"target": [], "time": []}}, "mouseout": {"state": {"target": ["12", "23", "24", "25", "30", "11", "11", "8", "3", "4", "15", "14", "19", "22", "24", "25", "26", "24"], "time": [2022, 3973, 4340, 5119, 6096, 6210, 6581, 7779, 7881, 9338, 11293, 11426, 12737, 12801, 14176, 14439, 15922, 15962]}, "edge": {"target": [], "time": []}}}, "displayed_time": "21.36", "trialTime": 25989, "trial_type": "mouselab-mdp", "trial_index": 23, "time_elapsed": 982527, "internal_node_id": "0.0-4.0-1.0-14.0"}}, {"uniqueid": "w62316961:a28859837", "current_trial": 24, "dateTime": 1691072547423, "trialdata": {"revealed_states": [], "clicked_states": ["14", "19", "8", "11", "27", "33"], "num_clicks_accrued": [0, 0, 0, 0, 0, 0, 0, 0, 0, 0, 0, 0, 0], "stateRewards": ["", 2, -1, 1, 10, -52, 86, -22, -2, -14, -63, 38, 1, 3, 7, -8, 11, -32, -27, 9, -71, 40, -87, -2, -1, 5, -7, 12, 31, -57, 13, 86, -58, 29], "withholdReward": false, "trial_id": "mdp_trial_16", "block": "test", "trialIndex": 17, "score": 27.5, "costs": -10.5, "simulationMode": [null, null, null, null, null], "rewards": [2, -1, 1, -2, 38], "path": ["0", "0", "1", "2", "3", "8", "11"], "rt": [16162, 266, 335, 779, 547], "actions": ["up", "up", "up", "left", "left"], "actionTimes": [18218, 19045, 19889, 21233, 22296], "queries": {"click": {"state": {"target": ["14", "19", "8", "11", "27", "33"], "time": [4031, 5372, 7000, 8074, 11232, 14875]}, "edge": {"target": [], "time": []}}, "mouseover": {"state": {"target": ["13", "14", "14", "19", "22", "24", "28", "10", "8", "11", "27", "29", "33", "31"], "time": [2791, 2829, 3475, 4889, 5856, 5986, 6106, 6457, 6575, 7895, 8630, 12149, 14143, 15800]}, "edge": {"target": [], "time": []}}, "mouseout": {"state": {"target": ["0", "13", "14", "14", "14", "19", "22", "24", "28", "10", "8", "11", "27", "29", "33", "31"], "time": [2757, 2811, 3165, 4252, 4588, 5847, 5880, 6099, 6137, 6477, 7677, 8620, 11917, 13701, 15760, 15833]}, "edge": {"target": [], "time": []}}}, "displayed_time": "22.81", "trialTime": 24540, "trial_type": "mouselab-mdp", "trial_index": 24, "time_elapsed": 1008175, "internal_node_id": "0.0-4.0-1.0-15.0"}}, {"uniqueid": "w62316961:a28859837", "current_trial": 25, "dateTime": 1691072569829, "trialdata": {"revealed_states": [], "clicked_states": ["3", "14", "25", "1", "32"], "num_clicks_accrued": [0, 0, 0, 0, 0, 0, 0, 0, 0, 0, 0, 0, 0], "stateRewards": ["", -2, -3, 1, -14, 48, -49, 67, -1, -35, -48, 3, -2, 1, -4, -5, 86, -84, 39, 1, 48, 41, -42, -1, -4, 2, -7, 18, -86, 17, 7, -9, 57, -69], "withholdReward": false, "trial_id": "mdp_trial_17", "block": "test", "trialIndex": 18, "score": 56.25, "costs": -4.75, "simulationMode": [null, null, null, null, null], "rewards": [-1, -4, 2, 7, 57], "path": ["0", "0", "23", "24", "25", "30", "32"], "rt": [13267, 248, 245, 216, 317], "actions": ["left", "left", "left", "down", "down"], "actionTimes": [15105, 15877, 16684, 17434, 18267], "queries": {"click": {"state": {"target": ["3", "14", "25", "1", "32"], "time": [3903, 5525, 6877, 9525, 10992]}, "edge": {"target": [], "time": []}}, "mouseover": {"state": {"target": ["1", "4", "3", "3", "7", "13", "14", "23", "25", "23", "18", "7", "1", "1", "30", "32"], "time": [2922, 2988, 3245, 3454, 4425, 4532, 5071, 6069, 6460, 7720, 8088, 8355, 8608, 8921, 10068, 10576]}, "edge": {"target": [], "time": []}}, "mouseout": {"state": {"target": ["0", "1", "4", "3", "3", "7", "13", "14", "23", "25", "23", "18", "7", "1", "1", "30", "32"], "time": [754, 2943, 3138, 3274, 4417, 4456, 4950, 6039, 6094, 7612, 7791, 8109, 8550, 8659, 9987, 10445, 11584]}, "edge": {"target": [], "time": []}}}, "displayed_time": "18.80", "trialTime": 21244, "trial_type": "mouselab-mdp", "trial_index": 25, "time_elapsed": 1030581, "internal_node_id": "0.0-4.0-1.0-16.0"}}, {"uniqueid": "w62316961:a28859837", "current_trial": 26, "dateTime": 1691072612297, "trialdata": {"revealed_states": [], "clicked_states": ["16", "29", "21", "32", "9"], "num_clicks_accrued": [0, 0, 0, 0, 0, 0, 0, 0, 0, 0, 0, 0, 0], "stateRewards": ["", 2, 1, -3, 7, 46, 11, -36, 16, 71, 5, 1, 2, -2, -8, -3, -4, 6, 55, 7, 68, -54, 2, 1, 1, 6, -6, 42, -4, -84, -11, -65, 63, 25], "withholdReward": false, "trial_id": "mdp_trial_18", "block": "test", "trialIndex": 19, "score": 49.25, "costs": -10.75, "simulationMode": [null, null, null, null, null], "rewards": [1, 1, 6, -11, 63], "path": ["0", "0", "23", "24", "25", "30", "32"], "rt": [25145, 4438, 206, 373, 168], "actions": ["left", "left", "left", "down", "down"], "actionTimes": [27838, 32815, 33560, 34463, 35151], "queries": {"click": {"state": {"target": ["16", "29", "21", "32", "9"], "time": [4615, 8393, 12983, 17457, 22962]}, "edge": {"target": [], "time": []}}, "mouseover": {"state": {"target": ["12", "15", "17", "16", "1", "28", "26", "29", "29", "33", "31", "21", "30", "33", "32", "33", "25", "9"], "time": [3688, 3737, 3778, 4155, 5207, 5262, 5818, 5957, 7988, 9307, 11872, 12421, 14017, 14235, 16587, 18142, 18906, 19340]}, "edge": {"target": [], "time": []}}, "mouseout": {"state": {"target": ["0", "12", "15", "17", "16", "1", "28", "26", "29", "29", "29", "33", "31", "21", "30", "33", "32", "33", "25", "9"], "time": [1869, 3708, 3772, 3920, 5160, 5234, 5631, 5842, 7465, 8666, 8900, 11838, 11890, 13589, 14059, 16114, 18104, 18896, 18942, 23185]}, "edge": {"target": [], "time": []}}}, "displayed_time": "35.67", "trialTime": 41460, "trial_type": "mouselab-mdp", "trial_index": 26, "time_elapsed": 1073049, "internal_node_id": "0.0-4.0-1.0-17.0"}}, {"uniqueid": "w62316961:a28859837", "current_trial": 27, "dateTime": 1691072719518, "trialdata": {"revealed_states": [], "clicked_states": ["3", "11", "33", "27", "17", "20", "21"], "num_clicks_accrued": [0, 0, 0, 0, 0, 0, 0, 0, 0, 0, 0, 0, 0], "stateRewards": ["", -1, -1, 4, -16, -75, 81, -51, -7, -84, 73, -30, -2, 1, -3, -16, -77, 33, 14, 1, 45, 87, -66, 2, 2, -5, -7, -19, -17, 79, -3, 8, 49, 47], "withholdReward": false, "trial_id": "mdp_trial_19", "block": "test", "trialIndex": 20, "score": 70.15, "costs": -13.850000000000001, "simulationMode": [null, null, null, null, null], "rewards": [-2, 1, -3, 1, 87], "path": ["0", "0", "12", "13", "14", "19", "21"], "rt": [25746, 225, 507, 282, 241], "actions": ["right", "right", "right", "down", "down"], "actionTimes": [28864, 29623, 30646, 31442, 32328], "queries": {"click": {"state": {"target": ["3", "11", "33", "27", "17", "20", "21"], "time": [5081, 6330, 10201, 13818, 17662, 20631, 23740]}, "edge": {"target": [], "time": []}}, "mouseover": {"state": {"target": ["1", "2", "2", "3", "3", "11", "27", "33", "27", "27", "1", "14", "17", "20", "21", "19", "19"], "time": [3796, 3834, 4062, 4316, 4630, 5696, 7312, 9318, 10814, 13165, 14601, 14763, 15419, 18869, 21976, 27629, 28112]}, "edge": {"target": [], "time": []}}, "mouseout": {"state": {"target": ["9", "3", "2", "1", "2", "2", "3", "3", "11", "27", "33", "27", "27", "1", "14", "17", "20", "21", "19", "19"], "time": [1215, 1270, 1318, 3817, 3895, 4297, 4423, 5300, 6912, 8754, 10492, 12720, 14558, 14642, 15052, 18333, 21669, 24469, 27729, 28295]}, "edge": {"target": [], "time": []}}}, "displayed_time": "32.84", "trialTime": 106031, "trial_type": "mouselab-mdp", "trial_index": 27, "time_elapsed": 1180271, "internal_node_id": "0.0-4.0-1.0-18.0"}}, {"uniqueid": "w62316961:a28859837", "current_trial": 28, "dateTime": 1691072750345, "trialdata": {"revealed_states": [], "clicked_states": ["25", "33", "17", "21", "9", "29"], "num_clicks_accrued": [0, 0, 0, 0, 0, 0, 0, 0, 0, 0, 0, 0, 0], "stateRewards": ["", 1, -3, -2, 14, 49, -40, -39, 2, 26, -61, 73, 1, -4, -8, 12, 79, 29, -65, -13, 55, -26, 27, -1, 3, 3, 9, -17, -60, -18, -8, 35, -88, 69], "withholdReward": false, "trial_id": "mdp_trial_20", "block": "test", "trialIndex": 21, "score": 54.3, "costs": -11.700000000000001, "simulationMode": [null, null, null, null, null], "rewards": [-1, 3, 3, -8, 69], "path": ["0", "0", "23", "24", "25", "30", "33"], "rt": [20754, 367, 329, 326, 341], "actions": ["left", "left", "left", "down", "left"], "actionTimes": [22933, 23815, 24688, 25525, 26391], "queries": {"click": {"state": {"target": ["25", "33", "17", "21", "9", "29"], "time": [3670, 4920, 8235, 11706, 15167, 19514]}, "edge": {"target": [], "time": []}}, "mouseover": {"state": {"target": ["23", "24", "25", "25", "33", "13", "14", "17", "21", "13", "7", "4", "9", "10", "23", "24", "26", "29", "26", "19"], "time": [2743, 2774, 2809, 3137, 4458, 5633, 5665, 6518, 9299, 12272, 12321, 12372, 12791, 16111, 16359, 18558, 18670, 18955, 19879, 19992]}, "edge": {"target": [], "time": []}}, "mouseout": {"state": {"target": ["0", "23", "24", "25", "25", "33", "13", "14", "17", "21", "13", "7", "4", "9", "10", "23", "24", "26", "29", "26"], "time": [835, 2769, 2802, 2836, 4147, 5500, 5657, 6023, 8785, 12224, 12297, 12349, 12648, 16043, 16164, 18552, 18586, 18706, 19872, 19960]}, "edge": {"target": [], "time": []}}}, "displayed_time": "26.92", "trialTime": 29599, "trial_type": "mouselab-mdp", "trial_index": 28, "time_elapsed": 1211097, "internal_node_id": "0.0-4.0-1.0-19.0"}}, {"uniqueid": "w62316961:a28859837", "current_trial": 29, "dateTime": 1691072785285, "trialdata": {"revealed_states": [], "clicked_states": ["33", "9", "5", "20", "21"], "num_clicks_accrued": [0, 0, 0, 0, 0, 0, 0, 0, 0, 0, 0, 0, 0], "stateRewards": ["", 1, 1, -5, 8, -6, 45, 16, -6, -7, -22, -38, -1, -4, 8, -11, -16, 21, -45, -15, -59, -32, 42, -1, 3, 6, 11, -7, 34, -27, -8, 85, 43, -9], "withholdReward": false, "trial_id": "mdp_trial_21", "block": "test", "trialIndex": 22, "score": -11.75, "costs": -10.75, "simulationMode": [null, null, null, null, null], "rewards": [1, 1, -5, 8, -6], "path": ["0", "0", "1", "2", "3", "4", "5"], "rt": [20593, 189, 310, 209, 285], "actions": ["up", "up", "up", "right", "up"], "actionTimes": [23317, 24060, 24916, 25610, 26400], "queries": {"click": {"state": {"target": ["33", "9", "5", "20", "21"], "time": [4245, 7855, 11283, 14762, 19127]}, "edge": {"target": [], "time": []}}, "mouseover": {"state": {"target": ["23", "24", "30", "33", "26", "11", "9", "5", "15", "20", "21", "0", "18"], "time": [3273, 3323, 3539, 3890, 4728, 4863, 5511, 8637, 11700, 11839, 15349, 20013, 20949]}, "edge": {"target": [], "time": []}}, "mouseout": {"state": {"target": ["19", "12", "23", "24", "30", "33", "26", "11", "9", "5", "15", "20", "21", "0"], "time": [965, 1020, 3292, 3455, 3593, 4456, 4757, 4981, 8396, 11602, 11738, 15341, 19638, 20297]}, "edge": {"target": [], "time": []}}}, "displayed_time": "26.91", "trialTime": 33713, "trial_type": "mouselab-mdp", "trial_index": 29, "time_elapsed": 1246038, "internal_node_id": "0.0-4.0-1.0-20.0"}}, {"uniqueid": "w62316961:a28859837", "current_trial": 30, "dateTime": 1691072805964, "trialdata": {"revealed_states": [], "clicked_states": ["32", "5"], "num_clicks_accrued": [0, 0, 0, 0, 0, 0, 0, 0, 0, 0, 0, 0, 0], "stateRewards": ["", 1, -2, 7, -14, 88, -56, -44, -14, 64, -51, -57, -2, 3, -4, -9, -11, 19, -77, -1, 68, 75, -67, -1, 1, -2, 5, -37, 70, -34, -10, -72, 63, -41], "withholdReward": false, "trial_id": "mdp_trial_22", "block": "test", "trialIndex": 23, "score": 75.7, "costs": -4.3, "simulationMode": [null, null, null, null, null], "rewards": [1, -2, 7, -14, 88], "path": ["0", "0", "1", "2", "3", "4", "5"], "rt": [9525, 235, 309, 181, 342], "actions": ["up", "up", "up", "right", "up"], "actionTimes": [12093, 12833, 13662, 14357, 15213], "queries": {"click": {"state": {"target": ["32", "5"], "time": [4370, 7986]}, "edge": {"target": [], "time": []}}, "mouseover": {"state": {"target": ["23", "24", "32", "10", "8", "5", "5"], "time": [3197, 3247, 3826, 4926, 4958, 5294, 5609]}, "edge": {"target": [], "time": []}}, "mouseout": {"state": {"target": ["18", "12", "0", "23", "24", "32", "10", "8", "5"], "time": [744, 816, 3192, 3226, 3710, 4873, 4953, 4986, 5343]}, "edge": {"target": [], "time": []}}}, "displayed_time": "16.57", "trialTime": 19278, "trial_type": "mouselab-mdp", "trial_index": 30, "time_elapsed": 1266716, "internal_node_id": "0.0-4.0-1.0-21.0"}}, {"uniqueid": "w62316961:a28859837", "current_trial": 31, "dateTime": 1691072834201, "trialdata": {"revealed_states": [], "clicked_states": ["33", "6", "11"], "num_clicks_accrued": [0, 0, 0, 0, 0, 0, 0, 0, 0, 0, 0, 0, 0], "stateRewards": ["", -1, 3, 8, 10, -86, 61, -36, 10, 17, -60, 24, -1, -3, 3, 11, 50, 60, 33, -3, -20, 58, -6, 1, -4, -4, 13, -70, -71, 43, 14, 52, 82, -11], "withholdReward": false, "trial_id": "mdp_trial_23", "block": "test", "trialIndex": 24, "score": 74.55, "costs": -6.449999999999999, "simulationMode": [null, null, null, null, null], "rewards": [-1, 3, 8, 10, 61], "path": ["0", "0", "1", "2", "3", "4", "6"], "rt": [16224, 287, 270, 290, 339], "actions": ["up", "up", "up", "right", "right"], "actionTimes": [19001, 19812, 20617, 21424, 22285], "queries": {"click": {"state": {"target": ["33", "6", "11"], "time": [5579, 10224, 15534]}, "edge": {"target": [], "time": []}}, "mouseover": {"state": {"target": ["0", "31", "30", "33", "11", "6", "4", "3", "11"], "time": [4082, 4123, 4171, 4930, 6641, 9416, 14055, 14480, 14783]}, "edge": {"target": [], "time": []}}, "mouseout": {"state": {"target": ["5", "1", "0", "0", "31", "30", "33", "11", "6", "4", "3"], "time": [849, 965, 1648, 4104, 4151, 4199, 6057, 9405, 14050, 14084, 14502]}, "edge": {"target": [], "time": []}}}, "displayed_time": "22.87", "trialTime": 26993, "trial_type": "mouselab-mdp", "trial_index": 31, "time_elapsed": 1294954, "internal_node_id": "0.0-4.0-1.0-22.0"}}, {"uniqueid": "w62316961:a28859837", "current_trial": 32, "dateTime": 1691072860966, "trialdata": {"revealed_states": [], "clicked_states": ["33", "17", "11", "21"], "num_clicks_accrued": [0, 0, 0, 0, 0, 0, 0, 0, 0, 0, 0, 0, 0], "stateRewards": ["", -2, 2, 3, -7, 76, 63, 21, 15, 35, -8, -44, 1, 1, -2, -12, 23, 24, 76, -9, 46, 66, -49, -2, -1, 7, 12, 40, -71, -45, -6, 38, -49, 46], "withholdReward": false, "trial_id": "mdp_trial_24", "block": "test", "trialIndex": 25, "score": 48.4, "costs": -8.6, "simulationMode": [null, null, null, null, null], "rewards": [1, 1, -2, -9, 66], "path": ["0", "0", "12", "13", "14", "19", "21"], "rt": [17027, 420, 208, 268, 335], "actions": ["right", "right", "right", "down", "down"], "actionTimes": [19346, 20267, 21030, 21806, 22674], "queries": {"click": {"state": {"target": ["33", "17", "11", "21"], "time": [3819, 7492, 10993, 14760]}, "edge": {"target": [], "time": []}}, "mouseover": {"state": {"target": ["23", "24", "25", "33", "12", "17", "17", "11", "11", "26", "29", "28", "12", "22", "19", "21"], "time": [3009, 3038, 3254, 3366, 4377, 4461, 4820, 8460, 8806, 11749, 12149, 12843, 12908, 13104, 13183, 13682]}, "edge": {"target": [], "time": []}}, "mouseout": {"state": {"target": ["11", "23", "0", "23", "24", "25", "33", "12", "17", "17", "11", "11", "26", "29", "28", "12", "22", "19"], "time": [673, 990, 1165, 3031, 3141, 3273, 4314, 4406, 4492, 7961, 8638, 11670, 11826, 12833, 12899, 12962, 13174, 13312]}, "edge": {"target": [], "time": []}}}, "displayed_time": "23.29", "trialTime": 25517, "trial_type": "mouselab-mdp", "trial_index": 32, "time_elapsed": 1321719, "internal_node_id": "0.0-4.0-1.0-23.0"}}, {"uniqueid": "w62316961:a28859837", "current_trial": 33, "dateTime": 1691072898234, "trialdata": {"revealed_states": [], "clicked_states": ["33", "11", "5", "17"], "num_clicks_accrued": [0, 0, 0, 0, 0, 0, 0, 0, 0, 0, 0, 0, 0], "stateRewards": ["", -2, -4, -2, -13, -15, 87, -19, -6, -80, 30, 12, 1, 1, -8, 2, 55, 56, 15, 11, -68, -7, 55, -2, 3, -3, -3, 48, 62, 4, 1, -3, 69, -33], "withholdReward": false, "trial_id": "mdp_trial_25", "block": "test", "trialIndex": 26, "score": 43.4, "costs": -8.6, "simulationMode": [null, null, null, null, null], "rewards": [1, 1, -8, 2, 56], "path": ["0", "0", "12", "13", "14", "15", "17"], "rt": [16422, 364, 404, 279, 385], "actions": ["right", "right", "right", "up", "right"], "actionTimes": [28718, 29594, 30542, 31352, 32259], "queries": {"click": {"state": {"target": ["33", "11", "5", "17"], "time": [14020, 17273, 20678, 24301]}, "edge": {"target": [], "time": []}}, "mouseover": {"state": {"target": ["23", "24", "33", "33", "26", "27", "11", "11", "5", "5", "6", "16", "17", "19", "21"], "time": [13097, 13125, 13207, 13694, 14698, 14752, 15250, 15863, 17862, 18337, 21303, 21390, 21613, 25080, 25628]}, "edge": {"target": [], "time": []}}, "mouseout": {"state": {"target": ["21", "0", "23", "24", "33", "33", "26", "27", "11", "11", "5", "5", "6", "16", "17", "19"], "time": [10607, 13078, 13120, 13145, 13392, 14630, 14727, 15161, 15296, 17795, 17954, 21293, 21347, 21574, 24707, 25129]}, "edge": {"target": [], "time": []}}}, "displayed_time": "32.77", "trialTime": 36187, "trial_type": "mouselab-mdp", "trial_index": 33, "time_elapsed": 1358987, "internal_node_id": "0.0-4.0-1.0-24.0"}}, {"uniqueid": "w62316961:a28859837", "current_trial": 34, "dateTime": 1691072929780, "trialdata": {"revealed_states": [], "clicked_states": ["32", "5", "11", "29", "17"], "num_clicks_accrued": [0, 0, 0, 0, 0, 0, 0, 0, 0, 0, 0, 0, 0], "stateRewards": ["", -2, -4, 2, 10, -17, 18, 73, 11, -32, 23, -13, -2, -4, 7, 12, -25, 66, -23, 15, 40, -76, -9, 1, 2, -7, -5, -20, 24, 3, -5, 16, -73, 70], "withholdReward": false, "trial_id": "mdp_trial_26", "block": "test", "trialIndex": 27, "score": 68.25, "costs": -10.75, "simulationMode": [null, null, null, null, null], "rewards": [-2, -4, 7, 12, 66], "path": ["0", "0", "12", "13", "14", "15", "17"], "rt": [20652, 316, 365, 169, 181], "actions": ["right", "right", "right", "up", "right"], "actionTimes": [23546, 24363, 25242, 25945, 26705], "queries": {"click": {"state": {"target": ["32", "5", "11", "29", "17"], "time": [5245, 8544, 12061, 15719, 19392]}, "edge": {"target": [], "time": []}}, "mouseover": {"state": {"target": ["0", "23", "30", "32", "24", "3", "5", "8", "11", "26", "29", "26", "15", "17"], "time": [3610, 3636, 3840, 4649, 5865, 5928, 6259, 9263, 9615, 12596, 12882, 16099, 16206, 16269]}, "edge": {"target": [], "time": []}}, "mouseout": {"state": {"target": ["21", "0", "0", "23", "30", "32", "24", "3", "5", "8", "11", "26", "29", "26", "15"], "time": [741, 1823, 3630, 3662, 4596, 5814, 5893, 5953, 9196, 9304, 12544, 12679, 16089, 16155, 16259]}, "edge": {"target": [], "time": []}}}, "displayed_time": "27.23", "trialTime": 30148, "trial_type": "mouselab-mdp", "trial_index": 34, "time_elapsed": 1390532, "internal_node_id": "0.0-4.0-1.0-25.0"}}, {"uniqueid": "w62316961:a28859837", "current_trial": 35, "dateTime": 1691072954363, "trialdata": {"revealed_states": [], "clicked_states": ["16", "9", "29"], "num_clicks_accrued": [0, 0, 0, 0, 0, 0, 0, 0, 0, 0, 0, 0, 0], "stateRewards": ["", -2, -2, -7, -13, -10, 49, -68, -1, 84, 70, 88, 1, 4, 4, 12, -57, 25, 30, 8, -1, -77, 57, 2, 3, 2, 3, -18, -80, 23, -15, -41, 70, 11], "withholdReward": false, "trial_id": "mdp_trial_27", "block": "test", "trialIndex": 28, "score": 65.55, "costs": -6.449999999999999, "simulationMode": [null, null, null, null, null], "rewards": [-2, -2, -7, -1, 84], "path": ["0", "0", "1", "2", "3", "8", "9"], "rt": [13079, 286, 1262, 462, 489], "actions": ["up", "up", "up", "left", "up"], "actionTimes": [15760, 16581, 18385, 19389, 20410], "queries": {"click": {"state": {"target": ["16", "9", "29"], "time": [4855, 8290, 12242]}, "edge": {"target": [], "time": []}}, "mouseover": {"state": {"target": ["12", "13", "14", "15", "16", "16", "2", "8", "9", "11", "27", "29", "1"], "time": [3618, 3643, 3674, 3902, 4072, 4419, 5922, 6427, 6506, 8791, 8843, 8904, 13094]}, "edge": {"target": [], "time": []}}, "mouseout": {"state": {"target": ["17", "13", "0", "12", "13", "14", "15", "16", "16", "2", "8", "9", "11", "27", "29", "1"], "time": [692, 767, 1050, 3637, 3669, 3704, 4051, 4102, 5071, 6373, 6501, 8782, 8835, 8888, 13001, 13141]}, "edge": {"target": [], "time": []}}}, "displayed_time": "20.94", "trialTime": 23247, "trial_type": "mouselab-mdp", "trial_index": 35, "time_elapsed": 1415117, "internal_node_id": "0.0-4.0-1.0-26.0"}}, {"uniqueid": "w62316961:a28859837", "current_trial": 36, "dateTime": 1691072982732, "trialdata": {"revealed_states": [], "clicked_states": ["32", "5", "29", "17"], "num_clicks_accrued": [0, 0, 0, 0, 0, 0, 0, 0, 0, 0, 0, 0, 0], "stateRewards": ["", 2, -3, -2, 14, -4, 85, 46, 15, -28, 41, 31, -1, -1, -1, 5, 62, 79, 57, 12, -73, -64, 86, -1, 1, -3, -5, 68, 11, -32, 8, -80, -21, -56], "withholdReward": false, "trial_id": "mdp_trial_28", "block": "test", "trialIndex": 29, "score": 72.4, "costs": -8.6, "simulationMode": [null, null, null, null, null], "rewards": [-1, -1, -1, 5, 79], "path": ["0", "0", "12", "13", "14", "15", "17"], "rt": [16885, 298, 320, 374, 416], "actions": ["right", "right", "right", "up", "right"], "actionTimes": [19428, 20233, 21077, 21969, 22892], "queries": {"click": {"state": {"target": ["32", "5", "29", "17"], "time": [4509, 8000, 11599, 15060]}, "edge": {"target": [], "time": []}}, "mouseover": {"state": {"target": ["23", "30", "32", "31", "5", "27", "29", "18", "15", "17", "8", "11"], "time": [3504, 3863, 4130, 5060, 5913, 9204, 9686, 12279, 12605, 12987, 16139, 16283]}, "edge": {"target": [], "time": []}}, "mouseout": {"state": {"target": ["0", "23", "30", "32", "31", "5", "27", "29", "18", "15", "17", "8"], "time": [3488, 3584, 3929, 4714, 5107, 8556, 9275, 12086, 12327, 12908, 15695, 16176]}, "edge": {"target": [], "time": []}}}, "displayed_time": "23.43", "trialTime": 27090, "trial_type": "mouselab-mdp", "trial_index": 36, "time_elapsed": 1443484, "internal_node_id": "0.0-4.0-1.0-27.0"}}, {"uniqueid": "w62316961:a28859837", "current_trial": 37, "dateTime": 1691073007175, "trialdata": {"revealed_states": [], "clicked_states": ["11", "17", "29"], "num_clicks_accrued": [0, 0, 0, 0, 0, 0, 0, 0, 0, 0, 0, 0, 0], "stateRewards": ["", -2, 3, 8, -9, 59, 41, -50, -1, 82, 66, 33, 2, -2, 7, 8, 1, -38, 12, -16, 24, -37, 67, 1, 4, -2, 5, 35, -83, 28, 8, -27, 69, -64], "withholdReward": false, "trial_id": "mdp_trial_29", "block": "test", "trialIndex": 30, "score": 34.55, "costs": -6.449999999999999, "simulationMode": [null, null, null, null, null], "rewards": [-2, 3, 8, -1, 33], "path": ["0", "0", "1", "2", "3", "8", "11"], "rt": [13766, 356, 157, 287, 409], "actions": ["up", "up", "up", "left", "left"], "actionTimes": [16202, 17063, 17763, 18582, 19522], "queries": {"click": {"state": {"target": ["11", "17", "29"], "time": [4605, 8066, 11751]}, "edge": {"target": [], "time": []}}, "mouseover": {"state": {"target": ["1", "2", "3", "8", "11", "11", "3", "16", "17", "20", "24", "29", "10", "2"], "time": [3183, 3230, 3258, 3466, 3732, 4276, 5222, 5302, 5732, 8707, 9154, 9907, 12499, 13009]}, "edge": {"target": [], "time": []}}, "mouseout": {"state": {"target": ["11", "1", "2", "3", "8", "11", "11", "3", "16", "17", "20", "24", "29", "10", "2"], "time": [915, 3206, 3252, 3285, 3667, 3832, 5196, 5254, 5329, 8564, 9020, 9188, 12430, 12559, 13049]}, "edge": {"target": [], "time": []}}}, "displayed_time": "20.04", "trialTime": 22504, "trial_type": "mouselab-mdp", "trial_index": 37, "time_elapsed": 1467927, "internal_node_id": "0.0-4.0-1.0-28.0"}}, {"uniqueid": "w62316961:a28859837", "current_trial": 38, "dateTime": 1691073121645, "trialdata": {"revealed_states": [], "clicked_states": ["29", "6", "9", "21"], "num_clicks_accrued": [0, 0, 0, 0, 0, 0, 0, 0, 0, 0, 0, 0, 0], "stateRewards": ["", -2, 3, -5, -7, 66, 43, -60, -4, -70, -75, 4, -1, 2, 2, -13, 54, 11, -40, -1, 77, 32, 15, -2, 3, -8, -9, -35, 83, -27, 6, -74, -34, 44], "withholdReward": false, "trial_id": "mdp_trial_30", "block": "test", "trialIndex": 31, "score": 23.4, "costs": -8.6, "simulationMode": [null, null, null, null, null], "rewards": [-2, 3, -5, -7, 43], "path": ["0", "0", "1", "2", "3", "4", "6"], "rt": [17162, 283, 183, 303, 367], "actions": ["up", "up", "up", "right", "right"], "actionTimes": [20576, 21369, 22075, 22892, 23794], "queries": {"click": {"state": {"target": ["29", "6", "9", "21"], "time": [5121, 8763, 12381, 15961]}, "edge": {"target": [], "time": []}}, "mouseover": {"state": {"target": ["23", "24", "29", "4", "6", "6", "4", "9", "7", "14", "21"], "time": [4302, 4346, 4681, 5720, 6025, 6345, 9485, 10561, 13066, 13176, 13933]}, "edge": {"target": [], "time": []}}, "mouseout": {"state": {"target": ["2", "1", "0", "0", "23", "24", "29", "4", "6", "6", "4", "9", "7", "14"], "time": [680, 746, 797, 4281, 4323, 4369, 5636, 5749, 6139, 9474, 9543, 12617, 13132, 13504]}, "edge": {"target": [], "time": []}}}, "displayed_time": "24.33", "trialTime": 113157, "trial_type": "mouselab-mdp", "trial_index": 38, "time_elapsed": 1582397, "internal_node_id": "0.0-4.0-1.0-29.0"}}, {"uniqueid": "w62316961:a28859837", "current_trial": 39, "dateTime": 1691073151972, "trialdata": {"revealed_states": [], "clicked_states": ["33", "5", "10", "22", "28"], "num_clicks_accrued": [0, 0, 0, 0, 0, 0, 0, 0, 0, 0, 0, 0, 0], "stateRewards": ["", 1, 4, 7, -16, -84, -6, -46, -12, -7, -49, -26, -1, 2, -4, 2, 22, 37, -64, 1, 88, -13, -10, 1, -4, -2, 5, 2, -10, -34, 9, 66, 55, 38], "withholdReward": false, "trial_id": "mdp_trial_31", "block": "test", "trialIndex": 32, "score": 31.25, "costs": -10.75, "simulationMode": [null, null, null, null, null], "rewards": [1, -4, -2, 9, 38], "path": ["0", "0", "23", "24", "25", "30", "33"], "rt": [20975, 114, 260, 242, 209], "actions": ["left", "left", "left", "down", "left"], "actionTimes": [22890, 23507, 24298, 25072, 25805], "queries": {"click": {"state": {"target": ["33", "5", "10", "22", "28"], "time": [3664, 6996, 10785, 14248, 19419]}, "edge": {"target": [], "time": []}}, "mouseover": {"state": {"target": ["23", "24", "33", "26", "9", "5", "9", "11", "10", "2", "22", "22", "24", "29", "29", "26", "28"], "time": [2336, 2586, 3020, 4289, 4368, 5043, 7527, 8456, 10304, 11308, 11737, 12233, 17869, 18370, 18669, 18773, 18816]}, "edge": {"target": [], "time": []}}, "mouseout": {"state": {"target": ["0", "23", "24", "33", "26", "9", "5", "9", "11", "10", "10", "2", "22", "22", "24", "29", "29", "26", "28"], "time": [2169, 2453, 2970, 4258, 4319, 4480, 7215, 8205, 10070, 11010, 11300, 11339, 11770, 14914, 17943, 18390, 18751, 18795, 19669]}, "edge": {"target": [], "time": []}}}, "displayed_time": "26.33", "trialTime": 28777, "trial_type": "mouselab-mdp", "trial_index": 39, "time_elapsed": 1612724, "internal_node_id": "0.0-4.0-1.0-30.0"}}, {"uniqueid": "w62316961:a28859837", "current_trial": 40, "dateTime": 1691073181582, "trialdata": {"revealed_states": [], "clicked_states": ["16", "7", "10", "28"], "num_clicks_accrued": [0, 0, 0, 0, 0, 0, 0, 0, 0, 0, 0, 0, 0], "stateRewards": ["", 2, -4, 4, 9, 69, 9, -75, 12, -86, 66, 25, -1, 3, 2, -13, -88, -3, 1, 4, -69, 49, -84, 2, -1, 4, 2, -18, -81, -52, -15, -69, -54, 25], "withholdReward": false, "trial_id": "mdp_trial_32", "block": "test", "trialIndex": 33, "score": 71.4, "costs": -8.6, "simulationMode": [null, null, null, null, null], "rewards": [2, -4, 4, 12, 66], "path": ["0", "0", "1", "2", "3", "8", "10"], "rt": [18568, 358, 1447, 210, 360], "actions": ["up", "up", "up", "left", "down"], "actionTimes": [21374, 22278, 24246, 24957, 25836], "queries": {"click": {"state": {"target": ["16", "7", "10", "28"], "time": [4542, 8146, 11735, 17195]}, "edge": {"target": [], "time": []}}, "mouseover": {"state": {"target": ["12", "15", "16", "7", "2", "10", "28", "28"], "time": [3448, 3526, 3820, 5640, 8799, 9023, 12160, 12556]}, "edge": {"target": [], "time": []}}, "mouseout": {"state": {"target": ["28", "0", "12", "15", "16", "7", "2", "10", "28"], "time": [826, 3426, 3476, 3793, 5168, 8756, 8910, 12117, 12207]}, "edge": {"target": [], "time": []}}}, "displayed_time": "26.37", "trialTime": 28245, "trial_type": "mouselab-mdp", "trial_index": 40, "time_elapsed": 1642334, "internal_node_id": "0.0-4.0-1.0-31.0"}}, {"uniqueid": "w62316961:a28859837", "current_trial": 41, "dateTime": 1691073208750, "trialdata": {"revealed_states": [], "clicked_states": ["31", "18", "10", "5"], "num_clicks_accrued": [0, 0, 0, 0, 0, 0, 0, 0, 0, 0, 0, 0, 0], "stateRewards": ["", 1, -2, -3, 14, -42, -87, -37, -11, -50, 33, -44, -2, 4, -7, 13, 48, -75, -66, 12, 23, -2, 82, 1, -4, 3, 12, 51, -15, -26, -11, -52, -29, 82], "withholdReward": false, "trial_id": "mdp_trial_33", "block": "test", "trialIndex": 34, "score": 9.399999999999999, "costs": -8.6, "simulationMode": [null, null, null, null, null], "rewards": [1, -2, -3, -11, 33], "path": ["0", "0", "1", "2", "3", "8", "10"], "rt": [15951, 333, 295, 389, 108], "actions": ["up", "up", "up", "left", "down"], "actionTimes": [18419, 19276, 20102, 21023, 21838], "queries": {"click": {"state": {"target": ["31", "18", "10", "5"], "time": [4569, 8010, 11474, 15060]}, "edge": {"target": [], "time": []}}, "mouseover": {"state": {"target": ["0", "31", "32", "31", "0", "12", "18", "7", "2", "10", "2", "7", "5"], "time": [2996, 3061, 3279, 4179, 5220, 5279, 5827, 8569, 8872, 9623, 12155, 12859, 13686]}, "edge": {"target": [], "time": []}}, "mouseout": {"state": {"target": ["28", "0", "0", "0", "31", "32", "31", "0", "12", "18", "7", "2", "10", "2", "7"], "time": [699, 810, 1178, 3028, 3112, 3416, 4803, 5271, 5310, 8198, 8637, 8956, 12108, 12336, 12904]}, "edge": {"target": [], "time": []}}}, "displayed_time": "22.37", "trialTime": 25852, "trial_type": "mouselab-mdp", "trial_index": 41, "time_elapsed": 1669502, "internal_node_id": "0.0-4.0-1.0-32.0"}}, {"uniqueid": "w62316961:a28859837", "current_trial": 42, "dateTime": 1691073228158, "trialdata": {"revealed_states": [], "clicked_states": ["22", "18"], "num_clicks_accrued": [0, 0, 0, 0, 0, 0, 0, 0, 0, 0, 0, 0, 0], "stateRewards": ["", -1, 2, 7, 8, 75, 67, -11, 6, 52, -17, 38, -1, 4, -8, 14, 74, -37, -17, -12, 52, 55, 71, -2, -1, -5, 2, 21, 6, -88, -14, 64, -61, -47], "withholdReward": false, "trial_id": "mdp_trial_34", "block": "test", "trialIndex": 35, "score": 49.7, "costs": -4.3, "simulationMode": [null, null, null, null, null], "rewards": [-1, 4, -8, -12, 71], "path": ["0", "0", "12", "13", "14", "19", "22"], "rt": [9306, 220, 331, 320, 489], "actions": ["right", "right", "right", "down", "left"], "actionTimes": [11206, 11968, 12808, 13646, 14666], "queries": {"click": {"state": {"target": ["22", "18"], "time": [3554, 7287]}, "edge": {"target": [], "time": []}}, "mouseover": {"state": {"target": ["12", "13", "14", "13", "22", "18", "18", "2", "10"], "time": [2433, 2469, 2520, 2915, 3096, 4163, 4534, 7847, 8554]}, "edge": {"target": [], "time": []}}, "mouseout": {"state": {"target": ["5", "4", "7", "12", "13", "14", "13", "22", "18", "18", "2"], "time": [401, 429, 463, 2464, 2498, 2715, 2942, 4087, 4237, 7536, 7964]}, "edge": {"target": [], "time": []}}}, "displayed_time": "15.90", "trialTime": 18196, "trial_type": "mouselab-mdp", "trial_index": 42, "time_elapsed": 1688910, "internal_node_id": "0.0-4.0-1.0-33.0"}}, {"uniqueid": "w62316961:a28859837", "current_trial": 43, "dateTime": 1691073260917, "trialdata": {"revealed_states": [], "clicked_states": ["29", "11", "6", "18", "31"], "num_clicks_accrued": [0, 0, 0, 0, 0, 0, 0, 0, 0, 0, 0, 0, 0], "stateRewards": ["", -2, -4, -6, 12, -58, -70, -80, 2, 16, -88, -62, 1, 2, -5, 11, 77, -35, -44, -5, 18, -83, 87, 1, -3, -5, 13, -44, -21, -86, 10, -52, 8, 29], "withholdReward": false, "trial_id": "mdp_trial_35", "block": "test", "trialIndex": 36, "score": 0.25, "costs": -10.75, "simulationMode": [null, null, null, null, null], "rewards": [1, 2, -5, -5, 18], "path": ["0", "0", "12", "13", "14", "19", "20"], "rt": [19919, 260, 351, 349, 358], "actions": ["right", "right", "right", "down", "right"], "actionTimes": [23365, 24145, 25015, 25889, 26766], "queries": {"click": {"state": {"target": ["29", "11", "6", "18", "31"], "time": [5036, 8445, 11977, 15432, 18928]}, "edge": {"target": [], "time": []}}, "mouseover": {"state": {"target": ["23", "28", "26", "29", "11", "8", "3", "4", "6", "18", "31"], "time": [4104, 4158, 4434, 4578, 5743, 8926, 8994, 9088, 9445, 12650, 16089]}, "edge": {"target": [], "time": []}}, "mouseout": {"state": {"target": ["10", "0", "0", "23", "28", "26", "29", "11", "8", "3", "4", "6", "18"], "time": [776, 1109, 4078, 4132, 4184, 4519, 5242, 8674, 8984, 9040, 9316, 12466, 15978]}, "edge": {"target": [], "time": []}}}, "displayed_time": "27.27", "trialTime": 31238, "trial_type": "mouselab-mdp", "trial_index": 43, "time_elapsed": 1721669, "internal_node_id": "0.0-4.0-1.0-34.0"}}, {"uniqueid": "w62316961:a28859837", "current_trial": 44, "dateTime": 1691073291764, "trialdata": {"revealed_states": [], "clicked_states": ["32", "7", "9", "27", "6"], "num_clicks_accrued": [0, 0, 0, 0, 0, 0, 0, 0, 0, 0, 0, 0, 0], "stateRewards": ["", -2, -3, 1, -7, 39, -67, 16, 5, -20, 73, 66, -1, 4, 5, -3, 23, -68, -87, -8, 3, -3, 17, 1, -4, -2, -13, -32, 34, 61, -5, -11, -18, 12], "withholdReward": false, "trial_id": "mdp_trial_36", "block": "test", "trialIndex": 37, "score": -5.75, "costs": -10.75, "simulationMode": [null, null, null, null, null], "rewards": [-2, -3, 1, -7, 16], "path": ["0", "0", "1", "2", "3", "4", "7"], "rt": [19538, 354, 289, 233, 327], "actions": ["up", "up", "up", "right", "down"], "actionTimes": [22555, 23422, 24222, 24975, 25792], "queries": {"click": {"state": {"target": ["32", "7", "9", "27", "6"], "time": [4486, 7992, 11663, 15230, 19150]}, "edge": {"target": [], "time": []}}, "mouseover": {"state": {"target": ["31", "32", "4", "7", "4", "9", "27", "29", "27", "10", "6"], "time": [3621, 3970, 5585, 5835, 8714, 8803, 12298, 12708, 13450, 16189, 17065]}, "edge": {"target": [], "time": []}}, "mouseout": {"state": {"target": ["31", "0", "31", "32", "4", "7", "4", "9", "27", "29", "27", "10"], "time": [1119, 1234, 3653, 4691, 5707, 8221, 8759, 11878, 12343, 13066, 15931, 16716]}, "edge": {"target": [], "time": []}}}, "displayed_time": "26.30", "trialTime": 29493, "trial_type": "mouselab-mdp", "trial_index": 44, "time_elapsed": 1752516, "internal_node_id": "0.0-4.0-1.0-35.0"}}, {"uniqueid": "w62316961:a28859837", "current_trial": 45, "dateTime": 1691073312440, "trialdata": {"revealed_states": [], "clicked_states": ["31", "11"], "num_clicks_accrued": [0, 0, 0, 0, 0, 0, 0, 0, 0, 0, 0, 0, 0], "stateRewards": ["", 2, 3, -3, 12, -43, 81, -82, -15, 58, -7, -75, -1, -1, 3, -5, 50, -25, -8, 4, 66, 65, -66, 2, -4, 2, -1, -10, 10, 37, 11, 88, -37, 8], "withholdReward": false, "trial_id": "mdp_trial_37", "block": "test", "trialIndex": 38, "score": 94.7, "costs": -4.3, "simulationMode": [null, null, null, null, null], "rewards": [2, -4, 2, 11, 88], "path": ["0", "0", "23", "24", "25", "30", "31"], "rt": [8728, 394, 411, 363, 494], "actions": ["left", "left", "left", "down", "right"], "actionTimes": [11325, 12250, 13185, 14072, 15084], "queries": {"click": {"state": {"target": ["31", "11"], "time": [4409, 7983]}, "edge": {"target": [], "time": []}}, "mouseover": {"state": {"target": ["23", "24", "31", "24", "11"], "time": [3197, 3258, 3942, 5076, 5530]}, "edge": {"target": [], "time": []}}, "mouseout": {"state": {"target": ["6", "0", "23", "24", "31", "24"], "time": [957, 3175, 3229, 3541, 5048, 5107]}, "edge": {"target": [], "time": []}}}, "displayed_time": "16.60", "trialTime": 19447, "trial_type": "mouselab-mdp", "trial_index": 45, "time_elapsed": 1773194, "internal_node_id": "0.0-4.0-1.0-36.0"}}, {"uniqueid": "w62316961:a28859837", "current_trial": 46, "dateTime": 1691073336457, "trialdata": {"revealed_states": [], "clicked_states": ["22", "18", "5"], "num_clicks_accrued": [0, 0, 0, 0, 0, 0, 0, 0, 0, 0, 0, 0, 0], "stateRewards": ["", 1, -4, -6, 11, -20, 8, -30, 1, -38, 88, 42, 2, 3, 5, -12, -8, -74, 30, -8, 67, -19, 42, 2, -1, 4, 13, 50, -68, 2, -8, -15, 87, -46], "withholdReward": false, "trial_id": "mdp_trial_38", "block": "test", "trialIndex": 39, "score": 37.55, "costs": -6.449999999999999, "simulationMode": [null, null, null, null, null], "rewards": [2, 3, 5, -8, 42], "path": ["0", "0", "12", "13", "14", "19", "22"], "rt": [12997, 374, 315, 339, 443], "actions": ["right", "right", "right", "down", "left"], "actionTimes": [15803, 16683, 17524, 18397, 19377], "queries": {"click": {"state": {"target": ["22", "18", "5"], "time": [4633, 8029, 11567]}, "edge": {"target": [], "time": []}}, "mouseover": {"state": {"target": ["12", "22", "18", "4", "5", "26", "28"], "time": [3721, 4221, 5685, 10096, 10179, 12746, 13413]}, "edge": {"target": [], "time": []}}, "mouseout": {"state": {"target": ["11", "10", "1", "12", "22", "18", "4", "5", "26"], "time": [905, 967, 1289, 3937, 4869, 8506, 10135, 12166, 13230]}, "edge": {"target": [], "time": []}}}, "displayed_time": "19.90", "trialTime": 22707, "trial_type": "mouselab-mdp", "trial_index": 46, "time_elapsed": 1797209, "internal_node_id": "0.0-4.0-1.0-37.0"}}, {"uniqueid": "w62316961:a28859837", "current_trial": 47, "dateTime": 1691073358913, "trialdata": {"revealed_states": [], "clicked_states": ["28", "6", "21"], "num_clicks_accrued": [0, 0, 0, 0, 0, 0, 0, 0, 0, 0, 0, 0, 0], "stateRewards": ["", -1, -4, -1, -11, 43, 69, 39, 4, 17, -20, -82, -2, -1, 4, 8, -79, 24, -79, 11, 36, 64, 41, 2, 4, -1, 11, -79, -47, 75, -3, 63, -36, -19], "withholdReward": false, "trial_id": "mdp_trial_39", "block": "test", "trialIndex": 40, "score": 45.55, "costs": -6.449999999999999, "simulationMode": [null, null, null, null, null], "rewards": [-1, -4, -1, -11, 69], "path": ["0", "0", "1", "2", "3", "4", "6"], "rt": [12445, 217, 308, 314, 399], "actions": ["up", "up", "up", "right", "right"], "actionTimes": [15013, 15748, 16564, 17389, 18313], "queries": {"click": {"state": {"target": ["28", "6", "21"], "time": [3968, 7438, 11317]}, "edge": {"target": [], "time": []}}, "mouseover": {"state": {"target": ["23", "24", "28", "3", "6", "19", "21"], "time": [3159, 3200, 3510, 4695, 5921, 8211, 8775]}, "edge": {"target": [], "time": []}}, "mouseout": {"state": {"target": ["28", "23", "0", "0", "23", "24", "28", "3", "6", "19", "21"], "time": [775, 832, 1132, 3127, 3194, 3227, 4636, 4726, 8015, 8347, 12342]}, "edge": {"target": [], "time": []}}}, "displayed_time": "18.84", "trialTime": 21154, "trial_type": "mouselab-mdp", "trial_index": 47, "time_elapsed": 1819665, "internal_node_id": "0.0-4.0-1.0-38.0"}}, {"uniqueid": "w62316961:a28859837", "current_trial": 48, "dateTime": 1691073385441, "trialdata": {"revealed_states": [], "clicked_states": ["28", "5", "17", "21"], "num_clicks_accrued": [0, 0, 0, 0, 0, 0, 0, 0, 0, 0, 0, 0, 0], "stateRewards": ["", 2, -1, -1, 7, 11, -40, -22, -2, 69, 37, 8, -2, 4, -8, -12, -2, -72, -3, -12, 17, 63, 12, 1, 3, -7, 6, 25, 61, 61, -9, 28, -17, 27], "withholdReward": false, "trial_id": "mdp_trial_40", "block": "test", "trialIndex": 41, "score": 36.4, "costs": -8.6, "simulationMode": [null, null, null, null, null], "rewards": [-2, 4, -8, -12, 63], "path": ["0", "0", "12", "13", "14", "19", "21"], "rt": [17139, 201, 193, 254, 357], "actions": ["right", "right", "right", "down", "down"], "actionTimes": [19476, 20202, 20918, 21705, 22570], "queries": {"click": {"state": {"target": ["28", "5", "17", "21"], "time": [4176, 7658, 11227, 14974]}, "edge": {"target": [], "time": []}}, "mouseover": {"state": {"target": ["23", "24", "28", "10", "3", "5", "15", "17", "21"], "time": [2986, 3136, 3773, 5005, 5064, 5713, 8366, 9194, 12702]}, "edge": {"target": [], "time": []}}, "mouseout": {"state": {"target": ["0", "23", "24", "28", "10", "3", "5", "15", "17"], "time": [1184, 3019, 3569, 5000, 5034, 5396, 8235, 8414, 12010]}, "edge": {"target": [], "time": []}}}, "displayed_time": "23.09", "trialTime": 24991, "trial_type": "mouselab-mdp", "trial_index": 48, "time_elapsed": 1846193, "internal_node_id": "0.0-4.0-1.0-39.0"}}, {"uniqueid": "w62316961:a28859837", "current_trial": 49, "dateTime": 1691073454285, "trialdata": {"rt": 68434, "response": {"Q0": "$-2 to $2", "Q1": "$-16 to $16", "Q2": "$-88 to $88", "Q3": "The cost for clicking on nodes varied between nodes.", "Q4": "Very motivated"}, "question_order": [0, 1, 2, 3, 4], "trial_id": "final_quiz_control", "trial_type": "survey-multi-choice", "trial_index": 49, "time_elapsed": 1915038, "internal_node_id": "0.0-4.0-2.0"}}, {"uniqueid": "w62316961:a28859837", "current_trial": 50, "dateTime": 1691073814613, "trialdata": {"rt": 359741, "response": {"Q0": "I pressed the nodes to see which ones had the highest rewards so that I can go in their direction. ", "Q1": "At first I used the nodes closest to the center then I realised that its best to use the nodes on the outer edge. When I discovered a node with a higher amount I immediately stopped looking for other nodes", "Q2": "It was not difficult at all, the only challenge was uncovering nodes with  high negative balance while getting a negative score while uncovering the nodes"}, "trial_id": "self_report_control", "trial_type": "survey-text", "trial_index": 50, "time_elapsed": 2275367, "internal_node_id": "0.0-4.0-3.0"}}, {"uniqueid": "w62316961:a28859837", "current_trial": 51, "dateTime": 1691073869755, "trialdata": {"rt": 55126, "response": {"Q0": "Strongly agree", "Q1": "Disagree", "Q2": "Agree", "Q3": "Strongly agree", "Q4": "Strongly disagree", "Q5": "Agree", "Q6": "Disagree"}, "question_order": [0, 1, 2, 3, 4, 5, 6], "trial_id": "self_report_2", "trial_type": "survey-multi-choice", "trial_index": 51, "time_elapsed": 2330509, "internal_node_id": "0.0-4.0-4.0"}}, {"uniqueid": "w62316961:a28859837", "current_trial": 52, "dateTime": 1691073906108, "trialdata": {"rt": 36335, "response": {"gender": "female", "age": "27", "colorblind": "0", "effort": "0"}, "trial_type": "survey-html-form", "trial_index": 52, "time_elapsed": 2366862, "internal_node_id": "0.0-4.0-5.0"}}, {"uniqueid": "w62316961:a28859837", "current_trial": 53, "dateTime": 1691074009834, "trialdata": {"rt": 103717, "response": {"Q0": "Everything was easy to understand, the practice round made it easier to play the actual game.", "Q1": "It was my first time participating in this HIT ", "Q2": "The game was fun I would definitely play it again "}, "trial_type": "survey-text", "trial_index": 53, "time_elapsed": 2470588, "internal_node_id": "0.0-4.0-6.0"}}, {"uniqueid": "w62316961:a28859837", "current_trial": 54, "dateTime": 1691074015322, "trialdata": {"rt": 5473, "stimulus": "Press 'Finish HIT' in order to reach the completion code. Once the data has been saved, you will receive the code either in this window or in the original browser window where you started the experiment.\n", "response": 0, "trial_type": "html-button-response", "trial_index": 54, "time_elapsed": 2476076, "internal_node_id": "0.0-5.0"}}, {"uniqueid": "w62316961:a28859837", "current_trial": 55, "dateTime": 1691074016339, "trialdata": {"success": true, "trial_type": "fullscreen", "trial_index": 55, "time_elapsed": 2477092, "internal_node_id": "0.0-6.0"}}], "questiondata": {"params": {"CODE": "C6DMOQA6", "MIN_TIME": 14, "inspectCost": 1, "startTime": "Thu Aug 03 2023 16:05:36 GMT+0200 (South Africa Standard Time)", "bonusRate": 0.002, "variance": "1_2_4_8_44", "branching": "31123"}}, "eventdata": [{"eventtype": "initialized", "value": null, "timestamp": 1691071535911, "interval": 0}, {"eventtype": "window_resize", "value": [1024, 652], "timestamp": 1691071535911, "interval": 0}, {"eventtype": "window_resize", "value": [1024, 652], "timestamp": 1691071536455, "interval": 544}, {"eventtype": "window_resize", "value": [1366, 768], "timestamp": 1691071544311, "interval": 7856}, {"eventtype": "focus", "value": "off", "timestamp": 1691073492507, "interval": 1948196}, {"eventtype": "focus", "value": "on", "timestamp": 1691073492838, "interval": 331}, {"eventtype": "focus", "value": "off", "timestamp": 1691073535053, "interval": 42215}, {"eventtype": "focus", "value": "on", "timestamp": 1691073560570, "interval": 25517}, {"eventtype": "window_resize", "value": [1024, 652], "timestamp": 1691073574996, "interval": 14426}], "useragent": "Mozilla/5.0 (Windows NT 10.0; Win64; x64) AppleWebKit/537.36 (KHTML, like Gecko) Chrome/114.0.0.0 Safari/537.36", "mode": "live", "id": "w62316961:a28859837", "status": "user data saved", "Beginhit": "2023-08-03 14:05:32.954004", "Beginexp": "2023-08-03 14:05:43.94832", "Endhit": "2023-08-03 14:46:57.391128", "psiturkStatus": 3, "browser": "<redacted>", "platform": "windows", "language": "en-ZA"}