{"condition": 1, "counterbalance": 0, "assignmentId": "a24731220", "workerId": "w20898979", "hitId": "h24969562", "currenttrial": 62, "bonus": 0, "data": [{"uniqueid": "w20898979:a24731220", "current_trial": 0, "dateTime": 1691159475922, "trialdata": {"success": true, "trial_type": "fullscreen", "trial_index": 0, "time_elapsed": 6066, "internal_node_id": "0.0-0.0"}}, {"uniqueid": "w20898979:a24731220", "current_trial": 1, "dateTime": 1691159505448, "trialdata": {"view_history": [{"page_index": 0, "viewing_time": 29494}], "rt": 29496, "trial_id": "exp_instructions_misaligned", "trial_type": "instructions", "trial_index": 1, "time_elapsed": 35593, "internal_node_id": "0.0-1.0"}}, {"uniqueid": "w20898979:a24731220", "current_trial": 2, "dateTime": 1691159510174, "trialdata": {"success": true, "trial_type": "fullscreen", "trial_index": 2, "time_elapsed": 40320, "internal_node_id": "0.0-2.0-0.0"}}, {"uniqueid": "w20898979:a24731220", "current_trial": 3, "dateTime": 1691160036681, "trialdata": {"view_history": [{"page_index": 0, "viewing_time": 161706}, {"page_index": 1, "viewing_time": 307611}, {"page_index": 2, "viewing_time": 15430}, {"page_index": 3, "viewing_time": 41750}], "rt": 526498, "trial_id": "mouselab_instructions_1_misaligned", "trial_type": "instructions", "trial_index": 3, "time_elapsed": 566827, "internal_node_id": "0.0-2.0-1.0"}}, {"uniqueid": "w20898979:a24731220", "current_trial": 4, "dateTime": 1691160095379, "trialdata": {"revealed_states": [], "clicked_states": ["23"], "num_clicks_accrued": [0, 0, 0, 0, 0, 0, 0, 0, 0, 0, 0, 0, 0], "stateRewards": ["", 10, -10, 10, -10, 10, 10, -10, 10, -10, -10, -10, 10, -10, 10, 10, -10, 10, 10, 10, -10, -10, 10, 10, -10, -10, -10, -10, -10, 10, 10, 10, 10, -10], "withholdReward": false, "trial_id": "practice_1", "block": "test", "trialIndex": 0, "score": -7, "costs": -0.5, "simulationMode": [null, null, null, null, null], "rewards": [10, -10, -10, 10, -10], "path": ["0", "0", "23", "24", "25", "30", "33"], "rt": [8687, 8988, 6493, 10219, 1949], "actions": ["left", "left", "left", "down", "left"], "actionTimes": [15634, 25142, 32162, 42888, 45350], "queries": {"click": {"state": {"target": ["23"], "time": [12333]}, "edge": {"target": [], "time": []}}, "mouseover": {"state": {"target": ["0", "23", "23", "23", "0", "12", "0"], "time": [10306, 10527, 11480, 11717, 13317, 13553, 14122]}, "edge": {"target": [], "time": []}}, "mouseout": {"state": {"target": ["0", "0", "23", "23", "23", "0", "12", "0", "23", "24", "25", "25", "30", "31"], "time": [8100, 10329, 10847, 11551, 13250, 13383, 14081, 14197, 23532, 33315, 33695, 36197, 39316, 41231]}, "edge": {"target": [], "time": []}}}, "displayed_time": "45.85", "trialTime": 57085, "trial_type": "mouselab-mdp", "trial_index": 4, "time_elapsed": 625523, "internal_node_id": "0.0-2.0-2.0-0.0"}}, {"uniqueid": "w20898979:a24731220", "current_trial": 5, "dateTime": 1691160124550, "trialdata": {"revealed_states": [], "clicked_states": ["23"], "num_clicks_accrued": [0, 0, 0, 0, 0, 0, 0, 0, 0, 0, 0, 0, 0], "stateRewards": ["", -10, 10, 10, 10, 10, -10, -10, -10, -10, 10, -10, 10, 10, 10, 10, -10, -10, -10, -10, 10, 10, -10, -10, -10, 10, -10, -10, -10, 10, -10, -10, -10, -10], "withholdReward": false, "trial_id": "practice_2", "block": "test", "trialIndex": 1, "score": 33, "costs": -0.5, "simulationMode": [null, null, null, null, null], "rewards": [10, 10, 10, 10, -10], "path": ["0", "0", "12", "13", "14", "15", "16"], "rt": [5798, 3321, 686, 1400, 3425], "actions": ["right", "right", "right", "up", "up"], "actionTimes": [9619, 13442, 14624, 16538, 20481], "queries": {"click": {"state": {"target": ["23"], "time": [6003]}, "edge": {"target": [], "time": []}}, "mouseover": {"state": {"target": ["0", "23", "0", "12"], "time": [5168, 5520, 6455, 6605]}, "edge": {"target": [], "time": []}}, "mouseout": {"state": {"target": ["0", "0", "23", "0", "12"], "time": [2893, 5271, 6406, 6538, 25384]}, "edge": {"target": [], "time": []}}}, "displayed_time": "20.99", "trialTime": 28446, "trial_type": "mouselab-mdp", "trial_index": 5, "time_elapsed": 654694, "internal_node_id": "0.0-2.0-2.0-1.0"}}, {"uniqueid": "w20898979:a24731220", "current_trial": 6, "dateTime": 1691160174122, "trialdata": {"view_history": [{"page_index": 0, "viewing_time": 32127}, {"page_index": 1, "viewing_time": 17433}], "rt": 49562, "trial_id": "mouselab_instructions_2_misaligned", "trial_type": "instructions", "trial_index": 6, "time_elapsed": 704268, "internal_node_id": "0.0-2.0-3.0"}}, {"uniqueid": "w20898979:a24731220", "current_trial": 7, "dateTime": 1691160225925, "trialdata": {"rt": 51754, "response": {"Q0": "The cost for clicking on nodes may vary between nodes.", "Q1": "The better I perform the higher my bonus will be.", "Q2": "No, the amount of cash at each node of the web may be different each time.", "Q3": "To get the highest total score.", "Q4": "Only before moving the spider.", "Q5": "10 seconds"}, "question_order": [0, 1, 2, 3, 4, 5], "correct": {"Q0": "The cost for clicking on nodes may vary between nodes.", "Q1": "The better I perform the higher my bonus will be.", "Q2": "No, the amount of cash at each node of the web may be different each time.", "Q3": "To get the highest total score.", "Q4": "Only before moving the spider.", "Q5": "3 seconds"}, "trial_id": "mouselab_quiz_misaligned", "trial_type": "survey-multi-choice", "trial_index": 7, "time_elapsed": 756070, "internal_node_id": "0.0-2.0-4.0"}}, {"uniqueid": "w20898979:a24731220", "current_trial": 8, "dateTime": 1691160242618, "trialdata": {"success": true, "trial_type": "fullscreen", "trial_index": 8, "time_elapsed": 772764, "internal_node_id": "0.0-2.1-0.1"}}, {"uniqueid": "w20898979:a24731220", "current_trial": 9, "dateTime": 1691160456196, "trialdata": {"view_history": [{"page_index": 0, "viewing_time": 108720}, {"page_index": 1, "viewing_time": 65099}, {"page_index": 2, "viewing_time": 19249}, {"page_index": 3, "viewing_time": 20499}], "rt": 213568, "trial_id": "mouselab_instructions_1_misaligned", "trial_type": "instructions", "trial_index": 9, "time_elapsed": 986342, "internal_node_id": "0.0-2.1-1.1"}}, {"uniqueid": "w20898979:a24731220", "current_trial": 10, "dateTime": 1691160474894, "trialdata": {"revealed_states": [], "clicked_states": ["12"], "num_clicks_accrued": [0, 0, 0, 0, 0, 0, 0, 0, 0, 0, 0, 0, 0], "stateRewards": ["", 10, -10, 10, -10, 10, 10, -10, 10, -10, -10, -10, 10, -10, 10, 10, -10, 10, 10, 10, -10, -10, 10, 10, -10, -10, -10, -10, -10, 10, 10, 10, 10, -10], "withholdReward": false, "trial_id": "practice_1", "block": "test", "trialIndex": 2, "score": 13, "costs": -0.5, "simulationMode": [null, null, null, null, null], "rewards": [10, -10, 10, 10, -10], "path": ["0", "0", "1", "2", "3", "8", "11"], "rt": [5706, 1811, 494, 1648, 298], "actions": ["up", "up", "up", "left", "left"], "actionTimes": [8408, 10729, 11727, 13898, 14698], "queries": {"click": {"state": {"target": ["12"], "time": [4800]}, "edge": {"target": [], "time": []}}, "mouseover": {"state": {"target": ["12", "0", "23", "1"], "time": [3946, 5556, 5896, 6339]}, "edge": {"target": [], "time": []}}, "mouseout": {"state": {"target": ["0", "12", "12", "0", "23", "1"], "time": [3747, 4999, 5502, 5717, 6074, 16976]}, "edge": {"target": [], "time": []}}}, "displayed_time": "15.20", "trialTime": 18155, "trial_type": "mouselab-mdp", "trial_index": 10, "time_elapsed": 1005039, "internal_node_id": "0.0-2.1-2.1-0.1"}}, {"uniqueid": "w20898979:a24731220", "current_trial": 11, "dateTime": 1691160494273, "trialdata": {"revealed_states": [], "clicked_states": ["1"], "num_clicks_accrued": [0, 0, 0, 0, 0, 0, 0, 0, 0, 0, 0, 0, 0], "stateRewards": ["", -10, 10, 10, 10, 10, -10, -10, -10, -10, 10, -10, 10, 10, 10, 10, -10, -10, -10, -10, 10, 10, -10, -10, -10, 10, -10, -10, -10, 10, -10, -10, -10, -10], "withholdReward": false, "trial_id": "practice_2", "block": "test", "trialIndex": 3, "score": -27, "costs": -0.5, "simulationMode": [null, null, null, null, null], "rewards": [-10, -10, 10, -10, -10], "path": ["0", "0", "23", "24", "25", "26", "27"], "rt": [5408, 4492, 300, 573, 136], "actions": ["left", "left", "left", "up", "up"], "actionTimes": [7946, 12957, 13782, 14872, 15517], "queries": {"click": {"state": {"target": ["1"], "time": [5688]}, "edge": {"target": [], "time": []}}, "mouseover": {"state": {"target": ["0", "1"], "time": [4585, 5199]}, "edge": {"target": [], "time": []}}, "mouseout": {"state": {"target": ["1", "0", "0", "1", "1", "24", "31"], "time": [1237, 3303, 4794, 6367, 9661, 11014, 17127]}, "edge": {"target": [], "time": []}}}, "displayed_time": "16.03", "trialTime": 18816, "trial_type": "mouselab-mdp", "trial_index": 11, "time_elapsed": 1024418, "internal_node_id": "0.0-2.1-2.1-1.1"}}, {"uniqueid": "w20898979:a24731220", "current_trial": 12, "dateTime": 1691160522723, "trialdata": {"view_history": [{"page_index": 0, "viewing_time": 26279}, {"page_index": 1, "viewing_time": 2149}], "rt": 28429, "trial_id": "mouselab_instructions_2_misaligned", "trial_type": "instructions", "trial_index": 12, "time_elapsed": 1052869, "internal_node_id": "0.0-2.1-3.1"}}, {"uniqueid": "w20898979:a24731220", "current_trial": 13, "dateTime": 1691160849080, "trialdata": {"rt": 326342, "response": {"Q0": "The cost for clicking on nodes may vary between nodes.", "Q1": "The better I perform the higher my bonus will be.", "Q2": "No, the amount of cash at each node of the web may be different each time.", "Q3": "To get the highest total score.", "Q4": "Only before moving the spider.", "Q5": "3 seconds"}, "question_order": [0, 1, 2, 3, 4, 5], "correct": {"Q0": "The cost for clicking on nodes may vary between nodes.", "Q1": "The better I perform the higher my bonus will be.", "Q2": "No, the amount of cash at each node of the web may be different each time.", "Q3": "To get the highest total score.", "Q4": "Only before moving the spider.", "Q5": "3 seconds"}, "trial_id": "mouselab_quiz_misaligned", "trial_type": "survey-multi-choice", "trial_index": 13, "time_elapsed": 1379226, "internal_node_id": "0.0-2.1-4.1"}}, {"uniqueid": "w20898979:a24731220", "current_trial": 14, "dateTime": 1691160919279, "trialdata": {"rt": 70158, "stimulus": "\n<h1> Get ready to start the game! </h1>\n\nThank you for reading the instructions. Get ready start with the 40 rounds of this game.\n<br><br>\nIf you need to take a break, feel free to take one after the end of a round, before continuing to the next one.\n<br><br>\nRemember, the more money the spider gets, the bigger your bonus will be!\n<br><br>\n<div style='text-align: center;'>Press <code>space</code> to begin.</div>\n\n<br><br>\n(If, at any point, the <code>space</code> key does not take you to the next page, click once on the text and try again.)", "response": " ", "trial_id": "mdp_ready", "trial_type": "html-keyboard-response", "trial_index": 14, "time_elapsed": 1449424, "internal_node_id": "0.0-4.0-0.0"}}, {"uniqueid": "w20898979:a24731220", "current_trial": 15, "dateTime": 1691160947402, "trialdata": {"revealed_states": [], "clicked_states": ["12"], "num_clicks_accrued": [0, 0, 0, 0, 0, 0, 0, 0, 0, 0, 0, 0, 0], "stateRewards": ["", -2, -4, -8, 8, 63, -50, -19, -7, -17, -31, 31, 1, 3, -5, 12, -35, -63, -29, -4, -17, -75, -79, -2, -3, -2, 8, -3, -85, 10, -2, -82, -82, 56], "withholdReward": false, "trial_id": "mdp_trial_1", "block": "test", "trialIndex": 4, "score": -23.75, "costs": 0.25, "simulationMode": [null, null, null, null, null], "rewards": [1, 3, -5, 12, -35], "path": ["0", "0", "12", "13", "14", "15", "16"], "rt": [3720, 1077, 926, 4719, 721], "actions": ["right", "right", "right", "up", "up"], "actionTimes": [11066, 12646, 14095, 19338, 20574], "queries": {"click": {"state": {"target": ["12"], "time": [9451]}, "edge": {"target": [], "time": []}}, "mouseover": {"state": {"target": ["0", "12"], "time": [7502, 9048]}, "edge": {"target": [], "time": []}}, "mouseout": {"state": {"target": ["23", "0", "0", "12"], "time": [3698, 6685, 7766, 9952]}, "edge": {"target": [], "time": []}}}, "displayed_time": "21.35", "trialTime": 27496, "trial_type": "mouselab-mdp", "trial_index": 15, "time_elapsed": 1477546, "internal_node_id": "0.0-4.0-1.0-0.0"}}, {"uniqueid": "w20898979:a24731220", "current_trial": 16, "dateTime": 1691160971102, "trialdata": {"revealed_states": [], "clicked_states": ["27"], "num_clicks_accrued": [0, 0, 0, 0, 0, 0, 0, 0, 0, 0, 0, 0, 0], "stateRewards": ["", 1, -2, -2, 10, -31, -77, 35, 9, -47, 8, 48, -2, 1, -4, -3, -26, -50, 43, -11, 76, -38, 17, 1, -1, 6, 10, 15, -9, 12, -8, 85, 11, -55], "withholdReward": false, "trial_id": "mdp_trial_2", "block": "test", "trialIndex": 5, "score": 28.85, "costs": -2.15, "simulationMode": [null, null, null, null, null], "rewards": [1, -1, 6, 10, 15], "path": ["0", "0", "23", "24", "25", "26", "27"], "rt": [7051, 1838, 477, 759, 531], "actions": ["left", "left", "left", "up", "up"], "actionTimes": [9218, 11595, 12598, 13881, 14936], "queries": {"click": {"state": {"target": ["27"], "time": [3362]}, "edge": {"target": [], "time": []}}, "mouseover": {"state": {"target": ["28", "27", "28", "28"], "time": [2674, 2851, 4089, 4821]}, "edge": {"target": [], "time": []}}, "mouseout": {"state": {"target": ["28", "27", "27", "28", "28", "24"], "time": [2711, 3560, 3989, 4301, 10236, 19573]}, "edge": {"target": [], "time": []}}}, "displayed_time": "16.17", "trialTime": 22917, "trial_type": "mouselab-mdp", "trial_index": 16, "time_elapsed": 1501246, "internal_node_id": "0.0-4.0-1.0-1.0"}}, {"uniqueid": "w20898979:a24731220", "current_trial": 17, "dateTime": 1691161000737, "trialdata": {"revealed_states": [], "clicked_states": ["31", "33"], "num_clicks_accrued": [0, 0, 0, 0, 0, 0, 0, 0, 0, 0, 0, 0, 0], "stateRewards": ["", -2, 4, -3, -13, 63, -36, 62, 11, 78, 34, -51, 2, -2, 8, -6, -40, -18, 31, 9, 64, 39, 79, 1, 4, -4, 15, -12, 76, 73, -10, -77, 86, -4], "withholdReward": false, "trial_id": "mdp_trial_3", "block": "test", "trialIndex": 6, "score": -20.3, "costs": -4.3, "simulationMode": [null, null, null, null, null], "rewards": [2, -2, 8, -6, -18], "path": ["0", "0", "12", "13", "14", "15", "17"], "rt": [16884, 1029, 507, 837, 903], "actions": ["right", "right", "right", "up", "right"], "actionTimes": [20235, 21771, 22780, 24129, 25542], "queries": {"click": {"state": {"target": ["31", "33"], "time": [5714, 9389]}, "edge": {"target": [], "time": []}}, "mouseover": {"state": {"target": ["23", "31", "30", "31", "30", "33", "30", "31", "25"], "time": [3959, 4159, 4859, 5125, 6441, 6706, 10272, 12318, 12619]}, "edge": {"target": [], "time": []}}, "mouseout": {"state": {"target": ["0", "23", "31", "30", "31", "30", "33", "30", "31", "31", "25"], "time": [3943, 3977, 4309, 4957, 6342, 6540, 10105, 10938, 11499, 12352, 13918]}, "edge": {"target": [], "time": []}}}, "displayed_time": "26.04", "trialTime": 28861, "trial_type": "mouselab-mdp", "trial_index": 17, "time_elapsed": 1530882, "internal_node_id": "0.0-4.0-1.0-2.0"}}, {"uniqueid": "w20898979:a24731220", "current_trial": 18, "dateTime": 1691161020066, "trialdata": {"revealed_states": [], "clicked_states": [], "num_clicks_accrued": [0, 0, 0, 0, 0, 0, 0, 0, 0, 0, 0, 0, 0], "stateRewards": ["", 2, -3, 5, 11, -79, 54, 11, -9, -78, 33, 22, -2, -1, 2, 14, 43, 34, 1, 10, 49, -65, 39, -1, 1, -1, 3, -16, -2, 11, 2, 12, 48, -65], "withholdReward": false, "trial_id": "mdp_trial_4", "block": "test", "trialIndex": 7, "score": -83, "costs": 0, "simulationMode": [null, null, null, null, null], "rewards": [2, -3, 5, -9, -78], "path": ["0", "0", "1", "2", "3", "8", "9"], "rt": [2320, 689, 517, 2926, 597], "actions": ["up", "up", "up", "left", "up"], "actionTimes": [4356, 5563, 6625, 10047, 11169], "queries": {"click": {"state": {"target": [], "time": []}, "edge": {"target": [], "time": []}}, "mouseover": {"state": {"target": ["1"], "time": [3368]}, "edge": {"target": [], "time": []}}, "mouseout": {"state": {"target": ["23", "0", "1", "0"], "time": [984, 3225, 13568, 14061]}, "edge": {"target": [], "time": []}}}, "displayed_time": "16.04", "trialTime": 18560, "trial_type": "mouselab-mdp", "trial_index": 18, "time_elapsed": 1550211, "internal_node_id": "0.0-4.0-1.0-3.0"}}, {"uniqueid": "w20898979:a24731220", "current_trial": 19, "dateTime": 1691161047670, "trialdata": {"revealed_states": [], "clicked_states": ["23"], "num_clicks_accrued": [0, 0, 0, 0, 0, 0, 0, 0, 0, 0, 0, 0, 0], "stateRewards": ["", -2, -1, -1, 5, -54, -87, 35, 2, -8, 20, -22, 1, 3, 6, 13, -75, -32, -55, -3, 56, 62, -22, -1, -4, -1, -7, -51, 84, 70, 7, -15, 5, 55], "withholdReward": false, "trial_id": "mdp_trial_5", "block": "test", "trialIndex": 8, "score": 57.25, "costs": 0.25, "simulationMode": [null, null, null, null, null], "rewards": [-1, -4, -1, -7, 70], "path": ["0", "0", "23", "24", "25", "26", "29"], "rt": [2807, 1377, 1658, 1079, 663], "actions": ["left", "left", "left", "up", "left"], "actionTimes": [6192, 8103, 10283, 11871, 13058], "queries": {"click": {"state": {"target": ["23"], "time": [5297]}, "edge": {"target": [], "time": []}}, "mouseover": {"state": {"target": ["23"], "time": [4873]}, "edge": {"target": [], "time": []}}, "mouseout": {"state": {"target": ["0", "23", "23"], "time": [4255, 5491, 5701]}, "edge": {"target": [], "time": []}}}, "displayed_time": "17.39", "trialTime": 26914, "trial_type": "mouselab-mdp", "trial_index": 19, "time_elapsed": 1577814, "internal_node_id": "0.0-4.0-1.0-4.0"}}, {"uniqueid": "w20898979:a24731220", "current_trial": 20, "dateTime": 1691161077215, "trialdata": {"revealed_states": [], "clicked_states": ["18"], "num_clicks_accrued": [0, 0, 0, 0, 0, 0, 0, 0, 0, 0, 0, 0, 0], "stateRewards": ["", -2, -1, -5, 10, -36, -70, 68, -9, 86, 71, -10, 2, -4, 7, -7, 66, 44, -66, -13, -69, 43, 15, -2, 2, 6, -13, 62, 57, 50, -10, -69, 42, -72], "withholdReward": false, "trial_id": "mdp_trial_6", "block": "test", "trialIndex": 9, "score": 47.85, "costs": -2.15, "simulationMode": [null, null, null, null, null, null], "rewards": [-2, 2, 6, -13, 57], "path": ["0", "0", "23", "24", "25", "26", "28"], "rt": [3359, 1177, 1404, 1296, 1597, 2170], "actions": ["left", "left", "left", "left", "up", "right"], "actionTimes": [5952, 7140, 9053, 10863, 12979, 15669], "queries": {"click": {"state": {"target": ["18"], "time": [4061]}, "edge": {"target": [], "time": []}}, "mouseover": {"state": {"target": ["18", "18"], "time": [3212, 3612]}, "edge": {"target": [], "time": []}}, "mouseout": {"state": {"target": ["0", "18", "18", "15", "14", "22"], "time": [1176, 3311, 18771, 18846, 22928, 23011]}, "edge": {"target": [], "time": []}}}, "displayed_time": "16.60", "trialTime": 28782, "trial_type": "mouselab-mdp", "trial_index": 20, "time_elapsed": 1607359, "internal_node_id": "0.0-4.0-1.0-5.0"}}, {"uniqueid": "w20898979:a24731220", "current_trial": 21, "dateTime": 1691161096850, "trialdata": {"revealed_states": [], "clicked_states": ["2"], "num_clicks_accrued": [0, 0, 0, 0, 0, 0, 0, 0, 0, 0, 0, 0, 0], "stateRewards": ["", 1, 1, 7, -11, 80, -20, -53, -14, 3, 31, 27, 2, -1, -8, -10, 33, 41, 86, 9, 78, -37, -13, -1, -2, -6, -8, -80, 75, 4, -16, -49, -74, 24], "withholdReward": false, "trial_id": "mdp_trial_7", "block": "test", "trialIndex": 10, "score": -22.35, "costs": -0.35, "simulationMode": [null, null, null, null, null], "rewards": [1, 1, 7, -11, -20], "path": ["0", "0", "1", "2", "3", "4", "6"], "rt": [3785, 1101, 523, 2416, 511], "actions": ["up", "up", "up", "right", "right"], "actionTimes": [5807, 7412, 8452, 11393, 12421], "queries": {"click": {"state": {"target": ["2"], "time": [4501]}, "edge": {"target": [], "time": []}}, "mouseover": {"state": {"target": ["1", "2", "1"], "time": [3624, 4191, 5097]}, "edge": {"target": [], "time": []}}, "mouseout": {"state": {"target": ["0", "1", "2", "1", "0"], "time": [1188, 3957, 4962, 17158, 17274]}, "edge": {"target": [], "time": []}}}, "displayed_time": "16.02", "trialTime": 18814, "trial_type": "mouselab-mdp", "trial_index": 21, "time_elapsed": 1626993, "internal_node_id": "0.0-4.0-1.0-6.0"}}, {"uniqueid": "w20898979:a24731220", "current_trial": 22, "dateTime": 1691161137394, "trialdata": {"revealed_states": [], "clicked_states": ["23"], "num_clicks_accrued": [0, 0, 0, 0, 0, 0, 0, 0, 0, 0, 0, 0, 0], "stateRewards": ["", -2, -3, -5, 8, 27, 11, 43, -6, -24, -87, 69, -2, 1, 1, 9, 19, 48, -37, 9, -14, 45, 62, 1, 2, 1, 16, -81, -41, 22, 4, -6, -63, 47], "withholdReward": false, "trial_id": "mdp_trial_8", "block": "test", "trialIndex": 11, "score": -20.75, "costs": 0.25, "simulationMode": [null, null, null, null, null], "rewards": [1, 2, 1, 16, -41], "path": ["0", "0", "23", "24", "25", "26", "28"], "rt": [2366, 825, 750, 852, 149], "actions": ["left", "left", "left", "up", "right"], "actionTimes": [6010, 7370, 8626, 9995, 10659], "queries": {"click": {"state": {"target": ["23"], "time": [5236]}, "edge": {"target": [], "time": []}}, "mouseover": {"state": {"target": ["0", "23"], "time": [4539, 4674]}, "edge": {"target": [], "time": []}}, "mouseout": {"state": {"target": ["0", "0", "23"], "time": [2732, 4576, 11840]}, "edge": {"target": [], "time": []}}}, "displayed_time": "17.65", "trialTime": 39674, "trial_type": "mouselab-mdp", "trial_index": 22, "time_elapsed": 1667538, "internal_node_id": "0.0-4.0-1.0-7.0"}}, {"uniqueid": "w20898979:a24731220", "current_trial": 23, "dateTime": 1691161155815, "trialdata": {"revealed_states": [], "clicked_states": ["21"], "num_clicks_accrued": [0, 0, 0, 0, 0, 0, 0, 0, 0, 0, 0, 0, 0], "stateRewards": ["", 1, 2, -8, 9, 18, -83, -11, 6, -64, -48, 17, -2, -2, -5, -3, -24, -3, -86, -2, 48, -41, -22, -2, 4, 7, 8, 81, 13, -48, 10, 61, 19, 57], "withholdReward": false, "trial_id": "mdp_trial_9", "block": "test", "trialIndex": 12, "score": -17.15, "costs": -2.15, "simulationMode": [null, null, null, null, null], "rewards": [-2, -2, -5, -3, -3], "path": ["0", "0", "12", "13", "14", "15", "17"], "rt": [7074, 542, 672, 1142, 232], "actions": ["right", "right", "right", "up", "right"], "actionTimes": [8571, 9626, 10822, 12507, 13264], "queries": {"click": {"state": {"target": ["21"], "time": [3042]}, "edge": {"target": [], "time": []}}, "mouseover": {"state": {"target": ["13", "19", "21", "19", "22"], "time": [2139, 2212, 2447, 4616, 4948]}, "edge": {"target": [], "time": []}}, "mouseout": {"state": {"target": ["0", "13", "19", "21", "19", "22"], "time": [2100, 2158, 2345, 3819, 4732, 6259]}, "edge": {"target": [], "time": []}}}, "displayed_time": "15.50", "trialTime": 17521, "trial_type": "mouselab-mdp", "trial_index": 23, "time_elapsed": 1685959, "internal_node_id": "0.0-4.0-1.0-8.0"}}, {"uniqueid": "w20898979:a24731220", "current_trial": 24, "dateTime": 1691161177538, "trialdata": {"revealed_states": [], "clicked_states": [], "num_clicks_accrued": [0, 0, 0, 0, 0, 0, 0, 0, 0, 0, 0, 0, 0], "stateRewards": ["", -2, -4, -2, 10, -8, -15, -47, 7, -84, 53, 5, -1, 2, -7, 3, 83, 31, 47, -1, 30, -8, 69, 2, -4, -1, 8, -7, 12, -8, -8, -13, 30, -84], "withholdReward": false, "trial_id": "mdp_trial_10", "block": "test", "trialIndex": 13, "score": 4, "costs": 0, "simulationMode": [null, null, null, null, null], "rewards": [-2, -4, -2, 7, 5], "path": ["0", "0", "1", "2", "3", "8", "11"], "rt": [3320, 327, 139, 573, 65], "actions": ["up", "up", "up", "left", "left"], "actionTimes": [5154, 5998, 6659, 7749, 8335], "queries": {"click": {"state": {"target": [], "time": []}, "edge": {"target": [], "time": []}}, "mouseover": {"state": {"target": ["1", "1"], "time": [2609, 3924]}, "edge": {"target": [], "time": []}}, "mouseout": {"state": {"target": ["0", "1"], "time": [2400, 2866]}, "edge": {"target": [], "time": []}}}, "displayed_time": "15.84", "trialTime": 20813, "trial_type": "mouselab-mdp", "trial_index": 24, "time_elapsed": 1707682, "internal_node_id": "0.0-4.0-1.0-9.0"}}, {"uniqueid": "w20898979:a24731220", "current_trial": 25, "dateTime": 1691161198921, "trialdata": {"revealed_states": [], "clicked_states": ["1"], "num_clicks_accrued": [0, 0, 0, 0, 0, 0, 0, 0, 0, 0, 0, 0, 0], "stateRewards": ["", 2, -1, 5, 8, 75, -35, -77, 1, -9, -81, -58, 1, 2, -7, 5, 77, -16, 19, 16, -10, -18, 40, -2, 3, 7, -5, 64, 1, -62, 10, 27, 10, 65], "withholdReward": false, "trial_id": "mdp_trial_11", "block": "test", "trialIndex": 14, "score": 89.25, "costs": 0.25, "simulationMode": [null, null, null, null, null], "rewards": [2, -1, 5, 8, 75], "path": ["0", "0", "1", "2", "3", "4", "5"], "rt": [2085, 233, 139, 644, 164], "actions": ["up", "up", "up", "right", "up"], "actionTimes": [3785, 4544, 5198, 6368, 7056], "queries": {"click": {"state": {"target": ["1"], "time": [2869]}, "edge": {"target": [], "time": []}}, "mouseover": {"state": {"target": ["1"], "time": [2371]}, "edge": {"target": [], "time": []}}, "mouseout": {"state": {"target": ["1", "0", "1"], "time": [731, 2140, 8612]}, "edge": {"target": [], "time": []}}}, "displayed_time": "15.71", "trialTime": 20567, "trial_type": "mouselab-mdp", "trial_index": 25, "time_elapsed": 1729065, "internal_node_id": "0.0-4.0-1.0-10.0"}}, {"uniqueid": "w20898979:a24731220", "current_trial": 26, "dateTime": 1691161221642, "trialdata": {"revealed_states": [], "clicked_states": ["12"], "num_clicks_accrued": [0, 0, 0, 0, 0, 0, 0, 0, 0, 0, 0, 0, 0], "stateRewards": ["", -1, -3, 1, 13, -64, -29, 12, -4, -33, 50, 56, 2, -3, 4, 11, -64, -58, -55, 12, 47, 38, -25, -2, 2, 5, -15, 85, 7, 84, 10, 8, 57, 26], "withholdReward": false, "trial_id": "mdp_trial_12", "block": "test", "trialIndex": 15, "score": 62.25, "costs": 0.25, "simulationMode": [null, null, null, null, null], "rewards": [2, -3, 4, 12, 47], "path": ["0", "0", "12", "13", "14", "19", "20"], "rt": [2253, 262, 329, 514, 210], "actions": ["right", "right", "right", "down", "right"], "actionTimes": [4546, 5331, 6199, 7282, 7996], "queries": {"click": {"state": {"target": ["12"], "time": [3463]}, "edge": {"target": [], "time": []}}, "mouseover": {"state": {"target": ["12"], "time": [3169]}, "edge": {"target": [], "time": []}}, "mouseout": {"state": {"target": ["1", "12"], "time": [933, 10227]}, "edge": {"target": [], "time": []}}}, "displayed_time": "16.30", "trialTime": 21864, "trial_type": "mouselab-mdp", "trial_index": 26, "time_elapsed": 1751785, "internal_node_id": "0.0-4.0-1.0-11.0"}}, {"uniqueid": "w20898979:a24731220", "current_trial": 27, "dateTime": 1691161251124, "trialdata": {"revealed_states": [], "clicked_states": ["1"], "num_clicks_accrued": [0, 0, 0, 0, 0, 0, 0, 0, 0, 0, 0, 0, 0], "stateRewards": ["", -2, -3, 1, -7, 39, -67, 16, 5, -20, 73, 66, -1, 4, 5, -3, 23, -68, -87, -8, 3, -3, 17, 1, -4, -2, -13, -32, 34, 61, -5, -11, -18, 12], "withholdReward": false, "trial_id": "mdp_trial_13", "block": "test", "trialIndex": 16, "score": -18.75, "costs": 0.25, "simulationMode": [null, null, null, null, null], "rewards": [-2, -3, 1, 5, -20], "path": ["0", "0", "1", "2", "3", "8", "9"], "rt": [2044, 128, 319, 436, 508], "actions": ["up", "up", "up", "left", "up"], "actionTimes": [4190, 4856, 5696, 6631, 7655], "queries": {"click": {"state": {"target": ["1"], "time": [3114]}, "edge": {"target": [], "time": []}}, "mouseover": {"state": {"target": ["1"], "time": [2772]}, "edge": {"target": [], "time": []}}, "mouseout": {"state": {"target": ["12", "1"], "time": [810, 9138]}, "edge": {"target": [], "time": []}}}, "displayed_time": "16.15", "trialTime": 28426, "trial_type": "mouselab-mdp", "trial_index": 27, "time_elapsed": 1781268, "internal_node_id": "0.0-4.0-1.0-12.0"}}, {"uniqueid": "w20898979:a24731220", "current_trial": 28, "dateTime": 1691161271720, "trialdata": {"revealed_states": [], "clicked_states": ["23"], "num_clicks_accrued": [0, 0, 0, 0, 0, 0, 0, 0, 0, 0, 0, 0, 0], "stateRewards": ["", 1, -2, 4, 7, -43, -83, -60, -5, -86, -80, 83, -1, -2, 6, 11, -15, 21, 13, 9, 29, -49, 11, -1, 4, -6, -11, 87, 40, 63, -8, -39, -11, 62], "withholdReward": false, "trial_id": "mdp_trial_14", "block": "test", "trialIndex": 17, "score": 51.25, "costs": 0.25, "simulationMode": [null, null, null, null, null], "rewards": [-1, 4, -6, -8, 62], "path": ["0", "0", "23", "24", "25", "30", "33"], "rt": [1788, 100, 125, 346, 47], "actions": ["left", "left", "left", "down", "left"], "actionTimes": [4652, 5285, 5923, 6794, 7397], "queries": {"click": {"state": {"target": ["23"], "time": [3860]}, "edge": {"target": [], "time": []}}, "mouseover": {"state": {"target": ["23"], "time": [3484]}, "edge": {"target": [], "time": []}}, "mouseout": {"state": {"target": ["1", "0", "23"], "time": [1325, 3428, 8378]}, "edge": {"target": [], "time": []}}}, "displayed_time": "16.87", "trialTime": 19462, "trial_type": "mouselab-mdp", "trial_index": 28, "time_elapsed": 1801864, "internal_node_id": "0.0-4.0-1.0-13.0"}}, {"uniqueid": "w20898979:a24731220", "current_trial": 29, "dateTime": 1691161325365, "trialdata": {"revealed_states": [], "clicked_states": ["23"], "num_clicks_accrued": [0, 0, 0, 0, 0, 0, 0, 0, 0, 0, 0, 0, 0], "stateRewards": ["", -2, -4, 6, 14, -34, 49, 36, -8, -3, 32, -4, 1, -2, 1, -8, -20, -71, -57, -7, -86, -62, -16, -2, -3, -5, 11, 23, -21, 53, 5, -5, 85, 73], "withholdReward": false, "trial_id": "mdp_trial_15", "block": "test", "trialIndex": 18, "score": 54.25, "costs": 0.25, "simulationMode": [null, null, null, null, null], "rewards": [-2, -3, -5, 11, 53], "path": ["0", "0", "23", "24", "25", "26", "29"], "rt": [2332, 826, 155, 388, 94], "actions": ["left", "left", "left", "up", "left"], "actionTimes": [36335, 37697, 38374, 39276, 39880], "queries": {"click": {"state": {"target": ["23"], "time": [35680]}, "edge": {"target": [], "time": []}}, "mouseover": {"state": {"target": ["0", "23"], "time": [34746, 35311]}, "edge": {"target": [], "time": []}}, "mouseout": {"state": {"target": ["0", "0", "0", "0", "0", "0", "0", "0", "23"], "time": [4076, 6850, 9449, 12423, 13468, 15545, 34129, 34798, 42694]}, "edge": {"target": [], "time": []}}}, "displayed_time": "48.02", "trialTime": 52475, "trial_type": "mouselab-mdp", "trial_index": 29, "time_elapsed": 1855509, "internal_node_id": "0.0-4.0-1.0-14.0"}}, {"uniqueid": "w20898979:a24731220", "current_trial": 30, "dateTime": 1691161344977, "trialdata": {"revealed_states": [], "clicked_states": ["1"], "num_clicks_accrued": [0, 0, 0, 0, 0, 0, 0, 0, 0, 0, 0, 0, 0], "stateRewards": ["", -1, 3, 8, 10, -86, 61, -36, 10, 17, -60, 24, -1, -3, 3, 11, 50, 60, 33, -3, -20, 58, -6, 1, -4, -4, 13, -70, -71, 43, 14, 52, 82, -11], "withholdReward": false, "trial_id": "mdp_trial_16", "block": "test", "trialIndex": 19, "score": 81.25, "costs": 0.25, "simulationMode": [null, null, null, null, null], "rewards": [-1, 3, 8, 10, 61], "path": ["0", "0", "1", "2", "3", "4", "6"], "rt": [1868, 37, 10, 694, 682], "actions": ["up", "up", "up", "right", "right"], "actionTimes": [4302, 4871, 5393, 6628, 7820], "queries": {"click": {"state": {"target": ["1"], "time": [3416]}, "edge": {"target": [], "time": []}}, "mouseover": {"state": {"target": ["1"], "time": [2977]}, "edge": {"target": [], "time": []}}, "mouseout": {"state": {"target": ["23", "0", "1"], "time": [1130, 2520, 8797]}, "edge": {"target": [], "time": []}}}, "displayed_time": "16.44", "trialTime": 18460, "trial_type": "mouselab-mdp", "trial_index": 30, "time_elapsed": 1875123, "internal_node_id": "0.0-4.0-1.0-15.0"}}, {"uniqueid": "w20898979:a24731220", "current_trial": 31, "dateTime": 1691161366209, "trialdata": {"revealed_states": [], "clicked_states": ["12"], "num_clicks_accrued": [0, 0, 0, 0, 0, 0, 0, 0, 0, 0, 0, 0, 0], "stateRewards": ["", -2, 3, -1, 2, -72, 63, 20, -1, 62, -66, 39, -2, 3, -6, 14, 22, 47, 1, 8, -49, -1, -41, 2, 2, -6, -16, -64, -60, -34, 16, 54, 22, -7], "withholdReward": false, "trial_id": "mdp_trial_17", "block": "test", "trialIndex": 20, "score": -45.75, "costs": 0.25, "simulationMode": [null, null, null, null, null], "rewards": [-2, 3, -6, 8, -49], "path": ["0", "0", "12", "13", "14", "19", "20"], "rt": [4089, 202, 82, 453, 135], "actions": ["right", "right", "right", "down", "right"], "actionTimes": [5809, 6511, 7089, 8044, 8676], "queries": {"click": {"state": {"target": ["12"], "time": [2892]}, "edge": {"target": [], "time": []}}, "mouseover": {"state": {"target": ["12"], "time": [2285]}, "edge": {"target": [], "time": []}}, "mouseout": {"state": {"target": ["1", "12"], "time": [168, 9802]}, "edge": {"target": [], "time": []}}}, "displayed_time": "15.72", "trialTime": 20004, "trial_type": "mouselab-mdp", "trial_index": 31, "time_elapsed": 1896348, "internal_node_id": "0.0-4.0-1.0-16.0"}}, {"uniqueid": "w20898979:a24731220", "current_trial": 32, "dateTime": 1691161385583, "trialdata": {"revealed_states": [], "clicked_states": ["23"], "num_clicks_accrued": [0, 0, 0, 0, 0, 0, 0, 0, 0, 0, 0, 0, 0], "stateRewards": ["", -1, 1, 8, -8, -49, 62, -78, 16, 28, -81, 78, -2, -3, -1, -4, 67, 49, -2, -13, -16, -39, 83, 1, -4, 4, -5, -20, 7, 84, 7, -32, -59, 19], "withholdReward": false, "trial_id": "mdp_trial_18", "block": "test", "trialIndex": 21, "score": 80.25, "costs": 0.25, "simulationMode": [null, null, null, null, null], "rewards": [1, -4, 4, -5, 84], "path": ["0", "0", "23", "24", "25", "26", "29"], "rt": [2045, 112, 352, 236, 101], "actions": ["left", "left", "left", "up", "left"], "actionTimes": [4110, 4749, 5605, 6357, 6956], "queries": {"click": {"state": {"target": ["23"], "time": [3045]}, "edge": {"target": [], "time": []}}, "mouseover": {"state": {"target": ["23"], "time": [2682]}, "edge": {"target": [], "time": []}}, "mouseout": {"state": {"target": ["12", "23"], "time": [831, 3247]}, "edge": {"target": [], "time": []}}}, "displayed_time": "16.07", "trialTime": 18148, "trial_type": "mouselab-mdp", "trial_index": 32, "time_elapsed": 1915728, "internal_node_id": "0.0-4.0-1.0-17.0"}}, {"uniqueid": "w20898979:a24731220", "current_trial": 33, "dateTime": 1691161405364, "trialdata": {"revealed_states": [], "clicked_states": ["23"], "num_clicks_accrued": [0, 0, 0, 0, 0, 0, 0, 0, 0, 0, 0, 0, 0], "stateRewards": ["", -1, -3, -3, 1, -38, 2, -53, -2, -1, -81, 70, -1, 1, -5, -9, 46, 15, 35, -1, -22, 38, 59, -2, 4, -8, 13, 1, -83, -43, 4, 76, 13, 48], "withholdReward": false, "trial_id": "mdp_trial_19", "block": "test", "trialIndex": 22, "score": -35.75, "costs": 0.25, "simulationMode": [null, null, null, null, null], "rewards": [-2, 4, -8, 13, -43], "path": ["0", "0", "23", "24", "25", "26", "29"], "rt": [2168, 103, 162, 265, 788], "actions": ["left", "left", "left", "up", "left"], "actionTimes": [5106, 5729, 6388, 7157, 8479], "queries": {"click": {"state": {"target": ["23"], "time": [4099]}, "edge": {"target": [], "time": []}}, "mouseover": {"state": {"target": ["23"], "time": [3737]}, "edge": {"target": [], "time": []}}, "mouseout": {"state": {"target": ["23", "0", "23", "12"], "time": [1269, 3639, 9633, 10071]}, "edge": {"target": [], "time": []}}}, "displayed_time": "16.95", "trialTime": 18568, "trial_type": "mouselab-mdp", "trial_index": 33, "time_elapsed": 1935509, "internal_node_id": "0.0-4.0-1.0-18.0"}}, {"uniqueid": "w20898979:a24731220", "current_trial": 34, "dateTime": 1691161425778, "trialdata": {"revealed_states": [], "clicked_states": [], "num_clicks_accrued": [0, 0, 0, 0, 0, 0, 0, 0, 0, 0, 0, 0, 0], "stateRewards": ["", 2, 3, 3, 10, 19, -21, 6, 9, 54, 68, 16, 2, 2, -6, -8, 40, -2, -75, -2, -42, 55, 59, -1, 2, 4, -14, 11, -34, -30, -6, 61, -53, 13], "withholdReward": false, "trial_id": "mdp_trial_20", "block": "test", "trialIndex": 23, "score": 71, "costs": 0, "simulationMode": [null, null, null, null, null], "rewards": [2, 3, 3, 9, 54], "path": ["0", "0", "1", "2", "3", "8", "9"], "rt": [1597, 82, 75, 345, 572], "actions": ["up", "up", "up", "left", "up"], "actionTimes": [4369, 4965, 5555, 6410, 7487], "queries": {"click": {"state": {"target": [], "time": []}, "edge": {"target": [], "time": []}}, "mouseover": {"state": {"target": [], "time": []}, "edge": {"target": [], "time": []}}, "mouseout": {"state": {"target": ["0", "0", "0", "12"], "time": [1087, 8144, 8745, 8910]}, "edge": {"target": [], "time": []}}}, "displayed_time": "16.78", "trialTime": 19191, "trial_type": "mouselab-mdp", "trial_index": 34, "time_elapsed": 1955923, "internal_node_id": "0.0-4.0-1.0-19.0"}}, {"uniqueid": "w20898979:a24731220", "current_trial": 35, "dateTime": 1691161445429, "trialdata": {"revealed_states": [], "clicked_states": ["12"], "num_clicks_accrued": [0, 0, 0, 0, 0, 0, 0, 0, 0, 0, 0, 0, 0], "stateRewards": ["", -2, -3, -3, 9, 79, 67, 22, -15, -56, 27, -85, -2, 4, -4, -15, -20, -32, 60, 15, 71, 57, 17, 1, 2, -8, 15, -37, -81, 82, 15, 21, -3, 2], "withholdReward": false, "trial_id": "mdp_trial_21", "block": "test", "trialIndex": 24, "score": -36.75, "costs": 0.25, "simulationMode": [null, null, null, null, null], "rewards": [-2, 4, -4, -15, -20], "path": ["0", "0", "12", "13", "14", "15", "16"], "rt": [3141, 145, 134, 817, 1317], "actions": ["right", "right", "right", "up", "up"], "actionTimes": [5711, 6353, 6996, 8312, 10127], "queries": {"click": {"state": {"target": ["12"], "time": [3960]}, "edge": {"target": [], "time": []}}, "mouseover": {"state": {"target": ["12"], "time": [3540]}, "edge": {"target": [], "time": []}}, "mouseout": {"state": {"target": ["0", "12"], "time": [1517, 10904]}, "edge": {"target": [], "time": []}}}, "displayed_time": "16.59", "trialTime": 18486, "trial_type": "mouselab-mdp", "trial_index": 35, "time_elapsed": 1975574, "internal_node_id": "0.0-4.0-1.0-20.0"}}, {"uniqueid": "w20898979:a24731220", "current_trial": 36, "dateTime": 1691161464388, "trialdata": {"revealed_states": [], "clicked_states": [], "num_clicks_accrued": [0, 0, 0, 0, 0, 0, 0, 0, 0, 0, 0, 0, 0], "stateRewards": ["", 1, -1, 1, 13, 31, -56, 72, 2, 41, 5, 63, -2, -3, -2, 3, -71, -26, 52, 13, -31, 24, -67, 2, -2, 5, 4, 66, 43, 72, 9, 86, -26, 44], "withholdReward": false, "trial_id": "mdp_trial_22", "block": "test", "trialIndex": 25, "score": 30, "costs": 0, "simulationMode": [null, null, null, null, null], "rewards": [-2, -3, -2, 13, 24], "path": ["0", "0", "12", "13", "14", "19", "21"], "rt": [1451, 147, 90, 543, 192], "actions": ["right", "right", "right", "down", "down"], "actionTimes": [3662, 4359, 4954, 6009, 6708], "queries": {"click": {"state": {"target": [], "time": []}, "edge": {"target": [], "time": []}}, "mouseover": {"state": {"target": ["12"], "time": [2776]}, "edge": {"target": [], "time": []}}, "mouseout": {"state": {"target": ["0", "12"], "time": [2710, 9484]}, "edge": {"target": [], "time": []}}}, "displayed_time": "16.22", "trialTime": 17535, "trial_type": "mouselab-mdp", "trial_index": 36, "time_elapsed": 1994532, "internal_node_id": "0.0-4.0-1.0-21.0"}}, {"uniqueid": "w20898979:a24731220", "current_trial": 37, "dateTime": 1691161483269, "trialdata": {"revealed_states": [], "clicked_states": ["1"], "num_clicks_accrued": [0, 0, 0, 0, 0, 0, 0, 0, 0, 0, 0, 0, 0], "stateRewards": ["", -2, 2, -2, -7, -50, -62, -45, 7, 36, -24, -72, -1, -1, 8, -1, -67, 20, -52, 2, 35, -50, 80, -1, 1, 6, -6, -70, 6, 88, 8, -47, 74, -19], "withholdReward": false, "trial_id": "mdp_trial_23", "block": "test", "trialIndex": 26, "score": -53.75, "costs": 0.25, "simulationMode": [null, null, null, null, null], "rewards": [-2, 2, -2, -7, -45], "path": ["0", "0", "1", "2", "3", "4", "7"], "rt": [1964, 105, 220, 914, 275], "actions": ["up", "up", "up", "right", "down"], "actionTimes": [4287, 4925, 5660, 7085, 7861], "queries": {"click": {"state": {"target": ["1"], "time": [3484]}, "edge": {"target": [], "time": []}}, "mouseover": {"state": {"target": ["1"], "time": [3096]}, "edge": {"target": [], "time": []}}, "mouseout": {"state": {"target": ["12", "1"], "time": [829, 10165]}, "edge": {"target": [], "time": []}}}, "displayed_time": "16.33", "trialTime": 17686, "trial_type": "mouselab-mdp", "trial_index": 37, "time_elapsed": 2013413, "internal_node_id": "0.0-4.0-1.0-22.0"}}, {"uniqueid": "w20898979:a24731220", "current_trial": 38, "dateTime": 1691161505827, "trialdata": {"revealed_states": [], "clicked_states": ["23"], "num_clicks_accrued": [0, 0, 0, 0, 0, 0, 0, 0, 0, 0, 0, 0, 0], "stateRewards": ["", 2, -4, 7, 3, 23, -42, 4, 7, -81, -33, 7, -2, -4, 5, -1, 50, -57, -14, -13, -14, 44, 55, -2, -2, 5, -2, 33, 1, 57, -13, -7, 58, 87], "withholdReward": false, "trial_id": "mdp_trial_24", "block": "test", "trialIndex": 27, "score": 46.25, "costs": 0.25, "simulationMode": [null, null, null, null, null], "rewards": [-2, -2, 5, -13, 58], "path": ["0", "0", "23", "24", "25", "30", "32"], "rt": [1539, 139, 146, 710, 152], "actions": ["left", "left", "left", "down", "down"], "actionTimes": [3430, 4103, 4758, 5975, 6647], "queries": {"click": {"state": {"target": ["23"], "time": [2908]}, "edge": {"target": [], "time": []}}, "mouseover": {"state": {"target": ["23"], "time": [2558]}, "edge": {"target": [], "time": []}}, "mouseout": {"state": {"target": ["1", "23", "23"], "time": [248, 3093, 8342]}, "edge": {"target": [], "time": []}}}, "displayed_time": "15.89", "trialTime": 21307, "trial_type": "mouselab-mdp", "trial_index": 38, "time_elapsed": 2035972, "internal_node_id": "0.0-4.0-1.0-23.0"}}, {"uniqueid": "w20898979:a24731220", "current_trial": 39, "dateTime": 1691161571079, "trialdata": {"revealed_states": [], "clicked_states": ["12"], "num_clicks_accrued": [0, 0, 0, 0, 0, 0, 0, 0, 0, 0, 0, 0, 0], "stateRewards": ["", -1, -4, -1, -5, -28, -23, -15, -15, -38, 59, -87, 2, 2, -5, 9, -55, -39, -71, -6, 85, -85, -11, -1, -2, 5, -10, 1, 25, 41, -4, 69, -35, 86], "withholdReward": false, "trial_id": "mdp_trial_25", "block": "test", "trialIndex": 28, "score": -62.75, "costs": 0.25, "simulationMode": [null, null, null, null, null], "rewards": [2, 2, -5, 9, -71], "path": ["0", "0", "12", "13", "14", "15", "18"], "rt": [2532, 51, 106, 1082, 13], "actions": ["right", "right", "right", "up", "left"], "actionTimes": [46795, 47352, 48008, 49600, 50147], "queries": {"click": {"state": {"target": ["12"], "time": [45801]}, "edge": {"target": [], "time": []}}, "mouseover": {"state": {"target": ["12", "13", "12"], "time": [44837, 44895, 45349]}, "edge": {"target": [], "time": []}}, "mouseout": {"state": {"target": ["23", "1", "12", "13", "12"], "time": [511, 42916, 44857, 45279, 54094]}, "edge": {"target": [], "time": []}}}, "displayed_time": "58.27", "trialTime": 63881, "trial_type": "mouselab-mdp", "trial_index": 39, "time_elapsed": 2101218, "internal_node_id": "0.0-4.0-1.0-24.0"}}, {"uniqueid": "w20898979:a24731220", "current_trial": 40, "dateTime": 1691161590853, "trialdata": {"revealed_states": [], "clicked_states": ["23"], "num_clicks_accrued": [0, 0, 0, 0, 0, 0, 0, 0, 0, 0, 0, 0, 0], "stateRewards": ["", 1, -1, 4, 5, -32, 18, 20, 6, -88, -74, 9, -2, 1, -2, -14, 34, -77, -38, -1, 80, -36, 73, 2, 3, -8, 10, -48, -73, -71, -11, -22, 20, 54], "withholdReward": false, "trial_id": "mdp_trial_26", "block": "test", "trialIndex": 29, "score": -63.75, "costs": 0.25, "simulationMode": [null, null, null, null, null], "rewards": [2, 3, -8, 10, -71], "path": ["0", "0", "23", "24", "25", "26", "29"], "rt": [2556, 116, 52, 423, 782], "actions": ["left", "left", "left", "up", "left"], "actionTimes": [4409, 5056, 5609, 6548, 7840], "queries": {"click": {"state": {"target": ["23"], "time": [3835]}, "edge": {"target": [], "time": []}}, "mouseover": {"state": {"target": ["23"], "time": [3054]}, "edge": {"target": [], "time": []}}, "mouseout": {"state": {"target": ["0", "23"], "time": [2881, 12100]}, "edge": {"target": [], "time": []}}}, "displayed_time": "15.86", "trialTime": 17900, "trial_type": "mouselab-mdp", "trial_index": 40, "time_elapsed": 2120998, "internal_node_id": "0.0-4.0-1.0-25.0"}}, {"uniqueid": "w20898979:a24731220", "current_trial": 41, "dateTime": 1691161610520, "trialdata": {"revealed_states": [], "clicked_states": ["1"], "num_clicks_accrued": [0, 0, 0, 0, 0, 0, 0, 0, 0, 0, 0, 0, 0], "stateRewards": ["", 2, -4, -8, -15, 71, -43, -41, 7, -17, 20, 67, -1, -1, -4, 6, 37, -24, -47, 9, 34, 57, 45, 1, 2, -4, -5, -23, 88, -5, 13, -40, 43, 44], "withholdReward": false, "trial_id": "mdp_trial_27", "block": "test", "trialIndex": 30, "score": 64.25, "costs": 0.25, "simulationMode": [null, null, null, null, null], "rewards": [2, -4, -8, 7, 67], "path": ["0", "0", "1", "2", "3", "8", "11"], "rt": [1563, 19, 839, 374, 207], "actions": ["up", "up", "up", "left", "left"], "actionTimes": [3969, 4598, 5958, 6842, 7559], "queries": {"click": {"state": {"target": ["1"], "time": [3493]}, "edge": {"target": [], "time": []}}, "mouseover": {"state": {"target": ["0", "1"], "time": [2709, 3044]}, "edge": {"target": [], "time": []}}, "mouseout": {"state": {"target": ["0", "0", "1", "0"], "time": [2445, 2903, 16226, 17046]}, "edge": {"target": [], "time": []}}}, "displayed_time": "16.41", "trialTime": 18311, "trial_type": "mouselab-mdp", "trial_index": 41, "time_elapsed": 2140665, "internal_node_id": "0.0-4.0-1.0-26.0"}}, {"uniqueid": "w20898979:a24731220", "current_trial": 42, "dateTime": 1691161630854, "trialdata": {"revealed_states": [], "clicked_states": ["28"], "num_clicks_accrued": [0, 0, 0, 0, 0, 0, 0, 0, 0, 0, 0, 0, 0], "stateRewards": ["", -1, 1, -6, -1, 80, 23, 2, -11, 73, -81, 59, 1, 3, 5, -1, -26, 28, -3, 16, -59, -13, -50, -2, -2, 2, 15, -50, 86, 17, -4, 37, 35, 44], "withholdReward": false, "trial_id": "mdp_trial_28", "block": "test", "trialIndex": 31, "score": 2.8499999999999996, "costs": -2.15, "simulationMode": [null, null, null, null, null, null], "rewards": [1, 3, 5, -1, -3], "path": ["0", "0", "12", "13", "14", "15", "18"], "rt": [3246, 858, 252, 129, 745, 57], "actions": ["right", "right", "right", "right", "up", "left"], "actionTimes": [5759, 6628, 7393, 8029, 9286, 9888], "queries": {"click": {"state": {"target": ["28"], "time": [3856]}, "edge": {"target": [], "time": []}}, "mouseover": {"state": {"target": ["28", "26", "26", "28"], "time": [3018, 3071, 3317, 3437]}, "edge": {"target": [], "time": []}}, "mouseout": {"state": {"target": ["0", "28", "26", "26", "28", "0"], "time": [2976, 3050, 3117, 3338, 4675, 13635]}, "edge": {"target": [], "time": []}}}, "displayed_time": "16.52", "trialTime": 18952, "trial_type": "mouselab-mdp", "trial_index": 42, "time_elapsed": 2160998, "internal_node_id": "0.0-4.0-1.0-27.0"}}, {"uniqueid": "w20898979:a24731220", "current_trial": 43, "dateTime": 1691161653167, "trialdata": {"revealed_states": [], "clicked_states": ["28"], "num_clicks_accrued": [0, 0, 0, 0, 0, 0, 0, 0, 0, 0, 0, 0, 0], "stateRewards": ["", 1, 1, -7, -9, -44, 24, -83, -15, 44, -24, 72, -2, -3, 4, -5, 57, 55, 29, -11, 22, 12, -25, -1, 2, 7, 12, 33, -8, 47, -4, 8, 50, -4], "withholdReward": false, "trial_id": "mdp_trial_29", "block": "test", "trialIndex": 32, "score": 7.85, "costs": -2.15, "simulationMode": [null, null, null, null, null], "rewards": [-2, -3, 4, -11, 22], "path": ["0", "0", "12", "13", "14", "19", "20"], "rt": [6280, 223, 180, 499, 191], "actions": ["right", "right", "right", "down", "right"], "actionTimes": [11648, 12414, 13148, 14232, 14928], "queries": {"click": {"state": {"target": ["28"], "time": [6941]}, "edge": {"target": [], "time": []}}, "mouseover": {"state": {"target": ["28"], "time": [6614]}, "edge": {"target": [], "time": []}}, "mouseout": {"state": {"target": ["0", "28", "31", "31"], "time": [6235, 7516, 20262, 20513]}, "edge": {"target": [], "time": []}}}, "displayed_time": "19.37", "trialTime": 20945, "trial_type": "mouselab-mdp", "trial_index": 43, "time_elapsed": 2183311, "internal_node_id": "0.0-4.0-1.0-28.0"}}, {"uniqueid": "w20898979:a24731220", "current_trial": 44, "dateTime": 1691161675029, "trialdata": {"revealed_states": [], "clicked_states": ["7"], "num_clicks_accrued": [0, 0, 0, 0, 0, 0, 0, 0, 0, 0, 0, 0, 0], "stateRewards": ["", -1, -2, 4, 9, 10, -75, 39, 16, -43, 88, -19, -1, 1, 2, 4, -31, 10, 73, 12, 41, -64, -81, -2, 2, -6, 1, -81, -1, -26, 3, -59, -3, -20], "withholdReward": false, "trial_id": "mdp_trial_30", "block": "test", "trialIndex": 33, "score": 46.85, "costs": -2.15, "simulationMode": [null, null, null, null, null], "rewards": [-1, -2, 4, 9, 39], "path": ["0", "0", "1", "2", "3", "4", "7"], "rt": [4576, 48, 66, 932, 91], "actions": ["up", "up", "up", "right", "down"], "actionTimes": [7095, 7689, 8306, 9757, 10348], "queries": {"click": {"state": {"target": ["7"], "time": [3872]}, "edge": {"target": [], "time": []}}, "mouseover": {"state": {"target": ["7"], "time": [3323]}, "edge": {"target": [], "time": []}}, "mouseout": {"state": {"target": ["0", "7", "12"], "time": [3108, 4865, 17720]}, "edge": {"target": [], "time": []}}}, "displayed_time": "16.53", "trialTime": 20616, "trial_type": "mouselab-mdp", "trial_index": 44, "time_elapsed": 2205173, "internal_node_id": "0.0-4.0-1.0-29.0"}}, {"uniqueid": "w20898979:a24731220", "current_trial": 45, "dateTime": 1691161696654, "trialdata": {"revealed_states": [], "clicked_states": ["32"], "num_clicks_accrued": [0, 0, 0, 0, 0, 0, 0, 0, 0, 0, 0, 0, 0], "stateRewards": ["", -2, -1, -3, -1, -78, -6, 2, -1, 22, -88, 32, 2, 2, -7, -8, -51, -17, 54, 2, -44, 54, 75, 2, -2, -8, -15, -29, 12, -67, 15, -1, -47, -47], "withholdReward": false, "trial_id": "mdp_trial_31", "block": "test", "trialIndex": 34, "score": 50.85, "costs": -2.15, "simulationMode": [null, null, null, null, null], "rewards": [2, 2, -7, 2, 54], "path": ["0", "0", "12", "13", "14", "19", "21"], "rt": [5228, 175, 185, 584, 153], "actions": ["right", "right", "right", "down", "down"], "actionTimes": [7461, 8144, 8866, 9953, 10607], "queries": {"click": {"state": {"target": ["32"], "time": [3360]}, "edge": {"target": [], "time": []}}, "mouseover": {"state": {"target": ["0", "31", "32"], "time": [2672, 2755, 3048]}, "edge": {"target": [], "time": []}}, "mouseout": {"state": {"target": ["0", "0", "31", "32", "32"], "time": [1231, 2731, 2800, 3549, 13178]}, "edge": {"target": [], "time": []}}}, "displayed_time": "16.24", "trialTime": 20303, "trial_type": "mouselab-mdp", "trial_index": 45, "time_elapsed": 2226798, "internal_node_id": "0.0-4.0-1.0-30.0"}}, {"uniqueid": "w20898979:a24731220", "current_trial": 46, "dateTime": 1691161717613, "trialdata": {"revealed_states": [], "clicked_states": ["16"], "num_clicks_accrued": [0, 0, 0, 0, 0, 0, 0, 0, 0, 0, 0, 0, 0], "stateRewards": ["", 2, 1, -3, 7, 46, 11, -36, 16, 71, 5, 1, 2, -2, -8, -3, -4, 6, 55, 7, 68, -54, 2, 1, 1, 6, -6, 42, -4, -84, -11, -65, 63, 25], "withholdReward": false, "trial_id": "mdp_trial_32", "block": "test", "trialIndex": 35, "score": 41.85, "costs": -2.15, "simulationMode": [null, null, null, null, null], "rewards": [1, 1, 6, -6, 42], "path": ["0", "0", "23", "24", "25", "26", "27"], "rt": [7272, 309, 6, 427, 82], "actions": ["left", "left", "left", "up", "up"], "actionTimes": [9650, 10458, 11049, 11976, 12564], "queries": {"click": {"state": {"target": ["16"], "time": [4008]}, "edge": {"target": [], "time": []}}, "mouseover": {"state": {"target": ["16", "15"], "time": [3368, 4734]}, "edge": {"target": [], "time": []}}, "mouseout": {"state": {"target": ["32", "0", "16", "16", "15"], "time": [338, 2915, 4196, 4692, 4799]}, "edge": {"target": [], "time": []}}}, "displayed_time": "16.38", "trialTime": 19527, "trial_type": "mouselab-mdp", "trial_index": 46, "time_elapsed": 2247757, "internal_node_id": "0.0-4.0-1.0-31.0"}}, {"uniqueid": "w20898979:a24731220", "current_trial": 47, "dateTime": 1691161736976, "trialdata": {"revealed_states": [], "clicked_states": ["5"], "num_clicks_accrued": [0, 0, 0, 0, 0, 0, 0, 0, 0, 0, 0, 0, 0], "stateRewards": ["", 1, 1, -3, 2, 22, -25, -11, -5, 50, 49, 3, 1, -1, 8, 14, -85, -30, 57, -6, -39, -16, 59, -2, -1, 5, 5, 59, -16, 8, 4, 67, 56, -9], "withholdReward": false, "trial_id": "mdp_trial_33", "block": "test", "trialIndex": 36, "score": 20.85, "costs": -2.15, "simulationMode": [null, null, null, null, null], "rewards": [1, 1, -3, 2, 22], "path": ["0", "0", "1", "2", "3", "4", "5"], "rt": [5474, 104, 171, 462, 613], "actions": ["up", "up", "up", "right", "up"], "actionTimes": [7533, 8138, 8823, 9796, 10913], "queries": {"click": {"state": {"target": ["5"], "time": [3610]}, "edge": {"target": [], "time": []}}, "mouseover": {"state": {"target": ["1", "4", "5"], "time": [2781, 2927, 3111]}, "edge": {"target": [], "time": []}}, "mouseout": {"state": {"target": ["19", "22", "0", "1", "4", "5", "5", "5"], "time": [75, 129, 2733, 2811, 3010, 4514, 14024, 14096]}, "edge": {"target": [], "time": []}}}, "displayed_time": "16.06", "trialTime": 17826, "trial_type": "mouselab-mdp", "trial_index": 47, "time_elapsed": 2267120, "internal_node_id": "0.0-4.0-1.0-32.0"}}, {"uniqueid": "w20898979:a24731220", "current_trial": 48, "dateTime": 1691161757899, "trialdata": {"revealed_states": [], "clicked_states": ["11"], "num_clicks_accrued": [0, 0, 0, 0, 0, 0, 0, 0, 0, 0, 0, 0, 0], "stateRewards": ["", -1, -1, 4, -16, -75, 81, -51, -7, -84, 73, -30, -2, 1, -3, -16, -77, 33, 14, 1, 45, 87, -66, 2, 2, -5, -7, -19, -17, 79, -3, 8, 49, 47], "withholdReward": false, "trial_id": "mdp_trial_34", "block": "test", "trialIndex": 37, "score": 64.85, "costs": -2.15, "simulationMode": [null, null, null, null, null], "rewards": [-1, -1, 4, -16, 81], "path": ["0", "0", "1", "2", "3", "4", "6"], "rt": [5060, 175, 117, 658, 148], "actions": ["up", "up", "up", "right", "right"], "actionTimes": [7903, 8589, 9216, 10373, 11030], "queries": {"click": {"state": {"target": ["11"], "time": [4194]}, "edge": {"target": [], "time": []}}, "mouseover": {"state": {"target": ["10", "11"], "time": [3507, 3708]}, "edge": {"target": [], "time": []}}, "mouseout": {"state": {"target": ["5", "1", "0", "10", "11", "28", "24"], "time": [809, 1223, 3389, 3591, 5066, 17960, 17991]}, "edge": {"target": [], "time": []}}}, "displayed_time": "16.85", "trialTime": 19446, "trial_type": "mouselab-mdp", "trial_index": 48, "time_elapsed": 2288043, "internal_node_id": "0.0-4.0-1.0-33.0"}}, {"uniqueid": "w20898979:a24731220", "current_trial": 49, "dateTime": 1691161779113, "trialdata": {"revealed_states": [], "clicked_states": ["25"], "num_clicks_accrued": [0, 0, 0, 0, 0, 0, 0, 0, 0, 0, 0, 0, 0], "stateRewards": ["", 2, -4, 1, -12, -59, -53, -74, 16, -88, -66, 66, 1, -2, 8, -9, -14, 22, 25, -1, -39, 47, -14, -1, -1, -2, 1, -4, 52, -26, 15, -7, 46, 43], "withholdReward": false, "trial_id": "mdp_trial_35", "block": "test", "trialIndex": 38, "score": -29.95, "costs": -0.95, "simulationMode": [null, null, null, null, null], "rewards": [-1, -1, -2, 1, -26], "path": ["0", "0", "23", "24", "25", "26", "29"], "rt": [6593, 158, 192, 614, 116], "actions": ["left", "left", "left", "up", "left"], "actionTimes": [10867, 11556, 12258, 13380, 13998], "queries": {"click": {"state": {"target": ["25"], "time": [6279]}, "edge": {"target": [], "time": []}}, "mouseover": {"state": {"target": ["23", "24", "25"], "time": [5259, 5392, 5543]}, "edge": {"target": [], "time": []}}, "mouseout": {"state": {"target": ["23", "0", "23", "24", "25", "31"], "time": [2961, 3175, 5330, 5459, 7262, 16858]}, "edge": {"target": [], "time": []}}}, "displayed_time": "18.27", "trialTime": 19695, "trial_type": "mouselab-mdp", "trial_index": 49, "time_elapsed": 2309256, "internal_node_id": "0.0-4.0-1.0-34.0"}}, {"uniqueid": "w20898979:a24731220", "current_trial": 50, "dateTime": 1691161798969, "trialdata": {"revealed_states": [], "clicked_states": ["7"], "num_clicks_accrued": [0, 0, 0, 0, 0, 0, 0, 0, 0, 0, 0, 0, 0], "stateRewards": ["", -1, 2, 7, 8, 75, 67, -11, 6, 52, -17, 38, -1, 4, -8, 14, 74, -37, -17, -12, 52, 55, 71, -2, -1, -5, 2, 21, 6, -88, -14, 64, -61, -47], "withholdReward": false, "trial_id": "mdp_trial_36", "block": "test", "trialIndex": 39, "score": -5.15, "costs": -2.15, "simulationMode": [null, null, null, null, null], "rewards": [-1, 2, 7, 6, -17], "path": ["0", "0", "1", "2", "3", "8", "10"], "rt": [5282, 102, 111, 610, 632], "actions": ["up", "up", "up", "left", "down"], "actionTimes": [7649, 8285, 8905, 10022, 11160], "queries": {"click": {"state": {"target": ["7"], "time": [4060]}, "edge": {"target": [], "time": []}}, "mouseover": {"state": {"target": ["7"], "time": [3194]}, "edge": {"target": [], "time": []}}, "mouseout": {"state": {"target": ["0", "7"], "time": [2929, 4813]}, "edge": {"target": [], "time": []}}}, "displayed_time": "16.37", "trialTime": 18107, "trial_type": "mouselab-mdp", "trial_index": 50, "time_elapsed": 2329113, "internal_node_id": "0.0-4.0-1.0-35.0"}}, {"uniqueid": "w20898979:a24731220", "current_trial": 51, "dateTime": 1691161819664, "trialdata": {"revealed_states": [], "clicked_states": ["27"], "num_clicks_accrued": [0, 0, 0, 0, 0, 0, 0, 0, 0, 0, 0, 0, 0], "stateRewards": ["", -1, -2, -8, 8, -27, -82, 19, -14, -62, 4, 1, -2, 2, 6, 10, 73, -51, -2, 2, 73, -48, 54, -1, 2, -4, 11, -25, 47, 86, 15, 33, 43, -42], "withholdReward": false, "trial_id": "mdp_trial_37", "block": "test", "trialIndex": 40, "score": 86.85, "costs": -2.15, "simulationMode": [null, null, null, null, null], "rewards": [-2, 2, 6, 10, 73], "path": ["0", "0", "12", "13", "14", "15", "16"], "rt": [6566, 288, 192, 421, 144], "actions": ["right", "right", "right", "up", "up"], "actionTimes": [8484, 9300, 9998, 10927, 11584], "queries": {"click": {"state": {"target": ["27"], "time": [3554]}, "edge": {"target": [], "time": []}}, "mouseover": {"state": {"target": ["28", "27", "24"], "time": [2799, 3083, 4192]}, "edge": {"target": [], "time": []}}, "mouseout": {"state": {"target": ["0", "28", "27", "24", "31", "31"], "time": [2744, 2832, 4085, 12458, 16721, 16769]}, "edge": {"target": [], "time": []}}}, "displayed_time": "15.93", "trialTime": 19250, "trial_type": "mouselab-mdp", "trial_index": 51, "time_elapsed": 2349809, "internal_node_id": "0.0-4.0-1.0-36.0"}}, {"uniqueid": "w20898979:a24731220", "current_trial": 52, "dateTime": 1691161838412, "trialdata": {"revealed_states": [], "clicked_states": ["5"], "num_clicks_accrued": [0, 0, 0, 0, 0, 0, 0, 0, 0, 0, 0, 0, 0], "stateRewards": ["", 2, -3, -4, -1, 25, -16, 16, 10, -71, -20, -55, 1, 3, -4, -9, 1, 32, 11, -6, 32, -50, -41, -1, 4, 4, -8, 7, -81, 70, 2, -52, 45, -10], "withholdReward": false, "trial_id": "mdp_trial_38", "block": "test", "trialIndex": 41, "score": 16.85, "costs": -2.15, "simulationMode": [null, null, null, null, null], "rewards": [2, -3, -4, -1, 25], "path": ["0", "0", "1", "2", "3", "4", "5"], "rt": [4745, 151, 129, 517, 395], "actions": ["up", "up", "up", "right", "up"], "actionTimes": [7376, 8035, 8664, 9702, 10596], "queries": {"click": {"state": {"target": ["5"], "time": [3931]}, "edge": {"target": [], "time": []}}, "mouseover": {"state": {"target": ["7", "4", "5"], "time": [3212, 3280, 3485]}, "edge": {"target": [], "time": []}}, "mouseout": {"state": {"target": ["0", "0", "7", "4", "5"], "time": [1060, 3165, 3267, 3452, 4957]}, "edge": {"target": [], "time": []}}}, "displayed_time": "16.64", "trialTime": 17343, "trial_type": "mouselab-mdp", "trial_index": 52, "time_elapsed": 2368556, "internal_node_id": "0.0-4.0-1.0-37.0"}}, {"uniqueid": "w20898979:a24731220", "current_trial": 53, "dateTime": 1691161862487, "trialdata": {"revealed_states": [], "clicked_states": ["27"], "num_clicks_accrued": [0, 0, 0, 0, 0, 0, 0, 0, 0, 0, 0, 0, 0], "stateRewards": ["", -2, -3, -6, -7, 9, 16, 65, 5, -41, 20, -25, -1, -4, 1, -11, -49, -4, 71, 1, 39, -62, 52, -2, -3, 7, -9, -28, -70, 84, 8, 24, -58, 82], "withholdReward": false, "trial_id": "mdp_trial_39", "block": "test", "trialIndex": 42, "score": -66.15, "costs": -2.15, "simulationMode": [null, null, null, null, null], "rewards": [-1, -4, 1, -11, -49], "path": ["0", "0", "12", "13", "14", "15", "16"], "rt": [5776, 122, 213, 515, 132], "actions": ["right", "right", "right", "up", "up"], "actionTimes": [9134, 9766, 10492, 11493, 12127], "queries": {"click": {"state": {"target": ["27"], "time": [4692]}, "edge": {"target": [], "time": []}}, "mouseover": {"state": {"target": ["28", "27", "28"], "time": [4020, 4253, 5453]}, "edge": {"target": [], "time": []}}, "mouseout": {"state": {"target": ["5", "4", "0", "28", "27", "28"], "time": [1433, 1524, 3872, 4053, 5362, 13206]}, "edge": {"target": [], "time": []}}}, "displayed_time": "17.36", "trialTime": 22575, "trial_type": "mouselab-mdp", "trial_index": 53, "time_elapsed": 2392632, "internal_node_id": "0.0-4.0-1.0-38.0"}}, {"uniqueid": "w20898979:a24731220", "current_trial": 54, "dateTime": 1691161881870, "trialdata": {"revealed_states": [], "clicked_states": ["32"], "num_clicks_accrued": [0, 0, 0, 0, 0, 0, 0, 0, 0, 0, 0, 0, 0], "stateRewards": ["", -2, 2, -4, -4, -59, 88, 62, -3, 69, -15, -34, 1, -2, -5, 7, -54, -20, 78, -16, -74, -53, -21, 2, -4, 2, 13, -8, -44, 26, 9, 72, 4, 17], "withholdReward": false, "trial_id": "mdp_trial_40", "block": "test", "trialIndex": 43, "score": 78.85, "costs": -2.15, "simulationMode": [null, null, null, null, null], "rewards": [2, -4, 2, 9, 72], "path": ["0", "0", "23", "24", "25", "30", "31"], "rt": [6131, 78, 64, 1093, 726], "actions": ["left", "left", "left", "down", "right"], "actionTimes": [7953, 8564, 9136, 10751, 12016], "queries": {"click": {"state": {"target": ["32"], "time": [3592]}, "edge": {"target": [], "time": []}}, "mouseover": {"state": {"target": ["31", "32", "32"], "time": [2615, 2665, 3035]}, "edge": {"target": [], "time": []}}, "mouseout": {"state": {"target": ["0", "31", "32", "32"], "time": [664, 2636, 2748, 4304]}, "edge": {"target": [], "time": []}}}, "displayed_time": "15.82", "trialTime": 17806, "trial_type": "mouselab-mdp", "trial_index": 54, "time_elapsed": 2412014, "internal_node_id": "0.0-4.0-1.0-39.0"}}, {"uniqueid": "w20898979:a24731220", "current_trial": 55, "dateTime": 1691161964632, "trialdata": {"rt": 82140, "response": {"Q0": "$-2 to $2", "Q1": "$-16 to $16", "Q2": "$-88 to $88", "Q3": "The cost for clicking on nodes varied between nodes.", "Q4": "Very motivated"}, "question_order": [0, 1, 2, 3, 4], "trial_id": "final_quiz_control", "trial_type": "survey-multi-choice", "trial_index": 55, "time_elapsed": 2494777, "internal_node_id": "0.0-4.0-2.0"}}, {"uniqueid": "w20898979:a24731220", "current_trial": 56, "dateTime": 1691162238929, "trialdata": {"rt": 273298, "response": {"Q0": "i clicked on the nodes at the end to see if the was money and if the was no money i would go to the opposite on the other side of the web", "Q1": "yes i improved my strategy as the game went on, i understood the game more with the more rounds i did ", "Q2": "it was not difficult to improve my performance but i only realized it later on....over all the game is pretty easy to understand after a few rounds"}, "trial_id": "self_report_control", "trial_type": "survey-text", "trial_index": 56, "time_elapsed": 2769075, "internal_node_id": "0.0-4.0-3.0"}}, {"uniqueid": "w20898979:a24731220", "current_trial": 57, "dateTime": 1691162300763, "trialdata": {"rt": 61755, "response": {"Q0": "Agree", "Q1": "Agree", "Q2": "Disagree", "Q3": "Disagree", "Q4": "Disagree", "Q5": "Agree", "Q6": "Disagree"}, "question_order": [0, 1, 2, 3, 4, 5, 6], "trial_id": "self_report_2", "trial_type": "survey-multi-choice", "trial_index": 57, "time_elapsed": 2830908, "internal_node_id": "0.0-4.0-4.0"}}, {"uniqueid": "w20898979:a24731220", "current_trial": 58, "dateTime": 1691162331359, "trialdata": {"rt": 30473, "response": {"gender": "female", "age": "20", "colorblind": "0", "effort": "0"}, "trial_type": "survey-html-form", "trial_index": 58, "time_elapsed": 2861505, "internal_node_id": "0.0-4.0-5.0"}}, {"uniqueid": "w20898979:a24731220", "current_trial": 59, "dateTime": 1691162429423, "trialdata": {"rt": 98020, "response": {"Q0": "the explanation that was given for the game was kind of hard to understand.", "Q1": "no i have not participated in a Web Cash HIT before.", "Q2": "no"}, "trial_type": "survey-text", "trial_index": 59, "time_elapsed": 2959569, "internal_node_id": "0.0-4.0-6.0"}}, {"uniqueid": "w20898979:a24731220", "current_trial": 60, "dateTime": 1691162436294, "trialdata": {"rt": 6800, "stimulus": "Press 'Finish HIT' in order to reach the completion code. Once the data has been saved, you will receive the code either in this window or in the original browser window where you started the experiment.\n", "response": 0, "trial_type": "html-button-response", "trial_index": 60, "time_elapsed": 2966440, "internal_node_id": "0.0-5.0"}}, {"uniqueid": "w20898979:a24731220", "current_trial": 61, "dateTime": 1691162437382, "trialdata": {"success": true, "trial_type": "fullscreen", "trial_index": 61, "time_elapsed": 2967528, "internal_node_id": "0.0-6.0"}}], "questiondata": {"params": {"CODE": "C6DMOQA6", "MIN_TIME": 14, "inspectCost": 1, "startTime": "Fri Aug 04 2023 16:31:07 GMT+0200 (South Africa Standard Time)", "bonusRate": 0.002, "variance": "1_2_4_8_44", "branching": "31123"}, "final_score": 580.65}, "eventdata": [{"eventtype": "initialized", "value": null, "timestamp": 1691159466774, "interval": 0}, {"eventtype": "window_resize", "value": [1024, 646], "timestamp": 1691159466774, "interval": 0}, {"eventtype": "window_resize", "value": [1024, 646], "timestamp": 1691159467293, "interval": 519}, {"eventtype": "window_resize", "value": [1366, 768], "timestamp": 1691159475339, "interval": 8046}, {"eventtype": "focus", "value": "off", "timestamp": 1691160235536, "interval": 760197}, {"eventtype": "focus", "value": "on", "timestamp": 1691160235536, "interval": 0}, {"eventtype": "window_resize", "value": [1024, 646], "timestamp": 1691160235820, "interval": 284}, {"eventtype": "window_resize", "value": [1366, 768], "timestamp": 1691160241933, "interval": 6113}], "useragent": "Mozilla/5.0 (Windows NT 10.0; Win64; x64) AppleWebKit/537.36 (KHTML, like Gecko) Chrome/115.0.0.0 Safari/537.36", "mode": "live", "id": "w20898979:a24731220", "status": "user data saved", "Beginhit": "2023-08-04 14:31:04.266541", "Beginexp": "2023-08-04 14:31:18.015136", "Endhit": "2023-08-04 15:20:44.174404", "psiturkStatus": 3, "browser": "<redacted>", "platform": "windows", "language": "en-US"}