{"condition": 0, "counterbalance": 0, "assignmentId": "a29687335", "workerId": "w21067498", "hitId": "h89255012", "currenttrial": 55, "bonus": 0, "data": [{"uniqueid": "w21067498:a29687335", "current_trial": 0, "dateTime": 1693481052084, "trialdata": {"success": true, "trial_type": "fullscreen", "trial_index": 0, "time_elapsed": 24781, "internal_node_id": "0.0-0.0"}}, {"uniqueid": "w21067498:a29687335", "current_trial": 1, "dateTime": 1693481087457, "trialdata": {"view_history": [{"page_index": 0, "viewing_time": 35367}], "rt": 35368, "trial_id": "exp_instructions_control", "trial_type": "instructions", "trial_index": 1, "time_elapsed": 60154, "internal_node_id": "0.0-1.0"}}, {"uniqueid": "w21067498:a29687335", "current_trial": 2, "dateTime": 1693481524266, "trialdata": {"view_history": [{"page_index": 0, "viewing_time": 115081}, {"page_index": 1, "viewing_time": 185233}, {"page_index": 2, "viewing_time": 78466}, {"page_index": 3, "viewing_time": 58026}], "rt": 436807, "trial_id": "mouselab_instructions_1_control", "trial_type": "instructions", "trial_index": 2, "time_elapsed": 496963, "internal_node_id": "0.0-2.0-1.0"}}, {"uniqueid": "w21067498:a29687335", "current_trial": 3, "dateTime": 1693481553443, "trialdata": {"revealed_states": [], "clicked_states": [], "num_clicks_accrued": [0, 0, 0, 0, 0, 0, 0, 0, 0, 0, 0, 0, 0], "stateRewards": ["", -10, 10, -10, 10, 10, -10, -10, 10, 10, -10, 10, -10, -10, 10, 10, 10, -10, 10, 10, 10, -10, -10, 10, -10, 10, -10, -10, -10, 10, -10, 10, -10, -10], "withholdReward": false, "trial_id": "practice_1", "block": "test", "trialIndex": 0, "score": 13.5, "costs": 0, "simulationMode": [null, null, null, null, null], "rewards": [-10, -10, 10, 10, 10], "path": ["0", "0", "12", "13", "14", "15", "16"], "rt": [8932, 2624, 1565, 2609, 791], "actions": ["right", "right", "right", "up", "up"], "actionTimes": [11969, 15098, 17155, 20264, 21547], "queries": {"click": {"state": {"target": [], "time": []}, "edge": {"target": [], "time": []}}, "mouseover": {"state": {"target": [], "time": []}, "edge": {"target": [], "time": []}}, "mouseout": {"state": {"target": ["0"], "time": [24556]}, "edge": {"target": [], "time": []}}}, "displayed_time": "22.04", "trialTime": 27988, "trial_type": "mouselab-mdp", "trial_index": 3, "time_elapsed": 526139, "internal_node_id": "0.0-2.0-2.0-0.0"}}, {"uniqueid": "w21067498:a29687335", "current_trial": 4, "dateTime": 1693481576352, "trialdata": {"revealed_states": [], "clicked_states": [], "num_clicks_accrued": [0, 0, 0, 0, 0, 0, 0, 0, 0, 0, 0, 0, 0], "stateRewards": ["", 10, 10, 10, 10, 10, -10, 10, -10, 10, 10, 10, 10, -10, 10, 10, -10, 10, -10, 10, -10, 10, 10, -10, 10, 10, -10, -10, 10, 10, 10, -10, -10, -10], "withholdReward": false, "trial_id": "practice_2", "block": "test", "trialIndex": 1, "score": 33.5, "costs": 0, "simulationMode": [null, null, null, null, null], "rewards": [10, 10, 10, -10, 10], "path": ["0", "0", "1", "2", "3", "8", "11"], "rt": [7202, 1276, 764, 1617, 831], "actions": ["up", "up", "up", "left", "left"], "actionTimes": [9081, 10859, 12115, 14234, 15565], "queries": {"click": {"state": {"target": [], "time": []}, "edge": {"target": [], "time": []}}, "mouseover": {"state": {"target": [], "time": []}, "edge": {"target": [], "time": []}}, "mouseout": {"state": {"target": ["0"], "time": [20977]}, "edge": {"target": [], "time": []}}}, "displayed_time": "16.07", "trialTime": 22725, "trial_type": "mouselab-mdp", "trial_index": 4, "time_elapsed": 549049, "internal_node_id": "0.0-2.0-2.0-1.0"}}, {"uniqueid": "w21067498:a29687335", "current_trial": 5, "dateTime": 1693481667777, "trialdata": {"view_history": [{"page_index": 0, "viewing_time": 50810}, {"page_index": 1, "viewing_time": 19729}, {"page_index": 0, "viewing_time": 16361}, {"page_index": 1, "viewing_time": 4523}], "rt": 91422, "trial_id": "mouselab_instructions_2_control", "trial_type": "instructions", "trial_index": 5, "time_elapsed": 640473, "internal_node_id": "0.0-2.0-3.0"}}, {"uniqueid": "w21067498:a29687335", "current_trial": 6, "dateTime": 1693481825701, "trialdata": {"rt": 157919, "response": {"Q0": "The cost for clicking on nodes may vary between nodes.", "Q1": "The better I perform the higher my bonus will be.", "Q2": "No, the amount of cash at each node of the web may be different each time.", "Q3": "To get the highest total score.", "Q4": "Only before moving the spider.", "Q5": "3 seconds"}, "question_order": [0, 1, 2, 3, 4, 5], "correct": {"Q0": "The cost for clicking on nodes may vary between nodes.", "Q1": "The better I perform the higher my bonus will be.", "Q2": "No, the amount of cash at each node of the web may be different each time.", "Q3": "To get the highest total score.", "Q4": "Only before moving the spider.", "Q5": "3 seconds"}, "trial_id": "mouselab_quiz_control", "trial_type": "survey-multi-choice", "trial_index": 6, "time_elapsed": 798397, "internal_node_id": "0.0-2.0-4.0"}}, {"uniqueid": "w21067498:a29687335", "current_trial": 7, "dateTime": 1693481836023, "trialdata": {"rt": 10305, "response": {"Q0": "No"}, "question_order": [0], "trial_id": "repeat_check", "trial_type": "survey-multi-choice", "trial_index": 7, "time_elapsed": 808720, "internal_node_id": "0.0-4.0-0.0"}}, {"uniqueid": "w21067498:a29687335", "current_trial": 8, "dateTime": 1693481865202, "trialdata": {"rt": 29175, "stimulus": "\n<h1> Get ready to start the game! </h1>\n\nThank you for reading the instructions. Get ready start with the 40 rounds of this game.\n<br><br>\nIf you need to take a break, feel free to take one after the end of a round, before continuing to the next one.\n<br><br>\nRemember, the more money the spider gets, the bigger your bonus will be!\n<br><br>\n<div style='text-align: center;'>Press <code>space</code> to begin.</div>\n\n<br><br>\n(If, at any point, the <code>space</code> key does not take you to the next page, click once on the text and try again.)", "response": " ", "trial_id": "mdp_ready", "trial_type": "html-keyboard-response", "trial_index": 8, "time_elapsed": 837899, "internal_node_id": "0.0-6.0-0.0"}}, {"uniqueid": "w21067498:a29687335", "current_trial": 9, "dateTime": 1693481892408, "trialdata": {"revealed_states": [], "clicked_states": [], "num_clicks_accrued": [0, 0, 0, 0, 0, 0, 0, 0, 0, 0, 0, 0, 0], "stateRewards": ["", 2, 3, -1, 6, 44, -4, -59, -14, -3, 64, 16, 1, -3, 3, 6, 3, 49, 19, 3, -49, -14, -86, 1, 2, -3, -8, -33, 14, 32, -13, -77, -47, -67], "withholdReward": false, "trial_id": "mdp_trial_1", "block": "test", "trialIndex": 2, "score": -60, "costs": 0, "simulationMode": [null, null, null, null, null], "rewards": [1, 2, -3, -13, -47], "path": ["0", "0", "23", "24", "25", "30", "32"], "rt": [3264, 1259, 480, 857, 1703], "actions": ["left", "left", "left", "down", "down"], "actionTimes": [8417, 10171, 11142, 12500, 14699], "queries": {"click": {"state": {"target": [], "time": []}, "edge": {"target": [], "time": []}}, "mouseover": {"state": {"target": [], "time": []}, "edge": {"target": [], "time": []}}, "mouseout": {"state": {"target": ["2", "1"], "time": [3067, 3234]}, "edge": {"target": [], "time": []}}}, "displayed_time": "19.16", "trialTime": 27021, "trial_type": "mouselab-mdp", "trial_index": 9, "time_elapsed": 865105, "internal_node_id": "0.0-6.0-1.0-0.0"}}, {"uniqueid": "w21067498:a29687335", "current_trial": 10, "dateTime": 1693481913656, "trialdata": {"revealed_states": [], "clicked_states": [], "num_clicks_accrued": [0, 0, 0, 0, 0, 0, 0, 0, 0, 0, 0, 0, 0], "stateRewards": ["", -2, 1, 6, -2, -10, -78, -69, 14, -15, 7, -1, 1, -1, -2, 13, 77, 32, 87, 5, -74, 30, -26, 1, 3, 4, 12, 39, 54, -43, 2, 10, 23, 13], "withholdReward": false, "trial_id": "mdp_trial_2", "block": "test", "trialIndex": 3, "score": -66, "costs": 0, "simulationMode": [null, null, null, null, null], "rewards": [-2, 1, 6, -2, -69], "path": ["0", "0", "1", "2", "3", "4", "7"], "rt": [3204, 1012, 718, 1379, 1411], "actions": ["up", "up", "up", "right", "down"], "actionTimes": [6887, 8412, 9632, 11513, 13426], "queries": {"click": {"state": {"target": [], "time": []}, "edge": {"target": [], "time": []}}, "mouseover": {"state": {"target": [], "time": []}, "edge": {"target": [], "time": []}}, "mouseout": {"state": {"target": ["0", "0"], "time": [1214, 19240]}, "edge": {"target": [], "time": []}}}, "displayed_time": "17.69", "trialTime": 21056, "trial_type": "mouselab-mdp", "trial_index": 10, "time_elapsed": 886353, "internal_node_id": "0.0-6.0-1.0-1.0"}}, {"uniqueid": "w21067498:a29687335", "current_trial": 11, "dateTime": 1693481938317, "trialdata": {"revealed_states": [], "clicked_states": [], "num_clicks_accrued": [0, 0, 0, 0, 0, 0, 0, 0, 0, 0, 0, 0, 0], "stateRewards": ["", -2, -3, -5, 8, 27, 11, 43, -6, -24, -87, 69, -2, 1, 1, 9, 19, 48, -37, 9, -14, 45, 62, 1, 2, 1, 16, -81, -41, 22, 4, -6, -63, 47], "withholdReward": false, "trial_id": "mdp_trial_3", "block": "test", "trialIndex": 4, "score": 9, "costs": 0, "simulationMode": [null, null, null, null, null], "rewards": [-2, -3, -5, 8, 11], "path": ["0", "0", "1", "2", "3", "4", "6"], "rt": [708, 781, 690, 908, 811], "actions": ["up", "up", "up", "right", "right"], "actionTimes": [5627, 6910, 8102, 9504, 10807], "queries": {"click": {"state": {"target": [], "time": []}, "edge": {"target": [], "time": []}}, "mouseover": {"state": {"target": [], "time": []}, "edge": {"target": [], "time": []}}, "mouseout": {"state": {"target": ["0"], "time": [20978]}, "edge": {"target": [], "time": []}}}, "displayed_time": "18.92", "trialTime": 24478, "trial_type": "mouselab-mdp", "trial_index": 11, "time_elapsed": 911014, "internal_node_id": "0.0-6.0-1.0-2.0"}}, {"uniqueid": "w21067498:a29687335", "current_trial": 12, "dateTime": 1693481960568, "trialdata": {"revealed_states": [], "clicked_states": [], "num_clicks_accrued": [0, 0, 0, 0, 0, 0, 0, 0, 0, 0, 0, 0, 0], "stateRewards": ["", 1, 2, 7, 13, 88, -71, 27, 3, 60, 5, -53, -2, 2, -6, -1, -30, 79, 47, -4, -14, 46, 68, 1, 1, 8, 10, -14, 86, 48, -11, -67, -44, 5], "withholdReward": false, "trial_id": "mdp_trial_4", "block": "test", "trialIndex": 5, "score": 4, "costs": 0, "simulationMode": [null, null, null, null, null], "rewards": [1, 1, 8, -11, 5], "path": ["0", "0", "23", "24", "25", "30", "33"], "rt": [1449, 1180, 950, 844, 1065], "actions": ["left", "left", "left", "down", "left"], "actionTimes": [5600, 7279, 8775, 10109, 11665], "queries": {"click": {"state": {"target": [], "time": []}, "edge": {"target": [], "time": []}}, "mouseover": {"state": {"target": [], "time": []}, "edge": {"target": [], "time": []}}, "mouseout": {"state": {"target": ["0", "0"], "time": [3956, 19867]}, "edge": {"target": [], "time": []}}}, "displayed_time": "18.15", "trialTime": 22063, "trial_type": "mouselab-mdp", "trial_index": 12, "time_elapsed": 933265, "internal_node_id": "0.0-6.0-1.0-3.0"}}, {"uniqueid": "w21067498:a29687335", "current_trial": 13, "dateTime": 1693481982712, "trialdata": {"revealed_states": [], "clicked_states": [], "num_clicks_accrued": [0, 0, 0, 0, 0, 0, 0, 0, 0, 0, 0, 0, 0], "stateRewards": ["", 1, 2, -3, 6, -88, 74, -45, 7, -46, 40, -77, 1, -4, 4, 3, 22, -25, -59, 8, -83, 19, -60, -1, -1, -1, -8, 26, -29, 64, -7, -88, -51, -55], "withholdReward": false, "trial_id": "mdp_trial_5", "block": "test", "trialIndex": 6, "score": -55, "costs": 0, "simulationMode": [null, null, null, null, null], "rewards": [1, -4, 4, 3, -59], "path": ["0", "0", "12", "13", "14", "15", "18"], "rt": [1274, 993, 519, 645, 1194], "actions": ["right", "right", "right", "up", "left"], "actionTimes": [4298, 5798, 6809, 7950, 9649], "queries": {"click": {"state": {"target": [], "time": []}, "edge": {"target": [], "time": []}}, "mouseover": {"state": {"target": [], "time": []}, "edge": {"target": [], "time": []}}, "mouseout": {"state": {"target": ["0", "0"], "time": [2886, 20264]}, "edge": {"target": [], "time": []}}}, "displayed_time": "17.03", "trialTime": 21962, "trial_type": "mouselab-mdp", "trial_index": 13, "time_elapsed": 955408, "internal_node_id": "0.0-6.0-1.0-4.0"}}, {"uniqueid": "w21067498:a29687335", "current_trial": 14, "dateTime": 1693482006472, "trialdata": {"revealed_states": [], "clicked_states": [], "num_clicks_accrued": [0, 0, 0, 0, 0, 0, 0, 0, 0, 0, 0, 0, 0], "stateRewards": ["", 2, -1, -2, -5, -47, -57, -33, -11, 31, -18, -72, -2, 1, -4, -8, -46, -53, -50, 15, -85, -9, 39, -2, -2, 1, 14, -1, -8, 53, -12, -41, -74, 62], "withholdReward": false, "trial_id": "mdp_trial_6", "block": "test", "trialIndex": 7, "score": -30, "costs": 0, "simulationMode": [null, null, null, null, null], "rewards": [2, -1, -2, -11, -18], "path": ["0", "0", "1", "2", "3", "8", "10"], "rt": [1201, 1162, 632, 866, 1171], "actions": ["up", "up", "up", "left", "down"], "actionTimes": [6950, 8614, 9736, 11101, 12774], "queries": {"click": {"state": {"target": [], "time": []}, "edge": {"target": [], "time": []}}, "mouseover": {"state": {"target": [], "time": []}, "edge": {"target": [], "time": []}}, "mouseout": {"state": {"target": ["0", "0"], "time": [3229, 18002]}, "edge": {"target": [], "time": []}}}, "displayed_time": "19.75", "trialTime": 23568, "trial_type": "mouselab-mdp", "trial_index": 14, "time_elapsed": 979168, "internal_node_id": "0.0-6.0-1.0-5.0"}}, {"uniqueid": "w21067498:a29687335", "current_trial": 15, "dateTime": 1693482031449, "trialdata": {"revealed_states": [], "clicked_states": [], "num_clicks_accrued": [0, 0, 0, 0, 0, 0, 0, 0, 0, 0, 0, 0, 0], "stateRewards": ["", 2, 4, 7, 7, -79, -2, -21, -5, -53, 47, -21, 1, -3, -1, 7, 83, 7, 84, -7, 80, -37, 69, 2, -4, 5, 2, 4, -20, -30, 7, 71, 44, -81], "withholdReward": false, "trial_id": "mdp_trial_7", "block": "test", "trialIndex": 8, "score": 54, "costs": 0, "simulationMode": [null, null, null, null, null], "rewards": [2, -4, 5, 7, 44], "path": ["0", "0", "23", "24", "25", "30", "32"], "rt": [1518, 953, 769, 560, 513], "actions": ["left", "left", "left", "down", "down"], "actionTimes": [5397, 6854, 8122, 9180, 10182], "queries": {"click": {"state": {"target": [], "time": []}, "edge": {"target": [], "time": []}}, "mouseover": {"state": {"target": [], "time": []}, "edge": {"target": [], "time": []}}, "mouseout": {"state": {"target": ["0", "0"], "time": [2811, 11754]}, "edge": {"target": [], "time": []}}}, "displayed_time": "17.88", "trialTime": 24761, "trial_type": "mouselab-mdp", "trial_index": 15, "time_elapsed": 1004146, "internal_node_id": "0.0-6.0-1.0-6.0"}}, {"uniqueid": "w21067498:a29687335", "current_trial": 16, "dateTime": 1693482053782, "trialdata": {"revealed_states": [], "clicked_states": [], "num_clicks_accrued": [0, 0, 0, 0, 0, 0, 0, 0, 0, 0, 0, 0, 0], "stateRewards": ["", -2, -3, -7, 7, -54, -69, -4, -14, -77, 22, 40, -2, -1, 5, 6, -35, 50, -60, 10, -28, 75, 57, 1, -4, -2, 2, 68, 34, -18, 12, 3, -21, -43], "withholdReward": false, "trial_id": "mdp_trial_8", "block": "test", "trialIndex": 9, "score": 10, "costs": 0, "simulationMode": [null, null, null, null, null], "rewards": [1, -4, -2, 12, 3], "path": ["0", "0", "23", "24", "25", "30", "31"], "rt": [1365, 985, 584, 429, 956], "actions": ["left", "left", "left", "down", "right"], "actionTimes": [3012, 4497, 5581, 6511, 7987], "queries": {"click": {"state": {"target": [], "time": []}, "edge": {"target": [], "time": []}}, "mouseover": {"state": {"target": [], "time": []}, "edge": {"target": [], "time": []}}, "mouseout": {"state": {"target": ["0", "0"], "time": [1505, 8632]}, "edge": {"target": [], "time": []}}}, "displayed_time": "15.65", "trialTime": 22138, "trial_type": "mouselab-mdp", "trial_index": 16, "time_elapsed": 1026479, "internal_node_id": "0.0-6.0-1.0-7.0"}}, {"uniqueid": "w21067498:a29687335", "current_trial": 17, "dateTime": 1693482078179, "trialdata": {"revealed_states": [], "clicked_states": [], "num_clicks_accrued": [0, 0, 0, 0, 0, 0, 0, 0, 0, 0, 0, 0, 0], "stateRewards": ["", 1, 3, -2, 15, 51, 15, -19, 11, 67, -45, -73, 2, 4, -2, -13, 36, 9, -28, 10, -30, 31, 16, 1, 2, -1, -16, 14, -22, 36, -1, 88, -5, 45], "withholdReward": false, "trial_id": "mdp_trial_9", "block": "test", "trialIndex": 10, "score": -36, "costs": 0, "simulationMode": [null, null, null, null, null], "rewards": [1, 2, -1, -16, -22], "path": ["0", "0", "23", "24", "25", "26", "28"], "rt": [1241, 743, 1070, 421, 1176], "actions": ["left", "left", "left", "up", "right"], "actionTimes": [4475, 5730, 7304, 8221, 9895], "queries": {"click": {"state": {"target": [], "time": []}, "edge": {"target": [], "time": []}}, "mouseover": {"state": {"target": [], "time": []}, "edge": {"target": [], "time": []}}, "mouseout": {"state": {"target": ["0", "0"], "time": [601, 3614]}, "edge": {"target": [], "time": []}}}, "displayed_time": "17.24", "trialTime": 24185, "trial_type": "mouselab-mdp", "trial_index": 17, "time_elapsed": 1050876, "internal_node_id": "0.0-6.0-1.0-8.0"}}, {"uniqueid": "w21067498:a29687335", "current_trial": 18, "dateTime": 1693482097331, "trialdata": {"revealed_states": [], "clicked_states": [], "num_clicks_accrued": [0, 0, 0, 0, 0, 0, 0, 0, 0, 0, 0, 0, 0], "stateRewards": ["", -2, 4, -5, -12, 85, -24, -18, -15, -78, -22, 26, -1, -1, 2, 14, -45, 52, -23, 7, -33, 24, -6, -2, -4, 5, -7, -16, 36, -39, 5, 71, -87, -23], "withholdReward": false, "trial_id": "mdp_trial_10", "block": "test", "trialIndex": 11, "score": 70, "costs": 0, "simulationMode": [null, null, null, null, null], "rewards": [-2, 4, -5, -12, 85], "path": ["0", "0", "1", "2", "3", "4", "5"], "rt": [1402, 426, 710, 898, 1262], "actions": ["up", "up", "up", "right", "up"], "actionTimes": [3782, 4697, 5899, 7287, 9049], "queries": {"click": {"state": {"target": [], "time": []}, "edge": {"target": [], "time": []}}, "mouseover": {"state": {"target": [], "time": []}, "edge": {"target": [], "time": []}}, "mouseout": {"state": {"target": ["0", "0", "0"], "time": [1398, 1614, 9987]}, "edge": {"target": [], "time": []}}}, "displayed_time": "16.38", "trialTime": 18956, "trial_type": "mouselab-mdp", "trial_index": 18, "time_elapsed": 1070027, "internal_node_id": "0.0-6.0-1.0-9.0"}}, {"uniqueid": "w21067498:a29687335", "current_trial": 19, "dateTime": 1693482116396, "trialdata": {"revealed_states": [], "clicked_states": [], "num_clicks_accrued": [0, 0, 0, 0, 0, 0, 0, 0, 0, 0, 0, 0, 0], "stateRewards": ["", -2, -3, -6, -7, 9, 16, 65, 5, -41, 20, -25, -1, -4, 1, -11, -49, -4, 71, 1, 39, -62, 52, -2, -3, 7, -9, -28, -70, 84, 8, 24, -58, 82], "withholdReward": false, "trial_id": "mdp_trial_11", "block": "test", "trialIndex": 12, "score": -65, "costs": 0, "simulationMode": [null, null, null, null, null], "rewards": [-1, -4, 1, 1, -62], "path": ["0", "0", "12", "13", "14", "19", "21"], "rt": [1666, 560, 628, 539, 2203], "actions": ["right", "right", "right", "down", "down"], "actionTimes": [3882, 4941, 6060, 7105, 9802], "queries": {"click": {"state": {"target": [], "time": []}, "edge": {"target": [], "time": []}}, "mouseover": {"state": {"target": [], "time": []}, "edge": {"target": [], "time": []}}, "mouseout": {"state": {"target": ["0", "0"], "time": [729, 2664]}, "edge": {"target": [], "time": []}}}, "displayed_time": "16.22", "trialTime": 18864, "trial_type": "mouselab-mdp", "trial_index": 19, "time_elapsed": 1089093, "internal_node_id": "0.0-6.0-1.0-10.0"}}, {"uniqueid": "w21067498:a29687335", "current_trial": 20, "dateTime": 1693482135194, "trialdata": {"revealed_states": [], "clicked_states": [], "num_clicks_accrued": [0, 0, 0, 0, 0, 0, 0, 0, 0, 0, 0, 0, 0], "stateRewards": ["", 1, -1, 1, 13, 31, -56, 72, 2, 41, 5, 63, -2, -3, -2, 3, -71, -26, 52, 13, -31, 24, -67, 2, -2, 5, 4, 66, 43, 72, 9, 86, -26, 44], "withholdReward": false, "trial_id": "mdp_trial_12", "block": "test", "trialIndex": 13, "score": 66, "costs": 0, "simulationMode": [null, null, null, null, null], "rewards": [1, -1, 1, 2, 63], "path": ["0", "0", "1", "2", "3", "8", "11"], "rt": [1100, 476, 792, 929, 990], "actions": ["up", "up", "up", "left", "left"], "actionTimes": [1970, 2949, 4234, 5654, 7167], "queries": {"click": {"state": {"target": [], "time": []}, "edge": {"target": [], "time": []}}, "mouseover": {"state": {"target": [], "time": []}, "edge": {"target": [], "time": []}}, "mouseout": {"state": {"target": ["0", "0"], "time": [740, 15107]}, "edge": {"target": [], "time": []}}}, "displayed_time": "14.87", "trialTime": 18604, "trial_type": "mouselab-mdp", "trial_index": 20, "time_elapsed": 1107891, "internal_node_id": "0.0-6.0-1.0-11.0"}}, {"uniqueid": "w21067498:a29687335", "current_trial": 21, "dateTime": 1693482152839, "trialdata": {"revealed_states": [], "clicked_states": [], "num_clicks_accrued": [0, 0, 0, 0, 0, 0, 0, 0, 0, 0, 0, 0, 0], "stateRewards": ["", 1, -4, -4, 8, 1, -79, 68, -10, -79, 8, -74, -1, -3, -6, 14, 43, 23, 9, 5, -51, 63, 61, -2, 4, 6, -10, 69, -32, 57, 15, -80, -80, -77], "withholdReward": false, "trial_id": "mdp_trial_13", "block": "test", "trialIndex": 14, "score": -57, "costs": 0, "simulationMode": [null, null, null, null, null], "rewards": [-2, 4, 6, 15, -80], "path": ["0", "0", "23", "24", "25", "30", "32"], "rt": [1063, 1177, 908, 916, 517], "actions": ["left", "left", "left", "down", "down"], "actionTimes": [3116, 4786, 6184, 7591, 8607], "queries": {"click": {"state": {"target": [], "time": []}, "edge": {"target": [], "time": []}}, "mouseover": {"state": {"target": [], "time": []}, "edge": {"target": [], "time": []}}, "mouseout": {"state": {"target": ["0", "0"], "time": [854, 9459]}, "edge": {"target": [], "time": []}}}, "displayed_time": "16.05", "trialTime": 17413, "trial_type": "mouselab-mdp", "trial_index": 21, "time_elapsed": 1125535, "internal_node_id": "0.0-6.0-1.0-12.0"}}, {"uniqueid": "w21067498:a29687335", "current_trial": 22, "dateTime": 1693482171517, "trialdata": {"revealed_states": [], "clicked_states": [], "num_clicks_accrued": [0, 0, 0, 0, 0, 0, 0, 0, 0, 0, 0, 0, 0], "stateRewards": ["", -1, -2, -8, 8, -27, -82, 19, -14, -62, 4, 1, -2, 2, 6, 10, 73, -51, -2, 2, 73, -48, 54, -1, 2, -4, 11, -25, 47, 86, 15, 33, 43, -42], "withholdReward": false, "trial_id": "mdp_trial_14", "block": "test", "trialIndex": 15, "score": 55, "costs": 0, "simulationMode": [null, null, null, null, null], "rewards": [-1, 2, -4, 11, 47], "path": ["0", "0", "23", "24", "25", "26", "28"], "rt": [1243, 472, 894, 633, 3321], "actions": ["left", "left", "left", "up", "right"], "actionTimes": [2461, 3433, 4819, 5956, 9780], "queries": {"click": {"state": {"target": [], "time": []}, "edge": {"target": [], "time": []}}, "mouseover": {"state": {"target": [], "time": []}, "edge": {"target": [], "time": []}}, "mouseout": {"state": {"target": ["0", "0"], "time": [1104, 10841]}, "edge": {"target": [], "time": []}}}, "displayed_time": "15.22", "trialTime": 18425, "trial_type": "mouselab-mdp", "trial_index": 22, "time_elapsed": 1144214, "internal_node_id": "0.0-6.0-1.0-13.0"}}, {"uniqueid": "w21067498:a29687335", "current_trial": 23, "dateTime": 1693482189365, "trialdata": {"revealed_states": [], "clicked_states": [], "num_clicks_accrued": [0, 0, 0, 0, 0, 0, 0, 0, 0, 0, 0, 0, 0], "stateRewards": ["", 2, 3, 8, 11, 25, -80, 6, -4, -56, 84, -23, -2, -4, -3, 4, -51, -9, -61, -15, -64, 67, -35, 1, -1, -7, -6, 83, 59, -15, 12, -79, 56, 41], "withholdReward": false, "trial_id": "mdp_trial_15", "block": "test", "trialIndex": 16, "score": -28, "costs": 0, "simulationMode": [null, null, null, null, null], "rewards": [1, -1, -7, -6, -15], "path": ["0", "0", "23", "24", "25", "26", "29"], "rt": [1359, 522, 574, 636, 729], "actions": ["left", "left", "left", "up", "left"], "actionTimes": [2711, 3751, 4821, 5951, 7178], "queries": {"click": {"state": {"target": [], "time": []}, "edge": {"target": [], "time": []}}, "mouseover": {"state": {"target": ["0"], "time": [1696]}, "edge": {"target": [], "time": []}}, "mouseout": {"state": {"target": ["0", "0", "0"], "time": [409, 2845, 10913]}, "edge": {"target": [], "time": []}}}, "displayed_time": "15.35", "trialTime": 17611, "trial_type": "mouselab-mdp", "trial_index": 23, "time_elapsed": 1162062, "internal_node_id": "0.0-6.0-1.0-14.0"}}, {"uniqueid": "w21067498:a29687335", "current_trial": 24, "dateTime": 1693482212585, "trialdata": {"revealed_states": [], "clicked_states": [], "num_clicks_accrued": [0, 0, 0, 0, 0, 0, 0, 0, 0, 0, 0, 0, 0], "stateRewards": ["", 2, -2, 7, -11, -76, -65, -23, 16, -58, 30, 81, 1, 2, 7, 14, 9, 55, -2, 6, 11, -15, 31, -1, -1, -3, 2, 15, 2, 46, 15, 18, 45, -34], "withholdReward": false, "trial_id": "mdp_trial_16", "block": "test", "trialIndex": 17, "score": 55, "costs": 0, "simulationMode": [null, null, null, null, null], "rewards": [-1, -1, -3, 15, 45], "path": ["0", "0", "23", "24", "25", "30", "32"], "rt": [1090, 437, 515, 862, 1084], "actions": ["left", "left", "left", "down", "down"], "actionTimes": [5328, 6257, 7269, 8632, 10219], "queries": {"click": {"state": {"target": [], "time": []}, "edge": {"target": [], "time": []}}, "mouseover": {"state": {"target": [], "time": []}, "edge": {"target": [], "time": []}}, "mouseout": {"state": {"target": ["0", "0"], "time": [773, 12369]}, "edge": {"target": [], "time": []}}}, "displayed_time": "18.24", "trialTime": 23002, "trial_type": "mouselab-mdp", "trial_index": 24, "time_elapsed": 1185282, "internal_node_id": "0.0-6.0-1.0-15.0"}}, {"uniqueid": "w21067498:a29687335", "current_trial": 25, "dateTime": 1693482230011, "trialdata": {"revealed_states": [], "clicked_states": [], "num_clicks_accrued": [0, 0, 0, 0, 0, 0, 0, 0, 0, 0, 0, 0, 0], "stateRewards": ["", 1, -4, 6, -3, 40, 76, -51, 5, -24, -63, 44, -2, -2, 8, 1, 76, -85, -58, 10, 59, 20, 11, -2, 3, -3, 3, -82, -10, 54, -7, -57, -6, -32], "withholdReward": false, "trial_id": "mdp_trial_17", "block": "test", "trialIndex": 18, "score": -66, "costs": 0, "simulationMode": [null, null, null, null, null], "rewards": [-2, 3, -3, -7, -57], "path": ["0", "0", "23", "24", "25", "30", "31"], "rt": [925, 558, 863, 617, 1103], "actions": ["left", "left", "left", "down", "right"], "actionTimes": [2512, 3566, 4925, 6041, 7645], "queries": {"click": {"state": {"target": [], "time": []}, "edge": {"target": [], "time": []}}, "mouseover": {"state": {"target": [], "time": []}, "edge": {"target": [], "time": []}}, "mouseout": {"state": {"target": ["0"], "time": [14740]}, "edge": {"target": [], "time": []}}}, "displayed_time": "15.59", "trialTime": 17181, "trial_type": "mouselab-mdp", "trial_index": 25, "time_elapsed": 1202708, "internal_node_id": "0.0-6.0-1.0-16.0"}}, {"uniqueid": "w21067498:a29687335", "current_trial": 26, "dateTime": 1693482248974, "trialdata": {"revealed_states": [], "clicked_states": [], "num_clicks_accrued": [0, 0, 0, 0, 0, 0, 0, 0, 0, 0, 0, 0, 0], "stateRewards": ["", -1, 2, -2, 5, 80, -61, -27, 12, 44, -26, -75, -2, -4, 1, -16, 42, -49, -50, 4, -44, 2, 80, -2, -2, 5, -2, 59, 10, 24, 7, -48, -86, -44], "withholdReward": false, "trial_id": "mdp_trial_18", "block": "test", "trialIndex": 19, "score": 21, "costs": 0, "simulationMode": [null, null, null, null, null], "rewards": [-2, -4, 1, -16, 42], "path": ["0", "0", "12", "13", "14", "15", "16"], "rt": [936, 440, 329, 355, 354], "actions": ["right", "right", "right", "up", "up"], "actionTimes": [2253, 3197, 4021, 4880, 5729], "queries": {"click": {"state": {"target": [], "time": []}, "edge": {"target": [], "time": []}}, "mouseover": {"state": {"target": [], "time": []}, "edge": {"target": [], "time": []}}, "mouseout": {"state": {"target": ["0"], "time": [11524]}, "edge": {"target": [], "time": []}}}, "displayed_time": "15.32", "trialTime": 18762, "trial_type": "mouselab-mdp", "trial_index": 26, "time_elapsed": 1221671, "internal_node_id": "0.0-6.0-1.0-17.0"}}, {"uniqueid": "w21067498:a29687335", "current_trial": 27, "dateTime": 1693482266681, "trialdata": {"revealed_states": [], "clicked_states": [], "num_clicks_accrued": [0, 0, 0, 0, 0, 0, 0, 0, 0, 0, 0, 0, 0], "stateRewards": ["", -2, 2, 3, -7, -31, -33, 29, -8, -57, 50, -83, -1, -1, 5, 13, -23, -62, 25, 5, -66, -85, 14, 1, -2, -1, 16, 71, 33, -19, -14, 5, -43, 79], "withholdReward": false, "trial_id": "mdp_trial_19", "block": "test", "trialIndex": 20, "score": -58, "costs": 0, "simulationMode": [null, null, null, null, null], "rewards": [-1, -1, 5, 5, -66], "path": ["0", "0", "12", "13", "14", "19", "20"], "rt": [1159, 363, 422, 424, 1886], "actions": ["right", "right", "right", "down", "right"], "actionTimes": [2457, 3332, 4275, 5194, 7574], "queries": {"click": {"state": {"target": [], "time": []}, "edge": {"target": [], "time": []}}, "mouseover": {"state": {"target": [], "time": []}, "edge": {"target": [], "time": []}}, "mouseout": {"state": {"target": ["0"], "time": [8287]}, "edge": {"target": [], "time": []}}}, "displayed_time": "15.30", "trialTime": 17461, "trial_type": "mouselab-mdp", "trial_index": 27, "time_elapsed": 1239378, "internal_node_id": "0.0-6.0-1.0-18.0"}}, {"uniqueid": "w21067498:a29687335", "current_trial": 28, "dateTime": 1693482284604, "trialdata": {"revealed_states": [], "clicked_states": [], "num_clicks_accrued": [0, 0, 0, 0, 0, 0, 0, 0, 0, 0, 0, 0, 0], "stateRewards": ["", -1, 1, -5, -6, -78, 47, -13, 12, 48, -88, 20, 2, -3, -2, 13, -20, 37, -57, 14, -38, 30, 31, -2, -2, 8, 2, -23, 78, 28, 12, -74, -88, 8], "withholdReward": false, "trial_id": "mdp_trial_20", "block": "test", "trialIndex": 21, "score": -72, "costs": 0, "simulationMode": [null, null, null, null, null], "rewards": [-2, -2, 8, 12, -88], "path": ["0", "0", "23", "24", "25", "30", "32"], "rt": [1209, 426, 828, 904, 204], "actions": ["left", "left", "left", "down", "down"], "actionTimes": [2388, 3313, 4630, 6043, 6740], "queries": {"click": {"state": {"target": [], "time": []}, "edge": {"target": [], "time": []}}, "mouseover": {"state": {"target": [], "time": []}, "edge": {"target": [], "time": []}}, "mouseout": {"state": {"target": ["0"], "time": [10167]}, "edge": {"target": [], "time": []}}}, "displayed_time": "15.18", "trialTime": 17698, "trial_type": "mouselab-mdp", "trial_index": 28, "time_elapsed": 1257300, "internal_node_id": "0.0-6.0-1.0-19.0"}}, {"uniqueid": "w21067498:a29687335", "current_trial": 29, "dateTime": 1693482301583, "trialdata": {"revealed_states": [], "clicked_states": [], "num_clicks_accrued": [0, 0, 0, 0, 0, 0, 0, 0, 0, 0, 0, 0, 0], "stateRewards": ["", -1, -3, -6, 14, 41, 18, 63, -14, 80, 21, 17, -2, -4, -2, -5, 13, 70, 8, -4, -64, -10, -20, 2, -1, 4, -1, -17, -55, 42, -7, 47, 54, 15], "withholdReward": false, "trial_id": "mdp_trial_21", "block": "test", "trialIndex": 22, "score": 46, "costs": 0, "simulationMode": [null, null, null, null, null], "rewards": [2, -1, 4, -1, 42], "path": ["0", "0", "23", "24", "25", "26", "29"], "rt": [1028, 431, 293, 401, 481], "actions": ["left", "left", "left", "up", "left"], "actionTimes": [2237, 3167, 3962, 4854, 5834], "queries": {"click": {"state": {"target": [], "time": []}, "edge": {"target": [], "time": []}}, "mouseover": {"state": {"target": [], "time": []}, "edge": {"target": [], "time": []}}, "mouseout": {"state": {"target": ["0"], "time": [11802]}, "edge": {"target": [], "time": []}}}, "displayed_time": "15.21", "trialTime": 16677, "trial_type": "mouselab-mdp", "trial_index": 29, "time_elapsed": 1274280, "internal_node_id": "0.0-6.0-1.0-20.0"}}, {"uniqueid": "w21067498:a29687335", "current_trial": 30, "dateTime": 1693482319001, "trialdata": {"revealed_states": [], "clicked_states": [], "num_clicks_accrued": [0, 0, 0, 0, 0, 0, 0, 0, 0, 0, 0, 0, 0], "stateRewards": ["", -2, 1, -3, -16, -39, -52, 30, -7, -41, -59, 11, 2, 1, 8, 2, -11, -26, -42, -13, 87, -59, -48, -1, -1, -1, 16, -79, 31, 50, -1, -84, 34, -82], "withholdReward": false, "trial_id": "mdp_trial_22", "block": "test", "trialIndex": 23, "score": -70, "costs": 0, "simulationMode": [null, null, null, null, null], "rewards": [-2, 1, -3, -7, -59], "path": ["0", "0", "1", "2", "3", "8", "10"], "rt": [921, 727, 460, 838, 600], "actions": ["up", "up", "up", "left", "down"], "actionTimes": [1680, 2907, 3858, 5187, 6282], "queries": {"click": {"state": {"target": [], "time": []}, "edge": {"target": [], "time": []}}, "mouseover": {"state": {"target": [], "time": []}, "edge": {"target": [], "time": []}}, "mouseout": {"state": {"target": ["0"], "time": [14863]}, "edge": {"target": [], "time": []}}}, "displayed_time": "14.76", "trialTime": 17138, "trial_type": "mouselab-mdp", "trial_index": 30, "time_elapsed": 1291697, "internal_node_id": "0.0-6.0-1.0-21.0"}}, {"uniqueid": "w21067498:a29687335", "current_trial": 31, "dateTime": 1693482336701, "trialdata": {"revealed_states": [], "clicked_states": [], "num_clicks_accrued": [0, 0, 0, 0, 0, 0, 0, 0, 0, 0, 0, 0, 0], "stateRewards": ["", 2, -3, 5, 11, -79, 54, 11, -9, -78, 33, 22, -2, -1, 2, 14, 43, 34, 1, 10, 49, -65, 39, -1, 1, -1, 3, -16, -2, 11, 2, 12, 48, -65], "withholdReward": false, "trial_id": "mdp_trial_23", "block": "test", "trialIndex": 24, "score": 17, "costs": 0, "simulationMode": [null, null, null, null, null], "rewards": [2, -3, 5, -9, 22], "path": ["0", "0", "1", "2", "3", "8", "11"], "rt": [1049, 431, 409, 606, 473], "actions": ["up", "up", "up", "left", "left"], "actionTimes": [1952, 2882, 3792, 4890, 5857], "queries": {"click": {"state": {"target": [], "time": []}, "edge": {"target": [], "time": []}}, "mouseover": {"state": {"target": [], "time": []}, "edge": {"target": [], "time": []}}, "mouseout": {"state": {"target": ["0"], "time": [11500]}, "edge": {"target": [], "time": []}}}, "displayed_time": "14.90", "trialTime": 17474, "trial_type": "mouselab-mdp", "trial_index": 31, "time_elapsed": 1309398, "internal_node_id": "0.0-6.0-1.0-22.0"}}, {"uniqueid": "w21067498:a29687335", "current_trial": 32, "dateTime": 1693482353093, "trialdata": {"revealed_states": [], "clicked_states": [], "num_clicks_accrued": [0, 0, 0, 0, 0, 0, 0, 0, 0, 0, 0, 0, 0], "stateRewards": ["", -1, -1, 7, -15, -43, -21, -84, -9, -45, -66, 2, 1, -2, 2, 8, -27, 44, -52, -5, -84, 11, 53, 1, 4, -4, 16, 83, -82, -15, -16, 68, -43, 81], "withholdReward": false, "trial_id": "mdp_trial_24", "block": "test", "trialIndex": 25, "score": -53, "costs": 0, "simulationMode": [null, null, null, null, null], "rewards": [-1, -1, 7, -15, -43], "path": ["0", "0", "1", "2", "3", "4", "5"], "rt": [1303, 350, 267, 774, 682], "actions": ["up", "up", "up", "right", "up"], "actionTimes": [2264, 3112, 3880, 5153, 6328], "queries": {"click": {"state": {"target": [], "time": []}, "edge": {"target": [], "time": []}}, "mouseover": {"state": {"target": [], "time": []}, "edge": {"target": [], "time": []}}, "mouseout": {"state": {"target": ["0"], "time": [10547]}, "edge": {"target": [], "time": []}}}, "displayed_time": "14.96", "trialTime": 16177, "trial_type": "mouselab-mdp", "trial_index": 32, "time_elapsed": 1325790, "internal_node_id": "0.0-6.0-1.0-23.0"}}, {"uniqueid": "w21067498:a29687335", "current_trial": 33, "dateTime": 1693482369711, "trialdata": {"revealed_states": [], "clicked_states": [], "num_clicks_accrued": [0, 0, 0, 0, 0, 0, 0, 0, 0, 0, 0, 0, 0], "stateRewards": ["", 2, 3, -2, -8, -8, -41, 74, 15, -23, -80, 1, 1, 3, 3, -15, -63, -78, 67, 13, 75, -41, 86, 2, -2, 6, -3, -8, -49, 50, -6, 83, 74, 80], "withholdReward": false, "trial_id": "mdp_trial_25", "block": "test", "trialIndex": 26, "score": -86, "costs": 0, "simulationMode": [null, null, null, null, null], "rewards": [1, 3, 3, -15, -78], "path": ["0", "0", "12", "13", "14", "15", "17"], "rt": [1169, 405, 415, 600, 408], "actions": ["right", "right", "right", "up", "right"], "actionTimes": [2060, 2958, 3869, 4969, 5879], "queries": {"click": {"state": {"target": [], "time": []}, "edge": {"target": [], "time": []}}, "mouseover": {"state": {"target": [], "time": []}, "edge": {"target": [], "time": []}}, "mouseout": {"state": {"target": ["0"], "time": [9303]}, "edge": {"target": [], "time": []}}}, "displayed_time": "14.89", "trialTime": 16319, "trial_type": "mouselab-mdp", "trial_index": 33, "time_elapsed": 1342408, "internal_node_id": "0.0-6.0-1.0-24.0"}}, {"uniqueid": "w21067498:a29687335", "current_trial": 34, "dateTime": 1693482391352, "trialdata": {"revealed_states": [], "clicked_states": [], "num_clicks_accrued": [0, 0, 0, 0, 0, 0, 0, 0, 0, 0, 0, 0, 0], "stateRewards": ["", 2, -3, -2, 14, -4, 85, 46, 15, -28, 41, 31, -1, -1, -1, 5, 62, 79, 57, 12, -73, -64, 86, -1, 1, -3, -5, 68, 11, -32, 8, -80, -21, -56], "withholdReward": false, "trial_id": "mdp_trial_26", "block": "test", "trialIndex": 27, "score": 60, "costs": 0, "simulationMode": [null, null, null, null, null], "rewards": [-1, 1, -3, -5, 68], "path": ["0", "0", "23", "24", "25", "26", "27"], "rt": [862, 260, 403, 652, 209], "actions": ["left", "left", "left", "up", "up"], "actionTimes": [2326, 3084, 3977, 5126, 5833], "queries": {"click": {"state": {"target": [], "time": []}, "edge": {"target": [], "time": []}}, "mouseover": {"state": {"target": [], "time": []}, "edge": {"target": [], "time": []}}, "mouseout": {"state": {"target": ["0"], "time": [15173]}, "edge": {"target": [], "time": []}}}, "displayed_time": "15.46", "trialTime": 21378, "trial_type": "mouselab-mdp", "trial_index": 34, "time_elapsed": 1364049, "internal_node_id": "0.0-6.0-1.0-25.0"}}, {"uniqueid": "w21067498:a29687335", "current_trial": 35, "dateTime": 1693482409562, "trialdata": {"revealed_states": [], "clicked_states": [], "num_clicks_accrued": [0, 0, 0, 0, 0, 0, 0, 0, 0, 0, 0, 0, 0], "stateRewards": ["", -1, -4, -3, 1, -45, -67, -24, 14, 32, 22, 22, -1, 1, -5, -7, 72, 84, -79, -5, 19, -40, -2, -1, -2, 8, -3, 84, -25, -28, 11, 64, -66, 77], "withholdReward": false, "trial_id": "mdp_trial_27", "block": "test", "trialIndex": 28, "score": 80, "costs": 0, "simulationMode": [null, null, null, null, null], "rewards": [-1, -2, 8, 11, 64], "path": ["0", "0", "23", "24", "25", "30", "31"], "rt": [1213, 370, 248, 783, 920], "actions": ["left", "left", "left", "down", "right"], "actionTimes": [2236, 3107, 3852, 5136, 6563], "queries": {"click": {"state": {"target": [], "time": []}, "edge": {"target": [], "time": []}}, "mouseover": {"state": {"target": [], "time": []}, "edge": {"target": [], "time": []}}, "mouseout": {"state": {"target": ["0"], "time": [1552]}, "edge": {"target": [], "time": []}}}, "displayed_time": "15.02", "trialTime": 17968, "trial_type": "mouselab-mdp", "trial_index": 35, "time_elapsed": 1382259, "internal_node_id": "0.0-6.0-1.0-26.0"}}, {"uniqueid": "w21067498:a29687335", "current_trial": 36, "dateTime": 1693482425879, "trialdata": {"revealed_states": [], "clicked_states": [], "num_clicks_accrued": [0, 0, 0, 0, 0, 0, 0, 0, 0, 0, 0, 0, 0], "stateRewards": ["", -2, -4, -6, 12, -58, -70, -80, 2, 16, -88, -62, 1, 2, -5, 11, 77, -35, -44, -5, 18, -83, 87, 1, -3, -5, 13, -44, -21, -86, 10, -52, 8, 29], "withholdReward": false, "trial_id": "mdp_trial_28", "block": "test", "trialIndex": 29, "score": -70, "costs": 0, "simulationMode": [null, null, null, null, null], "rewards": [-2, -4, -6, 12, -70], "path": ["0", "0", "1", "2", "3", "4", "6"], "rt": [1114, 486, 666, 739, 456], "actions": ["up", "up", "up", "right", "right"], "actionTimes": [2106, 3094, 4256, 5495, 6447], "queries": {"click": {"state": {"target": [], "time": []}, "edge": {"target": [], "time": []}}, "mouseover": {"state": {"target": [], "time": []}, "edge": {"target": [], "time": []}}, "mouseout": {"state": {"target": ["0"], "time": [12040]}, "edge": {"target": [], "time": []}}}, "displayed_time": "14.99", "trialTime": 16020, "trial_type": "mouselab-mdp", "trial_index": 36, "time_elapsed": 1398576, "internal_node_id": "0.0-6.0-1.0-27.0"}}, {"uniqueid": "w21067498:a29687335", "current_trial": 37, "dateTime": 1693482443481, "trialdata": {"revealed_states": [], "clicked_states": [], "num_clicks_accrued": [0, 0, 0, 0, 0, 0, 0, 0, 0, 0, 0, 0, 0], "stateRewards": ["", 2, 3, 8, 14, 69, -27, 17, 2, -71, -65, -10, 2, -3, 7, 8, 65, -10, 65, -12, 73, -12, 13, -2, -2, 6, 10, -79, -69, -18, 10, -85, 67, 74], "withholdReward": false, "trial_id": "mdp_trial_29", "block": "test", "trialIndex": 30, "score": -18, "costs": 0, "simulationMode": [null, null, null, null, null], "rewards": [2, -3, 7, -12, -12], "path": ["0", "0", "12", "13", "14", "19", "21"], "rt": [1468, 318, 165, 397, 74], "actions": ["right", "right", "right", "down", "down"], "actionTimes": [2568, 3388, 4052, 4952, 5544], "queries": {"click": {"state": {"target": [], "time": []}, "edge": {"target": [], "time": []}}, "mouseover": {"state": {"target": [], "time": []}, "edge": {"target": [], "time": []}}, "mouseout": {"state": {"target": ["0"], "time": [6904]}, "edge": {"target": [], "time": []}}}, "displayed_time": "15.10", "trialTime": 17351, "trial_type": "mouselab-mdp", "trial_index": 37, "time_elapsed": 1416178, "internal_node_id": "0.0-6.0-1.0-28.0"}}, {"uniqueid": "w21067498:a29687335", "current_trial": 38, "dateTime": 1693482462904, "trialdata": {"revealed_states": [], "clicked_states": [], "num_clicks_accrued": [0, 0, 0, 0, 0, 0, 0, 0, 0, 0, 0, 0, 0], "stateRewards": ["", 2, -3, -8, 14, -7, -51, 73, 2, 36, 36, -43, -1, 3, -4, 1, 6, 87, -65, 15, 61, -42, -83, -1, 3, -2, -7, 30, -48, 35, 13, 26, 60, 78], "withholdReward": false, "trial_id": "mdp_trial_30", "block": "test", "trialIndex": 31, "score": 91, "costs": 0, "simulationMode": [null, null, null, null, null], "rewards": [-1, 3, -2, 13, 78], "path": ["0", "0", "23", "24", "25", "30", "33"], "rt": [1329, 402, 370, 423, 589], "actions": ["left", "left", "left", "down", "left"], "actionTimes": [3335, 4232, 5100, 6018, 7103], "queries": {"click": {"state": {"target": [], "time": []}, "edge": {"target": [], "time": []}}, "mouseover": {"state": {"target": [], "time": []}, "edge": {"target": [], "time": []}}, "mouseout": {"state": {"target": ["0"], "time": [788]}, "edge": {"target": [], "time": []}}}, "displayed_time": "16.01", "trialTime": 19180, "trial_type": "mouselab-mdp", "trial_index": 38, "time_elapsed": 1435601, "internal_node_id": "0.0-6.0-1.0-29.0"}}, {"uniqueid": "w21067498:a29687335", "current_trial": 39, "dateTime": 1693482493408, "trialdata": {"revealed_states": [], "clicked_states": [], "num_clicks_accrued": [0, 0, 0, 0, 0, 0, 0, 0, 0, 0, 0, 0, 0], "stateRewards": ["", 2, -1, 5, 8, 75, -35, -77, 1, -9, -81, -58, 1, 2, -7, 5, 77, -16, 19, 16, -10, -18, 40, -2, 3, 7, -5, 64, 1, -62, 10, 27, 10, 65], "withholdReward": false, "trial_id": "mdp_trial_31", "block": "test", "trialIndex": 32, "score": 28, "costs": 0, "simulationMode": [null, null, null, null, null], "rewards": [-2, 3, 7, 10, 10], "path": ["0", "0", "23", "24", "25", "30", "32"], "rt": [719, 362, 466, 770, 513], "actions": ["left", "left", "left", "down", "down"], "actionTimes": [4511, 5397, 6366, 7631, 8641], "queries": {"click": {"state": {"target": [], "time": []}, "edge": {"target": [], "time": []}}, "mouseover": {"state": {"target": [], "time": []}, "edge": {"target": [], "time": []}}, "mouseout": {"state": {"target": ["0"], "time": [844]}, "edge": {"target": [], "time": []}}}, "displayed_time": "17.79", "trialTime": 30248, "trial_type": "mouselab-mdp", "trial_index": 39, "time_elapsed": 1466105, "internal_node_id": "0.0-6.0-1.0-30.0"}}, {"uniqueid": "w21067498:a29687335", "current_trial": 40, "dateTime": 1693482513825, "trialdata": {"revealed_states": [], "clicked_states": [], "num_clicks_accrued": [0, 0, 0, 0, 0, 0, 0, 0, 0, 0, 0, 0, 0], "stateRewards": ["", -2, 2, 3, -7, 76, 63, 21, 15, 35, -8, -44, 1, 1, -2, -12, 23, 24, 76, -9, 46, 66, -49, -2, -1, 7, 12, 40, -71, -45, -6, 38, -49, 46], "withholdReward": false, "trial_id": "mdp_trial_32", "block": "test", "trialIndex": 33, "score": 56, "costs": 0, "simulationMode": [null, null, null, null, null], "rewards": [-2, -1, 7, 12, 40], "path": ["0", "0", "23", "24", "25", "26", "27"], "rt": [929, 399, 274, 377, 278], "actions": ["left", "left", "left", "up", "up"], "actionTimes": [2132, 3031, 3813, 4690, 5459], "queries": {"click": {"state": {"target": [], "time": []}, "edge": {"target": [], "time": []}}, "mouseover": {"state": {"target": [], "time": []}, "edge": {"target": [], "time": []}}, "mouseout": {"state": {"target": ["0"], "time": [1055]}, "edge": {"target": [], "time": []}}}, "displayed_time": "15.20", "trialTime": 20183, "trial_type": "mouselab-mdp", "trial_index": 40, "time_elapsed": 1486522, "internal_node_id": "0.0-6.0-1.0-31.0"}}, {"uniqueid": "w21067498:a29687335", "current_trial": 41, "dateTime": 1693482538867, "trialdata": {"revealed_states": [], "clicked_states": [], "num_clicks_accrued": [0, 0, 0, 0, 0, 0, 0, 0, 0, 0, 0, 0, 0], "stateRewards": ["", -2, 2, -5, 1, 42, -63, -58, -6, 2, 16, 81, -2, 4, 7, -10, 33, 3, -33, -2, -52, -84, -27, 2, -3, -3, 15, -74, -14, -5, -5, -84, 79, -31], "withholdReward": false, "trial_id": "mdp_trial_33", "block": "test", "trialIndex": 34, "score": 32, "costs": 0, "simulationMode": [null, null, null, null, null], "rewards": [-2, 4, 7, -10, 33], "path": ["0", "0", "12", "13", "14", "15", "16"], "rt": [1169, 348, 169, 388, 65], "actions": ["right", "right", "right", "up", "up"], "actionTimes": [2788, 3634, 4304, 5191, 5750], "queries": {"click": {"state": {"target": [], "time": []}, "edge": {"target": [], "time": []}}, "mouseover": {"state": {"target": [], "time": []}, "edge": {"target": [], "time": []}}, "mouseout": {"state": {"target": ["0"], "time": [501]}, "edge": {"target": [], "time": []}}}, "displayed_time": "15.62", "trialTime": 24794, "trial_type": "mouselab-mdp", "trial_index": 41, "time_elapsed": 1511563, "internal_node_id": "0.0-6.0-1.0-32.0"}}, {"uniqueid": "w21067498:a29687335", "current_trial": 42, "dateTime": 1693482559297, "trialdata": {"revealed_states": [], "clicked_states": [], "num_clicks_accrued": [0, 0, 0, 0, 0, 0, 0, 0, 0, 0, 0, 0, 0], "stateRewards": ["", -2, -1, -4, -15, -14, -67, 32, -3, -59, 63, 31, 2, -1, -7, -15, 71, -66, -27, -3, -54, -39, 72, 2, 1, 1, -13, 77, -40, 35, -9, 35, 75, 57], "withholdReward": false, "trial_id": "mdp_trial_34", "block": "test", "trialIndex": 35, "score": -36, "costs": 0, "simulationMode": [null, null, null, null, null], "rewards": [-2, -1, -4, -15, -14], "path": ["0", "0", "1", "2", "3", "4", "5"], "rt": [425, 759, 418, 610, 933], "actions": ["up", "up", "up", "right", "up"], "actionTimes": [1967, 3220, 4130, 5241, 6677], "queries": {"click": {"state": {"target": [], "time": []}, "edge": {"target": [], "time": []}}, "mouseover": {"state": {"target": [], "time": []}, "edge": {"target": [], "time": []}}, "mouseout": {"state": {"target": ["0"], "time": [1398]}, "edge": {"target": [], "time": []}}}, "displayed_time": "15.54", "trialTime": 20166, "trial_type": "mouselab-mdp", "trial_index": 42, "time_elapsed": 1531994, "internal_node_id": "0.0-6.0-1.0-33.0"}}, {"uniqueid": "w21067498:a29687335", "current_trial": 43, "dateTime": 1693482582548, "trialdata": {"revealed_states": [], "clicked_states": [], "num_clicks_accrued": [0, 0, 0, 0, 0, 0, 0, 0, 0, 0, 0, 0, 0], "stateRewards": ["", -1, 4, -5, 9, 29, -75, -42, -16, 24, -28, -41, 2, -3, 1, 10, 60, 47, 55, -1, -53, 22, -40, 2, -3, -6, 4, -26, 44, 54, 15, -76, 42, 14], "withholdReward": false, "trial_id": "mdp_trial_35", "block": "test", "trialIndex": 36, "score": 65, "costs": 0, "simulationMode": [null, null, null, null, null], "rewards": [2, -3, 1, 10, 55], "path": ["0", "0", "12", "13", "14", "15", "18"], "rt": [939, 483, 375, 350, 385], "actions": ["right", "right", "right", "up", "left"], "actionTimes": [2495, 3474, 4348, 5193, 6094], "queries": {"click": {"state": {"target": [], "time": []}, "edge": {"target": [], "time": []}}, "mouseover": {"state": {"target": [], "time": []}, "edge": {"target": [], "time": []}}, "mouseout": {"state": {"target": ["0"], "time": [1411]}, "edge": {"target": [], "time": []}}}, "displayed_time": "15.56", "trialTime": 23013, "trial_type": "mouselab-mdp", "trial_index": 43, "time_elapsed": 1555245, "internal_node_id": "0.0-6.0-1.0-34.0"}}, {"uniqueid": "w21067498:a29687335", "current_trial": 44, "dateTime": 1693482602912, "trialdata": {"revealed_states": [], "clicked_states": [], "num_clicks_accrued": [0, 0, 0, 0, 0, 0, 0, 0, 0, 0, 0, 0, 0], "stateRewards": ["", -2, -3, 4, 1, 33, -53, 15, 9, -12, 61, -6, -2, 4, 6, -11, 47, -43, -7, -11, 46, 23, -28, -1, -1, 3, -10, 11, 76, -76, 10, 18, -38, 87], "withholdReward": false, "trial_id": "mdp_trial_36", "block": "test", "trialIndex": 37, "score": -27, "costs": 0, "simulationMode": [null, null, null, null, null], "rewards": [-1, -1, 3, 10, -38], "path": ["0", "0", "23", "24", "25", "30", "32"], "rt": [715, 209, 473, 1491, 431], "actions": ["left", "left", "left", "down", "down"], "actionTimes": [2746, 3468, 4431, 6433, 7373], "queries": {"click": {"state": {"target": [], "time": []}, "edge": {"target": [], "time": []}}, "mouseover": {"state": {"target": [], "time": []}, "edge": {"target": [], "time": []}}, "mouseout": {"state": {"target": ["0"], "time": [1869]}, "edge": {"target": [], "time": []}}}, "displayed_time": "16.03", "trialTime": 20125, "trial_type": "mouselab-mdp", "trial_index": 44, "time_elapsed": 1575609, "internal_node_id": "0.0-6.0-1.0-35.0"}}, {"uniqueid": "w21067498:a29687335", "current_trial": 45, "dateTime": 1693482621980, "trialdata": {"revealed_states": [], "clicked_states": [], "num_clicks_accrued": [0, 0, 0, 0, 0, 0, 0, 0, 0, 0, 0, 0, 0], "stateRewards": ["", 2, -4, -4, 13, -80, 62, 13, -11, 57, -13, -44, 1, 4, 3, -4, -29, -88, 15, 16, -58, 68, -45, -1, -3, -1, -9, -44, -86, -19, -7, -36, 59, 66], "withholdReward": false, "trial_id": "mdp_trial_37", "block": "test", "trialIndex": 38, "score": -100, "costs": 0, "simulationMode": [null, null, null, null, null], "rewards": [-1, -3, -1, -9, -86], "path": ["0", "0", "23", "24", "25", "26", "28"], "rt": [606, 325, 103, 871, 142], "actions": ["left", "left", "left", "up", "right"], "actionTimes": [1804, 2621, 3216, 4584, 5223], "queries": {"click": {"state": {"target": [], "time": []}, "edge": {"target": [], "time": []}}, "mouseover": {"state": {"target": [], "time": []}, "edge": {"target": [], "time": []}}, "mouseout": {"state": {"target": ["0", "0"], "time": [1054, 17080]}, "edge": {"target": [], "time": []}}}, "displayed_time": "15.20", "trialTime": 18829, "trial_type": "mouselab-mdp", "trial_index": 45, "time_elapsed": 1594677, "internal_node_id": "0.0-6.0-1.0-36.0"}}, {"uniqueid": "w21067498:a29687335", "current_trial": 46, "dateTime": 1693482648210, "trialdata": {"revealed_states": [], "clicked_states": [], "num_clicks_accrued": [0, 0, 0, 0, 0, 0, 0, 0, 0, 0, 0, 0, 0], "stateRewards": ["", 1, 1, -7, -9, -44, 24, -83, -15, 44, -24, 72, -2, -3, 4, -5, 57, 55, 29, -11, 22, 12, -25, -1, 2, 7, 12, 33, -8, 47, -4, 8, 50, -4], "withholdReward": false, "trial_id": "mdp_trial_38", "block": "test", "trialIndex": 39, "score": 54, "costs": 0, "simulationMode": [null, null, null, null, null], "rewards": [-1, 2, 7, -4, 50], "path": ["0", "0", "23", "24", "25", "30", "32"], "rt": [686, 221, 641, 1820, 168], "actions": ["left", "left", "left", "down", "down"], "actionTimes": [3011, 3734, 4874, 7185, 7851], "queries": {"click": {"state": {"target": [], "time": []}, "edge": {"target": [], "time": []}}, "mouseover": {"state": {"target": [], "time": []}, "edge": {"target": [], "time": []}}, "mouseout": {"state": {"target": [], "time": []}, "edge": {"target": [], "time": []}}}, "displayed_time": "16.33", "trialTime": 25993, "trial_type": "mouselab-mdp", "trial_index": 46, "time_elapsed": 1620907, "internal_node_id": "0.0-6.0-1.0-37.0"}}, {"uniqueid": "w21067498:a29687335", "current_trial": 47, "dateTime": 1693482667647, "trialdata": {"revealed_states": [], "clicked_states": [], "num_clicks_accrued": [0, 0, 0, 0, 0, 0, 0, 0, 0, 0, 0, 0, 0], "stateRewards": ["", 2, 4, 4, 9, -88, -10, 44, 16, -54, 64, 78, 1, 2, 5, 16, 80, 36, 7, -4, 9, -47, -70, -1, -3, 6, -16, 11, 80, 28, 8, -1, 34, -17], "withholdReward": false, "trial_id": "mdp_trial_39", "block": "test", "trialIndex": 40, "score": -43, "costs": 0, "simulationMode": [null, null, null, null, null], "rewards": [1, 2, 5, -4, -47], "path": ["0", "0", "12", "13", "14", "19", "21"], "rt": [397, 108, 132, 465, 119], "actions": ["right", "right", "right", "down", "down"], "actionTimes": [1730, 2330, 2952, 3935, 4556], "queries": {"click": {"state": {"target": [], "time": []}, "edge": {"target": [], "time": []}}, "mouseover": {"state": {"target": [], "time": []}, "edge": {"target": [], "time": []}}, "mouseout": {"state": {"target": [], "time": []}, "edge": {"target": [], "time": []}}}, "displayed_time": "15.34", "trialTime": 19200, "trial_type": "mouselab-mdp", "trial_index": 47, "time_elapsed": 1640344, "internal_node_id": "0.0-6.0-1.0-38.0"}}, {"uniqueid": "w21067498:a29687335", "current_trial": 48, "dateTime": 1693482689776, "trialdata": {"revealed_states": [], "clicked_states": [], "num_clicks_accrued": [0, 0, 0, 0, 0, 0, 0, 0, 0, 0, 0, 0, 0], "stateRewards": ["", 1, -1, 8, -3, 38, 85, -20, -4, 8, 23, 73, 2, -4, 6, -13, 44, 7, -28, -11, -77, 45, -69, 1, -1, -7, -11, 75, -51, -87, 7, 36, -53, -26], "withholdReward": false, "trial_id": "mdp_trial_40", "block": "test", "trialIndex": 41, "score": 77, "costs": 0, "simulationMode": [null, null, null, null, null], "rewards": [1, -1, 8, -4, 73], "path": ["0", "0", "1", "2", "3", "8", "11"], "rt": [1142, 300, 226, 338, 315], "actions": ["up", "up", "up", "left", "left"], "actionTimes": [4416, 5215, 5942, 6781, 7595], "queries": {"click": {"state": {"target": [], "time": []}, "edge": {"target": [], "time": []}}, "mouseover": {"state": {"target": [], "time": []}, "edge": {"target": [], "time": []}}, "mouseout": {"state": {"target": ["0", "0", "0"], "time": [1656, 1938, 20880]}, "edge": {"target": [], "time": []}}}, "displayed_time": "17.28", "trialTime": 21856, "trial_type": "mouselab-mdp", "trial_index": 48, "time_elapsed": 1662472, "internal_node_id": "0.0-6.0-1.0-39.0"}}, {"uniqueid": "w21067498:a29687335", "current_trial": 49, "dateTime": 1693482805277, "trialdata": {"rt": 115408, "response": {"Q0": "$-2 to $2", "Q1": "$-16 to $16", "Q2": "$-32 to $32", "Q3": "There was no cost for clicking on nodes.", "Q4": "Slightly motivated"}, "question_order": [0, 1, 2, 3, 4], "trial_id": "final_quiz_control", "trial_type": "survey-multi-choice", "trial_index": 49, "time_elapsed": 1777973, "internal_node_id": "0.0-6.0-2.0"}}, {"uniqueid": "w21067498:a29687335", "current_trial": 50, "dateTime": 1693483073618, "trialdata": {"rt": 268112, "response": {"Q0": "I honestly did not have any strategy. I just made sure that I do not do one side multiple times. ", "Q1": "No I did not", "Q2": "it was quite difficult. think it was difficult because I couldn't see the node values, I don't know if i didn't understand the instructions or what. I was just guessing my way through"}, "trial_id": "self_report_control", "trial_type": "survey-text", "trial_index": 50, "time_elapsed": 2046315, "internal_node_id": "0.0-6.0-3.0"}}, {"uniqueid": "w21067498:a29687335", "current_trial": 51, "dateTime": 1693483102136, "trialdata": {"rt": 28488, "response": {"gender": "female", "age": "24", "colorblind": "0", "effort": "0"}, "trial_type": "survey-html-form", "trial_index": 51, "time_elapsed": 2074833, "internal_node_id": "0.0-6.0-4.0"}}, {"uniqueid": "w21067498:a29687335", "current_trial": 52, "dateTime": 1693483281167, "trialdata": {"rt": 179026, "response": {"Q0": "I think I didn't quite understand how the node inspector works. I did understand the instructions but when the rounds started, I couldn't see anything, the cost nor the values.", "Q1": "no I have not participated in Web of Cash before", "Q2": ""}, "trial_type": "survey-text", "trial_index": 52, "time_elapsed": 2253864, "internal_node_id": "0.0-6.0-5.0"}}, {"uniqueid": "w21067498:a29687335", "current_trial": 53, "dateTime": 1693483339764, "trialdata": {"rt": 58551, "stimulus": "<h1>Completion Code Instructions (1/2)</h1>\n<br><br><br><br>\nYou have reached the end of the experiment! The completion code consists of two parts: (1) a code with 2 characters (2) a code with 6 characters. On this page, you will receive the second part of the code. The first part of the completion code will be on the next page.\n<br><br>\nThe second part of your completion code is: <b>EWEK22</b>\n<br><br>\nPlease note this down. Then, press 'Finish HIT' in order to find the first part of your completion code. Once the data has been saved, you will receive this code either in this window or in the original browser window where you started the experiment.\n", "response": 0, "trial_type": "html-button-response", "trial_index": 53, "time_elapsed": 2312461, "internal_node_id": "0.0-6.0-6.0"}}, {"uniqueid": "w21067498:a29687335", "current_trial": 54, "dateTime": 1693483340777, "trialdata": {"success": true, "trial_type": "fullscreen", "trial_index": 54, "time_elapsed": 2313474, "internal_node_id": "0.0-7.0"}}], "questiondata": {"params": {"CODE": "C6DMOQA6", "MIN_TIME": 14, "inspectCost": 1, "startTime": "Thu Aug 31 2023 13:23:43 GMT+0200 (South Africa Standard Time)", "bonusRate": 0.002, "variance": "1_2_4_8_44", "branching": "31123"}, "final_score": -146}, "eventdata": [{"eventtype": "initialized", "value": null, "timestamp": 1693481022847, "interval": 0}, {"eventtype": "window_resize", "value": [1024, 694], "timestamp": 1693481022847, "interval": 0}, {"eventtype": "window_resize", "value": [1024, 694], "timestamp": 1693481023386, "interval": 539}, {"eventtype": "focus", "value": "off", "timestamp": 1693481044038, "interval": 20652}, {"eventtype": "focus", "value": "on", "timestamp": 1693481047370, "interval": 3332}, {"eventtype": "window_resize", "value": [1366, 768], "timestamp": 1693481051319, "interval": 3949}, {"eventtype": "window_resize", "value": [1024, 694], "timestamp": 1693483340320, "interval": 2289001}], "useragent": "Mozilla/5.0 (Windows NT 10.0; Win64; x64) AppleWebKit/537.36 (KHTML, like Gecko) Chrome/116.0.0.0 Safari/537.36", "mode": "live", "id": "w21067498:a29687335", "status": "user data saved", "Beginhit": "2023-08-31 11:23:38.823992", "Beginexp": "2023-08-31 11:24:12.911505", "Endhit": "2023-08-31 12:02:22.599425", "psiturkStatus": 3, "browser": "<redacted>", "platform": "windows", "language": "en-ZA"}