{"condition": 1, "counterbalance": 0, "assignmentId": "a11213995", "workerId": "w42683226", "hitId": "h58513789", "currenttrial": 56, "bonus": 0, "data": [{"current_trial": 0, "dateTime": 1693565010947, "trialdata": {"internal_node_id": "0.0-0.0", "success": true, "time_elapsed": 8835, "trial_index": 0, "trial_type": "fullscreen"}, "uniqueid": "w42683226:a11213995"}, {"current_trial": 1, "dateTime": 1693565053736, "trialdata": {"internal_node_id": "0.0-1.0", "rt": 42762, "time_elapsed": 51625, "trial_id": "exp_instructions_misaligned", "trial_index": 1, "trial_type": "instructions", "view_history": [{"page_index": 0, "viewing_time": 42760}]}, "uniqueid": "w42683226:a11213995"}, {"current_trial": 2, "dateTime": 1693565324183, "trialdata": {"internal_node_id": "0.0-2.0-1.0", "rt": 270439, "time_elapsed": 322072, "trial_id": "mouselab_instructions_1_misaligned", "trial_index": 2, "trial_type": "instructions", "view_history": [{"page_index": 0, "viewing_time": 130008}, {"page_index": 1, "viewing_time": 77189}, {"page_index": 2, "viewing_time": 26594}, {"page_index": 3, "viewing_time": 36648}]}, "uniqueid": "w42683226:a11213995"}, {"current_trial": 3, "dateTime": 1693565358492, "trialdata": {"actionTimes": [11528, 14697, 15866, 17010, 17946], "actions": ["right", "right", "right", "up", "up"], "block": "test", "clicked_states": [], "costs": 0, "displayed_time": "18.45", "internal_node_id": "0.0-2.0-2.0-0.0", "num_clicks_accrued": [0, 0, 0, 0, 0, 0, 0, 0, 0, 0, 0, 0, 0], "path": ["0", "0", "12", "13", "14", "15", "16"], "queries": {"click": {"edge": {"target": [], "time": []}, "state": {"target": [], "time": []}}, "mouseout": {"edge": {"target": [], "time": []}, "state": {"target": ["12", "0", "0", "13", "14"], "time": [1145, 1939, 28150, 28244, 28311]}}, "mouseover": {"edge": {"target": [], "time": []}, "state": {"target": [], "time": []}}}, "revealed_states": [], "rewards": [10, -10, -10, -10, -10], "rt": [6040, 2632, 624, 631, 420], "score": -26.5, "simulationMode": [null, null, null, null, null], "stateRewards": ["", 10, 10, 10, -10, 10, -10, 10, 10, -10, -10, 10, 10, -10, -10, -10, -10, 10, -10, 10, -10, -10, -10, -10, 10, -10, 10, 10, 10, 10, -10, -10, 10, 10], "time_elapsed": 356380, "trialIndex": 0, "trialTime": 32668, "trial_id": "practice_1", "trial_index": 3, "trial_type": "mouselab-mdp", "withholdReward": false}, "uniqueid": "w42683226:a11213995"}, {"current_trial": 4, "dateTime": 1693565384786, "trialdata": {"actionTimes": [12181, 15875, 16689, 17490, 19611], "actions": ["left", "left", "left", "down", "down"], "block": "test", "clicked_states": [], "costs": 0, "displayed_time": "20.14", "internal_node_id": "0.0-2.0-2.0-1.0", "num_clicks_accrued": [0, 0, 0, 0, 0, 0, 0, 0, 0, 0, 0, 0, 0], "path": ["0", "0", "23", "24", "25", "30", "32"], "queries": {"click": {"edge": {"target": [], "time": []}, "state": {"target": [], "time": []}}, "mouseout": {"edge": {"target": [], "time": []}, "state": {"target": ["21", "22", "0", "0", "12", "13", "21"], "time": [6533, 8514, 8797, 22518, 22550, 22571, 24715]}}, "mouseover": {"edge": {"target": [], "time": []}, "state": {"target": [], "time": []}}}, "revealed_states": [], "rewards": [10, -10, 10, -10, 10], "rt": [1519, 3152, 277, 245, 1546], "score": 13.5, "simulationMode": [null, null, null, null, null], "stateRewards": ["", -10, -10, 10, 10, 10, -10, -10, 10, 10, 10, -10, 10, -10, 10, -10, -10, -10, 10, 10, -10, -10, 10, 10, -10, 10, -10, 10, -10, 10, -10, 10, 10, -10], "time_elapsed": 382674, "trialIndex": 1, "trialTime": 25651, "trial_id": "practice_2", "trial_index": 4, "trial_type": "mouselab-mdp", "withholdReward": false}, "uniqueid": "w42683226:a11213995"}, {"current_trial": 5, "dateTime": 1693565438335, "trialdata": {"internal_node_id": "0.0-2.0-3.0", "rt": 53540, "time_elapsed": 436224, "trial_id": "mouselab_instructions_2_misaligned", "trial_index": 5, "trial_type": "instructions", "view_history": [{"page_index": 0, "viewing_time": 40867}, {"page_index": 1, "viewing_time": 12672}]}, "uniqueid": "w42683226:a11213995"}, {"current_trial": 6, "dateTime": 1693565585231, "trialdata": {"correct": {"Q0": "The cost for clicking on nodes may vary between nodes.", "Q1": "The better I perform the higher my bonus will be.", "Q2": "No, the amount of cash at each node of the web may be different each time.", "Q3": "To get the highest total score.", "Q4": "Only before moving the spider.", "Q5": "3 seconds"}, "internal_node_id": "0.0-2.0-4.0", "question_order": [0, 1, 2, 3, 4, 5], "response": {"Q0": "The cost for clicking on nodes may vary between nodes.", "Q1": "The better I perform the higher my bonus will be.", "Q2": "No, the amount of cash at each node of the web may be different each time.", "Q3": "To get the highest total score.", "Q4": "Only before moving the spider.", "Q5": "3 seconds"}, "rt": 146691, "time_elapsed": 583120, "trial_id": "mouselab_quiz_misaligned", "trial_index": 6, "trial_type": "survey-multi-choice"}, "uniqueid": "w42683226:a11213995"}, {"current_trial": 7, "dateTime": 1693565596227, "trialdata": {"internal_node_id": "0.0-4.0-0.0", "question_order": [0], "response": {"Q0": "Not sure"}, "rt": 10977, "time_elapsed": 594116, "trial_id": "repeat_check", "trial_index": 7, "trial_type": "survey-multi-choice"}, "uniqueid": "w42683226:a11213995"}, {"current_trial": 8, "dateTime": 1693565623442, "trialdata": {"internal_node_id": "0.0-6.0-0.0", "response": " ", "rt": 27160, "stimulus": "\n<h1> Get ready to start the game! </h1>\n\nThank you for reading the instructions. Get ready start with the 40 rounds of this game.\n<br><br>\nIf you need to take a break, feel free to take one after the end of a round, before continuing to the next one.\n<br><br>\nRemember, the more money the spider gets, the bigger your bonus will be!\n<br><br>\n<div style='text-align: center;'>Press <code>space</code> to begin.</div>\n\n<br><br>\n(If, at any point, the <code>space</code> key does not take you to the next page, click once on the text and try again.)", "time_elapsed": 621331, "trial_id": "mdp_ready", "trial_index": 8, "trial_type": "html-keyboard-response"}, "uniqueid": "w42683226:a11213995"}, {"current_trial": 9, "dateTime": 1693565645161, "trialdata": {"actionTimes": [4788, 5762, 6450, 7255, 7910], "actions": ["left", "left", "left", "up", "up"], "block": "test", "clicked_states": [], "costs": 0, "displayed_time": "17.72", "internal_node_id": "0.0-6.0-1.0-0.0", "num_clicks_accrued": [0, 0, 0, 0, 0, 0, 0, 0, 0, 0, 0, 0, 0], "path": ["0", "0", "23", "24", "25", "26", "27"], "queries": {"click": {"edge": {"target": [], "time": []}, "state": {"target": [], "time": []}}, "mouseout": {"edge": {"target": [], "time": []}, "state": {"target": ["3", "2", "1", "0", "12", "15"], "time": [693, 726, 792, 15323, 15351, 15382]}}, "mouseover": {"edge": {"target": [], "time": []}, "state": {"target": [], "time": []}}}, "revealed_states": [], "rewards": [-1, 1, -2, 5, -37], "rt": [1067, 449, 182, 303, 141], "score": -34, "simulationMode": [null, null, null, null, null], "stateRewards": ["", 1, -2, 7, -14, 88, -56, -44, -14, 64, -51, -57, -2, 3, -4, -9, -11, 19, -77, -1, 68, 75, -67, -1, 1, -2, 5, -37, 70, -34, -10, -72, 63, -41], "time_elapsed": 643049, "trialIndex": 2, "trialTime": 20672, "trial_id": "mdp_trial_1", "trial_index": 9, "trial_type": "mouselab-mdp", "withholdReward": false}, "uniqueid": "w42683226:a11213995"}, {"current_trial": 10, "dateTime": 1693565668447, "trialdata": {"actionTimes": [3294, 3927, 4640, 5224, 13008], "actions": ["up", "up", "up", "left", "left"], "block": "test", "clicked_states": [], "costs": 0, "displayed_time": "16.55", "internal_node_id": "0.0-6.0-1.0-1.0", "num_clicks_accrued": [0, 0, 0, 0, 0, 0, 0, 0, 0, 0, 0, 0, 0], "path": ["0", "0", "1", "2", "3", "8", "11"], "queries": {"click": {"edge": {"target": [], "time": []}, "state": {"target": [], "time": []}}, "mouseout": {"edge": {"target": [], "time": []}, "state": {"target": ["0", "17"], "time": [7013, 7106]}}, "mouseover": {"edge": {"target": [], "time": []}, "state": {"target": [], "time": []}}}, "revealed_states": [], "rewards": [1, -2, -2, 9, 48], "rt": [743, 84, 194, 75, 7262], "score": 54, "simulationMode": [null, null, null, null, null], "stateRewards": ["", 1, -2, -2, 10, -31, -77, 35, 9, -47, 8, 48, -2, 1, -4, -3, -26, -50, 43, -11, 76, -38, 17, 1, -1, 6, 10, 15, -9, 12, -8, 85, 11, -55], "time_elapsed": 666335, "trialIndex": 3, "trialTime": 22252, "trial_id": "mdp_trial_2", "trial_index": 10, "trial_type": "mouselab-mdp", "withholdReward": false}, "uniqueid": "w42683226:a11213995"}, {"current_trial": 11, "dateTime": 1693565689932, "trialdata": {"actionTimes": [3718, 4388, 5231, 5959, 6647], "actions": ["right", "right", "right", "up", "up"], "block": "test", "clicked_states": [], "costs": 0, "displayed_time": "16.18", "internal_node_id": "0.0-6.0-1.0-2.0", "num_clicks_accrued": [0, 0, 0, 0, 0, 0, 0, 0, 0, 0, 0, 0, 0], "path": ["0", "0", "12", "13", "14", "15", "16"], "queries": {"click": {"edge": {"target": [], "time": []}, "state": {"target": [], "time": []}}, "mouseout": {"edge": {"target": [], "time": []}, "state": {"target": ["0", "0"], "time": [906, 8928]}}, "mouseover": {"edge": {"target": [], "time": []}, "state": {"target": [], "time": []}}}, "revealed_states": [], "rewards": [2, 3, -5, -9, 44], "rt": [1541, 141, 307, 201, 180], "score": 35, "simulationMode": [null, null, null, null, null], "stateRewards": ["", 2, 3, 6, -12, -29, 12, 87, 4, 35, -30, 67, 2, 3, -5, -9, 44, 69, -8, 1, 45, -8, 28, -2, -1, -8, 11, -12, -5, 81, 9, 87, 82, 88], "time_elapsed": 687819, "trialIndex": 4, "trialTime": 20386, "trial_id": "mdp_trial_3", "trial_index": 11, "trial_type": "mouselab-mdp", "withholdReward": false}, "uniqueid": "w42683226:a11213995"}, {"current_trial": 12, "dateTime": 1693565712279, "trialdata": {"actionTimes": [4090, 5767, 8736, 10213, 11090], "actions": ["right", "right", "right", "down", "down"], "block": "test", "clicked_states": [], "costs": 0, "displayed_time": "17.58", "internal_node_id": "0.0-6.0-1.0-3.0", "num_clicks_accrued": [0, 0, 0, 0, 0, 0, 0, 0, 0, 0, 0, 0, 0], "path": ["0", "0", "12", "13", "14", "19", "21"], "queries": {"click": {"edge": {"target": [], "time": []}, "state": {"target": [], "time": []}}, "mouseout": {"edge": {"target": [], "time": []}, "state": {"target": ["14", "13", "12", "19", "22"], "time": [1865, 1898, 2254, 19683, 20133]}}, "mouseover": {"edge": {"target": [], "time": []}, "state": {"target": [], "time": []}}}, "revealed_states": [], "rewards": [2, -4, 8, 14, 49], "rt": [512, 1146, 2439, 962, 329], "score": 69, "simulationMode": [null, null, null, null, null], "stateRewards": ["", 1, -1, 4, -2, -75, -75, 84, -9, -60, -79, 59, 2, -4, 8, 9, -17, -82, 80, 14, -4, 49, 49, -1, 3, 6, -11, -33, 34, 55, 9, -57, 5, 59], "time_elapsed": 710167, "trialIndex": 5, "trialTime": 21011, "trial_id": "mdp_trial_4", "trial_index": 12, "trial_type": "mouselab-mdp", "withholdReward": false}, "uniqueid": "w42683226:a11213995"}, {"current_trial": 13, "dateTime": 1693565737602, "trialdata": {"actionTimes": [5585, 7042, 8724, 9461, 10045], "actions": ["right", "right", "right", "up", "right"], "block": "test", "clicked_states": [], "costs": 0, "displayed_time": "17.65", "internal_node_id": "0.0-6.0-1.0-4.0", "num_clicks_accrued": [0, 0, 0, 0, 0, 0, 0, 0, 0, 0, 0, 0, 0], "path": ["0", "0", "12", "13", "14", "15", "17"], "queries": {"click": {"edge": {"target": [], "time": []}, "state": {"target": [], "time": []}}, "mouseout": {"edge": {"target": [], "time": []}, "state": {"target": ["0", "17"], "time": [12941, 13000]}}, "mouseover": {"edge": {"target": [], "time": []}, "state": {"target": [], "time": []}}}, "revealed_states": [], "rewards": [-2, -2, 8, 1, -85], "rt": [1942, 906, 1102, 237, 69], "score": -80, "simulationMode": [null, null, null, null, null], "stateRewards": ["", 1, -4, 6, -3, 40, 76, -51, 5, -24, -63, 44, -2, -2, 8, 1, 76, -85, -58, 10, 59, 20, 11, -2, 3, -3, 3, -82, -10, 54, -7, -57, -6, -32], "time_elapsed": 735490, "trialIndex": 6, "trialTime": 24019, "trial_id": "mdp_trial_5", "trial_index": 13, "trial_type": "mouselab-mdp", "withholdReward": false}, "uniqueid": "w42683226:a11213995"}, {"current_trial": 14, "dateTime": 1693565760752, "trialdata": {"actionTimes": [3565, 5080, 7201, 8838, 10457], "actions": ["left", "left", "left", "up", "up"], "block": "test", "clicked_states": [], "costs": 0, "displayed_time": "17.07", "internal_node_id": "0.0-6.0-1.0-5.0", "num_clicks_accrued": [0, 0, 0, 0, 0, 0, 0, 0, 0, 0, 0, 0, 0], "path": ["0", "0", "23", "24", "25", "26", "27"], "queries": {"click": {"edge": {"target": [], "time": []}, "state": {"target": [], "time": []}}, "mouseout": {"edge": {"target": [], "time": []}, "state": {"target": ["12", "0"], "time": [1702, 15606]}}, "mouseover": {"edge": {"target": [], "time": []}, "state": {"target": [], "time": []}}}, "revealed_states": [], "rewards": [-1, -2, 5, -10, 1], "rt": [502, 994, 1579, 1112, 1063], "score": -7, "simulationMode": [null, null, null, null, null], "stateRewards": ["", -1, -4, -1, -5, -28, -23, -15, -15, -38, 59, -87, 2, 2, -5, 9, -55, -39, -71, -6, 85, -85, -11, -1, -2, 5, -10, 1, 25, 41, -4, 69, -35, 86], "time_elapsed": 758640, "trialIndex": 7, "trialTime": 21855, "trial_id": "mdp_trial_6", "trial_index": 14, "trial_type": "mouselab-mdp", "withholdReward": false}, "uniqueid": "w42683226:a11213995"}, {"current_trial": 15, "dateTime": 1693565787042, "trialdata": {"actionTimes": [4088, 4713, 5525, 6451, 7811], "actions": ["up", "up", "up", "right", "right"], "block": "test", "clicked_states": [], "costs": 0, "displayed_time": "16.87", "internal_node_id": "0.0-6.0-1.0-6.0", "num_clicks_accrued": [0, 0, 0, 0, 0, 0, 0, 0, 0, 0, 0, 0, 0], "path": ["0", "0", "1", "2", "3", "4", "6"], "queries": {"click": {"edge": {"target": [], "time": []}, "state": {"target": [], "time": []}}, "mouseout": {"edge": {"target": [], "time": []}, "state": {"target": ["0", "12", "17", "21"], "time": [9087, 9123, 9172, 18312]}}, "mouseover": {"edge": {"target": [], "time": []}, "state": {"target": [], "time": []}}}, "revealed_states": [], "rewards": [1, -1, 8, -3, 85], "rt": [1222, 91, 199, 403, 842], "score": 90, "simulationMode": [null, null, null, null, null], "stateRewards": ["", 1, -1, 8, -3, 38, 85, -20, -4, 8, 23, 73, 2, -4, 6, -13, 44, 7, -28, -11, -77, 45, -69, 1, -1, -7, -11, 75, -51, -87, 7, 36, -53, -26], "time_elapsed": 784930, "trialIndex": 8, "trialTime": 24263, "trial_id": "mdp_trial_7", "trial_index": 15, "trial_type": "mouselab-mdp", "withholdReward": false}, "uniqueid": "w42683226:a11213995"}, {"current_trial": 16, "dateTime": 1693565809582, "trialdata": {"actionTimes": [3609, 4400, 6466, 7846, 12351], "actions": ["left", "left", "left", "down", "down"], "block": "test", "clicked_states": [], "costs": 0, "displayed_time": "16.68", "internal_node_id": "0.0-6.0-1.0-7.0", "num_clicks_accrued": [0, 0, 0, 0, 0, 0, 0, 0, 0, 0, 0, 0, 0], "path": ["0", "0", "23", "24", "25", "30", "32"], "queries": {"click": {"edge": {"target": [], "time": []}, "state": {"target": [], "time": []}}, "mouseout": {"edge": {"target": [], "time": []}, "state": {"target": ["0", "0", "14", "13", "19", "22"], "time": [1508, 10496, 11795, 16060, 17994, 18029]}}, "mouseover": {"edge": {"target": [], "time": []}, "state": {"target": [], "time": []}}}, "revealed_states": [], "rewards": [-1, -2, 4, 11, -28], "rt": [932, 241, 1543, 869, 3979], "score": -16, "simulationMode": [null, null, null, null, null], "stateRewards": ["", -2, 4, 3, 5, -61, 4, 30, 1, -47, 83, 10, 1, 4, 7, -14, 19, -74, -83, 6, -2, -2, -65, -1, -2, 4, -11, 12, -1, -68, 11, -38, -28, 66], "time_elapsed": 807470, "trialIndex": 9, "trialTime": 20825, "trial_id": "mdp_trial_8", "trial_index": 16, "trial_type": "mouselab-mdp", "withholdReward": false}, "uniqueid": "w42683226:a11213995"}, {"current_trial": 17, "dateTime": 1693565831220, "trialdata": {"actionTimes": [3237, 4450, 5205, 6810, 8484], "actions": ["up", "up", "up", "right", "up"], "block": "test", "clicked_states": [], "costs": 0, "displayed_time": "16.48", "internal_node_id": "0.0-6.0-1.0-8.0", "num_clicks_accrued": [0, 0, 0, 0, 0, 0, 0, 0, 0, 0, 0, 0, 0], "path": ["0", "0", "1", "2", "3", "4", "5"], "queries": {"click": {"edge": {"target": [], "time": []}, "state": {"target": [], "time": []}}, "mouseout": {"edge": {"target": [], "time": []}, "state": {"target": ["0", "0", "18", "15", "22"], "time": [745, 11268, 11315, 11349, 17514]}}, "mouseover": {"edge": {"target": [], "time": []}, "state": {"target": [], "time": []}}}, "revealed_states": [], "rewards": [1, 2, 3, 16, 63], "rt": [761, 643, 228, 1100, 1129], "score": 85, "simulationMode": [null, null, null, null, null], "stateRewards": ["", 1, 2, 3, 16, 63, -25, 16, -4, -14, 82, -66, -1, -3, -3, -11, -14, 19, 46, 3, -34, -82, 66, -2, -3, 4, -5, -63, 77, -37, -1, -45, -41, 84], "time_elapsed": 829108, "trialIndex": 10, "trialTime": 20285, "trial_id": "mdp_trial_9", "trial_index": 17, "trial_type": "mouselab-mdp", "withholdReward": false}, "uniqueid": "w42683226:a11213995"}, {"current_trial": 18, "dateTime": 1693565856940, "trialdata": {"actionTimes": [4015, 4800, 5728, 6434, 7099], "actions": ["up", "up", "up", "left", "down"], "block": "test", "clicked_states": [], "costs": 0, "displayed_time": "17.16", "internal_node_id": "0.0-6.0-1.0-9.0", "num_clicks_accrued": [0, 0, 0, 0, 0, 0, 0, 0, 0, 0, 0, 0, 0], "path": ["0", "0", "1", "2", "3", "8", "10"], "queries": {"click": {"edge": {"target": [], "time": []}, "state": {"target": [], "time": []}}, "mouseout": {"edge": {"target": [], "time": []}, "state": {"target": ["0", "12", "17", "19"], "time": [10723, 10759, 10838, 18038]}}, "mouseover": {"edge": {"target": [], "time": []}, "state": {"target": [], "time": []}}}, "revealed_states": [], "rewards": [2, -1, -3, -1, -26], "rt": [862, 224, 396, 189, 146], "score": -29, "simulationMode": [null, null, null, null, null], "stateRewards": ["", 2, -1, -3, 16, -3, -16, -62, -1, 13, -26, 43, -1, 4, 3, -9, -54, -37, -3, -12, -71, -68, -57, 1, -3, 2, -9, 2, -2, -9, -11, 84, -52, 55], "time_elapsed": 854827, "trialIndex": 11, "trialTime": 24210, "trial_id": "mdp_trial_10", "trial_index": 18, "trial_type": "mouselab-mdp", "withholdReward": false}, "uniqueid": "w42683226:a11213995"}, {"current_trial": 19, "dateTime": 1693565878406, "trialdata": {"actionTimes": [3478, 4412, 5510, 6686, 7988], "actions": ["up", "up", "up", "right", "right"], "block": "test", "clicked_states": [], "costs": 0, "displayed_time": "16.92", "internal_node_id": "0.0-6.0-1.0-10.0", "num_clicks_accrued": [0, 0, 0, 0, 0, 0, 0, 0, 0, 0, 0, 0, 0], "path": ["0", "0", "1", "2", "3", "4", "6"], "queries": {"click": {"edge": {"target": [], "time": []}, "state": {"target": [], "time": []}}, "mouseout": {"edge": {"target": [], "time": []}, "state": {"target": ["0"], "time": [11428]}}, "mouseover": {"edge": {"target": [], "time": []}, "state": {"target": [], "time": []}}}, "revealed_states": [], "rewards": [-1, -3, -6, -2, 80], "rt": [559, 406, 577, 619, 787], "score": 68, "simulationMode": [null, null, null, null, null], "stateRewards": ["", -1, -3, -6, -2, -7, 80, -45, -3, -38, -72, 76, 2, 1, 7, 4, -62, 14, -74, 14, -87, -21, -88, -2, 1, -7, -10, 66, 56, -76, 10, -29, -72, -70], "time_elapsed": 876294, "trialIndex": 12, "trialTime": 19971, "trial_id": "mdp_trial_11", "trial_index": 19, "trial_type": "mouselab-mdp", "withholdReward": false}, "uniqueid": "w42683226:a11213995"}, {"current_trial": 20, "dateTime": 1693565900303, "trialdata": {"actionTimes": [3463, 4547, 5713, 6541, 7369], "actions": ["left", "left", "left", "up", "left"], "block": "test", "clicked_states": [], "costs": 0, "displayed_time": "16.54", "internal_node_id": "0.0-6.0-1.0-11.0", "num_clicks_accrued": [0, 0, 0, 0, 0, 0, 0, 0, 0, 0, 0, 0, 0], "path": ["0", "0", "23", "24", "25", "26", "29"], "queries": {"click": {"edge": {"target": [], "time": []}, "state": {"target": [], "time": []}}, "mouseout": {"edge": {"target": [], "time": []}, "state": {"target": ["0", "13", "14", "14", "13", "12"], "time": [8722, 8770, 8793, 18637, 18667, 19138]}}, "mouseover": {"edge": {"target": [], "time": []}, "state": {"target": [], "time": []}}}, "revealed_states": [], "rewards": [-1, -1, -1, 16, 50], "rt": [924, 550, 648, 301, 322], "score": 63, "simulationMode": [null, null, null, null, null], "stateRewards": ["", -2, 1, -3, -16, -39, -52, 30, -7, -41, -59, 11, 2, 1, 8, 2, -11, -26, -42, -13, 87, -59, -48, -1, -1, -1, 16, -79, 31, 50, -1, -84, 34, -82], "time_elapsed": 898191, "trialIndex": 13, "trialTime": 20372, "trial_id": "mdp_trial_12", "trial_index": 20, "trial_type": "mouselab-mdp", "withholdReward": false}, "uniqueid": "w42683226:a11213995"}, {"current_trial": 21, "dateTime": 1693565926942, "trialdata": {"actionTimes": [2801, 3617, 4363, 6407, 7361], "actions": ["left", "left", "left", "up", "right"], "block": "test", "clicked_states": [], "costs": 0, "displayed_time": "16.28", "internal_node_id": "0.0-6.0-1.0-12.0", "num_clicks_accrued": [0, 0, 0, 0, 0, 0, 0, 0, 0, 0, 0, 0, 0], "path": ["0", "0", "23", "24", "25", "26", "28"], "queries": {"click": {"edge": {"target": [], "time": []}, "state": {"target": [], "time": []}}, "mouseout": {"edge": {"target": [], "time": []}, "state": {"target": ["0", "0", "15", "17", "13", "12"], "time": [683, 9269, 9321, 9353, 17867, 17935]}}, "mouseover": {"edge": {"target": [], "time": []}, "state": {"target": [], "time": []}}}, "revealed_states": [], "rewards": [2, -3, -6, 4, 44], "rt": [527, 297, 222, 1468, 448], "score": 41, "simulationMode": [null, null, null, null, null], "stateRewards": ["", -1, 4, -5, 9, 29, -75, -42, -16, 24, -28, -41, 2, -3, 1, 10, 60, 47, 55, -1, -53, 22, -40, 2, -3, -6, 4, -26, 44, 54, 15, -76, 42, 14], "time_elapsed": 924830, "trialIndex": 14, "trialTime": 25109, "trial_id": "mdp_trial_13", "trial_index": 21, "trial_type": "mouselab-mdp", "withholdReward": false}, "uniqueid": "w42683226:a11213995"}, {"current_trial": 22, "dateTime": 1693565948942, "trialdata": {"actionTimes": [3382, 4280, 5065, 6451, 7301], "actions": ["up", "up", "up", "left", "up"], "block": "test", "clicked_states": [], "costs": 0, "displayed_time": "16.71", "internal_node_id": "0.0-6.0-1.0-13.0", "num_clicks_accrued": [0, 0, 0, 0, 0, 0, 0, 0, 0, 0, 0, 0, 0], "path": ["0", "0", "1", "2", "3", "8", "9"], "queries": {"click": {"edge": {"target": [], "time": []}, "state": {"target": [], "time": []}}, "mouseout": {"edge": {"target": [], "time": []}, "state": {"target": ["0", "0", "15", "20", "21"], "time": [661, 8713, 8809, 11330, 11430]}}, "mouseover": {"edge": {"target": [], "time": []}, "state": {"target": [], "time": []}}}, "revealed_states": [], "rewards": [-2, 2, 2, -13, -7], "rt": [670, 348, 258, 850, 318], "score": -18, "simulationMode": [null, null, null, null, null], "stateRewards": ["", -2, 2, 2, -6, 9, 37, 50, -13, -7, -18, -75, -2, -4, 4, 7, 23, -57, -66, -7, -81, -48, -76, 1, 1, -8, 1, 51, -2, 70, 14, 59, 71, -37], "time_elapsed": 946830, "trialIndex": 15, "trialTime": 19772, "trial_id": "mdp_trial_14", "trial_index": 22, "trial_type": "mouselab-mdp", "withholdReward": false}, "uniqueid": "w42683226:a11213995"}, {"current_trial": 23, "dateTime": 1693565973470, "trialdata": {"actionTimes": [5344, 6177, 7104, 8101, 8993], "actions": ["right", "right", "right", "up", "left"], "block": "test", "clicked_states": [], "costs": 0, "displayed_time": "18.60", "internal_node_id": "0.0-6.0-1.0-14.0", "num_clicks_accrued": [0, 0, 0, 0, 0, 0, 0, 0, 0, 0, 0, 0, 0], "path": ["0", "0", "12", "13", "14", "15", "18"], "queries": {"click": {"edge": {"target": [], "time": []}, "state": {"target": [], "time": []}}, "mouseout": {"edge": {"target": [], "time": []}, "state": {"target": ["0", "12", "22"], "time": [10830, 10863, 19681]}}, "mouseover": {"edge": {"target": [], "time": []}, "state": {"target": [], "time": []}}}, "revealed_states": [], "rewards": [-2, -3, 4, -5, 29], "rt": [745, 271, 387, 480, 372], "score": 23, "simulationMode": [null, null, null, null, null], "stateRewards": ["", 1, 1, -7, -9, -44, 24, -83, -15, 44, -24, 72, -2, -3, 4, -5, 57, 55, 29, -11, 22, 12, -25, -1, 2, 7, 12, 33, -8, 47, -4, 8, 50, -4], "time_elapsed": 971358, "trialIndex": 16, "trialTime": 22565, "trial_id": "mdp_trial_15", "trial_index": 23, "trial_type": "mouselab-mdp", "withholdReward": false}, "uniqueid": "w42683226:a11213995"}, {"current_trial": 24, "dateTime": 1693565995560, "trialdata": {"actionTimes": [5288, 5938, 7081, 7644, 8559], "actions": ["right", "right", "right", "down", "left"], "block": "test", "clicked_states": [], "costs": 0, "displayed_time": "18.10", "internal_node_id": "0.0-6.0-1.0-15.0", "num_clicks_accrued": [0, 0, 0, 0, 0, 0, 0, 0, 0, 0, 0, 0, 0], "path": ["0", "0", "12", "13", "14", "19", "22"], "queries": {"click": {"edge": {"target": [], "time": []}, "state": {"target": [], "time": []}}, "mouseout": {"edge": {"target": [], "time": []}, "state": {"target": ["0", "0", "20", "21"], "time": [2520, 10800, 13049, 13117]}}, "mouseover": {"edge": {"target": [], "time": []}, "state": {"target": [], "time": []}}}, "revealed_states": [], "rewards": [-2, -1, -5, -16, 3], "rt": [1191, 145, 616, 24, 368], "score": -21, "simulationMode": [null, null, null, null, null], "stateRewards": ["", -1, -3, 4, -10, -5, 79, -87, -2, 53, 29, -20, -2, -1, -5, 10, 27, 86, 46, -16, -29, 40, 3, 2, 4, -1, -6, 37, 79, -29, 7, 86, -62, 29], "time_elapsed": 993448, "trialIndex": 17, "trialTime": 20577, "trial_id": "mdp_trial_16", "trial_index": 24, "trial_type": "mouselab-mdp", "withholdReward": false}, "uniqueid": "w42683226:a11213995"}, {"current_trial": 25, "dateTime": 1693566018555, "trialdata": {"actionTimes": [4504, 5217, 6078, 7656, 8448], "actions": ["up", "up", "up", "right", "up"], "block": "test", "clicked_states": [], "costs": 0, "displayed_time": "17.76", "internal_node_id": "0.0-6.0-1.0-16.0", "num_clicks_accrued": [0, 0, 0, 0, 0, 0, 0, 0, 0, 0, 0, 0, 0], "path": ["0", "0", "1", "2", "3", "4", "5"], "queries": {"click": {"edge": {"target": [], "time": []}, "state": {"target": [], "time": []}}, "mouseout": {"edge": {"target": [], "time": []}, "state": {"target": ["0", "12", "17", "14"], "time": [10623, 10654, 10687, 19272]}}, "mouseover": {"edge": {"target": [], "time": []}, "state": {"target": [], "time": []}}}, "revealed_states": [], "rewards": [-1, -3, -7, -4, -85], "rt": [750, 85, 328, 1065, 282], "score": -100, "simulationMode": [null, null, null, null, null], "stateRewards": ["", -1, -3, -7, -4, -85, -70, 79, 8, 84, -66, 42, 2, -2, -3, -16, -54, -66, 68, -3, 21, -14, 7, -2, -1, -3, -8, 75, 80, 86, -7, -84, 73, -16], "time_elapsed": 1016442, "trialIndex": 18, "trialTime": 21060, "trial_id": "mdp_trial_17", "trial_index": 25, "trial_type": "mouselab-mdp", "withholdReward": false}, "uniqueid": "w42683226:a11213995"}, {"current_trial": 26, "dateTime": 1693566042972, "trialdata": {"actionTimes": [4470, 5309, 6215, 7114, 7671], "actions": ["right", "right", "right", "up", "right"], "block": "test", "clicked_states": [], "costs": 0, "displayed_time": "16.94", "internal_node_id": "0.0-6.0-1.0-17.0", "num_clicks_accrued": [0, 0, 0, 0, 0, 0, 0, 0, 0, 0, 0, 0, 0], "path": ["0", "0", "12", "13", "14", "15", "17"], "queries": {"click": {"edge": {"target": [], "time": []}, "state": {"target": [], "time": []}}, "mouseout": {"edge": {"target": [], "time": []}, "state": {"target": ["0", "12", "13"], "time": [9279, 9304, 9327]}}, "mouseover": {"edge": {"target": [], "time": []}, "state": {"target": [], "time": []}}}, "revealed_states": [], "rewards": [2, -3, 7, 8, -10], "rt": [1529, 298, 391, 373, 47], "score": 4, "simulationMode": [null, null, null, null, null], "stateRewards": ["", 2, 3, 8, 14, 69, -27, 17, 2, -71, -65, -10, 2, -3, 7, 8, 65, -10, 65, -12, 73, -12, 13, -2, -2, 6, 10, -79, -69, -18, 10, -85, 67, 74], "time_elapsed": 1040859, "trialIndex": 19, "trialTime": 22681, "trial_id": "mdp_trial_18", "trial_index": 26, "trial_type": "mouselab-mdp", "withholdReward": false}, "uniqueid": "w42683226:a11213995"}, {"current_trial": 27, "dateTime": 1693566073929, "trialdata": {"actionTimes": [4384, 5771, 6457, 7628, 8346], "actions": ["right", "right", "right", "down", "right"], "block": "test", "clicked_states": [], "costs": 0, "displayed_time": "17.15", "internal_node_id": "0.0-6.0-1.0-18.0", "num_clicks_accrued": [0, 0, 0, 0, 0, 0, 0, 0, 0, 0, 0, 0, 0], "path": ["0", "0", "12", "13", "14", "19", "20"], "queries": {"click": {"edge": {"target": [], "time": []}, "state": {"target": [], "time": []}}, "mouseout": {"edge": {"target": [], "time": []}, "state": {"target": ["0", "12", "15", "17", "21"], "time": [10730, 10778, 11044, 11078, 18194]}}, "mouseover": {"edge": {"target": [], "time": []}, "state": {"target": [], "time": []}}}, "revealed_states": [], "rewards": [-2, -2, 1, 4, 82], "rt": [1235, 772, 121, 655, 5], "score": 83, "simulationMode": [null, null, null, null, null], "stateRewards": ["", -1, 3, -5, -2, -13, -9, -34, -7, -81, 32, 35, -2, -2, 1, -14, -32, 81, 7, 4, 82, 56, -8, -1, 3, -8, 6, -24, -24, -53, 2, 38, 61, 54], "time_elapsed": 1071817, "trialIndex": 20, "trialTime": 29503, "trial_id": "mdp_trial_19", "trial_index": 27, "trial_type": "mouselab-mdp", "withholdReward": false}, "uniqueid": "w42683226:a11213995"}, {"current_trial": 28, "dateTime": 1693566104053, "trialdata": {"actionTimes": [4662, 5422, 6190, 6978, 8037], "actions": ["left", "left", "left", "down", "left"], "block": "test", "clicked_states": [], "costs": 0, "displayed_time": "18.13", "internal_node_id": "0.0-6.0-1.0-19.0", "num_clicks_accrued": [0, 0, 0, 0, 0, 0, 0, 0, 0, 0, 0, 0, 0], "path": ["0", "0", "23", "24", "25", "30", "33"], "queries": {"click": {"edge": {"target": [], "time": []}, "state": {"target": [], "time": []}}, "mouseout": {"edge": {"target": [], "time": []}, "state": {"target": ["0", "22", "19", "21"], "time": [10469, 10536, 10570, 19385]}}, "mouseover": {"edge": {"target": [], "time": []}, "state": {"target": [], "time": []}}}, "revealed_states": [], "rewards": [-2, 3, -8, 7, 19], "rt": [539, 243, 252, 261, 492], "score": 19, "simulationMode": [null, null, null, null, null], "stateRewards": ["", 1, 1, -5, 10, -31, 73, 14, -8, -23, 63, -70, -1, 2, 8, 7, 25, -59, 27, -10, -40, -71, -15, -2, 3, -8, -5, -19, 77, -34, 7, 67, 63, 19], "time_elapsed": 1101941, "trialIndex": 21, "trialTime": 27922, "trial_id": "mdp_trial_20", "trial_index": 28, "trial_type": "mouselab-mdp", "withholdReward": false}, "uniqueid": "w42683226:a11213995"}, {"current_trial": 29, "dateTime": 1693566136914, "trialdata": {"actionTimes": [4133, 4760, 5563, 6321, 8010], "actions": ["up", "up", "up", "left", "left"], "block": "test", "clicked_states": [], "costs": 0, "displayed_time": "17.33", "internal_node_id": "0.0-6.0-1.0-20.0", "num_clicks_accrued": [0, 0, 0, 0, 0, 0, 0, 0, 0, 0, 0, 0, 0], "path": ["0", "0", "1", "2", "3", "8", "11"], "queries": {"click": {"edge": {"target": [], "time": []}, "state": {"target": [], "time": []}}, "mouseout": {"edge": {"target": [], "time": []}, "state": {"target": ["0", "12", "17"], "time": [9556, 9605, 9643]}}, "mouseover": {"edge": {"target": [], "time": []}, "state": {"target": [], "time": []}}}, "revealed_states": [], "rewards": [-1, -3, -5, 8, 41], "rt": [817, 76, 277, 226, 1145], "score": 40, "simulationMode": [null, null, null, null, null], "stateRewards": ["", -1, -3, -5, -14, -13, -47, 79, 8, -60, -64, 41, -1, 2, 3, 13, -46, 61, -79, -11, -64, -65, 23, 1, -2, 6, -14, 46, 32, 21, 7, 75, -66, 15], "time_elapsed": 1134802, "trialIndex": 22, "trialTime": 30569, "trial_id": "mdp_trial_21", "trial_index": 29, "trial_type": "mouselab-mdp", "withholdReward": false}, "uniqueid": "w42683226:a11213995"}, {"current_trial": 30, "dateTime": 1693566157959, "trialdata": {"actionTimes": [2647, 3264, 3952, 4865, 5694], "actions": ["left", "left", "left", "up", "left"], "block": "test", "clicked_states": [], "costs": 0, "displayed_time": "16.11", "internal_node_id": "0.0-6.0-1.0-21.0", "num_clicks_accrued": [0, 0, 0, 0, 0, 0, 0, 0, 0, 0, 0, 0, 0], "path": ["0", "0", "23", "24", "25", "26", "29"], "queries": {"click": {"edge": {"target": [], "time": []}, "state": {"target": [], "time": []}}, "mouseout": {"edge": {"target": [], "time": []}, "state": {"target": ["0", "0", "15", "20", "19"], "time": [898, 7379, 7443, 11945, 11983]}}, "mouseover": {"edge": {"target": [], "time": []}, "state": {"target": [], "time": []}}}, "revealed_states": [], "rewards": [-2, -3, -2, 8, 10], "rt": [539, 85, 145, 367, 281], "score": 11, "simulationMode": [null, null, null, null, null], "stateRewards": ["", -2, -4, -8, 8, 63, -50, -19, -7, -17, -31, 31, 1, 3, -5, 12, -35, -63, -29, -4, -17, -75, -79, -2, -3, -2, 8, -3, -85, 10, -2, -82, -82, 56], "time_elapsed": 1155847, "trialIndex": 23, "trialTime": 18886, "trial_id": "mdp_trial_22", "trial_index": 30, "trial_type": "mouselab-mdp", "withholdReward": false}, "uniqueid": "w42683226:a11213995"}, {"current_trial": 31, "dateTime": 1693566179556, "trialdata": {"actionTimes": [5110, 5766, 6564, 7654, 8984], "actions": ["left", "left", "left", "down", "down"], "block": "test", "clicked_states": [], "costs": 0, "displayed_time": "17.54", "internal_node_id": "0.0-6.0-1.0-22.0", "num_clicks_accrued": [0, 0, 0, 0, 0, 0, 0, 0, 0, 0, 0, 0, 0], "path": ["0", "0", "23", "24", "25", "30", "32"], "queries": {"click": {"edge": {"target": [], "time": []}, "state": {"target": [], "time": []}}, "mouseout": {"edge": {"target": [], "time": []}, "state": {"target": ["0", "15", "17", "20", "22"], "time": [11984, 12083, 12105, 14217, 14284]}}, "mouseover": {"edge": {"target": [], "time": []}, "state": {"target": [], "time": []}}}, "revealed_states": [], "rewards": [2, 1, 1, -16, 6], "rt": [1571, 105, 270, 563, 816], "score": -6, "simulationMode": [null, null, null, null, null], "stateRewards": ["", 2, 4, 7, -6, -76, -81, 2, 5, -66, -3, 36, -2, -4, 6, -2, -69, 4, -49, -6, 67, 38, -67, 2, 1, 1, 6, -68, -21, 52, -16, -16, 6, -70], "time_elapsed": 1177444, "trialIndex": 24, "trialTime": 19538, "trial_id": "mdp_trial_23", "trial_index": 31, "trial_type": "mouselab-mdp", "withholdReward": false}, "uniqueid": "w42683226:a11213995"}, {"current_trial": 32, "dateTime": 1693566210200, "trialdata": {"actionTimes": [5202, 5868, 6671, 7866, 9604], "actions": ["up", "up", "up", "left", "up"], "block": "test", "clicked_states": [], "costs": 0, "displayed_time": "18.63", "internal_node_id": "0.0-6.0-1.0-23.0", "num_clicks_accrued": [0, 0, 0, 0, 0, 0, 0, 0, 0, 0, 0, 0, 0], "path": ["0", "0", "1", "2", "3", "8", "9"], "queries": {"click": {"edge": {"target": [], "time": []}, "state": {"target": [], "time": []}}, "mouseout": {"edge": {"target": [], "time": []}, "state": {"target": ["0", "17", "21"], "time": [12355, 12415, 23435]}}, "mouseover": {"edge": {"target": [], "time": []}, "state": {"target": [], "time": []}}}, "revealed_states": [], "rewards": [1, -2, -8, -4, -49], "rt": [578, 141, 275, 655, 1220], "score": -62, "simulationMode": [null, null, null, null, null], "stateRewards": ["", 1, -2, -8, -13, 4, 34, -84, -4, -49, 88, -70, -1, 3, -4, 10, -77, 13, -34, 15, -21, -16, 27, 1, -2, 8, -8, -6, 38, -26, 6, -15, 66, -3], "time_elapsed": 1208088, "trialIndex": 25, "trialTime": 28931, "trial_id": "mdp_trial_24", "trial_index": 32, "trial_type": "mouselab-mdp", "withholdReward": false}, "uniqueid": "w42683226:a11213995"}, {"current_trial": 33, "dateTime": 1693566241125, "trialdata": {"actionTimes": [10412, 11479, 13121, 15778, 17702], "actions": ["right", "right", "right", "up", "left"], "block": "test", "clicked_states": [], "costs": 0, "displayed_time": "20.87", "internal_node_id": "0.0-6.0-1.0-24.0", "num_clicks_accrued": [0, 0, 0, 0, 0, 0, 0, 0, 0, 0, 0, 0, 0], "path": ["0", "0", "12", "13", "14", "15", "18"], "queries": {"click": {"edge": {"target": [], "time": []}, "state": {"target": [], "time": []}}, "mouseout": {"edge": {"target": [], "time": []}, "state": {"target": ["13", "0", "22"], "time": [388, 20107, 24876]}}, "mouseover": {"edge": {"target": [], "time": []}, "state": {"target": ["0"], "time": [9724]}}}, "revealed_states": [], "rewards": [-2, -3, 7, 7, 67], "rt": [3553, 550, 1119, 2128, 1407], "score": 76, "simulationMode": [null, null, null, null, null], "stateRewards": ["", 1, -2, -8, -3, 31, -84, -55, -14, 15, -58, 17, -2, -3, 7, 7, -12, 48, 67, 4, -44, -68, 46, 2, 3, -5, -7, 76, 27, 5, 11, 57, 52, 59], "time_elapsed": 1239013, "trialIndex": 26, "trialTime": 28830, "trial_id": "mdp_trial_25", "trial_index": 33, "trial_type": "mouselab-mdp", "withholdReward": false}, "uniqueid": "w42683226:a11213995"}, {"current_trial": 34, "dateTime": 1693566261567, "trialdata": {"actionTimes": [3382, 4631, 5734, 7188, 8590], "actions": ["left", "left", "left", "up", "right"], "block": "test", "clicked_states": [], "costs": 0, "displayed_time": "16.66", "internal_node_id": "0.0-6.0-1.0-25.0", "num_clicks_accrued": [0, 0, 0, 0, 0, 0, 0, 0, 0, 0, 0, 0, 0], "path": ["0", "0", "23", "24", "25", "26", "28"], "queries": {"click": {"edge": {"target": [], "time": []}, "state": {"target": [], "time": []}}, "mouseout": {"edge": {"target": [], "time": []}, "state": {"target": ["0", "0"], "time": [1071, 18214]}}, "mouseover": {"edge": {"target": [], "time": []}, "state": {"target": [], "time": []}}}, "revealed_states": [], "rewards": [-2, -3, -6, 9, -1], "rt": [726, 711, 560, 908, 885], "score": -3, "simulationMode": [null, null, null, null, null], "stateRewards": ["", 2, -1, 3, -12, -83, 6, -33, 9, 28, 24, -50, -2, -1, -2, -5, -87, 37, 82, 12, 80, -5, 10, -2, -3, -6, 9, 22, -1, 16, 9, 77, -62, 58], "time_elapsed": 1259455, "trialIndex": 27, "trialTime": 18748, "trial_id": "mdp_trial_26", "trial_index": 34, "trial_type": "mouselab-mdp", "withholdReward": false}, "uniqueid": "w42683226:a11213995"}, {"current_trial": 35, "dateTime": 1693566283781, "trialdata": {"actionTimes": [3355, 4019, 5091, 6118, 7273], "actions": ["up", "up", "up", "right", "right"], "block": "test", "clicked_states": [], "costs": 0, "displayed_time": "16.67", "internal_node_id": "0.0-6.0-1.0-26.0", "num_clicks_accrued": [0, 0, 0, 0, 0, 0, 0, 0, 0, 0, 0, 0, 0], "path": ["0", "0", "1", "2", "3", "4", "6"], "queries": {"click": {"edge": {"target": [], "time": []}, "state": {"target": [], "time": []}}, "mouseout": {"edge": {"target": [], "time": []}, "state": {"target": ["0", "22", "22"], "time": [9029, 9333, 10099]}}, "mouseover": {"edge": {"target": [], "time": []}, "state": {"target": [], "time": []}}}, "revealed_states": [], "rewards": [-1, 2, 6, 11, -21], "rt": [686, 138, 528, 500, 630], "score": -3, "simulationMode": [null, null, null, null, null], "stateRewards": ["", -1, 2, 6, 11, 21, -21, -21, -6, 48, -71, 88, -1, -3, 3, 7, 64, 2, 9, -4, 37, -67, 72, 2, 2, -8, -8, -10, 71, -40, -3, 73, 80, 47], "time_elapsed": 1281669, "trialIndex": 28, "trialTime": 20277, "trial_id": "mdp_trial_27", "trial_index": 35, "trial_type": "mouselab-mdp", "withholdReward": false}, "uniqueid": "w42683226:a11213995"}, {"current_trial": 36, "dateTime": 1693566306553, "trialdata": {"actionTimes": [5443, 6704, 7484, 8542, 9439], "actions": ["right", "right", "right", "down", "right"], "block": "test", "clicked_states": [], "costs": 0, "displayed_time": "18.05", "internal_node_id": "0.0-6.0-1.0-27.0", "num_clicks_accrued": [0, 0, 0, 0, 0, 0, 0, 0, 0, 0, 0, 0, 0], "path": ["0", "0", "12", "13", "14", "19", "20"], "queries": {"click": {"edge": {"target": [], "time": []}, "state": {"target": [], "time": []}}, "mouseout": {"edge": {"target": [], "time": []}, "state": {"target": ["0"], "time": [19710]}}, "mouseover": {"edge": {"target": [], "time": []}, "state": {"target": [], "time": []}}}, "revealed_states": [], "rewards": [2, 3, -1, -9, -32], "rt": [1399, 742, 214, 536, 367], "score": -37, "simulationMode": [null, null, null, null, null], "stateRewards": ["", -1, 3, 2, 9, 41, 4, -46, -12, -54, -87, -25, 2, 3, -1, 11, -77, 12, -33, -9, -32, 35, 72, 1, 3, -7, 4, 37, 65, -73, 6, 77, -43, 8], "time_elapsed": 1304441, "trialIndex": 29, "trialTime": 20414, "trial_id": "mdp_trial_28", "trial_index": 36, "trial_type": "mouselab-mdp", "withholdReward": false}, "uniqueid": "w42683226:a11213995"}, {"current_trial": 37, "dateTime": 1693566328286, "trialdata": {"actionTimes": [4917, 5824, 6734, 7804, 9998], "actions": ["up", "up", "up", "left", "up"], "block": "test", "clicked_states": [], "costs": 0, "displayed_time": "18.06", "internal_node_id": "0.0-6.0-1.0-28.0", "num_clicks_accrued": [0, 0, 0, 0, 0, 0, 0, 0, 0, 0, 0, 0, 0], "path": ["0", "0", "1", "2", "3", "8", "9"], "queries": {"click": {"edge": {"target": [], "time": []}, "state": {"target": [], "time": []}}, "mouseout": {"edge": {"target": [], "time": []}, "state": {"target": ["0"], "time": [1412]}}, "mouseover": {"edge": {"target": [], "time": []}, "state": {"target": [], "time": []}}}, "revealed_states": [], "rewards": [1, 1, 6, -13, 33], "rt": [861, 362, 342, 452, 1649], "score": 28, "simulationMode": [null, null, null, null, null], "stateRewards": ["", 1, 1, 6, -14, -40, 37, 16, -13, 33, -68, 49, 2, 4, 3, 6, 55, 27, 32, 10, -65, 20, -87, 2, 1, -6, -5, -42, 12, 29, -8, 16, 76, -33], "time_elapsed": 1326174, "trialIndex": 30, "trialTime": 20046, "trial_id": "mdp_trial_29", "trial_index": 37, "trial_type": "mouselab-mdp", "withholdReward": false}, "uniqueid": "w42683226:a11213995"}, {"current_trial": 38, "dateTime": 1693566351646, "trialdata": {"actionTimes": [5333, 6148, 7081, 8131, 9239], "actions": ["up", "up", "up", "right", "right"], "block": "test", "clicked_states": [], "costs": 0, "displayed_time": "18.05", "internal_node_id": "0.0-6.0-1.0-29.0", "num_clicks_accrued": [0, 0, 0, 0, 0, 0, 0, 0, 0, 0, 0, 0, 0], "path": ["0", "0", "1", "2", "3", "4", "6"], "queries": {"click": {"edge": {"target": [], "time": []}, "state": {"target": [], "time": []}}, "mouseout": {"edge": {"target": [], "time": []}, "state": {"target": ["0"], "time": [2296]}}, "mouseover": {"edge": {"target": [], "time": []}, "state": {"target": ["0"], "time": [4213]}}}, "revealed_states": [], "rewards": [2, -1, 5, 6, 86], "rt": [1285, 275, 405, 448, 526], "score": 98, "simulationMode": [null, null, null, null, null], "stateRewards": ["", 2, -1, 5, 6, 10, 86, 55, 10, -45, 63, -71, 1, -2, 5, -8, -50, -72, 36, 15, 61, 12, 33, -1, -4, 6, 5, 79, -56, -21, -16, -87, 60, -81], "time_elapsed": 1349534, "trialIndex": 31, "trialTime": 21690, "trial_id": "mdp_trial_30", "trial_index": 38, "trial_type": "mouselab-mdp", "withholdReward": false}, "uniqueid": "w42683226:a11213995"}, {"current_trial": 39, "dateTime": 1693566387574, "trialdata": {"actionTimes": [4183, 5251, 6159, 6980, 8505], "actions": ["right", "right", "right", "up", "up"], "block": "test", "clicked_states": [], "costs": 0, "displayed_time": "17.01", "internal_node_id": "0.0-6.0-1.0-30.0", "num_clicks_accrued": [0, 0, 0, 0, 0, 0, 0, 0, 0, 0, 0, 0, 0], "path": ["0", "0", "12", "13", "14", "15", "16"], "queries": {"click": {"edge": {"target": [], "time": []}, "state": {"target": [], "time": []}}, "mouseout": {"edge": {"target": [], "time": []}, "state": {"target": ["0"], "time": [694]}}, "mouseover": {"edge": {"target": [], "time": []}, "state": {"target": [], "time": []}}}, "revealed_states": [], "rewards": [-2, -4, -2, -5, 13], "rt": [1178, 557, 384, 304, 913], "score": 0, "simulationMode": [null, null, null, null, null], "stateRewards": ["", -1, -3, -6, 14, 41, 18, 63, -14, 80, 21, 17, -2, -4, -2, -5, 13, 70, 8, -4, -64, -10, -20, 2, -1, 4, -1, -17, -55, 42, -7, 47, 54, 15], "time_elapsed": 1385462, "trialIndex": 32, "trialTime": 34034, "trial_id": "mdp_trial_31", "trial_index": 39, "trial_type": "mouselab-mdp", "withholdReward": false}, "uniqueid": "w42683226:a11213995"}, {"current_trial": 40, "dateTime": 1693566409198, "trialdata": {"actionTimes": [4592, 5315, 6283, 7270, 8092], "actions": ["left", "left", "left", "up", "left"], "block": "test", "clicked_states": [], "costs": 0, "displayed_time": "17.08", "internal_node_id": "0.0-6.0-1.0-31.0", "num_clicks_accrued": [0, 0, 0, 0, 0, 0, 0, 0, 0, 0, 0, 0, 0], "path": ["0", "0", "23", "24", "25", "26", "29"], "queries": {"click": {"edge": {"target": [], "time": []}, "state": {"target": [], "time": []}}, "mouseout": {"edge": {"target": [], "time": []}, "state": {"target": ["0"], "time": [1652]}}, "mouseover": {"edge": {"target": [], "time": []}, "state": {"target": [], "time": []}}}, "revealed_states": [], "rewards": [-1, -2, 8, -3, -28], "rt": [1519, 160, 442, 465, 307], "score": -26, "simulationMode": [null, null, null, null, null], "stateRewards": ["", -1, -4, -3, 1, -45, -67, -24, 14, 32, 22, 22, -1, 1, -5, -7, 72, 84, -79, -5, 19, -40, -2, -1, -2, 8, -3, 84, -25, -28, 11, 64, -66, 77], "time_elapsed": 1407086, "trialIndex": 33, "trialTime": 19751, "trial_id": "mdp_trial_32", "trial_index": 40, "trial_type": "mouselab-mdp", "withholdReward": false}, "uniqueid": "w42683226:a11213995"}, {"current_trial": 41, "dateTime": 1693566434016, "trialdata": {"actionTimes": [5786, 6468, 7450, 8964, 10513], "actions": ["up", "up", "up", "left", "up"], "block": "test", "clicked_states": [], "costs": 0, "displayed_time": "16.64", "internal_node_id": "0.0-6.0-1.0-32.0", "num_clicks_accrued": [0, 0, 0, 0, 0, 0, 0, 0, 0, 0, 0, 0, 0], "path": ["0", "0", "1", "2", "3", "8", "9"], "queries": {"click": {"edge": {"target": [], "time": []}, "state": {"target": [], "time": []}}, "mouseout": {"edge": {"target": [], "time": []}, "state": {"target": ["0", "0"], "time": [1471, 19193]}}, "mouseover": {"edge": {"target": [], "time": []}, "state": {"target": [], "time": []}}}, "revealed_states": [], "rewards": [-1, -3, 3, -1, -80], "rt": [3141, 147, 424, 999, 1040], "score": -82, "simulationMode": [null, null, null, null, null], "stateRewards": ["", -1, -3, 3, 5, 56, 39, 50, -1, -80, 33, -46, 1, -2, -6, -8, 87, 48, 54, -11, -20, -64, -54, -2, 3, -7, -3, 12, 88, 35, -16, -46, -70, -3], "time_elapsed": 1431904, "trialIndex": 34, "trialTime": 22892, "trial_id": "mdp_trial_33", "trial_index": 41, "trial_type": "mouselab-mdp", "withholdReward": false}, "uniqueid": "w42683226:a11213995"}, {"current_trial": 42, "dateTime": 1693566456593, "trialdata": {"actionTimes": [5435, 6097, 7033, 7962, 8916], "actions": ["left", "left", "left", "down", "left"], "block": "test", "clicked_states": [], "costs": 0, "displayed_time": "18.87", "internal_node_id": "0.0-6.0-1.0-33.0", "num_clicks_accrued": [0, 0, 0, 0, 0, 0, 0, 0, 0, 0, 0, 0, 0], "path": ["0", "0", "23", "24", "25", "30", "33"], "queries": {"click": {"edge": {"target": [], "time": []}, "state": {"target": [], "time": []}}, "mouseout": {"edge": {"target": [], "time": []}, "state": {"target": ["0", "23"], "time": [1881, 2299]}}, "mouseover": {"edge": {"target": [], "time": []}, "state": {"target": [], "time": []}}}, "revealed_states": [], "rewards": [-1, 3, -1, 6, -29], "rt": [617, 132, 410, 405, 412], "score": -22, "simulationMode": [null, null, null, null, null], "stateRewards": ["", 1, -3, -4, -11, -56, 61, -47, -16, -28, -9, 69, -2, -3, -4, -8, 40, -86, 59, -4, 80, 27, 54, -1, 3, -1, 8, 67, 23, 50, 6, 83, -43, -29], "time_elapsed": 1454481, "trialIndex": 35, "trialTime": 20810, "trial_id": "mdp_trial_34", "trial_index": 42, "trial_type": "mouselab-mdp", "withholdReward": false}, "uniqueid": "w42683226:a11213995"}, {"current_trial": 43, "dateTime": 1693566477933, "trialdata": {"actionTimes": [3592, 4275, 5236, 6035, 7901], "actions": ["up", "up", "up", "right", "down"], "block": "test", "clicked_states": [], "costs": 0, "displayed_time": "16.61", "internal_node_id": "0.0-6.0-1.0-34.0", "num_clicks_accrued": [0, 0, 0, 0, 0, 0, 0, 0, 0, 0, 0, 0, 0], "path": ["0", "0", "1", "2", "3", "4", "7"], "queries": {"click": {"edge": {"target": [], "time": []}, "state": {"target": [], "time": []}}, "mouseout": {"edge": {"target": [], "time": []}, "state": {"target": ["1"], "time": [88]}}, "mouseover": {"edge": {"target": [], "time": []}, "state": {"target": [], "time": []}}}, "revealed_states": [], "rewards": [-1, -1, 4, -16, -51], "rt": [988, 148, 448, 279, 1322], "score": -65, "simulationMode": [null, null, null, null, null], "stateRewards": ["", -1, -1, 4, -16, -75, 81, -51, -7, -84, 73, -30, -2, 1, -3, -16, -77, 33, 14, 1, 45, 87, -66, 2, 2, -5, -7, -19, -17, 79, -3, 8, 49, 47], "time_elapsed": 1475821, "trialIndex": 36, "trialTime": 19198, "trial_id": "mdp_trial_35", "trial_index": 43, "trial_type": "mouselab-mdp", "withholdReward": false}, "uniqueid": "w42683226:a11213995"}, {"current_trial": 44, "dateTime": 1693566500506, "trialdata": {"actionTimes": [6516, 7553, 8580, 9601, 11019], "actions": ["right", "right", "right", "up", "left"], "block": "test", "clicked_states": [], "costs": 0, "displayed_time": "18.95", "internal_node_id": "0.0-6.0-1.0-35.0", "num_clicks_accrued": [0, 0, 0, 0, 0, 0, 0, 0, 0, 0, 0, 0, 0], "path": ["0", "0", "12", "13", "14", "15", "18"], "queries": {"click": {"edge": {"target": [], "time": []}, "state": {"target": [], "time": []}}, "mouseout": {"edge": {"target": [], "time": []}, "state": {"target": ["0"], "time": [2031]}}, "mouseover": {"edge": {"target": [], "time": []}, "state": {"target": ["0"], "time": [6068]}}}, "revealed_states": [], "rewards": [2, -2, -8, 6, -10], "rt": [1575, 491, 521, 488, 886], "score": -12, "simulationMode": [null, null, null, null, null], "stateRewards": ["", -2, -3, 7, -13, 60, 9, 37, -6, 37, 20, 1, 2, -2, -8, 6, -80, -31, -10, -7, 70, -65, -44, -1, 1, 7, 6, -11, 73, -85, 16, -21, 47, 34], "time_elapsed": 1498392, "trialIndex": 37, "trialTime": 20765, "trial_id": "mdp_trial_36", "trial_index": 44, "trial_type": "mouselab-mdp", "withholdReward": false}, "uniqueid": "w42683226:a11213995"}, {"current_trial": 45, "dateTime": 1693566524327, "trialdata": {"actionTimes": [4890, 5699, 6523, 7353, 8135], "actions": ["left", "left", "left", "up", "left"], "block": "test", "clicked_states": [], "costs": 0, "displayed_time": "17.38", "internal_node_id": "0.0-6.0-1.0-36.0", "num_clicks_accrued": [0, 0, 0, 0, 0, 0, 0, 0, 0, 0, 0, 0, 0], "path": ["0", "0", "23", "24", "25", "26", "29"], "queries": {"click": {"edge": {"target": [], "time": []}, "state": {"target": [], "time": []}}, "mouseout": {"edge": {"target": [], "time": []}, "state": {"target": [], "time": []}}, "mouseover": {"edge": {"target": [], "time": []}, "state": {"target": [], "time": []}}}, "revealed_states": [], "rewards": [1, 4, -4, 16, -15], "rt": [1520, 251, 300, 295, 250], "score": 2, "simulationMode": [null, null, null, null, null], "stateRewards": ["", -1, -1, 7, -15, -43, -21, -84, -9, -45, -66, 2, 1, -2, 2, 8, -27, 44, -52, -5, -84, 11, 53, 1, 4, -4, 16, 83, -82, -15, -16, 68, -43, 81], "time_elapsed": 1522215, "trialIndex": 38, "trialTime": 21516, "trial_id": "mdp_trial_37", "trial_index": 45, "trial_type": "mouselab-mdp", "withholdReward": false}, "uniqueid": "w42683226:a11213995"}, {"current_trial": 46, "dateTime": 1693566545192, "trialdata": {"actionTimes": [3810, 4740, 5626, 7342, 8580], "actions": ["right", "right", "right", "down", "down"], "block": "test", "clicked_states": [], "costs": 0, "displayed_time": "16.80", "internal_node_id": "0.0-6.0-1.0-37.0", "num_clicks_accrued": [0, 0, 0, 0, 0, 0, 0, 0, 0, 0, 0, 0, 0], "path": ["0", "0", "12", "13", "14", "19", "21"], "queries": {"click": {"edge": {"target": [], "time": []}, "state": {"target": [], "time": []}}, "mouseout": {"edge": {"target": [], "time": []}, "state": {"target": [], "time": []}}, "mouseover": {"edge": {"target": [], "time": []}, "state": {"target": [], "time": []}}}, "revealed_states": [], "rewards": [-2, -4, 7, 15, -76], "rt": [1017, 331, 293, 1178, 654], "score": -60, "simulationMode": [null, null, null, null, null], "stateRewards": ["", -2, -4, 2, 10, -17, 18, 73, 11, -32, 23, -13, -2, -4, 7, 12, -25, 66, -23, 15, 40, -76, -9, 1, 2, -7, -5, -20, 24, 3, -5, 16, -73, 70], "time_elapsed": 1543080, "trialIndex": 39, "trialTime": 18975, "trial_id": "mdp_trial_38", "trial_index": 46, "trial_type": "mouselab-mdp", "withholdReward": false}, "uniqueid": "w42683226:a11213995"}, {"current_trial": 47, "dateTime": 1693566565858, "trialdata": {"actionTimes": [3939, 5181, 6594, 8175, 9644], "actions": ["up", "up", "up", "left", "left"], "block": "test", "clicked_states": [], "costs": 0, "displayed_time": "16.92", "internal_node_id": "0.0-6.0-1.0-38.0", "num_clicks_accrued": [0, 0, 0, 0, 0, 0, 0, 0, 0, 0, 0, 0, 0], "path": ["0", "0", "1", "2", "3", "8", "11"], "queries": {"click": {"edge": {"target": [], "time": []}, "state": {"target": [], "time": []}}, "mouseout": {"edge": {"target": [], "time": []}, "state": {"target": ["0"], "time": [1323]}}, "mouseover": {"edge": {"target": [], "time": []}, "state": {"target": [], "time": []}}}, "revealed_states": [], "rewards": [1, -1, 4, 6, 9], "rt": [1022, 707, 774, 1071, 951], "score": 19, "simulationMode": [null, null, null, null, null], "stateRewards": ["", 1, -1, 4, 5, -32, 18, 20, 6, -88, -74, 9, -2, 1, -2, -14, 34, -77, -38, -1, 80, -36, 73, 2, 3, -8, 10, -48, -73, -71, -11, -22, 20, 54], "time_elapsed": 1563746, "trialIndex": 40, "trialTime": 18296, "trial_id": "mdp_trial_39", "trial_index": 47, "trial_type": "mouselab-mdp", "withholdReward": false}, "uniqueid": "w42683226:a11213995"}, {"current_trial": 48, "dateTime": 1693566591578, "trialdata": {"actionTimes": [4499, 5299, 6431, 7541, 8454], "actions": ["right", "right", "right", "down", "right"], "block": "test", "clicked_states": [], "costs": 0, "displayed_time": "17.24", "internal_node_id": "0.0-6.0-1.0-39.0", "num_clicks_accrued": [0, 0, 0, 0, 0, 0, 0, 0, 0, 0, 0, 0, 0], "path": ["0", "0", "12", "13", "14", "19", "20"], "queries": {"click": {"edge": {"target": [], "time": []}, "state": {"target": [], "time": []}}, "mouseout": {"edge": {"target": [], "time": []}, "state": {"target": ["0", "0", "23", "13", "14"], "time": [1255, 21223, 21359, 21407, 21443]}}, "mouseover": {"edge": {"target": [], "time": []}, "state": {"target": [], "time": []}}}, "revealed_states": [], "rewards": [-1, -4, -5, -3, 45], "rt": [1261, 247, 580, 571, 385], "score": 32, "simulationMode": [null, null, null, null, null], "stateRewards": ["", -2, 2, -5, -6, 10, -66, -58, -10, -11, -63, -70, -1, -4, -5, 7, 66, -64, -43, -3, 45, -37, 4, -2, -2, -6, -4, -30, 33, 43, 15, -32, -65, -59], "time_elapsed": 1589466, "trialIndex": 41, "trialTime": 23653, "trial_id": "mdp_trial_40", "trial_index": 48, "trial_type": "mouselab-mdp", "withholdReward": false}, "uniqueid": "w42683226:a11213995"}, {"current_trial": 49, "dateTime": 1693566672393, "trialdata": {"internal_node_id": "0.0-6.0-2.0", "question_order": [0, 1, 2, 3, 4], "response": {"Q0": "$-88 to $88", "Q1": "$-32 to $32", "Q2": "$-16 to $16", "Q3": "The cost for clicking on nodes varied between nodes.", "Q4": "Very motivated"}, "rt": 79804, "time_elapsed": 1670269, "trial_id": "final_quiz_control", "trial_index": 49, "trial_type": "survey-multi-choice"}, "uniqueid": "w42683226:a11213995"}, {"current_trial": 50, "dateTime": 1693566724116, "trialdata": {"internal_node_id": "0.0-6.0-3.0", "response": {"Q0": "choosing a different path everytime", "Q1": "i did not", "Q2": "the time was too short "}, "rt": 50610, "time_elapsed": 1722005, "trial_id": "self_report_control", "trial_index": 50, "trial_type": "survey-text"}, "uniqueid": "w42683226:a11213995"}, {"current_trial": 51, "dateTime": 1693566793746, "trialdata": {"internal_node_id": "0.0-6.0-4.0", "question_order": [0, 1, 2, 3, 4, 5, 6], "response": {"Q0": "Agree", "Q1": "Neither disagree nor agree", "Q2": "Disagree", "Q3": "Agree", "Q4": "Disagree", "Q5": "Agree", "Q6": "Disagree"}, "rt": 69564, "time_elapsed": 1791635, "trial_id": "self_report_2", "trial_index": 51, "trial_type": "survey-multi-choice"}, "uniqueid": "w42683226:a11213995"}, {"current_trial": 52, "dateTime": 1693566831421, "trialdata": {"internal_node_id": "0.0-6.0-5.0", "response": {"age": "20", "colorblind": "0", "effort": "0", "gender": "female"}, "rt": 37269, "time_elapsed": 1829310, "trial_index": 52, "trial_type": "survey-html-form"}, "uniqueid": "w42683226:a11213995"}, {"current_trial": 53, "dateTime": 1693566867206, "trialdata": {"internal_node_id": "0.0-6.0-6.0", "response": {"Q0": "no", "Q1": "no", "Q2": ""}, "rt": 35738, "time_elapsed": 1865095, "trial_index": 53, "trial_type": "survey-text"}, "uniqueid": "w42683226:a11213995"}, {"current_trial": 54, "dateTime": 1693566922287, "trialdata": {"internal_node_id": "0.0-6.0-7.0", "response": 0, "rt": 54981, "stimulus": "<h1>Completion Code Instructions (1/2)</h1>\n<br><br><br><br>\nYou have reached the end of the experiment! The completion code consists of two parts: (1) a code with 2 characters (2) a code with 6 characters. On this page, you will receive the second part of the code. The first part of the completion code will be on the next page.\n<br><br>\nThe second part of your completion code is: <b>EWEK22</b>\n<br><br>\nPlease note this down. Then, press 'Finish HIT' in order to find the first part of your completion code. Once the data has been saved, you will receive this code either in this window or in the original browser window where you started the experiment.\n", "time_elapsed": 1920175, "trial_index": 54, "trial_type": "html-button-response"}, "uniqueid": "w42683226:a11213995"}, {"current_trial": 55, "dateTime": 1693566923729, "trialdata": {"internal_node_id": "0.0-7.0", "success": true, "time_elapsed": 1921618, "trial_index": 55, "trial_type": "fullscreen"}, "uniqueid": "w42683226:a11213995"}], "questiondata": {"final_score": 257, "params": {"CODE": "C6DMOQA6", "MIN_TIME": 14, "inspectCost": 1, "startTime": "Fri Sep 01 2023 14:18:40 GMT+0300 (Israel Daylight Time)", "bonusRate": 0.002, "variance": "1_2_4_8_44", "branching": "31123"}}, "eventdata": [{"eventtype": "initialized", "interval": 0, "timestamp": 1693564994581, "value": null}, {"eventtype": "window_resize", "interval": 0, "timestamp": 1693564994581, "value": [1366, 670]}, {"eventtype": "window_resize", "interval": 834, "timestamp": 1693564995415, "value": [1366, 670]}, {"eventtype": "window_resize", "interval": 14954, "timestamp": 1693565010369, "value": [1366, 768]}, {"eventtype": "window_resize", "interval": 1918763, "timestamp": 1693566929132, "value": [1366, 670]}, {"eventtype": "focus", "interval": 7140, "timestamp": 1693566936272, "value": "off"}, {"eventtype": "focus", "interval": 116463, "timestamp": 1693567052735, "value": "on"}, {"eventtype": "focus", "interval": 20274, "timestamp": 1693567073009, "value": "off"}, {"eventtype": "window_resize", "value": [1366, 670], "timestamp": 1693567119979, "interval": 46970}], "useragent": "Mozilla/5.0 (Windows NT 10.0; Win64; x64) AppleWebKit/537.36 (KHTML, like Gecko) Chrome/116.0.0.0 Safari/537.36", "mode": "live", "id": "w42683226:a11213995", "status": "user data saved", "Beginhit": "2023-09-01 10:43:05.176649", "Beginexp": null, "Endhit": null, "psiturkStatus": 6, "browser": "<redacted>", "platform": "windows", "language": "en-US"}