{"condition": 1, "counterbalance": 0, "assignmentId": "a30127227", "workerId": "w78295288", "hitId": "h96426514", "currenttrial": 56, "bonus": 0, "data": [{"uniqueid": "w78295288:a30127227", "current_trial": 0, "dateTime": 1691070980669, "trialdata": {"success": true, "trial_type": "fullscreen", "trial_index": 0, "time_elapsed": 8568, "internal_node_id": "0.0-0.0"}}, {"uniqueid": "w78295288:a30127227", "current_trial": 1, "dateTime": 1691071010635, "trialdata": {"view_history": [{"page_index": 0, "viewing_time": 29951}], "rt": 29953, "trial_id": "exp_instructions_misaligned", "trial_type": "instructions", "trial_index": 1, "time_elapsed": 38535, "internal_node_id": "0.0-1.0"}}, {"uniqueid": "w78295288:a30127227", "current_trial": 2, "dateTime": 1691071017043, "trialdata": {"success": true, "trial_type": "fullscreen", "trial_index": 2, "time_elapsed": 44943, "internal_node_id": "0.0-2.0-0.0"}}, {"uniqueid": "w78295288:a30127227", "current_trial": 3, "dateTime": 1691071307470, "trialdata": {"view_history": [{"page_index": 0, "viewing_time": 112003}, {"page_index": 1, "viewing_time": 104752}, {"page_index": 2, "viewing_time": 26077}, {"page_index": 3, "viewing_time": 47586}], "rt": 290418, "trial_id": "mouselab_instructions_1_misaligned", "trial_type": "instructions", "trial_index": 3, "time_elapsed": 335370, "internal_node_id": "0.0-2.0-1.0"}}, {"uniqueid": "w78295288:a30127227", "current_trial": 4, "dateTime": 1691071355838, "trialdata": {"revealed_states": [], "clicked_states": ["2", "5", "25", "21", "17", "3", "6", "11", "32"], "num_clicks_accrued": [0, 0, 0, 0, 0, 0, 0, 0, 0, 0, 0, 0, 0], "stateRewards": ["", 10, 10, -10, 10, -10, 10, -10, 10, 10, -10, 10, -10, 10, -10, -10, 10, -10, -10, 10, -10, -10, -10, 10, -10, 10, 10, 10, -10, -10, 10, 10, -10, 10], "withholdReward": false, "trial_id": "practice_1", "block": "test", "trialIndex": 0, "score": 29, "costs": -4.5, "simulationMode": [null, null, null, null, null], "rewards": [10, 10, -10, 10, 10], "path": ["0", "0", "1", "2", "3", "8", "11"], "rt": [17654, 1579, 1009, 2080, 727], "actions": ["up", "up", "up", "left", "left"], "actionTimes": [23083, 25180, 26716, 29321, 30551], "queries": {"click": {"state": {"target": ["2", "5", "25", "21", "17", "3", "6", "11", "32"], "time": [6850, 8443, 10052, 11631, 12891, 15510, 16661, 18040, 19817]}, "edge": {"target": [], "time": []}}, "mouseover": {"state": {"target": ["1", "2", "7", "6", "5", "8", "27", "29", "33", "25", "21", "21", "17", "15", "18", "1", "1", "2", "3", "3", "4", "6", "4", "8", "11", "28", "24", "31", "32", "23", "0"], "time": [6302, 6576, 7591, 7845, 8207, 9225, 9258, 9293, 9585, 9751, 11058, 11377, 12439, 13689, 13723, 13789, 14135, 14552, 14936, 15218, 15789, 16205, 17274, 17307, 17355, 18337, 18357, 18374, 19103, 20278, 21926]}, "edge": {"target": [], "time": []}}, "mouseout": {"state": {"target": ["0", "0", "0", "1", "2", "7", "6", "5", "5", "8", "27", "29", "33", "25", "21", "21", "21", "17", "15", "18", "1", "1", "2", "3", "3", "4", "6", "4", "3", "8", "11", "28", "24", "31", "32", "23", "0"], "time": [1302, 1942, 6220, 6336, 7473, 7757, 7877, 8527, 9175, 9240, 9274, 9307, 9618, 10956, 11076, 11718, 12006, 13673, 13706, 13740, 13822, 14352, 14585, 14984, 15774, 15826, 17271, 17288, 17305, 17320, 18287, 18354, 18371, 18387, 20103, 20296, 22241]}, "edge": {"target": [], "time": []}}}, "displayed_time": "31.06", "trialTime": 46987, "trial_type": "mouselab-mdp", "trial_index": 4, "time_elapsed": 383737, "internal_node_id": "0.0-2.0-2.0-0.0"}}, {"uniqueid": "w78295288:a30127227", "current_trial": 5, "dateTime": 1691071388690, "trialdata": {"revealed_states": [], "clicked_states": ["3", "15", "19", "25", "2", "1", "23", "13"], "num_clicks_accrued": [0, 0, 0, 0, 0, 0, 0, 0, 0, 0, 0, 0, 0], "stateRewards": ["", -10, 10, 10, 10, -10, -10, 10, -10, -10, 10, 10, 10, 10, 10, 10, -10, -10, 10, 10, 10, -10, -10, -10, 10, 10, -10, -10, 10, 10, 10, -10, 10, 10], "withholdReward": false, "trial_id": "practice_2", "block": "test", "trialIndex": 1, "score": -10.5, "costs": -4, "simulationMode": [null, null, null, null, null], "rewards": [-10, 10, 10, -10, -10], "path": ["0", "0", "23", "24", "25", "26", "27"], "rt": [18227, 1088, 438, 716, 123], "actions": ["left", "left", "left", "up", "up"], "actionTimes": [22498, 24115, 25079, 26308, 26949], "queries": {"click": {"state": {"target": ["3", "15", "19", "25", "2", "1", "23", "13"], "time": [5607, 7173, 8389, 9786, 11996, 14229, 15873, 18388]}, "edge": {"target": [], "time": []}}, "mouseover": {"state": {"target": ["1", "2", "3", "3", "7", "18", "15", "14", "19", "22", "24", "25", "25", "24", "2", "3", "1", "0", "23", "31", "30", "31", "13", "13", "15", "14"], "time": [4871, 4894, 4925, 5206, 6242, 6294, 6358, 7474, 7846, 8908, 8975, 9085, 9358, 11074, 11254, 12941, 13705, 15157, 15542, 16456, 16936, 17287, 17957, 18090, 19904, 22170]}, "edge": {"target": [], "time": []}}, "mouseout": {"state": {"target": ["17", "15", "18", "13", "12", "0", "1", "2", "3", "3", "7", "18", "15", "14", "19", "22", "24", "25", "25", "24", "2", "3", "1", "1", "0", "23", "31", "30", "31", "13", "13", "15", "14"], "time": [1072, 1090, 1120, 1558, 1604, 4831, 4890, 4921, 4942, 6192, 6259, 6326, 7425, 7740, 8873, 8924, 9058, 9131, 10823, 11109, 12808, 13643, 14539, 14989, 15245, 16390, 16857, 17255, 17337, 18008, 19727, 21021, 22320]}, "edge": {"target": [], "time": []}}}, "displayed_time": "27.47", "trialTime": 32344, "trial_type": "mouselab-mdp", "trial_index": 5, "time_elapsed": 416587, "internal_node_id": "0.0-2.0-2.0-1.0"}}, {"uniqueid": "w78295288:a30127227", "current_trial": 6, "dateTime": 1691071443561, "trialdata": {"view_history": [{"page_index": 0, "viewing_time": 38925}, {"page_index": 1, "viewing_time": 15936}], "rt": 54861, "trial_id": "mouselab_instructions_2_misaligned", "trial_type": "instructions", "trial_index": 6, "time_elapsed": 471461, "internal_node_id": "0.0-2.0-3.0"}}, {"uniqueid": "w78295288:a30127227", "current_trial": 7, "dateTime": 1691071494753, "trialdata": {"rt": 51186, "response": {"Q0": "The cost for clicking on nodes may vary between nodes.", "Q1": "The better I perform the higher my bonus will be.", "Q2": "No, the amount of cash at each node of the web may be different each time.", "Q3": "To get the highest total score.", "Q4": "Only before moving the spider.", "Q5": "3 seconds"}, "question_order": [0, 1, 2, 3, 4, 5], "correct": {"Q0": "The cost for clicking on nodes may vary between nodes.", "Q1": "The better I perform the higher my bonus will be.", "Q2": "No, the amount of cash at each node of the web may be different each time.", "Q3": "To get the highest total score.", "Q4": "Only before moving the spider.", "Q5": "3 seconds"}, "trial_id": "mouselab_quiz_misaligned", "trial_type": "survey-multi-choice", "trial_index": 7, "time_elapsed": 522652, "internal_node_id": "0.0-2.0-4.0"}}, {"uniqueid": "w78295288:a30127227", "current_trial": 8, "dateTime": 1691071504578, "trialdata": {"rt": 9813, "stimulus": "\n<h1> Get ready to start the game! </h1>\n\nThank you for reading the instructions. Get ready start with the 40 rounds of this game.\n<br><br>\nIf you need to take a break, feel free to take one after the end of a round, before continuing to the next one.\n<br><br>\nRemember, the more money the spider gets, the bigger your bonus will be!\n<br><br>\n<div style='text-align: center;'>Press <code>space</code> to begin.</div>\n\n<br><br>\n(If, at any point, the <code>space</code> key does not take you to the next page, click once on the text and try again.)", "response": " ", "trial_id": "mdp_ready", "trial_type": "html-keyboard-response", "trial_index": 8, "time_elapsed": 532478, "internal_node_id": "0.0-4.0-0.0"}}, {"uniqueid": "w78295288:a30127227", "current_trial": 9, "dateTime": 1691071539335, "trialdata": {"revealed_states": [], "clicked_states": ["2", "12", "23", "25"], "num_clicks_accrued": [0, 0, 0, 0, 0, 0, 0, 0, 0, 0, 0, 0, 0], "stateRewards": ["", 2, -1, 4, -9, -43, 7, 54, -13, 38, -40, -83, -1, 2, -8, -10, 34, -33, 11, -14, -79, 65, 26, 1, 2, 4, 10, 21, 1, 86, 4, -53, 28, -29], "withholdReward": false, "trial_id": "mdp_trial_1", "block": "test", "trialIndex": 2, "score": 2.2, "costs": -0.7999999999999999, "simulationMode": [null, null, null, null, null], "rewards": [2, -1, 4, -9, 7], "path": ["0", "0", "1", "2", "3", "4", "6"], "rt": [15744, 320, 502, 1517, 535], "actions": ["up", "up", "up", "right", "right"], "actionTimes": [18351, 19192, 20190, 22222, 23274], "queries": {"click": {"state": {"target": ["2", "12", "23", "25"], "time": [3822, 5690, 7388, 9962]}, "edge": {"target": [], "time": []}}, "mouseover": {"state": {"target": ["1", "2", "2", "1", "12", "13", "12", "0", "23", "24", "25", "24", "23", "12", "13", "13", "13", "22"], "time": [3050, 3103, 3384, 4621, 4736, 4949, 5185, 6702, 6968, 8353, 9672, 10804, 10886, 13934, 14268, 16118, 16655, 17533]}, "edge": {"target": [], "time": []}}, "mouseout": {"state": {"target": ["0", "1", "2", "2", "1", "12", "13", "12", "0", "23", "24", "25", "24", "23", "12", "13", "13", "13", "22", "22"], "time": [2987, 3084, 3149, 4570, 4705, 4771, 5155, 6687, 6733, 8336, 9638, 10770, 10853, 11270, 13984, 15420, 16399, 16867, 30352, 30466]}, "edge": {"target": [], "time": []}}}, "displayed_time": "23.77", "trialTime": 34214, "trial_type": "mouselab-mdp", "trial_index": 9, "time_elapsed": 567234, "internal_node_id": "0.0-4.0-1.0-0.0"}}, {"uniqueid": "w78295288:a30127227", "current_trial": 10, "dateTime": 1691071568450, "trialdata": {"revealed_states": [], "clicked_states": ["12", "13", "14", "23", "24", "1", "2", "3"], "num_clicks_accrued": [0, 0, 0, 0, 0, 0, 0, 0, 0, 0, 0, 0, 0], "stateRewards": ["", 2, -2, 7, -11, -76, -65, -23, 16, -58, 30, 81, 1, 2, 7, 14, 9, 55, -2, 6, 11, -15, 31, -1, -1, -3, 2, 15, 2, 46, 15, 18, 45, -34], "withholdReward": false, "trial_id": "mdp_trial_2", "block": "test", "trialIndex": 3, "score": -71.2, "costs": -2.2, "simulationMode": [null, null, null, null, null], "rewards": [2, -2, 7, -11, -65], "path": ["0", "0", "1", "2", "3", "4", "6"], "rt": [15071, 7, 256, 1143, 521], "actions": ["up", "up", "up", "right", "right"], "actionTimes": [18482, 19016, 19789, 21447, 22492], "queries": {"click": {"state": {"target": ["12", "13", "14", "23", "24", "1", "2", "3"], "time": [4649, 5788, 7098, 8832, 9810, 11312, 12059, 13371]}, "edge": {"target": [], "time": []}}, "mouseover": {"state": {"target": ["12", "13", "14", "14", "0", "25", "25", "24", "23", "24", "1", "2", "3", "10", "0", "22", "22", "21"], "time": [4274, 5470, 6567, 6865, 7873, 7894, 8166, 8282, 8503, 9200, 11014, 11718, 13069, 14119, 14937, 15364, 15939, 17421]}, "edge": {"target": [], "time": []}}, "mouseout": {"state": {"target": ["0", "12", "13", "13", "14", "14", "14", "13", "0", "25", "25", "24", "23", "24", "23", "1", "1", "2", "3", "3", "2", "10", "0", "22", "22", "21"], "time": [4005, 5454, 5899, 6520, 6619, 7206, 7842, 7865, 7888, 7904, 8232, 8348, 9187, 10738, 10788, 11406, 11619, 12853, 13477, 13619, 13735, 14854, 14956, 15464, 16089, 25819]}, "edge": {"target": [], "time": []}}}, "displayed_time": "22.99", "trialTime": 28613, "trial_type": "mouselab-mdp", "trial_index": 10, "time_elapsed": 596349, "internal_node_id": "0.0-4.0-1.0-1.0"}}, {"uniqueid": "w78295288:a30127227", "current_trial": 11, "dateTime": 1691071602862, "trialdata": {"revealed_states": [], "clicked_states": ["23", "24", "1", "2", "3", "8", "12", "13", "14", "15"], "num_clicks_accrued": [0, 0, 0, 0, 0, 0, 0, 0, 0, 0, 0, 0, 0], "stateRewards": ["", 2, -1, 5, 8, 75, -35, -77, 1, -9, -81, -58, 1, 2, -7, 5, 77, -16, 19, 16, -10, -18, 40, -2, 3, 7, -5, 64, 1, -62, 10, 27, 10, 65], "withholdReward": false, "trial_id": "mdp_trial_3", "block": "test", "trialIndex": 4, "score": 22.7, "costs": -5.3, "simulationMode": [null, null, null, null, null], "rewards": [-2, 3, 7, 10, 10], "path": ["0", "0", "23", "24", "25", "30", "32"], "rt": [18645, 640, 974, 936, 1942], "actions": ["left", "left", "left", "down", "down"], "actionTimes": [20635, 21788, 23267, 24701, 27155], "queries": {"click": {"state": {"target": ["23", "24", "1", "2", "3", "8", "12", "13", "14", "15"], "time": [3039, 4150, 5568, 6462, 8103, 9444, 12093, 12903, 14563, 15150]}, "edge": {"target": [], "time": []}}, "mouseover": {"state": {"target": ["23", "24", "1", "2", "10", "4", "3", "11", "8", "10", "1", "13", "13", "12", "13", "14", "15", "18", "18"], "time": [2526, 3845, 5242, 6098, 7196, 7624, 7791, 8633, 8945, 10212, 10674, 10774, 11122, 11476, 12534, 14159, 14878, 15428, 15878]}, "edge": {"target": [], "time": []}}, "mouseout": {"state": {"target": ["0", "0", "23", "24", "23", "1", "2", "10", "4", "3", "11", "8", "10", "1", "13", "13", "12", "13", "14", "15", "18", "18", "13"], "time": [1262, 2482, 3829, 4764, 4796, 5677, 7146, 7525, 7675, 8563, 8728, 10145, 10227, 10691, 10824, 11431, 12463, 14132, 14778, 15284, 15462, 19029, 32181]}, "edge": {"target": [], "time": []}}}, "displayed_time": "27.68", "trialTime": 33868, "trial_type": "mouselab-mdp", "trial_index": 11, "time_elapsed": 630760, "internal_node_id": "0.0-4.0-1.0-2.0"}}, {"uniqueid": "w78295288:a30127227", "current_trial": 12, "dateTime": 1691071627430, "trialdata": {"revealed_states": [], "clicked_states": ["23", "24", "25", "26", "27"], "num_clicks_accrued": [0, 0, 0, 0, 0, 0, 0, 0, 0, 0, 0, 0, 0], "stateRewards": ["", -1, 2, -7, -12, -62, 12, -13, 5, 77, -71, 83, 1, -4, 7, 15, -42, -87, -4, 5, -25, 44, 88, -1, 4, -5, -8, 14, 51, 8, -5, 83, -24, -19], "withholdReward": false, "trial_id": "mdp_trial_4", "block": "test", "trialIndex": 5, "score": 48.25, "costs": -4.75, "simulationMode": [null, null, null, null, null], "rewards": [1, -4, 7, 5, 44], "path": ["0", "0", "12", "13", "14", "19", "21"], "rt": [11223, 361, 1805, 1046, 1265], "actions": ["right", "right", "right", "down", "down"], "actionTimes": [13114, 13984, 16292, 17837, 19653], "queries": {"click": {"state": {"target": ["23", "24", "25", "26", "27"], "time": [3256, 4577, 5470, 6235, 6781]}, "edge": {"target": [], "time": []}}, "mouseover": {"state": {"target": ["23", "23", "24", "25", "26", "27", "30", "32", "32", "30", "32", "30", "32", "12"], "time": [2685, 2869, 3842, 5107, 5938, 6489, 7056, 7088, 7388, 7705, 8121, 8606, 9370, 10340]}, "edge": {"target": [], "time": []}}, "mouseout": {"state": {"target": ["22", "0", "23", "23", "24", "25", "26", "27", "27", "26", "25", "30", "32", "32", "30", "32", "30", "32", "12"], "time": [820, 1362, 2719, 3809, 4877, 5569, 6393, 6888, 6972, 7005, 7039, 7069, 7104, 7488, 8105, 8506, 9304, 9522, 10507]}, "edge": {"target": [], "time": []}}}, "displayed_time": "20.16", "trialTime": 24031, "trial_type": "mouselab-mdp", "trial_index": 12, "time_elapsed": 655328, "internal_node_id": "0.0-4.0-1.0-3.0"}}, {"uniqueid": "w78295288:a30127227", "current_trial": 13, "dateTime": 1691071653750, "trialdata": {"revealed_states": [], "clicked_states": ["1", "2", "12", "13", "23", "24"], "num_clicks_accrued": [0, 0, 0, 0, 0, 0, 0, 0, 0, 0, 0, 0, 0], "stateRewards": ["", -2, -3, 4, 1, 33, -53, 15, 9, -12, 61, -6, -2, 4, 6, -11, 47, -43, -7, -11, 46, 23, -28, -1, -1, 3, -10, 11, 76, -76, 10, 18, -38, 87], "withholdReward": false, "trial_id": "mdp_trial_5", "block": "test", "trialIndex": 6, "score": 1.6999999999999993, "costs": -0.29999999999999993, "simulationMode": [null, null, null, null, null], "rewards": [-1, -1, 3, -10, 11], "path": ["0", "0", "23", "24", "25", "26", "27"], "rt": [9937, 2813, 2816, 468, 1178], "actions": ["left", "left", "left", "up", "up"], "actionTimes": [11692, 15022, 18373, 19362, 21034], "queries": {"click": {"state": {"target": ["1", "2", "12", "13", "23", "24"], "time": [3447, 4356, 5543, 6386, 7349, 8199]}, "edge": {"target": [], "time": []}}, "mouseover": {"state": {"target": ["1", "2", "1", "2", "0", "12", "13", "0", "23", "24"], "time": [2492, 2601, 3070, 4089, 5022, 5289, 6022, 6918, 6944, 7606]}, "edge": {"target": [], "time": []}}, "mouseout": {"state": {"target": ["0", "1", "2", "1", "2", "1", "0", "12", "13", "12", "0", "23", "24"], "time": [1201, 2553, 3023, 3738, 4921, 4988, 5038, 5971, 6821, 6894, 6936, 7569, 8454]}, "edge": {"target": [], "time": []}}}, "displayed_time": "21.54", "trialTime": 25786, "trial_type": "mouselab-mdp", "trial_index": 13, "time_elapsed": 681648, "internal_node_id": "0.0-4.0-1.0-4.0"}}, {"uniqueid": "w78295288:a30127227", "current_trial": 14, "dateTime": 1691071696400, "trialdata": {"revealed_states": [], "clicked_states": [], "num_clicks_accrued": [0, 0, 0, 0, 0, 0, 0, 0, 0, 0, 0, 0, 0], "stateRewards": ["", -1, -4, 8, 8, -68, 47, 24, -7, -61, 49, -69, -1, -1, 8, -7, 42, 1, -45, -11, 10, -63, -6, 1, 4, 6, -16, 79, -37, -58, -12, 81, 18, -53], "withholdReward": false, "trial_id": "mdp_trial_6", "block": "test", "trialIndex": 7, "score": -46, "costs": 0, "simulationMode": [null, null, null, null, null], "rewards": [-1, -1, 8, -7, -45], "path": ["0", "0", "12", "13", "14", "15", "18"], "rt": [4859, 178, 734, 3959, 22966], "actions": ["right", "right", "right", "up", "left"], "actionTimes": [6472, 7176, 8427, 12906, 36416], "queries": {"click": {"state": {"target": [], "time": []}, "edge": {"target": [], "time": []}}, "mouseover": {"state": {"target": ["0"], "time": [3582]}, "edge": {"target": [], "time": []}}, "mouseout": {"state": {"target": ["0", "0", "1", "12", "12", "12", "14", "19", "14", "19", "21", "16", "15", "18", "15", "18", "6", "4", "7", "0"], "time": [3352, 9859, 10391, 10493, 11507, 16809, 17265, 20193, 20731, 20775, 20842, 29912, 30030, 31028, 31058, 33995, 34095, 34656, 34692, 34789]}, "edge": {"target": [], "time": []}}}, "displayed_time": "36.93", "trialTime": 42131, "trial_type": "mouselab-mdp", "trial_index": 14, "time_elapsed": 724299, "internal_node_id": "0.0-4.0-1.0-5.0"}}, {"uniqueid": "w78295288:a30127227", "current_trial": 15, "dateTime": 1691071718862, "trialdata": {"revealed_states": [], "clicked_states": ["1", "2", "12", "23", "24", "25"], "num_clicks_accrued": [0, 0, 0, 0, 0, 0, 0, 0, 0, 0, 0, 0, 0], "stateRewards": ["", -2, -3, 7, -13, 60, 9, 37, -6, 37, 20, 1, 2, -2, -8, 6, -80, -31, -10, -7, 70, -65, -44, -1, 1, 7, 6, -11, 73, -85, 16, -21, 47, 34], "withholdReward": false, "trial_id": "mdp_trial_7", "block": "test", "trialIndex": 8, "score": 69.1, "costs": -0.8999999999999999, "simulationMode": [null, null, null, null, null], "rewards": [-1, 1, 7, 16, 47], "path": ["0", "0", "23", "24", "25", "30", "32"], "rt": [9255, 587, 1041, 807, 577], "actions": ["left", "left", "left", "down", "down"], "actionTimes": [10988, 12102, 13639, 14967, 16059], "queries": {"click": {"state": {"target": ["1", "2", "12", "23", "24", "25"], "time": [2825, 3727, 5365, 6307, 7121, 8215]}, "edge": {"target": [], "time": []}}, "mouseover": {"state": {"target": ["1", "1", "1", "2", "10", "12", "23", "23", "24", "25"], "time": [2158, 2459, 2564, 3197, 4479, 5008, 5679, 5962, 6612, 7745]}, "edge": {"target": [], "time": []}}, "mouseout": {"state": {"target": ["1", "1", "1", "1", "2", "10", "2", "1", "12", "23", "23", "24", "25", "24"], "time": [595, 2381, 2510, 2901, 4029, 4663, 4775, 4825, 5591, 5712, 6562, 7377, 8476, 8725]}, "edge": {"target": [], "time": []}}}, "displayed_time": "16.58", "trialTime": 21877, "trial_type": "mouselab-mdp", "trial_index": 15, "time_elapsed": 746761, "internal_node_id": "0.0-4.0-1.0-6.0"}}, {"uniqueid": "w78295288:a30127227", "current_trial": 16, "dateTime": 1691071738448, "trialdata": {"revealed_states": [], "clicked_states": ["1", "2", "3", "13", "24"], "num_clicks_accrued": [0, 0, 0, 0, 0, 0, 0, 0, 0, 0, 0, 0, 0], "stateRewards": ["", 2, -2, -8, 9, -20, 55, -58, 14, 42, 2, 36, 1, -3, -5, 5, -58, 57, 60, 16, 57, 30, -70, -2, 1, 3, 10, 59, 23, 77, -13, -26, 88, -72], "withholdReward": false, "trial_id": "mdp_trial_8", "block": "test", "trialIndex": 9, "score": -61.75, "costs": -1.75, "simulationMode": [null, null, null, null, null], "rewards": [1, -3, -5, 5, -58], "path": ["0", "0", "12", "13", "14", "15", "16"], "rt": [5786, 773, 556, 1016, 86], "actions": ["right", "right", "right", "up", "up"], "actionTimes": [7203, 8489, 9567, 11082, 11669], "queries": {"click": {"state": {"target": ["1", "2", "3", "13", "24"], "time": [2276, 2881, 3396, 4305, 5171]}, "edge": {"target": [], "time": []}}, "mouseover": {"state": {"target": ["1", "2", "3", "12", "13", "24"], "time": [1976, 2514, 3073, 3846, 4013, 4930]}, "edge": {"target": [], "time": []}}, "mouseout": {"state": {"target": ["0", "1", "2", "3", "3", "2", "12", "13", "24"], "time": [947, 2430, 2975, 3477, 3586, 3745, 3912, 4462, 5362]}, "edge": {"target": [], "time": []}}}, "displayed_time": "15.42", "trialTime": 18983, "trial_type": "mouselab-mdp", "trial_index": 16, "time_elapsed": 766347, "internal_node_id": "0.0-4.0-1.0-7.0"}}, {"uniqueid": "w78295288:a30127227", "current_trial": 17, "dateTime": 1691071762991, "trialdata": {"revealed_states": [], "clicked_states": ["1", "23", "24", "3", "13", "14", "15", "19"], "num_clicks_accrued": [0, 0, 0, 0, 0, 0, 0, 0, 0, 0, 0, 0, 0], "stateRewards": ["", 2, 3, 3, 10, 19, -21, 6, 9, 54, 68, 16, 2, 2, -6, -8, 40, -2, -75, -2, -42, 55, 59, -1, 2, 4, -14, 11, -34, -30, -6, 61, -53, 13], "withholdReward": false, "trial_id": "mdp_trial_9", "block": "test", "trialIndex": 10, "score": -48.2, "costs": -5.199999999999999, "simulationMode": [null, null, null, null, null], "rewards": [-1, 2, 4, -14, -34], "path": ["0", "0", "23", "24", "25", "26", "28"], "rt": [11264, 549, 572, 1231, 835], "actions": ["left", "left", "left", "up", "right"], "actionTimes": [13748, 14827, 15908, 17666, 19019], "queries": {"click": {"state": {"target": ["1", "23", "24", "3", "13", "14", "15", "19"], "time": [3652, 4597, 5326, 6632, 7885, 8935, 9536, 10553]}, "edge": {"target": [], "time": []}}, "mouseover": {"state": {"target": ["1", "23", "24", "2", "3", "12", "13", "14", "14", "15", "21", "19", "21"], "time": [3017, 4332, 5012, 5933, 6216, 7301, 7649, 8432, 8682, 9216, 10081, 10293, 11778]}, "edge": {"target": [], "time": []}}, "mouseout": {"state": {"target": ["0", "1", "23", "23", "24", "1", "2", "3", "12", "13", "14", "14", "15", "15", "21", "19", "21"], "time": [2883, 4018, 4695, 4916, 5647, 5769, 6066, 6876, 7382, 8416, 8451, 9081, 9697, 9948, 10216, 10787, 11795]}, "edge": {"target": [], "time": []}}}, "displayed_time": "19.53", "trialTime": 23979, "trial_type": "mouselab-mdp", "trial_index": 17, "time_elapsed": 790889, "internal_node_id": "0.0-4.0-1.0-8.0"}}, {"uniqueid": "w78295288:a30127227", "current_trial": 18, "dateTime": 1691071791713, "trialdata": {"revealed_states": [], "clicked_states": ["1", "2", "3", "5", "9", "20"], "num_clicks_accrued": [0, 0, 0, 0, 0, 0, 0, 0, 0, 0, 0, 0, 0], "stateRewards": ["", 2, 3, -1, 6, 44, -4, -59, -14, -3, 64, 16, 1, -3, 3, 6, 3, 49, 19, 3, -49, -14, -86, 1, 2, -3, -8, -33, 14, 32, -13, -77, -47, -67], "withholdReward": false, "trial_id": "mdp_trial_10", "block": "test", "trialIndex": 11, "score": 2.5, "costs": -7.5, "simulationMode": [null, null, null, null, null, null], "rewards": [1, -3, 3, 6, 3], "path": ["0", "0", "12", "13", "14", "15", "16"], "rt": [13901, 1778, 460, 762, 1626, 1181], "actions": ["right", "right", "right", "right", "up", "up"], "actionTimes": [15755, 17538, 18507, 19766, 21908, 23619], "queries": {"click": {"state": {"target": ["1", "2", "3", "5", "9", "20"], "time": [3151, 4059, 5176, 6176, 8978, 13256]}, "edge": {"target": [], "time": []}}, "mouseover": {"state": {"target": ["1", "1", "2", "3", "4", "6", "6", "5", "9", "9", "8", "1", "12", "9", "9", "8", "13", "19", "20", "14", "19", "20"], "time": [2402, 2735, 3501, 4885, 5487, 5520, 5683, 5901, 6518, 6850, 7552, 7601, 7667, 8167, 8500, 9183, 11088, 11146, 11216, 11383, 11516, 11983]}, "edge": {"target": [], "time": []}}, "mouseout": {"state": {"target": ["0", "1", "1", "2", "3", "4", "6", "6", "5", "9", "9", "8", "1", "12", "3", "9", "9", "9", "8", "13", "19", "20", "14", "19", "20"], "time": [2240, 2520, 3242, 4785, 5375, 5517, 5533, 5817, 6467, 6534, 7534, 7568, 7618, 7785, 7918, 8236, 9073, 9167, 9201, 11128, 11183, 11233, 11482, 11970, 17149]}, "edge": {"target": [], "time": []}}}, "displayed_time": "24.12", "trialTime": 28188, "trial_type": "mouselab-mdp", "trial_index": 18, "time_elapsed": 819611, "internal_node_id": "0.0-4.0-1.0-9.0"}}, {"uniqueid": "w78295288:a30127227", "current_trial": 19, "dateTime": 1691071817806, "trialdata": {"revealed_states": [], "clicked_states": ["1", "12", "16"], "num_clicks_accrued": [0, 0, 0, 0, 0, 0, 0, 0, 0, 0, 0, 0, 0], "stateRewards": ["", 1, -3, -4, -11, -56, 61, -47, -16, -28, -9, 69, -2, -3, -4, -8, 40, -86, 59, -4, 80, 27, 54, -1, 3, -1, 8, 67, 23, 50, 6, 83, -43, -29], "withholdReward": false, "trial_id": "mdp_trial_11", "block": "test", "trialIndex": 12, "score": -37.65, "costs": -1.65, "simulationMode": [null, null, null, null, null], "rewards": [-1, 3, -1, 6, -43], "path": ["0", "0", "23", "24", "25", "30", "32"], "rt": [14607, 459, 536, 945, 1198], "actions": ["left", "left", "left", "down", "down"], "actionTimes": [17783, 18761, 19817, 21281, 22999], "queries": {"click": {"state": {"target": ["1", "12", "16"], "time": [3945, 5566, 6358]}, "edge": {"target": [], "time": []}}, "mouseover": {"state": {"target": ["1", "12", "13", "12", "15", "16", "27", "26", "26", "27", "28", "23"], "time": [3616, 4465, 4582, 4748, 5782, 6098, 6588, 8266, 11781, 12298, 12864, 13495]}, "edge": {"target": [], "time": []}}, "mouseout": {"state": {"target": ["22", "22", "19", "14", "18", "1", "0", "1", "1", "12", "13", "12", "15", "16", "27", "26", "26", "27", "28", "23"], "time": [1516, 1649, 1680, 1964, 1997, 2178, 2380, 4099, 4351, 4532, 4734, 5699, 5799, 6516, 8233, 9365, 12052, 12749, 13451, 14281]}, "edge": {"target": [], "time": []}}}, "displayed_time": "23.50", "trialTime": 25564, "trial_type": "mouselab-mdp", "trial_index": 19, "time_elapsed": 845704, "internal_node_id": "0.0-4.0-1.0-10.0"}}, {"uniqueid": "w78295288:a30127227", "current_trial": 20, "dateTime": 1691071837231, "trialdata": {"revealed_states": [], "clicked_states": ["1", "3"], "num_clicks_accrued": [0, 0, 0, 0, 0, 0, 0, 0, 0, 0, 0, 0, 0], "stateRewards": ["", 1, -4, 6, -3, 40, 76, -51, 5, -24, -63, 44, -2, -2, 8, 1, 76, -85, -58, 10, 59, 20, 11, -2, 3, -3, 3, -82, -10, 54, -7, -57, -6, -32], "withholdReward": false, "trial_id": "mdp_trial_12", "block": "test", "trialIndex": 13, "score": 80.3, "costs": -0.7, "simulationMode": [null, null, null, null, null], "rewards": [-2, -2, 8, 1, 76], "path": ["0", "0", "12", "13", "14", "15", "16"], "rt": [3820, 396, 519, 1542, 363], "actions": ["right", "right", "right", "up", "up"], "actionTimes": [5122, 6042, 7083, 9139, 10022], "queries": {"click": {"state": {"target": ["1", "3"], "time": [2008, 2776]}, "edge": {"target": [], "time": []}}, "mouseover": {"state": {"target": ["1", "2", "3", "2"], "time": [1676, 2211, 2478, 3162]}, "edge": {"target": [], "time": []}}, "mouseout": {"state": {"target": ["12", "1", "2", "3", "2"], "time": [494, 2084, 2378, 3129, 3195]}, "edge": {"target": [], "time": []}}}, "displayed_time": "15.30", "trialTime": 18853, "trial_type": "mouselab-mdp", "trial_index": 20, "time_elapsed": 865130, "internal_node_id": "0.0-4.0-1.0-11.0"}}, {"uniqueid": "w78295288:a30127227", "current_trial": 21, "dateTime": 1691071858827, "trialdata": {"revealed_states": [], "clicked_states": ["24", "26"], "num_clicks_accrued": [0, 0, 0, 0, 0, 0, 0, 0, 0, 0, 0, 0, 0], "stateRewards": ["", -1, 3, -7, 16, -32, -74, -48, 2, 10, 15, -30, 1, 1, -2, 10, 12, -83, 67, 13, -66, 47, 65, -2, 4, 2, -14, -8, -57, 24, 9, 65, 12, 46], "withholdReward": false, "trial_id": "mdp_trial_13", "block": "test", "trialIndex": 14, "score": -34.9, "costs": -1.9, "simulationMode": [null, null, null, null, null], "rewards": [-1, 3, -7, 2, -30], "path": ["0", "0", "1", "2", "3", "8", "11"], "rt": [6448, 502, 451, 957, 398], "actions": ["up", "up", "up", "left", "left"], "actionTimes": [8056, 9064, 10031, 11503, 12438], "queries": {"click": {"state": {"target": ["24", "26"], "time": [3129, 4127]}, "edge": {"target": [], "time": []}}, "mouseover": {"state": {"target": ["1", "2", "24", "26"], "time": [1773, 2491, 2743, 3744]}, "edge": {"target": [], "time": []}}, "mouseout": {"state": {"target": ["0", "1", "2", "24", "26", "24"], "time": [1624, 2163, 2631, 3410, 4444, 4575]}, "edge": {"target": [], "time": []}}}, "displayed_time": "15.61", "trialTime": 21035, "trial_type": "mouselab-mdp", "trial_index": 21, "time_elapsed": 886726, "internal_node_id": "0.0-4.0-1.0-12.0"}}, {"uniqueid": "w78295288:a30127227", "current_trial": 22, "dateTime": 1691071878810, "trialdata": {"revealed_states": [], "clicked_states": ["1", "12", "23"], "num_clicks_accrued": [0, 0, 0, 0, 0, 0, 0, 0, 0, 0, 0, 0, 0], "stateRewards": ["", 1, 1, -3, 7, 49, 78, 26, -5, 26, 48, -43, -1, -3, 2, -5, 4, -1, -60, 10, -35, 51, 81, -2, 1, -7, -5, -39, -86, -54, 4, -3, 74, 77], "withholdReward": false, "trial_id": "mdp_trial_14", "block": "test", "trialIndex": 15, "score": -26.25, "costs": 0.75, "simulationMode": [null, null, null, null, null], "rewards": [-1, -3, 2, 10, -35], "path": ["0", "0", "12", "13", "14", "19", "20"], "rt": [8382, 213, 362, 1085, 1114], "actions": ["right", "right", "right", "down", "right"], "actionTimes": [10664, 11391, 12253, 13844, 15460], "queries": {"click": {"state": {"target": ["1", "12", "23"], "time": [4405, 5341, 6417]}, "edge": {"target": [], "time": []}}, "mouseover": {"state": {"target": ["1", "12", "23"], "time": [3925, 5027, 6159]}, "edge": {"target": [], "time": []}}, "mouseout": {"state": {"target": ["0", "1", "12", "23", "23", "23"], "time": [3812, 4677, 5448, 6494, 8391, 18008]}, "edge": {"target": [], "time": []}}}, "displayed_time": "16.28", "trialTime": 19432, "trial_type": "mouselab-mdp", "trial_index": 22, "time_elapsed": 906708, "internal_node_id": "0.0-4.0-1.0-13.0"}}, {"uniqueid": "w78295288:a30127227", "current_trial": 23, "dateTime": 1691071899985, "trialdata": {"revealed_states": [], "clicked_states": ["1", "3", "25", "20"], "num_clicks_accrued": [0, 0, 0, 0, 0, 0, 0, 0, 0, 0, 0, 0, 0], "stateRewards": ["", 2, -1, 1, 10, -52, 86, -22, -2, -14, -63, 38, 1, 3, 7, -8, 11, -32, -27, 9, -71, 40, -87, -2, -1, 5, -7, 12, 31, -57, 13, 86, -58, 29], "withholdReward": false, "trial_id": "mdp_trial_15", "block": "test", "trialIndex": 16, "score": 94.2, "costs": -3.8, "simulationMode": [null, null, null, null, null], "rewards": [2, -1, 1, 10, 86], "path": ["0", "0", "1", "2", "3", "4", "6"], "rt": [9506, 253, 337, 766, 286], "actions": ["up", "up", "up", "right", "right"], "actionTimes": [11084, 11855, 12718, 13980, 14783], "queries": {"click": {"state": {"target": ["1", "3", "25", "20"], "time": [2636, 3661, 5632, 6941]}, "edge": {"target": [], "time": []}}, "mouseover": {"state": {"target": ["1", "1", "2", "3", "2", "28", "26", "25", "30", "32", "21", "20", "17", "16", "6", "4", "9", "8", "13", "22", "22"], "time": [2080, 2345, 3096, 3361, 3962, 4964, 5180, 5404, 5913, 6164, 6266, 6691, 7479, 7779, 7829, 7849, 8201, 8778, 8912, 9302, 9942]}, "edge": {"target": [], "time": []}}, "mouseout": {"state": {"target": ["0", "1", "1", "2", "3", "2", "1", "28", "26", "25", "25", "30", "32", "21", "20", "20", "17", "16", "6", "4", "9", "8", "13", "22", "22", "22"], "time": [1977, 2212, 2795, 3329, 3896, 4062, 4709, 5077, 5277, 5725, 5895, 6012, 6182, 6276, 7019, 7162, 7579, 7796, 7846, 7865, 8761, 8795, 8945, 9411, 13965, 18113]}, "edge": {"target": [], "time": []}}}, "displayed_time": "15.58", "trialTime": 20594, "trial_type": "mouselab-mdp", "trial_index": 23, "time_elapsed": 927883, "internal_node_id": "0.0-4.0-1.0-14.0"}}, {"uniqueid": "w78295288:a30127227", "current_trial": 24, "dateTime": 1691071923630, "trialdata": {"revealed_states": [], "clicked_states": ["2", "14", "25", "27"], "num_clicks_accrued": [0, 0, 0, 0, 0, 0, 0, 0, 0, 0, 0, 0, 0], "stateRewards": ["", -1, 3, -5, -2, -13, -9, -34, -7, -81, 32, 35, -2, -2, 1, -14, -32, 81, 7, 4, 82, 56, -8, -1, 3, -8, 6, -24, -24, -53, 2, 38, 61, 54], "withholdReward": false, "trial_id": "mdp_trial_16", "block": "test", "trialIndex": 17, "score": 20.6, "costs": -4.4, "simulationMode": [null, null, null, null, null], "rewards": [-1, 3, -5, -7, 35], "path": ["0", "0", "1", "2", "3", "8", "11"], "rt": [10056, 238, 169, 2504, 347], "actions": ["up", "up", "up", "left", "left"], "actionTimes": [12278, 13038, 13731, 16751, 17624], "queries": {"click": {"state": {"target": ["2", "14", "25", "27"], "time": [3253, 4471, 5508, 6700]}, "edge": {"target": [], "time": []}}, "mouseover": {"state": {"target": ["1", "2", "18", "15", "14", "25", "26", "27", "30", "32"], "time": [2707, 2975, 3667, 3690, 4143, 5193, 6143, 6324, 8291, 8575]}, "edge": {"target": [], "time": []}}, "mouseout": {"state": {"target": ["0", "1", "2", "18", "15", "14", "25", "26", "27", "30", "32"], "time": [2665, 2757, 3593, 3684, 3717, 4659, 6042, 6259, 7094, 8410, 9193]}, "edge": {"target": [], "time": []}}}, "displayed_time": "18.13", "trialTime": 23088, "trial_type": "mouselab-mdp", "trial_index": 24, "time_elapsed": 951528, "internal_node_id": "0.0-4.0-1.0-15.0"}}, {"uniqueid": "w78295288:a30127227", "current_trial": 25, "dateTime": 1691071947762, "trialdata": {"revealed_states": [], "clicked_states": ["3", "5", "19", "21"], "num_clicks_accrued": [0, 0, 0, 0, 0, 0, 0, 0, 0, 0, 0, 0, 0], "stateRewards": ["", 2, -3, -2, 14, -4, 85, 46, 15, -28, 41, 31, -1, -1, -1, 5, 62, 79, 57, 12, -73, -64, 86, -1, 1, -3, -5, 68, 11, -32, 8, -80, -21, -56], "withholdReward": false, "trial_id": "mdp_trial_17", "block": "test", "trialIndex": 18, "score": 57.2, "costs": -6.799999999999999, "simulationMode": [null, null, null, null, null, null], "rewards": [-1, -1, -1, 5, 62], "path": ["0", "0", "12", "13", "14", "15", "16"], "rt": [9581, 2146, 413, 560, 976, 378], "actions": ["right", "right", "right", "right", "up", "up"], "actionTimes": [12495, 14646, 15560, 16636, 18135, 19035], "queries": {"click": {"state": {"target": ["3", "5", "19", "21"], "time": [3879, 4547, 8751, 9966]}, "edge": {"target": [], "time": []}}, "mouseover": {"state": {"target": ["0", "1", "3", "5", "9", "8", "24", "25", "25", "30", "30", "25", "31", "21", "19", "21"], "time": [2927, 3337, 3437, 4240, 5105, 5747, 5854, 5907, 6090, 6621, 6806, 7005, 7860, 8275, 8418, 9523]}, "edge": {"target": [], "time": []}}, "mouseout": {"state": {"target": ["30", "30", "31", "20", "19", "22", "0", "0", "1", "3", "5", "9", "8", "24", "25", "25", "30", "30", "25", "31", "21", "19", "21", "22", "21"], "time": [1502, 1690, 1707, 1902, 1936, 2085, 2284, 3294, 3355, 4140, 4668, 5726, 5772, 5872, 5954, 6473, 6638, 6894, 7558, 7904, 8296, 9005, 10289, 14863, 15524]}, "edge": {"target": [], "time": []}}}, "displayed_time": "19.55", "trialTime": 23586, "trial_type": "mouselab-mdp", "trial_index": 25, "time_elapsed": 975660, "internal_node_id": "0.0-4.0-1.0-16.0"}}, {"uniqueid": "w78295288:a30127227", "current_trial": 26, "dateTime": 1691071967124, "trialdata": {"revealed_states": [], "clicked_states": ["3", "5", "14"], "num_clicks_accrued": [0, 0, 0, 0, 0, 0, 0, 0, 0, 0, 0, 0, 0], "stateRewards": ["", 1, -1, 4, -2, -75, -75, 84, -9, -60, -79, 59, 2, -4, 8, 9, -17, -82, 80, 14, -4, 49, 49, -1, 3, 6, -11, -33, 34, 55, 9, -57, 5, 59], "withholdReward": false, "trial_id": "mdp_trial_18", "block": "test", "trialIndex": 19, "score": 64.95, "costs": -4.05, "simulationMode": [null, null, null, null, null], "rewards": [2, -4, 8, 14, 49], "path": ["0", "0", "12", "13", "14", "19", "21"], "rt": [8798, 324, 392, 1163, 401], "actions": ["right", "right", "right", "down", "down"], "actionTimes": [10675, 11512, 12413, 14083, 15006], "queries": {"click": {"state": {"target": ["3", "5", "14"], "time": [2794, 3586, 7200]}, "edge": {"target": [], "time": []}}, "mouseover": {"state": {"target": ["1", "3", "5", "9", "11", "26", "25", "25", "25", "14", "19", "22"], "time": [2288, 2483, 3236, 3952, 4455, 4601, 4702, 4902, 5825, 6938, 7502, 10400]}, "edge": {"target": [], "time": []}}, "mouseout": {"state": {"target": ["19", "12", "0", "0", "0", "1", "3", "5", "9", "11", "26", "25", "25", "25", "14", "19", "22"], "time": [652, 685, 700, 781, 1034, 2315, 3001, 3660, 4428, 4499, 4669, 4735, 5553, 6381, 7452, 7919, 13797]}, "edge": {"target": [], "time": []}}}, "displayed_time": "15.88", "trialTime": 18828, "trial_type": "mouselab-mdp", "trial_index": 26, "time_elapsed": 995023, "internal_node_id": "0.0-4.0-1.0-17.0"}}, {"uniqueid": "w78295288:a30127227", "current_trial": 27, "dateTime": 1691071990743, "trialdata": {"revealed_states": [], "clicked_states": ["3", "5", "22"], "num_clicks_accrued": [0, 0, 0, 0, 0, 0, 0, 0, 0, 0, 0, 0, 0], "stateRewards": ["", 1, 1, 5, 6, -29, -7, 3, -16, 9, -46, 65, -1, 4, -1, -16, -63, -77, -87, 8, 80, -50, 43, -1, -1, -5, 5, -38, -71, -62, 9, 81, -50, -52], "withholdReward": false, "trial_id": "mdp_trial_19", "block": "test", "trialIndex": 20, "score": -82.25, "costs": -5.25, "simulationMode": [null, null, null, null, null], "rewards": [-1, 4, -1, -16, -63], "path": ["0", "0", "12", "13", "14", "15", "16"], "rt": [9331, 2808, 519, 1325, 290], "actions": ["right", "right", "right", "up", "up"], "actionTimes": [11933, 15260, 16302, 18125, 18924], "queries": {"click": {"state": {"target": ["3", "5", "22"], "time": [3546, 4531, 8652]}, "edge": {"target": [], "time": []}}, "mouseover": {"state": {"target": ["1", "2", "3", "5", "10", "26", "25", "30", "32", "30", "25", "30", "32", "22", "0", "23", "24", "25", "31"], "time": [2965, 3044, 3294, 4250, 4785, 4906, 4964, 5434, 5531, 5769, 5869, 6514, 6849, 8351, 9563, 9615, 9662, 9913, 10447]}, "edge": {"target": [], "time": []}}, "mouseout": {"state": {"target": ["1", "28", "23", "0", "1", "2", "3", "5", "3", "10", "26", "25", "30", "32", "30", "25", "30", "32", "22", "0", "23", "24", "25", "31"], "time": [845, 1160, 1399, 2727, 3001, 3128, 3637, 4715, 4766, 4803, 4922, 5405, 5481, 5719, 5801, 6482, 6565, 7396, 8889, 9596, 9629, 9879, 10397, 10815]}, "edge": {"target": [], "time": []}}}, "displayed_time": "19.48", "trialTime": 23011, "trial_type": "mouselab-mdp", "trial_index": 27, "time_elapsed": 1018642, "internal_node_id": "0.0-4.0-1.0-18.0"}}, {"uniqueid": "w78295288:a30127227", "current_trial": 28, "dateTime": 1691072013885, "trialdata": {"revealed_states": [], "clicked_states": ["3", "9", "25", "32"], "num_clicks_accrued": [0, 0, 0, 0, 0, 0, 0, 0, 0, 0, 0, 0, 0], "stateRewards": ["", 1, -2, -8, -3, 31, -84, -55, -14, 15, -58, 17, -2, -3, 7, 7, -12, 48, 67, 4, -44, -68, 46, 2, 3, -5, -7, 76, 27, 5, 11, 57, 52, 59], "withholdReward": false, "trial_id": "mdp_trial_20", "block": "test", "trialIndex": 21, "score": 50.8, "costs": -6.199999999999999, "simulationMode": [null, null, null, null, null], "rewards": [-2, -3, 7, 7, 48], "path": ["0", "0", "12", "13", "14", "15", "17"], "rt": [10549, 339, 450, 1152, 1193], "actions": ["right", "right", "right", "up", "right"], "actionTimes": [13527, 14385, 15345, 16997, 18704], "queries": {"click": {"state": {"target": ["3", "9", "25", "32"], "time": [3783, 4542, 7922, 9307]}, "edge": {"target": [], "time": []}}, "mouseover": {"state": {"target": ["1", "2", "3", "9", "8", "11", "26", "25", "30", "32", "21", "19", "14"], "time": [3323, 3391, 3489, 4243, 4893, 5010, 6109, 7471, 8725, 9022, 10424, 11074, 11125]}, "edge": {"target": [], "time": []}}, "mouseout": {"state": {"target": ["31", "0", "1", "2", "3", "3", "9", "9", "8", "11", "26", "25", "30", "32", "21", "19", "14", "30"], "time": [2042, 3284, 3356, 3440, 3863, 4125, 4608, 4859, 4926, 5876, 7438, 8658, 8808, 9416, 11042, 11093, 14690, 20937]}, "edge": {"target": [], "time": []}}}, "displayed_time": "19.23", "trialTime": 22599, "trial_type": "mouselab-mdp", "trial_index": 28, "time_elapsed": 1041783, "internal_node_id": "0.0-4.0-1.0-19.0"}}, {"uniqueid": "w78295288:a30127227", "current_trial": 29, "dateTime": 1691072038713, "trialdata": {"revealed_states": [], "clicked_states": ["3", "5", "30", "32"], "num_clicks_accrued": [0, 0, 0, 0, 0, 0, 0, 0, 0, 0, 0, 0, 0], "stateRewards": ["", -2, 2, 5, -14, -56, 64, 84, -5, 52, 39, 85, -2, 1, 7, 8, 21, 29, -78, -9, -10, -69, 10, -2, -1, -7, 15, 72, 20, 41, -2, 52, 80, 22], "withholdReward": false, "trial_id": "mdp_trial_21", "block": "test", "trialIndex": 22, "score": 70.2, "costs": -6.799999999999999, "simulationMode": [null, null, null, null, null], "rewards": [-2, -1, -7, 15, 72], "path": ["0", "0", "23", "24", "25", "26", "27"], "rt": [13627, 382, 615, 911, 408], "actions": ["left", "left", "left", "up", "up"], "actionTimes": [15909, 16811, 17944, 19375, 20304], "queries": {"click": {"state": {"target": ["3", "5", "30", "32"], "time": [3994, 4799, 8272, 9194]}, "edge": {"target": [], "time": []}}, "mouseover": {"state": {"target": ["0", "1", "2", "3", "4", "5", "21", "19", "22", "31", "30", "32", "19", "14", "15", "14", "19"], "time": [2749, 3295, 3563, 3773, 4396, 4530, 5310, 7127, 7627, 7773, 7978, 8743, 9793, 10060, 11393, 13058, 13640]}, "edge": {"target": [], "time": []}}, "mouseout": {"state": {"target": ["0", "0", "1", "2", "3", "4", "5", "5", "21", "19", "22", "31", "30", "32", "19", "14", "15", "14", "19", "22", "13", "12", "0"], "time": [1727, 2775, 3327, 3625, 4343, 4445, 4907, 5007, 6894, 7615, 7643, 7856, 8661, 9494, 9894, 11342, 12975, 13572, 13774, 22680, 22710, 22890, 22957]}, "edge": {"target": [], "time": []}}}, "displayed_time": "20.83", "trialTime": 24247, "trial_type": "mouselab-mdp", "trial_index": 29, "time_elapsed": 1066611, "internal_node_id": "0.0-4.0-1.0-20.0"}}, {"uniqueid": "w78295288:a30127227", "current_trial": 30, "dateTime": 1691072057296, "trialdata": {"revealed_states": [], "clicked_states": ["1", "5", "21"], "num_clicks_accrued": [0, 0, 0, 0, 0, 0, 0, 0, 0, 0, 0, 0, 0], "stateRewards": ["", 2, 4, 4, 9, -88, -10, 44, 16, -54, 64, 78, 1, 2, 5, 16, 80, 36, 7, -4, 9, -47, -70, -1, -3, 6, -16, 11, 80, 28, 8, -1, 34, -17], "withholdReward": false, "trial_id": "mdp_trial_22", "block": "test", "trialIndex": 23, "score": 99.95, "costs": -4.05, "simulationMode": [null, null, null, null, null], "rewards": [1, 2, 5, 16, 80], "path": ["0", "0", "12", "13", "14", "15", "16"], "rt": [9627, 321, 452, 664, 516], "actions": ["right", "right", "right", "up", "up"], "actionTimes": [10783, 11610, 12576, 13738, 14772], "queries": {"click": {"state": {"target": ["1", "5", "21"], "time": [1984, 3523, 7439]}, "edge": {"target": [], "time": []}}, "mouseover": {"state": {"target": ["1", "2", "3", "5", "9", "9", "8", "32", "21", "21", "20"], "time": [1670, 2357, 2621, 3269, 3986, 4254, 4838, 5686, 6596, 6856, 8838]}, "edge": {"target": [], "time": []}}, "mouseout": {"state": {"target": ["23", "0", "1", "2", "3", "5", "9", "9", "8", "32", "21", "21", "20"], "time": [473, 549, 2271, 2570, 2652, 3871, 4038, 4787, 5076, 6433, 6615, 7654, 9292]}, "edge": {"target": [], "time": []}}}, "displayed_time": "15.29", "trialTime": 18007, "trial_type": "mouselab-mdp", "trial_index": 30, "time_elapsed": 1085193, "internal_node_id": "0.0-4.0-1.0-21.0"}}, {"uniqueid": "w78295288:a30127227", "current_trial": 31, "dateTime": 1691072076052, "trialdata": {"revealed_states": [], "clicked_states": ["3", "5", "25"], "num_clicks_accrued": [0, 0, 0, 0, 0, 0, 0, 0, 0, 0, 0, 0, 0], "stateRewards": ["", -1, 1, -5, -6, -78, 47, -13, 12, 48, -88, 20, 2, -3, -2, 13, -20, 37, -57, 14, -38, 30, 31, -2, -2, 8, 2, -23, 78, 28, 12, -74, -88, 8], "withholdReward": false, "trial_id": "mdp_trial_23", "block": "test", "trialIndex": 24, "score": -21.05, "costs": -4.05, "simulationMode": [null, null, null, null, null], "rewards": [-2, -2, 8, 2, -23], "path": ["0", "0", "23", "24", "25", "26", "27"], "rt": [7694, 457, 501, 973, 388], "actions": ["left", "left", "left", "up", "up"], "actionTimes": [9747, 10731, 11754, 13241, 14125], "queries": {"click": {"state": {"target": ["3", "5", "25"], "time": [3058, 3868, 7305]}, "edge": {"target": [], "time": []}}, "mouseover": {"state": {"target": ["1", "2", "3", "5", "9", "8", "28", "32", "32", "30", "25", "31"], "time": [2463, 2515, 2613, 3434, 4517, 5250, 5351, 5452, 5887, 6796, 6896, 8331]}, "edge": {"target": [], "time": []}}, "mouseout": {"state": {"target": ["23", "12", "0", "1", "2", "3", "5", "5", "9", "8", "28", "32", "32", "30", "25", "31"], "time": [1081, 1397, 2396, 2497, 2563, 3283, 3962, 4100, 5216, 5266, 5364, 5492, 6601, 6814, 8285, 8367]}, "edge": {"target": [], "time": []}}}, "displayed_time": "16.05", "trialTime": 18216, "trial_type": "mouselab-mdp", "trial_index": 31, "time_elapsed": 1103952, "internal_node_id": "0.0-4.0-1.0-22.0"}}, {"uniqueid": "w78295288:a30127227", "current_trial": 32, "dateTime": 1691072095516, "trialdata": {"revealed_states": [], "clicked_states": ["1", "5", "21"], "num_clicks_accrued": [0, 0, 0, 0, 0, 0, 0, 0, 0, 0, 0, 0, 0], "stateRewards": ["", 1, 1, -5, 10, -31, 73, 14, -8, -23, 63, -70, -1, 2, 8, 7, 25, -59, 27, -10, -40, -71, -15, -2, 3, -8, -5, -19, 77, -34, 7, 67, 63, 19], "withholdReward": false, "trial_id": "mdp_trial_24", "block": "test", "trialIndex": 25, "score": 62.95, "costs": -4.05, "simulationMode": [null, null, null, null, null], "rewards": [-2, 3, -8, 7, 67], "path": ["0", "0", "23", "24", "25", "30", "31"], "rt": [9904, 374, 390, 918, 719], "actions": ["left", "left", "left", "down", "right"], "actionTimes": [11269, 12142, 13059, 14503, 15721], "queries": {"click": {"state": {"target": ["1", "5", "21"], "time": [2604, 3842, 7310]}, "edge": {"target": [], "time": []}}, "mouseover": {"state": {"target": ["1", "2", "3", "5", "4", "18", "18", "14", "19", "31", "30", "21", "19", "16", "16", "7", "12", "13"], "time": [2298, 2817, 2883, 3377, 4083, 4282, 4466, 4632, 5448, 5619, 5934, 7085, 7565, 7631, 8016, 8849, 9121, 9732]}, "edge": {"target": [], "time": []}}, "mouseout": {"state": {"target": ["0", "1", "2", "3", "5", "4", "18", "18", "14", "19", "31", "30", "21", "19", "16", "16", "7", "12", "13", "0"], "time": [962, 2722, 2868, 3000, 4049, 4101, 4366, 4565, 5399, 5499, 5699, 6548, 7533, 7581, 7648, 8810, 8870, 9231, 10194, 17963]}, "edge": {"target": [], "time": []}}}, "displayed_time": "16.22", "trialTime": 18828, "trial_type": "mouselab-mdp", "trial_index": 32, "time_elapsed": 1123415, "internal_node_id": "0.0-4.0-1.0-23.0"}}, {"uniqueid": "w78295288:a30127227", "current_trial": 33, "dateTime": 1691072115939, "trialdata": {"revealed_states": [], "clicked_states": ["3", "22", "16"], "num_clicks_accrued": [0, 0, 0, 0, 0, 0, 0, 0, 0, 0, 0, 0, 0], "stateRewards": ["", -1, -1, 4, -16, -75, 81, -51, -7, -84, 73, -30, -2, 1, -3, -16, -77, 33, 14, 1, 45, 87, -66, 2, 2, -5, -7, -19, -17, 79, -3, 8, 49, 47], "withholdReward": false, "trial_id": "mdp_trial_25", "block": "test", "trialIndex": 26, "score": -30.25, "costs": -5.25, "simulationMode": [null, null, null, null, null], "rewards": [2, 2, -5, -7, -17], "path": ["0", "0", "23", "24", "25", "26", "28"], "rt": [9661, 387, 455, 1129, 658], "actions": ["left", "left", "left", "up", "right"], "actionTimes": [12103, 13004, 13977, 15618, 16779], "queries": {"click": {"state": {"target": ["3", "22", "16"], "time": [4027, 5210, 8461]}, "edge": {"target": [], "time": []}}, "mouseover": {"state": {"target": ["1", "2", "3", "2", "13", "22", "22", "21", "15", "16", "16", "15", "13", "12", "23", "25", "31"], "time": [3350, 3383, 3434, 4304, 4387, 4423, 4722, 5652, 6965, 7818, 8000, 9385, 9452, 9484, 9519, 9885, 10967]}, "edge": {"target": [], "time": []}}, "mouseout": {"state": {"target": ["0", "1", "2", "3", "2", "13", "22", "22", "21", "15", "16", "16", "15", "13", "12", "23", "25", "31"], "time": [3316, 3371, 3415, 4288, 4324, 4404, 4439, 5569, 6603, 7704, 7885, 9353, 9419, 9469, 9504, 9537, 10935, 10991]}, "edge": {"target": [], "time": []}}}, "displayed_time": "17.30", "trialTime": 19823, "trial_type": "mouselab-mdp", "trial_index": 33, "time_elapsed": 1143838, "internal_node_id": "0.0-4.0-1.0-24.0"}}, {"uniqueid": "w78295288:a30127227", "current_trial": 34, "dateTime": 1691072137183, "trialdata": {"revealed_states": [], "clicked_states": ["2", "5", "13", "19", "21"], "num_clicks_accrued": [0, 0, 0, 0, 0, 0, 0, 0, 0, 0, 0, 0, 0], "stateRewards": ["", 2, 3, -2, -8, -8, -41, 74, 15, -23, -80, 1, 1, 3, 3, -15, -63, -78, 67, 13, 75, -41, 86, 2, -2, 6, -3, -8, -49, 50, -6, 83, 74, 80], "withholdReward": false, "trial_id": "mdp_trial_26", "block": "test", "trialIndex": 27, "score": -92.55, "costs": -6.550000000000001, "simulationMode": [null, null, null, null, null], "rewards": [1, 3, 3, -15, -78], "path": ["0", "0", "12", "13", "14", "15", "17"], "rt": [11522, 313, 384, 1461, 292], "actions": ["right", "right", "right", "up", "right"], "actionTimes": [12972, 13795, 14700, 16676, 17476], "queries": {"click": {"state": {"target": ["2", "5", "13", "19", "21"], "time": [2555, 3586, 7682, 9006, 10047]}, "edge": {"target": [], "time": []}}, "mouseover": {"state": {"target": ["1", "2", "7", "5", "9", "8", "11", "10", "18", "13", "14", "19", "19", "21"], "time": [1911, 1994, 2917, 3248, 4397, 5064, 5380, 6431, 6884, 7213, 8265, 8397, 8712, 9544]}, "edge": {"target": [], "time": []}}, "mouseout": {"state": {"target": ["0", "1", "2", "7", "5", "5", "9", "8", "11", "10", "18", "13", "14", "19", "19", "21"], "time": [1835, 1961, 2898, 2934, 3697, 3913, 5013, 5080, 6322, 6477, 6946, 8231, 8330, 8446, 9500, 10467]}, "edge": {"target": [], "time": []}}}, "displayed_time": "18.00", "trialTime": 20644, "trial_type": "mouselab-mdp", "trial_index": 34, "time_elapsed": 1165081, "internal_node_id": "0.0-4.0-1.0-25.0"}}, {"uniqueid": "w78295288:a30127227", "current_trial": 35, "dateTime": 1691072159799, "trialdata": {"revealed_states": [], "clicked_states": ["3", "9", "32", "14"], "num_clicks_accrued": [0, 0, 0, 0, 0, 0, 0, 0, 0, 0, 0, 0, 0], "stateRewards": ["", -2, -3, 8, -4, -30, 31, 69, 9, 66, 87, 64, -2, 2, 8, 5, 47, 16, -39, -8, -54, 51, -19, 1, -2, -2, -11, -25, -26, 43, -9, 19, -84, 86], "withholdReward": false, "trial_id": "mdp_trial_27", "block": "test", "trialIndex": 28, "score": -60.2, "costs": -6.2, "simulationMode": [null, null, null, null, null], "rewards": [-2, 2, 8, -8, -54], "path": ["0", "0", "12", "13", "14", "19", "20"], "rt": [11507, 343, 382, 1570, 1315], "actions": ["right", "right", "right", "down", "right"], "actionTimes": [13107, 13964, 14869, 16939, 18771], "queries": {"click": {"state": {"target": ["3", "9", "32", "14"], "time": [2697, 3566, 6621, 10228]}, "edge": {"target": [], "time": []}}, "mouseover": {"state": {"target": ["0", "1", "2", "3", "3", "9", "8", "24", "25", "30", "32", "30", "31", "22", "19", "20", "20", "14", "19", "19", "20"], "time": [1612, 1948, 2065, 2148, 2418, 3336, 3919, 4105, 4467, 5801, 6133, 7252, 8319, 8435, 8455, 8475, 8801, 9901, 10633, 10884, 10981]}, "edge": {"target": [], "time": []}}, "mouseout": {"state": {"target": ["25", "24", "23", "0", "0", "1", "2", "3", "3", "9", "8", "24", "25", "30", "32", "30", "31", "22", "19", "20", "20", "14", "19", "19", "20", "22"], "time": [651, 687, 701, 746, 1868, 2031, 2098, 2181, 3018, 3890, 3949, 4167, 5754, 6051, 7035, 8302, 8337, 8453, 8473, 8718, 9670, 10584, 10735, 10918, 11001, 20635]}, "edge": {"target": [], "time": []}}}, "displayed_time": "19.27", "trialTime": 22018, "trial_type": "mouselab-mdp", "trial_index": 35, "time_elapsed": 1187698, "internal_node_id": "0.0-4.0-1.0-26.0"}}, {"uniqueid": "w78295288:a30127227", "current_trial": 36, "dateTime": 1691072179421, "trialdata": {"revealed_states": [], "clicked_states": ["9", "1", "18"], "num_clicks_accrued": [0, 0, 0, 0, 0, 0, 0, 0, 0, 0, 0, 0, 0], "stateRewards": ["", -1, -4, -6, -15, 21, -67, -63, 9, 51, 69, -14, -1, 3, 8, -8, 39, 72, 63, 15, 19, 47, 15, 1, 4, 5, 16, -18, 34, 35, -14, -80, 40, 1], "withholdReward": false, "trial_id": "mdp_trial_28", "block": "test", "trialIndex": 29, "score": 60.95, "costs": -4.05, "simulationMode": [null, null, null, null, null], "rewards": [-1, 3, 8, -8, 63], "path": ["0", "0", "12", "13", "14", "15", "18"], "rt": [9087, 305, 358, 1169, 517], "actions": ["right", "right", "right", "up", "left"], "actionTimes": [10771, 11597, 12473, 14138, 15153], "queries": {"click": {"state": {"target": ["9", "1", "18"], "time": [2625, 5560, 6766]}, "edge": {"target": [], "time": []}}, "mouseover": {"state": {"target": ["1", "2", "9", "8", "2", "5", "5", "4", "7", "1", "18", "18", "15", "13", "23", "24", "25", "25", "24", "24"], "time": [1763, 1848, 2246, 2884, 2985, 3471, 4284, 4797, 4866, 4966, 6132, 6449, 7166, 7898, 7933, 7953, 7971, 8216, 8283, 8535]}, "edge": {"target": [], "time": []}}, "mouseout": {"state": {"target": ["24", "0", "1", "2", "9", "8", "2", "5", "5", "4", "7", "1", "18", "18", "15", "13", "23", "24", "25", "25", "24", "24", "29", "26", "24", "23"], "time": [336, 1714, 1829, 1880, 2850, 2920, 3117, 3916, 4785, 4833, 4900, 5901, 6185, 7134, 7865, 7916, 7948, 7966, 7983, 8265, 8298, 9349, 17297, 17316, 17332, 17362]}, "edge": {"target": [], "time": []}}}, "displayed_time": "15.68", "trialTime": 19056, "trial_type": "mouselab-mdp", "trial_index": 36, "time_elapsed": 1207319, "internal_node_id": "0.0-4.0-1.0-27.0"}}, {"uniqueid": "w78295288:a30127227", "current_trial": 37, "dateTime": 1691072197843, "trialdata": {"revealed_states": [], "clicked_states": ["3", "5", "25", "14"], "num_clicks_accrued": [0, 0, 0, 0, 0, 0, 0, 0, 0, 0, 0, 0, 0], "stateRewards": ["", 1, 3, 1, -13, 52, -28, 67, -14, 3, 63, -70, -1, -4, 7, -11, -10, 47, -18, 6, 69, -9, -61, 2, 3, -6, 10, 63, -34, 40, -6, -79, -35, -32], "withholdReward": false, "trial_id": "mdp_trial_29", "block": "test", "trialIndex": 30, "score": -6, "costs": -5, "simulationMode": [null, null, null, null, null], "rewards": [-1, -4, 7, 6, -9], "path": ["0", "0", "12", "13", "14", "19", "21"], "rt": [8627, 524, 379, 1191, 394], "actions": ["right", "right", "right", "down", "down"], "actionTimes": [10375, 11411, 12316, 14011, 14929], "queries": {"click": {"state": {"target": ["3", "5", "25", "14"], "time": [2834, 3700, 6663, 8591]}, "edge": {"target": [], "time": []}}, "mouseover": {"state": {"target": ["1", "2", "3", "3", "5", "4", "9", "8", "23", "31", "25", "19", "20", "14", "20"], "time": [2135, 2214, 2281, 2569, 3218, 4135, 4667, 5470, 5542, 6102, 6384, 7268, 7288, 7616, 9473]}, "edge": {"target": [], "time": []}}, "mouseout": {"state": {"target": ["0", "1", "2", "3", "3", "5", "4", "9", "8", "23", "31", "25", "19", "20", "14", "20", "19"], "time": [1185, 2182, 2249, 2385, 3117, 4016, 4300, 5454, 5489, 5562, 6184, 7174, 7286, 7309, 9417, 9518, 16547]}, "edge": {"target": [], "time": []}}}, "displayed_time": "15.75", "trialTime": 17848, "trial_type": "mouselab-mdp", "trial_index": 37, "time_elapsed": 1225742, "internal_node_id": "0.0-4.0-1.0-28.0"}}, {"uniqueid": "w78295288:a30127227", "current_trial": 38, "dateTime": 1691072220149, "trialdata": {"revealed_states": [], "clicked_states": ["3", "25", "14", "21", "16"], "num_clicks_accrued": [0, 0, 0, 0, 0, 0, 0, 0, 0, 0, 0, 0, 0], "stateRewards": ["", -1, 1, 6, -6, 70, 66, 67, -16, -75, -35, 37, -1, 4, 4, -6, 47, -9, 63, 15, 21, -63, 13, 1, 3, -6, 10, 79, -29, 18, -15, 9, -67, -19], "withholdReward": false, "trial_id": "mdp_trial_30", "block": "test", "trialIndex": 31, "score": 79.85, "costs": -7.15, "simulationMode": [null, null, null, null, null], "rewards": [1, 3, -6, 10, 79], "path": ["0", "0", "23", "24", "25", "26", "27"], "rt": [12316, 329, 326, 839, 640], "actions": ["left", "left", "left", "up", "up"], "actionTimes": [14289, 15133, 15962, 17304, 18442], "queries": {"click": {"state": {"target": ["3", "25", "14", "21", "16"], "time": [3555, 4797, 6072, 7866, 11347]}, "edge": {"target": [], "time": []}}, "mouseover": {"state": {"target": ["1", "2", "2", "1", "10", "3", "10", "28", "24", "25", "19", "20", "14", "19", "21", "21", "19", "14", "15", "16", "8", "10", "2"], "time": [2396, 2480, 2734, 2847, 3063, 3164, 4049, 4167, 4216, 4332, 5300, 5321, 5634, 6716, 7263, 7395, 9269, 9321, 9421, 9566, 12219, 12566, 12600]}, "edge": {"target": [], "time": []}}, "mouseout": {"state": {"target": ["22", "13", "0", "1", "2", "2", "1", "10", "3", "10", "28", "24", "25", "19", "20", "14", "19", "21", "21", "19", "14", "15", "16", "8", "10", "2", "19"], "time": [567, 681, 2317, 2446, 2580, 2783, 2997, 3097, 4002, 4101, 4182, 4299, 5202, 5317, 5335, 6683, 7230, 7296, 9215, 9285, 9353, 9472, 12117, 12232, 12583, 12666, 20053]}, "edge": {"target": [], "time": []}}}, "displayed_time": "18.93", "trialTime": 21739, "trial_type": "mouselab-mdp", "trial_index": 38, "time_elapsed": 1248048, "internal_node_id": "0.0-4.0-1.0-29.0"}}, {"uniqueid": "w78295288:a30127227", "current_trial": 39, "dateTime": 1691072246441, "trialdata": {"revealed_states": [], "clicked_states": ["2", "6", "9", "25", "14", "21"], "num_clicks_accrued": [0, 0, 0, 0, 0, 0, 0, 0, 0, 0, 0, 0, 0], "stateRewards": ["", -2, -4, -6, 12, -58, -70, -80, 2, 16, -88, -62, 1, 2, -5, 11, 77, -35, -44, -5, 18, -83, 87, 1, -3, -5, 13, -44, -21, -86, 10, -52, 8, 29], "withholdReward": false, "trial_id": "mdp_trial_31", "block": "test", "trialIndex": 32, "score": -88.7, "costs": -8.700000000000001, "simulationMode": [null, null, null, null, null], "rewards": [1, -3, -5, 13, -86], "path": ["0", "0", "23", "24", "25", "26", "29"], "rt": [16352, 377, 317, 526, 1432], "actions": ["left", "left", "left", "up", "left"], "actionTimes": [17814, 18706, 19528, 20570, 22527], "queries": {"click": {"state": {"target": ["2", "6", "9", "25", "14", "21"], "time": [2750, 3791, 6775, 10451, 12067, 13609]}, "edge": {"target": [], "time": []}}, "mouseover": {"state": {"target": ["1", "2", "6", "5", "5", "9", "8", "11", "28", "30", "25", "23", "0", "12", "13", "14", "14", "19", "21"], "time": [2155, 2489, 3293, 4375, 4673, 6172, 7545, 7821, 8808, 8941, 9141, 11145, 11167, 11198, 11327, 11525, 11754, 12911, 13090]}, "edge": {"target": [], "time": []}}, "mouseout": {"state": {"target": ["0", "1", "2", "2", "6", "5", "5", "9", "8", "11", "28", "30", "25", "23", "0", "12", "13", "14", "14", "19", "21"], "time": [2078, 2206, 2847, 2975, 4160, 4473, 5641, 7508, 7630, 8723, 8824, 9091, 11113, 11164, 11182, 11292, 11505, 11571, 12492, 12956, 14060]}, "edge": {"target": [], "time": []}}}, "displayed_time": "23.03", "trialTime": 25722, "trial_type": "mouselab-mdp", "trial_index": 39, "time_elapsed": 1274340, "internal_node_id": "0.0-4.0-1.0-30.0"}}, {"uniqueid": "w78295288:a30127227", "current_trial": 40, "dateTime": 1691072267811, "trialdata": {"revealed_states": [], "clicked_states": ["2", "5", "14", "21", "25"], "num_clicks_accrued": [0, 0, 0, 0, 0, 0, 0, 0, 0, 0, 0, 0, 0], "stateRewards": ["", -2, 4, -5, -12, 85, -24, -18, -15, -78, -22, 26, -1, -1, 2, 14, -45, 52, -23, 7, -33, 24, -6, -2, -4, 5, -7, -16, 36, -39, 5, 71, -87, -23], "withholdReward": false, "trial_id": "mdp_trial_32", "block": "test", "trialIndex": 33, "score": -30.55, "costs": -6.55, "simulationMode": [null, null, null, null, null], "rewards": [-2, -4, 5, -7, -16], "path": ["0", "0", "23", "24", "25", "26", "27"], "rt": [11843, 235, 336, 995, 303], "actions": ["left", "left", "left", "up", "up"], "actionTimes": [14089, 14844, 15693, 17185, 17993], "queries": {"click": {"state": {"target": ["2", "5", "14", "21", "25"], "time": [3149, 4101, 7449, 8798, 12012]}, "edge": {"target": [], "time": []}}, "mouseover": {"state": {"target": ["1", "2", "7", "5", "4", "18", "13", "22", "21", "19", "14", "19", "21", "24", "25", "25", "31"], "time": [2689, 2901, 3385, 3773, 4451, 4539, 4559, 4589, 4953, 5701, 5917, 7921, 8187, 9388, 9538, 10971, 12954]}, "edge": {"target": [], "time": []}}, "mouseout": {"state": {"target": ["13", "0", "0", "1", "2", "7", "5", "5", "4", "18", "13", "22", "21", "19", "14", "14", "19", "21", "24", "25", "25", "25", "31"], "time": [856, 1167, 2622, 2813, 3372, 3489, 4225, 4438, 4488, 4555, 4572, 4738, 5668, 5752, 7562, 7887, 8037, 9105, 9422, 10770, 12132, 12354, 12988]}, "edge": {"target": [], "time": []}}}, "displayed_time": "18.51", "trialTime": 20742, "trial_type": "mouselab-mdp", "trial_index": 40, "time_elapsed": 1295710, "internal_node_id": "0.0-4.0-1.0-31.0"}}, {"uniqueid": "w78295288:a30127227", "current_trial": 41, "dateTime": 1691072286234, "trialdata": {"revealed_states": [], "clicked_states": ["23", "12", "16"], "num_clicks_accrued": [0, 0, 0, 0, 0, 0, 0, 0, 0, 0, 0, 0, 0], "stateRewards": ["", -1, 1, 8, -3, -24, 11, -65, -6, -77, 48, 44, -2, 1, -2, -7, -55, -35, 33, 8, -28, 19, -53, -1, -1, -5, -5, -70, 10, 44, 8, -58, -70, 51], "withholdReward": false, "trial_id": "mdp_trial_33", "block": "test", "trialIndex": 34, "score": -58.65, "costs": -1.65, "simulationMode": [null, null, null, null, null], "rewards": [-1, -1, -5, 8, -58], "path": ["0", "0", "23", "24", "25", "30", "31"], "rt": [9051, 148, 266, 879, 859], "actions": ["left", "left", "left", "down", "right"], "actionTimes": [10529, 11196, 11979, 13376, 14763], "queries": {"click": {"state": {"target": ["23", "12", "16"], "time": [3074, 4095, 5139]}, "edge": {"target": [], "time": []}}, "mouseover": {"state": {"target": ["1", "1", "0", "23", "12", "13", "16", "15", "14", "19", "21", "21"], "time": [1924, 2196, 2277, 2777, 3629, 4568, 4828, 5481, 5516, 5561, 5642, 5944]}, "edge": {"target": [], "time": []}}, "mouseout": {"state": {"target": ["0", "1", "1", "0", "23", "12", "13", "16", "15", "14", "19", "21", "21"], "time": [1840, 1995, 2244, 2308, 3296, 4344, 4600, 5465, 5499, 5532, 5609, 5728, 6611]}, "edge": {"target": [], "time": []}}}, "displayed_time": "15.48", "trialTime": 17769, "trial_type": "mouselab-mdp", "trial_index": 41, "time_elapsed": 1314133, "internal_node_id": "0.0-4.0-1.0-32.0"}}, {"uniqueid": "w78295288:a30127227", "current_trial": 42, "dateTime": 1691072313814, "trialdata": {"revealed_states": [], "clicked_states": ["2", "9", "25", "14", "19", "21", "16"], "num_clicks_accrued": [0, 0, 0, 0, 0, 0, 0, 0, 0, 0, 0, 0, 0], "stateRewards": ["", 2, -3, -5, 5, 11, -9, -33, 6, 67, 6, -30, -1, -2, -6, 13, 55, 13, 72, -14, 75, 21, -66, -2, -4, 6, 15, -1, -35, 60, 2, 51, -73, 12], "withholdReward": false, "trial_id": "mdp_trial_34", "block": "test", "trialIndex": 35, "score": -20.25, "costs": -10.25, "simulationMode": [null, null, null, null, null], "rewards": [2, -3, -5, 5, -9], "path": ["0", "0", "1", "2", "3", "4", "6"], "rt": [18680, 248, 197, 1028, 297], "actions": ["up", "up", "up", "right", "right"], "actionTimes": [20013, 20785, 21496, 23027, 23831], "queries": {"click": {"state": {"target": ["2", "9", "25", "14", "19", "21", "16"], "time": [2500, 3328, 7218, 8802, 11528, 12659, 15487]}, "edge": {"target": [], "time": []}}, "mouseover": {"state": {"target": ["1", "2", "3", "8", "9", "8", "27", "26", "25", "30", "32", "32", "31", "25", "24", "13", "14", "14", "19", "21", "20", "15", "16", "17"], "time": [1880, 2191, 2796, 2828, 3048, 3653, 4046, 4663, 4700, 4749, 5112, 5296, 6330, 6747, 7848, 7996, 8113, 8325, 10926, 12330, 13562, 13630, 13898, 16329]}, "edge": {"target": [], "time": []}}, "mouseout": {"state": {"target": ["22", "12", "0", "1", "2", "3", "8", "9", "8", "27", "26", "25", "30", "32", "32", "31", "25", "24", "13", "14", "14", "19", "21", "21", "20", "15", "16", "17", "19"], "time": [209, 610, 1785, 2150, 2539, 2810, 2847, 3616, 3681, 4646, 4695, 4729, 4770, 5162, 6276, 6393, 7845, 7863, 8013, 8246, 9963, 11894, 12777, 13013, 13579, 13643, 16296, 16344, 25578]}, "edge": {"target": [], "time": []}}}, "displayed_time": "24.35", "trialTime": 26952, "trial_type": "mouselab-mdp", "trial_index": 42, "time_elapsed": 1341712, "internal_node_id": "0.0-4.0-1.0-33.0"}}, {"uniqueid": "w78295288:a30127227", "current_trial": 43, "dateTime": 1691072332962, "trialdata": {"revealed_states": [], "clicked_states": ["3", "5", "2", "13", "24"], "num_clicks_accrued": [0, 0, 0, 0, 0, 0, 0, 0, 0, 0, 0, 0, 0], "stateRewards": ["", 1, 1, 4, 11, 83, -66, 18, -16, -23, 5, 25, 1, -3, 1, -12, 18, 24, -86, -11, -64, 36, 40, 2, 1, -6, 13, 55, 29, 72, -2, 81, -72, -41], "withholdReward": false, "trial_id": "mdp_trial_35", "block": "test", "trialIndex": 36, "score": -81.15, "costs": -4.1499999999999995, "simulationMode": [null, null, null, null, null], "rewards": [2, 1, -6, -2, -72], "path": ["0", "0", "23", "24", "25", "30", "32"], "rt": [10310, 213, 773, 901, 408], "actions": ["left", "left", "left", "down", "down"], "actionTimes": [11899, 12615, 13906, 15318, 16228], "queries": {"click": {"state": {"target": ["3", "5", "2", "13", "24"], "time": [2416, 3129, 6999, 8468, 10045]}, "edge": {"target": [], "time": []}}, "mouseover": {"state": {"target": ["2", "3", "5", "6", "8", "11", "8", "7", "2", "12", "13", "12", "23", "24"], "time": [1812, 2115, 2799, 3566, 4431, 4641, 5909, 6150, 6463, 7898, 8015, 9289, 9355, 9391]}, "edge": {"target": [], "time": []}}, "mouseout": {"state": {"target": ["0", "0", "2", "3", "5", "6", "3", "8", "11", "8", "7", "2", "12", "13", "13", "12", "23", "24", "24"], "time": [794, 1635, 1949, 2732, 3500, 4181, 4415, 4465, 5881, 5919, 6229, 7254, 7980, 8972, 9267, 9311, 9374, 10161, 10332]}, "edge": {"target": [], "time": []}}}, "displayed_time": "16.75", "trialTime": 18558, "trial_type": "mouselab-mdp", "trial_index": 43, "time_elapsed": 1360861, "internal_node_id": "0.0-4.0-1.0-34.0"}}, {"uniqueid": "w78295288:a30127227", "current_trial": 44, "dateTime": 1691072354056, "trialdata": {"revealed_states": [], "clicked_states": ["2", "5", "28", "25", "13", "14"], "num_clicks_accrued": [0, 0, 0, 0, 0, 0, 0, 0, 0, 0, 0, 0, 0], "stateRewards": ["", 2, -4, 7, 3, 23, -42, 4, 7, -81, -33, 7, -2, -4, 5, -1, 50, -57, -14, -13, -14, 44, 55, -2, -2, 5, -2, 33, 1, 57, -13, -7, 58, 87], "withholdReward": false, "trial_id": "mdp_trial_36", "block": "test", "trialIndex": 37, "score": 39.1, "costs": -6.9, "simulationMode": [null, null, null, null, null], "rewards": [-2, -2, 5, -13, 58], "path": ["0", "0", "23", "24", "25", "30", "32"], "rt": [12182, 418, 363, 981, 330], "actions": ["left", "left", "left", "down", "down"], "actionTimes": [13722, 14644, 15523, 17022, 17856], "queries": {"click": {"state": {"target": ["2", "5", "28", "25", "13", "14"], "time": [2509, 3341, 6639, 9452, 10736, 11868]}, "edge": {"target": [], "time": []}}, "mouseover": {"state": {"target": ["0", "1", "2", "7", "5", "9", "9", "11", "28", "28", "24", "24", "25", "24", "23", "12", "13", "14", "19"], "time": [1820, 1970, 2169, 2741, 3059, 3705, 4124, 5073, 5707, 6139, 7105, 8106, 9106, 9975, 9995, 10048, 10100, 11471, 12244]}, "edge": {"target": [], "time": []}}, "mouseout": {"state": {"target": ["0", "0", "1", "2", "7", "5", "9", "9", "11", "28", "28", "24", "24", "25", "24", "23", "12", "13", "14", "19", "21"], "time": [837, 1921, 2037, 2724, 2774, 3623, 3740, 4790, 5623, 5729, 7073, 8005, 9007, 9940, 9992, 10011, 10080, 11456, 12181, 12289, 19209]}, "edge": {"target": [], "time": []}}}, "displayed_time": "18.38", "trialTime": 20376, "trial_type": "mouselab-mdp", "trial_index": 44, "time_elapsed": 1381955, "internal_node_id": "0.0-4.0-1.0-35.0"}}, {"uniqueid": "w78295288:a30127227", "current_trial": 45, "dateTime": 1691072373396, "trialdata": {"revealed_states": [], "clicked_states": ["2", "5", "14", "25"], "num_clicks_accrued": [0, 0, 0, 0, 0, 0, 0, 0, 0, 0, 0, 0, 0], "stateRewards": ["", 2, 3, 8, 14, 69, -27, 17, 2, -71, -65, -10, 2, -3, 7, 8, 65, -10, 65, -12, 73, -12, 13, -2, -2, 6, 10, -79, -69, -18, 10, -85, 67, 74], "withholdReward": false, "trial_id": "mdp_trial_37", "block": "test", "trialIndex": 38, "score": -22.4, "costs": -4.4, "simulationMode": [null, null, null, null, null], "rewards": [2, -3, 7, -12, -12], "path": ["0", "0", "12", "13", "14", "19", "21"], "rt": [11285, 323, 350, 926, 312], "actions": ["right", "right", "right", "down", "down"], "actionTimes": [12485, 13327, 14176, 15602, 16474], "queries": {"click": {"state": {"target": ["2", "5", "14", "25"], "time": [2143, 3039, 7938, 9561]}, "edge": {"target": [], "time": []}}, "mouseover": {"state": {"target": ["0", "1", "2", "4", "5", "4", "22", "14", "13", "0", "23", "24", "25", "22"], "time": [1237, 1570, 1892, 2491, 2723, 3325, 3446, 4463, 8488, 8538, 8640, 8710, 8970, 10373]}, "edge": {"target": [], "time": []}}, "mouseout": {"state": {"target": ["22", "0", "0", "1", "2", "4", "5", "4", "22", "14", "13", "0", "23", "24", "25", "22"], "time": [291, 604, 1286, 1620, 2424, 2506, 3290, 3339, 4420, 8474, 8505, 8574, 8691, 8887, 10170, 11320]}, "edge": {"target": [], "time": []}}}, "displayed_time": "16.98", "trialTime": 18684, "trial_type": "mouselab-mdp", "trial_index": 45, "time_elapsed": 1401295, "internal_node_id": "0.0-4.0-1.0-36.0"}}, {"uniqueid": "w78295288:a30127227", "current_trial": 46, "dateTime": 1691072395699, "trialdata": {"revealed_states": [], "clicked_states": ["2", "5", "24", "25", "14"], "num_clicks_accrued": [0, 0, 0, 0, 0, 0, 0, 0, 0, 0, 0, 0, 0], "stateRewards": ["", 2, -3, 5, 11, -79, 54, 11, -9, -78, 33, 22, -2, -1, 2, 14, 43, 34, 1, 10, 49, -65, 39, -1, 1, -1, 3, -16, -2, 11, 2, 12, 48, -65], "withholdReward": false, "trial_id": "mdp_trial_38", "block": "test", "trialIndex": 39, "score": 43.25, "costs": -4.75, "simulationMode": [null, null, null, null, null], "rewards": [-2, -1, 2, 10, 39], "path": ["0", "0", "12", "13", "14", "19", "22"], "rt": [11220, 282, 351, 1456, 1479], "actions": ["right", "right", "right", "down", "left"], "actionTimes": [12650, 13451, 14325, 16276, 18267], "queries": {"click": {"state": {"target": ["2", "5", "24", "25", "14"], "time": [2278, 3821, 7471, 9028, 10945]}, "edge": {"target": [], "time": []}}, "mouseover": {"state": {"target": ["1", "2", "3", "6", "5", "5", "9", "9", "24", "25", "31", "20", "14"], "time": [1848, 1981, 2698, 2795, 3105, 3320, 4684, 4918, 6001, 7933, 9881, 10053, 10298]}, "edge": {"target": [], "time": []}}, "mouseout": {"state": {"target": ["0", "1", "2", "3", "6", "5", "5", "9", "9", "24", "25", "31", "20", "14", "24", "25", "30"], "time": [1803, 1917, 2543, 2757, 2822, 3174, 4119, 4785, 5551, 7887, 9834, 9917, 10153, 11885, 19805, 20169, 20618]}, "edge": {"target": [], "time": []}}}, "displayed_time": "18.79", "trialTime": 21699, "trial_type": "mouselab-mdp", "trial_index": 46, "time_elapsed": 1423598, "internal_node_id": "0.0-4.0-1.0-37.0"}}, {"uniqueid": "w78295288:a30127227", "current_trial": 47, "dateTime": 1691072415366, "trialdata": {"revealed_states": [], "clicked_states": ["24", "25", "14"], "num_clicks_accrued": [0, 0, 0, 0, 0, 0, 0, 0, 0, 0, 0, 0, 0], "stateRewards": ["", -1, 3, 1, -11, -22, -36, 19, -5, -70, -52, 50, -2, -4, 4, -2, -41, -83, 29, -2, 22, 10, -6, -2, 3, -2, 14, 54, 44, 77, -9, -65, -37, -40], "withholdReward": false, "trial_id": "mdp_trial_39", "block": "test", "trialIndex": 40, "score": 22.75, "costs": -2.25, "simulationMode": [null, null, null, null, null], "rewards": [-2, -4, 4, -2, 29], "path": ["0", "0", "12", "13", "14", "15", "18"], "rt": [5264, 249, 390, 878, 1028], "actions": ["right", "right", "right", "up", "left"], "actionTimes": [7096, 7842, 8767, 10152, 11702], "queries": {"click": {"state": {"target": ["24", "25", "14"], "time": [3350, 4288, 5336]}, "edge": {"target": [], "time": []}}, "mouseover": {"state": {"target": ["1", "0", "24", "25", "14"], "time": [2352, 2619, 3003, 3844, 4970]}, "edge": {"target": [], "time": []}}, "mouseout": {"state": {"target": ["30", "25", "20", "12", "0", "1", "0", "24", "25", "14", "20", "17", "20"], "time": [420, 604, 686, 935, 2208, 2520, 2653, 3725, 4654, 6974, 13637, 14101, 17336]}, "edge": {"target": [], "time": []}}}, "displayed_time": "15.83", "trialTime": 19054, "trial_type": "mouselab-mdp", "trial_index": 47, "time_elapsed": 1443264, "internal_node_id": "0.0-4.0-1.0-38.0"}}, {"uniqueid": "w78295288:a30127227", "current_trial": 48, "dateTime": 1691072433944, "trialdata": {"revealed_states": [], "clicked_states": ["12", "14", "25"], "num_clicks_accrued": [0, 0, 0, 0, 0, 0, 0, 0, 0, 0, 0, 0, 0], "stateRewards": ["", 2, 3, -1, 16, -78, -11, 46, 2, -20, 79, -67, 2, 3, 2, 11, -83, -42, -58, -11, -67, -22, 55, 2, -1, -1, -16, -83, -82, 23, -11, -29, 13, 13], "withholdReward": false, "trial_id": "mdp_trial_40", "block": "test", "trialIndex": 41, "score": -27.65, "costs": -1.65, "simulationMode": [null, null, null, null, null], "rewards": [2, 3, 2, -11, -22], "path": ["0", "0", "12", "13", "14", "19", "21"], "rt": [4879, 83, 309, 773, 608], "actions": ["right", "right", "right", "down", "down"], "actionTimes": [6699, 7293, 8102, 9400, 10520], "queries": {"click": {"state": {"target": ["12", "14", "25"], "time": [2960, 3872, 4953]}, "edge": {"target": [], "time": []}}, "mouseover": {"state": {"target": ["0", "12", "14", "13", "0", "23", "24", "25", "24"], "time": [2371, 2471, 3445, 4154, 4256, 4295, 4442, 4657, 5292]}, "edge": {"target": [], "time": []}}, "mouseout": {"state": {"target": ["20", "19", "12", "23", "23", "0", "0", "12", "14", "14", "13", "12", "0", "23", "24", "25", "25", "24"], "time": [476, 517, 554, 587, 857, 895, 2437, 3189, 3955, 4108, 4180, 4241, 4274, 4346, 4506, 5054, 5257, 5308]}, "edge": {"target": [], "time": []}}}, "displayed_time": "15.82", "trialTime": 17920, "trial_type": "mouselab-mdp", "trial_index": 48, "time_elapsed": 1461842, "internal_node_id": "0.0-4.0-1.0-39.0"}}, {"uniqueid": "w78295288:a30127227", "current_trial": 49, "dateTime": 1691072485203, "trialdata": {"rt": 51240, "response": {"Q0": "$-2 to $2", "Q1": "$-4 to $4", "Q2": "$-16 to $16", "Q3": "The cost for clicking on nodes varied between nodes.", "Q4": "Very motivated"}, "question_order": [0, 1, 2, 3, 4], "trial_id": "final_quiz_control", "trial_type": "survey-multi-choice", "trial_index": 49, "time_elapsed": 1513103, "internal_node_id": "0.0-4.0-2.0"}}, {"uniqueid": "w78295288:a30127227", "current_trial": 50, "dateTime": 1691072592598, "trialdata": {"rt": 107373, "response": {"Q0": "I decided which direction to go after clicking on the nodes and the values were revealed.", "Q1": "I became more accustomed to the game, but not sure my strategy was improved due to the randomness of the values.", "Q2": "Very difficult as I was not in control"}, "trial_id": "self_report_control", "trial_type": "survey-text", "trial_index": 50, "time_elapsed": 1620498, "internal_node_id": "0.0-4.0-3.0"}}, {"uniqueid": "w78295288:a30127227", "current_trial": 51, "dateTime": 1691072647835, "trialdata": {"rt": 55231, "response": {"Q0": "Strongly disagree", "Q1": "Strongly disagree", "Q2": "Agree", "Q3": "Agree", "Q4": "Disagree", "Q5": "Strongly agree", "Q6": "Strongly disagree"}, "question_order": [0, 1, 2, 3, 4, 5, 6], "trial_id": "self_report_2", "trial_type": "survey-multi-choice", "trial_index": 51, "time_elapsed": 1675735, "internal_node_id": "0.0-4.0-4.0"}}, {"uniqueid": "w78295288:a30127227", "current_trial": 52, "dateTime": 1691072686404, "trialdata": {"rt": 38560, "response": {"gender": "female", "age": "54", "colorblind": "0", "effort": "0"}, "trial_type": "survey-html-form", "trial_index": 52, "time_elapsed": 1714304, "internal_node_id": "0.0-4.0-5.0"}}, {"uniqueid": "w78295288:a30127227", "current_trial": 53, "dateTime": 1691072710292, "trialdata": {"rt": 23876, "response": {"Q0": "None", "Q1": "No", "Q2": "None"}, "trial_type": "survey-text", "trial_index": 53, "time_elapsed": 1738192, "internal_node_id": "0.0-4.0-6.0"}}, {"uniqueid": "w78295288:a30127227", "current_trial": 54, "dateTime": 1691072716260, "trialdata": {"rt": 5961, "stimulus": "Press 'Finish HIT' in order to reach the completion code. Once the data has been saved, you will receive the code either in this window or in the original browser window where you started the experiment.\n", "response": 0, "trial_type": "html-button-response", "trial_index": 54, "time_elapsed": 1744160, "internal_node_id": "0.0-5.0"}}, {"uniqueid": "w78295288:a30127227", "current_trial": 55, "dateTime": 1691072717265, "trialdata": {"success": true, "trial_type": "fullscreen", "trial_index": 55, "time_elapsed": 1745165, "internal_node_id": "0.0-6.0"}}], "questiondata": {"params": {"CODE": "C6DMOQA6", "MIN_TIME": 14, "inspectCost": 1, "startTime": "Thu Aug 03 2023 15:56:09 GMT+0200 (South Africa Standard Time)", "bonusRate": 0.002, "variance": "1_2_4_8_44", "branching": "31123"}, "final_score": 45.9}, "eventdata": [{"eventtype": "initialized", "value": null, "timestamp": 1691070968827, "interval": 0}, {"eventtype": "window_resize", "value": [1366, 670], "timestamp": 1691070968827, "interval": 0}, {"eventtype": "window_resize", "value": [1366, 670], "timestamp": 1691070969333, "interval": 506}, {"eventtype": "window_resize", "value": [1366, 768], "timestamp": 1691070979875, "interval": 10542}, {"eventtype": "window_resize", "value": [1366, 670], "timestamp": 1691072716904, "interval": 1737029}], "useragent": "Mozilla/5.0 (Windows NT 10.0; Win64; x64) AppleWebKit/537.36 (KHTML, like Gecko) Chrome/115.0.0.0 Safari/537.36", "mode": "live", "id": "w78295288:a30127227", "status": "user data saved", "Beginhit": "2023-08-03 13:56:03.821125", "Beginexp": "2023-08-03 13:56:19.225698", "Endhit": "2023-08-03 14:25:16.859844", "psiturkStatus": 3, "browser": "<redacted>", "platform": "windows", "language": "en-ZA"}