{"condition": 0, "counterbalance": 0, "assignmentId": "a94722188", "workerId": "w68101396", "hitId": "h61766098", "currenttrial": 55, "bonus": 0, "data": [{"uniqueid": "w68101396:a94722188", "current_trial": 0, "dateTime": 1693482622616, "trialdata": {"success": true, "trial_type": "fullscreen", "trial_index": 0, "time_elapsed": 4840, "internal_node_id": "0.0-0.0"}}, {"uniqueid": "w68101396:a94722188", "current_trial": 1, "dateTime": 1693482641180, "trialdata": {"view_history": [{"page_index": 0, "viewing_time": 18537}], "rt": 18538, "trial_id": "exp_instructions_control", "trial_type": "instructions", "trial_index": 1, "time_elapsed": 23405, "internal_node_id": "0.0-1.0"}}, {"uniqueid": "w68101396:a94722188", "current_trial": 2, "dateTime": 1693482936048, "trialdata": {"view_history": [{"page_index": 0, "viewing_time": 93994}, {"page_index": 1, "viewing_time": 104063}, {"page_index": 2, "viewing_time": 44372}, {"page_index": 3, "viewing_time": 52421}], "rt": 294851, "trial_id": "mouselab_instructions_1_control", "trial_type": "instructions", "trial_index": 2, "time_elapsed": 318272, "internal_node_id": "0.0-2.0-1.0"}}, {"uniqueid": "w68101396:a94722188", "current_trial": 3, "dateTime": 1693483048244, "trialdata": {"revealed_states": [], "clicked_states": ["2", "15", "13", "24", "26", "23", "25", "30", "32", "14", "33", "27", "10", "8", "12", "17", "1", "3", "4", "5", "6", "19", "21", "20", "31", "29", "28", "11", "9", "7", "18"], "num_clicks_accrued": [0, 0, 0, 0, 0, 0, 0, 0, 0, 0, 0, 0, 0], "stateRewards": ["", -10, -10, -10, 10, 10, -10, 10, 10, 10, 10, 10, -10, 10, -10, -10, 10, 10, 10, -10, 10, -10, -10, 10, 10, -10, 10, 10, -10, 10, 10, -10, -10, -10], "withholdReward": false, "trial_id": "practice_1", "block": "test", "trialIndex": 0, "score": -22, "costs": -15.5, "simulationMode": [null, null, null, null, null], "rewards": [-10, -10, -10, 10, 10], "path": ["0", "0", "1", "2", "3", "4", "5"], "rt": [87787, 965, 419, 692, 676], "actions": ["up", "up", "up", "right", "up"], "actionTimes": [93678, 95151, 96070, 97276, 98476], "queries": {"click": {"state": {"target": ["2", "15", "13", "24", "26", "23", "25", "30", "32", "14", "33", "27", "10", "8", "12", "17", "1", "3", "4", "5", "6", "19", "21", "20", "31", "29", "28", "11", "9", "7", "18"], "time": [7501, 9250, 10416, 11910, 13176, 17028, 24698, 25937, 27001, 32632, 34894, 36931, 40741, 42969, 47464, 51042, 54368, 57664, 58789, 61568, 63788, 74061, 75723, 77733, 81856, 83193, 84332, 85564, 87260, 88334, 89544]}, "edge": {"target": [], "time": []}}, "mouseover": {"state": {"target": ["1", "1", "2", "7", "18", "15", "13", "12", "0", "23", "24", "26", "25", "30", "30", "24", "23", "24", "23", "24", "25", "25", "30", "32", "22", "14", "13", "31", "33", "25", "26", "27", "10", "2", "2", "10", "8", "2", "12", "17", "15", "1", "2", "3", "4", "5", "6", "14", "12", "12", "0", "19", "21", "20", "22", "31", "25", "29", "26", "28", "11", "9", "3", "7", "18", "16"], "time": [6552, 6833, 7098, 8504, 8600, 8817, 10019, 11154, 11221, 11287, 11605, 12753, 13771, 13854, 14326, 16415, 16517, 18052, 21170, 21950, 22065, 22851, 25570, 26703, 31966, 32150, 33520, 34365, 34559, 35918, 36172, 36600, 37385, 37468, 38387, 40433, 41670, 46233, 47082, 48777, 53690, 53961, 57115, 57246, 58392, 59417, 63208, 67515, 71851, 72208, 72498, 73652, 74668, 77263, 81234, 81547, 82734, 82832, 83700, 83832, 85099, 86251, 87865, 87933, 88865, 90118]}, "edge": {"target": [], "time": []}}, "mouseout": {"state": {"target": ["23", "23", "0", "1", "1", "2", "7", "18", "15", "13", "12", "0", "23", "24", "26", "25", "30", "30", "24", "23", "24", "23", "23", "24", "25", "25", "30", "32", "22", "14", "13", "31", "33", "25", "26", "27", "10", "2", "2", "10", "8", "8", "2", "12", "17", "15", "1", "2", "3", "4", "5", "6", "14", "12", "12", "0", "19", "21", "20", "22", "31", "25", "29", "26", "28", "11", "9", "3", "7", "18", "16", "0", "1"], "time": [4463, 4917, 6500, 6567, 6865, 8471, 8525, 8762, 9935, 11104, 11187, 11254, 11535, 12602, 13738, 13838, 13987, 16251, 16465, 17938, 20416, 20456, 21222, 21986, 22193, 25469, 26586, 27092, 32036, 33454, 33554, 34405, 35701, 36132, 36498, 37318, 37404, 38109, 40387, 41502, 43058, 46149, 46258, 48502, 53649, 53716, 57084, 57132, 58351, 59333, 63063, 67214, 68155, 71899, 72316, 73253, 74601, 77164, 81197, 81245, 82717, 82767, 83628, 83799, 84417, 86068, 87815, 87899, 88815, 89979, 90846, 101180, 101347]}, "edge": {"target": [], "time": []}}}, "displayed_time": "99.01", "trialTime": 111231, "trial_type": "mouselab-mdp", "trial_index": 3, "time_elapsed": 430467, "internal_node_id": "0.0-2.0-2.0-0.0"}}, {"uniqueid": "w68101396:a94722188", "current_trial": 4, "dateTime": 1693483092045, "trialdata": {"revealed_states": [], "clicked_states": ["2", "13", "23", "24", "19", "21"], "num_clicks_accrued": [0, 0, 0, 0, 0, 0, 0, 0, 0, 0, 0, 0, 0], "stateRewards": ["", 10, -10, -10, -10, 10, 10, -10, -10, -10, 10, 10, 10, -10, 10, -10, -10, -10, 10, 10, -10, -10, 10, -10, -10, -10, -10, 10, -10, -10, 10, 10, 10, -10], "withholdReward": false, "trial_id": "practice_2", "block": "test", "trialIndex": 1, "score": -29.5, "costs": -3, "simulationMode": [null, null, null, null, null], "rewards": [10, -10, -10, -10, -10], "path": ["0", "0", "1", "2", "3", "8", "9"], "rt": [27795, 798, 1478, 960, 444], "actions": ["up", "up", "up", "left", "up"], "actionTimes": [31902, 33230, 35236, 36705, 37673], "queries": {"click": {"state": {"target": ["2", "13", "23", "24", "19", "21"], "time": [6186, 8998, 10740, 12692, 18372, 24922]}, "edge": {"target": [], "time": []}}, "mouseover": {"state": {"target": ["1", "2", "18", "13", "12", "23", "24", "1", "28", "27", "10", "2", "18", "15", "14", "19", "21", "22", "12"], "time": [5113, 5574, 7925, 8275, 9980, 10275, 11859, 15524, 15675, 15984, 16309, 16376, 16576, 16826, 17728, 17954, 19683, 26041, 26108]}, "edge": {"target": [], "time": []}}, "mouseout": {"state": {"target": ["21", "0", "1", "2", "18", "13", "12", "23", "24", "1", "28", "27", "10", "2", "18", "15", "14", "19", "21", "22", "12", "14"], "time": [1872, 5059, 5474, 7825, 8143, 9963, 10018, 11775, 14676, 15567, 15826, 16208, 16342, 16426, 16675, 17692, 17859, 19558, 25016, 26074, 26423, 39690]}, "edge": {"target": [], "time": []}}}, "displayed_time": "38.18", "trialTime": 43162, "trial_type": "mouselab-mdp", "trial_index": 4, "time_elapsed": 474267, "internal_node_id": "0.0-2.0-2.0-1.0"}}, {"uniqueid": "w68101396:a94722188", "current_trial": 5, "dateTime": 1693483160519, "trialdata": {"view_history": [{"page_index": 0, "viewing_time": 62406}, {"page_index": 1, "viewing_time": 6052}], "rt": 68460, "trial_id": "mouselab_instructions_2_control", "trial_type": "instructions", "trial_index": 5, "time_elapsed": 542744, "internal_node_id": "0.0-2.0-3.0"}}, {"uniqueid": "w68101396:a94722188", "current_trial": 6, "dateTime": 1693483212093, "trialdata": {"rt": 51549, "response": {"Q0": "The cost for clicking on nodes may vary between nodes.", "Q1": "The better I perform the higher my bonus will be.", "Q2": "No, the amount of cash at each node of the web may be different each time.", "Q3": "To get the highest total score.", "Q4": "Only before moving the spider.", "Q5": "3 seconds"}, "question_order": [0, 1, 2, 3, 4, 5], "correct": {"Q0": "The cost for clicking on nodes may vary between nodes.", "Q1": "The better I perform the higher my bonus will be.", "Q2": "No, the amount of cash at each node of the web may be different each time.", "Q3": "To get the highest total score.", "Q4": "Only before moving the spider.", "Q5": "3 seconds"}, "trial_id": "mouselab_quiz_control", "trial_type": "survey-multi-choice", "trial_index": 6, "time_elapsed": 594317, "internal_node_id": "0.0-2.0-4.0"}}, {"uniqueid": "w68101396:a94722188", "current_trial": 7, "dateTime": 1693483222928, "trialdata": {"rt": 10818, "response": {"Q0": "No"}, "question_order": [0], "trial_id": "repeat_check", "trial_type": "survey-multi-choice", "trial_index": 7, "time_elapsed": 605151, "internal_node_id": "0.0-4.0-0.0"}}, {"uniqueid": "w68101396:a94722188", "current_trial": 8, "dateTime": 1693483237938, "trialdata": {"rt": 14985, "stimulus": "\n<h1> Get ready to start the game! </h1>\n\nThank you for reading the instructions. Get ready start with the 40 rounds of this game.\n<br><br>\nIf you need to take a break, feel free to take one after the end of a round, before continuing to the next one.\n<br><br>\nRemember, the more money the spider gets, the bigger your bonus will be!\n<br><br>\n<div style='text-align: center;'>Press <code>space</code> to begin.</div>\n\n<br><br>\n(If, at any point, the <code>space</code> key does not take you to the next page, click once on the text and try again.)", "response": " ", "trial_id": "mdp_ready", "trial_type": "html-keyboard-response", "trial_index": 8, "time_elapsed": 620163, "internal_node_id": "0.0-6.0-0.0"}}, {"uniqueid": "w68101396:a94722188", "current_trial": 9, "dateTime": 1693483257676, "trialdata": {"revealed_states": [], "clicked_states": ["2"], "num_clicks_accrued": [0, 0, 0, 0, 0, 0, 0, 0, 0, 0, 0, 0, 0], "stateRewards": ["", -2, -2, -3, -6, -15, -11, 41, -12, -63, -76, 2, -2, -3, 8, 9, -36, -2, -18, -16, -32, -85, -17, -2, 1, 5, -16, 82, 35, -88, -1, 80, -82, -20], "withholdReward": false, "trial_id": "mdp_trial_1", "block": "test", "trialIndex": 2, "score": -25.4, "costs": -1.4, "simulationMode": [null, null, null, null, null], "rewards": [-2, -3, 8, 9, -36], "path": ["0", "0", "12", "13", "14", "15", "16"], "rt": [7382, 465, 467, 461, 468], "actions": ["right", "right", "right", "up", "up"], "actionTimes": [10494, 11458, 12427, 13389, 14364], "queries": {"click": {"state": {"target": ["2"], "time": [4418]}, "edge": {"target": [], "time": []}}, "mouseover": {"state": {"target": ["1", "2", "13", "12"], "time": [3756, 3956, 6588, 8256]}, "edge": {"target": [], "time": []}}, "mouseout": {"state": {"target": ["2", "1", "1", "2", "2", "13", "12"], "time": [1214, 1638, 3857, 4490, 6056, 8106, 15675]}, "edge": {"target": [], "time": []}}}, "displayed_time": "17.11", "trialTime": 19114, "trial_type": "mouselab-mdp", "trial_index": 9, "time_elapsed": 639899, "internal_node_id": "0.0-6.0-1.0-0.0"}}, {"uniqueid": "w68101396:a94722188", "current_trial": 10, "dateTime": 1693483281834, "trialdata": {"revealed_states": [], "clicked_states": [], "num_clicks_accrued": [0, 0, 0, 0, 0, 0, 0, 0, 0, 0, 0, 0, 0], "stateRewards": ["", 1, 2, 3, 16, 63, -25, 16, -4, -14, 82, -66, -1, -3, -3, -11, -14, 19, 46, 3, -34, -82, 66, -2, -3, 4, -5, -63, 77, -37, -1, -45, -41, 84], "withholdReward": false, "trial_id": "mdp_trial_2", "block": "test", "trialIndex": 3, "score": 82, "costs": 0, "simulationMode": [null, null, null, null, null], "rewards": [-2, -3, 4, -1, 84], "path": ["0", "0", "23", "24", "25", "30", "33"], "rt": [3594, 1582, 760, 1314, 1975], "actions": ["left", "left", "left", "down", "left"], "actionTimes": [7981, 10078, 11356, 13176, 15653], "queries": {"click": {"state": {"target": [], "time": []}, "edge": {"target": [], "time": []}}, "mouseover": {"state": {"target": [], "time": []}, "edge": {"target": [], "time": []}}, "mouseout": {"state": {"target": ["20", "19", "0", "19", "20"], "time": [2650, 2669, 17357, 17423, 17754]}, "edge": {"target": [], "time": []}}}, "displayed_time": "18.39", "trialTime": 23523, "trial_type": "mouselab-mdp", "trial_index": 10, "time_elapsed": 664056, "internal_node_id": "0.0-6.0-1.0-1.0"}}, {"uniqueid": "w68101396:a94722188", "current_trial": 11, "dateTime": 1693483305638, "trialdata": {"revealed_states": [], "clicked_states": [], "num_clicks_accrued": [0, 0, 0, 0, 0, 0, 0, 0, 0, 0, 0, 0, 0], "stateRewards": ["", 1, 2, -8, 9, 18, -83, -11, 6, -64, -48, 17, -2, -2, -5, -3, -24, -3, -86, -2, 48, -41, -22, -2, 4, 7, 8, 81, 13, -48, 10, 61, 19, 57], "withholdReward": false, "trial_id": "mdp_trial_3", "block": "test", "trialIndex": 4, "score": 18, "costs": 0, "simulationMode": [null, null, null, null, null], "rewards": [1, 2, -8, 6, 17], "path": ["0", "0", "1", "2", "3", "8", "11"], "rt": [2951, 1518, 1263, 1299, 646], "actions": ["up", "up", "up", "left", "left"], "actionTimes": [6600, 8635, 10397, 12204, 13347], "queries": {"click": {"state": {"target": [], "time": []}, "edge": {"target": [], "time": []}}, "mouseover": {"state": {"target": [], "time": []}, "edge": {"target": [], "time": []}}, "mouseout": {"state": {"target": ["0", "12"], "time": [14309, 14324]}, "edge": {"target": [], "time": []}}}, "displayed_time": "17.65", "trialTime": 23151, "trial_type": "mouselab-mdp", "trial_index": 11, "time_elapsed": 687860, "internal_node_id": "0.0-6.0-1.0-2.0"}}, {"uniqueid": "w68101396:a94722188", "current_trial": 12, "dateTime": 1693483327894, "trialdata": {"revealed_states": [], "clicked_states": ["6"], "num_clicks_accrued": [0, 0, 0, 0, 0, 0, 0, 0, 0, 0, 0, 0, 0], "stateRewards": ["", -2, -1, -6, -14, -55, 78, -13, 11, 14, -71, 59, 2, 2, 6, -6, 9, 38, 14, 7, 85, 11, 68, 1, -4, -1, -3, -63, -85, 9, -2, 63, -86, -10], "withholdReward": false, "trial_id": "mdp_trial_4", "block": "test", "trialIndex": 5, "score": -93.4, "costs": -1.4, "simulationMode": [null, null, null, null, null], "rewards": [1, -4, -1, -3, -85], "path": ["0", "0", "23", "24", "25", "26", "28"], "rt": [5427, 884, 511, 1132, 417], "actions": ["left", "left", "left", "up", "right"], "actionTimes": [8001, 9407, 10417, 12054, 12973], "queries": {"click": {"state": {"target": ["6"], "time": [3772]}, "edge": {"target": [], "time": []}}, "mouseover": {"state": {"target": ["7", "6"], "time": [3118, 3318]}, "edge": {"target": [], "time": []}}, "mouseout": {"state": {"target": ["20", "22", "0", "7", "6"], "time": [1344, 1417, 2999, 3168, 14402]}, "edge": {"target": [], "time": []}}}, "displayed_time": "16.57", "trialTime": 21564, "trial_type": "mouselab-mdp", "trial_index": 12, "time_elapsed": 710117, "internal_node_id": "0.0-6.0-1.0-3.0"}}, {"uniqueid": "w68101396:a94722188", "current_trial": 13, "dateTime": 1693483349909, "trialdata": {"revealed_states": [], "clicked_states": [], "num_clicks_accrued": [0, 0, 0, 0, 0, 0, 0, 0, 0, 0, 0, 0, 0], "stateRewards": ["", 1, -4, 6, -3, 40, 76, -51, 5, -24, -63, 44, -2, -2, 8, 1, 76, -85, -58, 10, 59, 20, 11, -2, 3, -3, 3, -82, -10, 54, -7, -57, -6, -32], "withholdReward": false, "trial_id": "mdp_trial_5", "block": "test", "trialIndex": 6, "score": -51, "costs": 0, "simulationMode": [null, null, null, null, null], "rewards": [1, -4, 6, -3, -51], "path": ["0", "0", "1", "2", "3", "4", "7"], "rt": [3508, 638, 582, 909, 1326], "actions": ["up", "up", "up", "right", "down"], "actionTimes": [7125, 8299, 9399, 10809, 12643], "queries": {"click": {"state": {"target": [], "time": []}, "edge": {"target": [], "time": []}}, "mouseover": {"state": {"target": [], "time": []}, "edge": {"target": [], "time": []}}, "mouseout": {"state": {"target": ["0", "12", "20"], "time": [13812, 13829, 13878]}, "edge": {"target": [], "time": []}}}, "displayed_time": "17.62", "trialTime": 21274, "trial_type": "mouselab-mdp", "trial_index": 13, "time_elapsed": 732132, "internal_node_id": "0.0-6.0-1.0-4.0"}}, {"uniqueid": "w68101396:a94722188", "current_trial": 14, "dateTime": 1693483377872, "trialdata": {"revealed_states": [], "clicked_states": ["32"], "num_clicks_accrued": [0, 0, 0, 0, 0, 0, 0, 0, 0, 0, 0, 0, 0], "stateRewards": ["", -2, -2, -7, -13, -10, 49, -68, -1, 84, 70, 88, 1, 4, 4, 12, -57, 25, 30, 8, -1, -77, 57, 2, 3, 2, 3, -18, -80, 23, -15, -41, 70, 11], "withholdReward": false, "trial_id": "mdp_trial_6", "block": "test", "trialIndex": 7, "score": 14.6, "costs": -1.4, "simulationMode": [null, null, null, null, null], "rewards": [1, 4, 4, 8, -1], "path": ["0", "0", "12", "13", "14", "19", "20"], "rt": [4680, 662, 490, 398, 371], "actions": ["right", "right", "right", "down", "right"], "actionTimes": [14881, 16080, 17100, 18004, 18893], "queries": {"click": {"state": {"target": ["32"], "time": [12696]}, "edge": {"target": [], "time": []}}, "mouseover": {"state": {"target": ["23", "24", "25", "30", "32"], "time": [11135, 11251, 11484, 11868, 12067]}, "edge": {"target": [], "time": []}}, "mouseout": {"state": {"target": ["21", "0", "0", "0", "0", "23", "24", "25", "30", "32"], "time": [684, 5387, 7284, 7934, 11109, 11201, 11384, 11801, 11968, 19885]}, "edge": {"target": [], "time": []}}}, "displayed_time": "24.20", "trialTime": 27295, "trial_type": "mouselab-mdp", "trial_index": 14, "time_elapsed": 760095, "internal_node_id": "0.0-6.0-1.0-5.0"}}, {"uniqueid": "w68101396:a94722188", "current_trial": 15, "dateTime": 1693483399356, "trialdata": {"revealed_states": [], "clicked_states": ["9"], "num_clicks_accrued": [0, 0, 0, 0, 0, 0, 0, 0, 0, 0, 0, 0, 0], "stateRewards": ["", 2, 3, -1, 16, -78, -11, 46, 2, -20, 79, -67, 2, 3, 2, 11, -83, -42, -58, -11, -67, -22, 55, 2, -1, -1, -16, -83, -82, 23, -11, -29, 13, 13], "withholdReward": false, "trial_id": "mdp_trial_7", "block": "test", "trialIndex": 8, "score": 5.600000000000001, "costs": -1.4, "simulationMode": [null, null, null, null, null], "rewards": [2, -1, -1, -16, 23], "path": ["0", "0", "23", "24", "25", "26", "29"], "rt": [5175, 457, 389, 585, 400], "actions": ["left", "left", "left", "up", "left"], "actionTimes": [9649, 10620, 11536, 12630, 13529], "queries": {"click": {"state": {"target": ["9"], "time": [6414]}, "edge": {"target": [], "time": []}}, "mouseover": {"state": {"target": ["1", "2", "9"], "time": [5207, 5324, 6058]}, "edge": {"target": [], "time": []}}, "mouseout": {"state": {"target": ["20", "0", "1", "2", "9", "5"], "time": [2395, 5186, 5257, 5441, 14759, 14824]}, "edge": {"target": [], "time": []}}}, "displayed_time": "18.48", "trialTime": 20686, "trial_type": "mouselab-mdp", "trial_index": 15, "time_elapsed": 781579, "internal_node_id": "0.0-6.0-1.0-6.0"}}, {"uniqueid": "w68101396:a94722188", "current_trial": 16, "dateTime": 1693483419010, "trialdata": {"revealed_states": [], "clicked_states": [], "num_clicks_accrued": [0, 0, 0, 0, 0, 0, 0, 0, 0, 0, 0, 0, 0], "stateRewards": ["", -1, 2, 6, 11, 21, -21, -21, -6, 48, -71, 88, -1, -3, 3, 7, 64, 2, 9, -4, 37, -67, 72, 2, 2, -8, -8, -10, 71, -40, -3, 73, 80, 47], "withholdReward": false, "trial_id": "mdp_trial_8", "block": "test", "trialIndex": 9, "score": 73, "costs": 0, "simulationMode": [null, null, null, null, null], "rewards": [2, 2, -8, -3, 80], "path": ["0", "0", "23", "24", "25", "30", "32"], "rt": [1799, 379, 378, 607, 386], "actions": ["left", "left", "left", "down", "down"], "actionTimes": [4703, 5594, 6489, 7603, 8513], "queries": {"click": {"state": {"target": [], "time": []}, "edge": {"target": [], "time": []}}, "mouseover": {"state": {"target": [], "time": []}, "edge": {"target": [], "time": []}}, "mouseout": {"state": {"target": ["21", "0", "12", "15", "17"], "time": [1420, 9923, 9955, 9988, 10005]}, "edge": {"target": [], "time": []}}}, "displayed_time": "16.91", "trialTime": 18854, "trial_type": "mouselab-mdp", "trial_index": 16, "time_elapsed": 801233, "internal_node_id": "0.0-6.0-1.0-7.0"}}, {"uniqueid": "w68101396:a94722188", "current_trial": 17, "dateTime": 1693483438492, "trialdata": {"revealed_states": [], "clicked_states": ["3"], "num_clicks_accrued": [0, 0, 0, 0, 0, 0, 0, 0, 0, 0, 0, 0, 0], "stateRewards": ["", 2, -4, 1, -12, -59, -53, -74, 16, -88, -66, 66, 1, -2, 8, -9, -14, 22, 25, -1, -39, 47, -14, -1, -1, -2, 1, -4, 52, -26, 15, -7, 46, 43], "withholdReward": false, "trial_id": "mdp_trial_9", "block": "test", "trialIndex": 10, "score": -34.4, "costs": -1.4, "simulationMode": [null, null, null, null, null], "rewards": [1, -2, 8, -1, -39], "path": ["0", "0", "12", "13", "14", "19", "20"], "rt": [5577, 406, 649, 1080, 461], "actions": ["right", "right", "right", "down", "right"], "actionTimes": [8469, 9399, 10581, 12172, 13136], "queries": {"click": {"state": {"target": ["3"], "time": [4914]}, "edge": {"target": [], "time": []}}, "mouseover": {"state": {"target": ["1", "2", "3"], "time": [3555, 3605, 4254]}, "edge": {"target": [], "time": []}}, "mouseout": {"state": {"target": ["21", "0", "1", "2", "3", "7"], "time": [1473, 3537, 3587, 4103, 15175, 15204]}, "edge": {"target": [], "time": []}}}, "displayed_time": "16.89", "trialTime": 18670, "trial_type": "mouselab-mdp", "trial_index": 17, "time_elapsed": 820715, "internal_node_id": "0.0-6.0-1.0-8.0"}}, {"uniqueid": "w68101396:a94722188", "current_trial": 18, "dateTime": 1693483457065, "trialdata": {"revealed_states": [], "clicked_states": [], "num_clicks_accrued": [0, 0, 0, 0, 0, 0, 0, 0, 0, 0, 0, 0, 0], "stateRewards": ["", -1, 1, 8, -3, -24, 11, -65, -6, -77, 48, 44, -2, 1, -2, -7, -55, -35, 33, 8, -28, 19, -53, -1, -1, -5, -5, -70, 10, 44, 8, -58, -70, 51], "withholdReward": false, "trial_id": "mdp_trial_10", "block": "test", "trialIndex": 11, "score": 50, "costs": 0, "simulationMode": [null, null, null, null, null], "rewards": [-1, 1, 8, -6, 48], "path": ["0", "0", "1", "2", "3", "8", "10"], "rt": [3159, 352, 394, 214, 325], "actions": ["up", "up", "up", "left", "down"], "actionTimes": [5526, 6400, 7293, 8029, 8856], "queries": {"click": {"state": {"target": [], "time": []}, "edge": {"target": [], "time": []}}, "mouseover": {"state": {"target": [], "time": []}, "edge": {"target": [], "time": []}}, "mouseout": {"state": {"target": ["0", "13", "14"], "time": [10467, 10510, 10528]}, "edge": {"target": [], "time": []}}}, "displayed_time": "16.37", "trialTime": 17767, "trial_type": "mouselab-mdp", "trial_index": 18, "time_elapsed": 839288, "internal_node_id": "0.0-6.0-1.0-9.0"}}, {"uniqueid": "w68101396:a94722188", "current_trial": 19, "dateTime": 1693483476595, "trialdata": {"revealed_states": [], "clicked_states": [], "num_clicks_accrued": [0, 0, 0, 0, 0, 0, 0, 0, 0, 0, 0, 0, 0], "stateRewards": ["", -2, -3, -3, 9, 79, 67, 22, -15, -56, 27, -85, -2, 4, -4, -15, -20, -32, 60, 15, 71, 57, 17, 1, 2, -8, 15, -37, -81, 82, 15, 21, -3, 2], "withholdReward": false, "trial_id": "mdp_trial_11", "block": "test", "trialIndex": 12, "score": -71, "costs": 0, "simulationMode": [null, null, null, null, null], "rewards": [1, 2, -8, 15, -81], "path": ["0", "0", "23", "24", "25", "26", "28"], "rt": [2148, 304, 387, 846, 1340], "actions": ["left", "left", "left", "up", "right"], "actionTimes": [5071, 5899, 6822, 8174, 10020], "queries": {"click": {"state": {"target": [], "time": []}, "edge": {"target": [], "time": []}}, "mouseover": {"state": {"target": [], "time": []}, "edge": {"target": [], "time": []}}, "mouseout": {"state": {"target": ["0", "12", "13"], "time": [11244, 11262, 11291]}, "edge": {"target": [], "time": []}}}, "displayed_time": "16.93", "trialTime": 18696, "trial_type": "mouselab-mdp", "trial_index": 19, "time_elapsed": 858818, "internal_node_id": "0.0-6.0-1.0-10.0"}}, {"uniqueid": "w68101396:a94722188", "current_trial": 20, "dateTime": 1693483496275, "trialdata": {"revealed_states": [], "clicked_states": ["17", "9"], "num_clicks_accrued": [0, 0, 0, 0, 0, 0, 0, 0, 0, 0, 0, 0, 0], "stateRewards": ["", 2, 3, -3, 4, 72, -28, 34, -12, 57, -64, -15, 2, 1, -4, -15, 2, 49, 31, -1, -42, -58, 31, -2, 1, -2, -13, -75, -19, -22, -6, 61, 10, -56], "withholdReward": false, "trial_id": "mdp_trial_12", "block": "test", "trialIndex": 13, "score": 26.2, "costs": -2.8, "simulationMode": [null, null, null, null, null], "rewards": [2, 1, -4, -1, 31], "path": ["0", "0", "12", "13", "14", "19", "22"], "rt": [6141, 334, 337, 471, 1846], "actions": ["right", "right", "right", "down", "left"], "actionTimes": [8979, 9793, 10630, 11615, 14004], "queries": {"click": {"state": {"target": ["17", "9"], "time": [4441, 6716]}, "edge": {"target": [], "time": []}}, "mouseover": {"state": {"target": ["18", "15", "17", "16", "3", "9", "8", "1", "0"], "time": [3538, 3655, 4071, 5711, 5810, 6254, 7660, 7786, 7871]}, "edge": {"target": [], "time": []}}, "mouseout": {"state": {"target": ["19", "0", "18", "15", "17", "16", "3", "9", "8", "1", "0", "19"], "time": [1469, 3503, 3572, 3871, 5692, 5733, 5845, 7638, 7685, 7807, 7925, 15204]}, "edge": {"target": [], "time": []}}}, "displayed_time": "16.84", "trialTime": 18790, "trial_type": "mouselab-mdp", "trial_index": 20, "time_elapsed": 878498, "internal_node_id": "0.0-6.0-1.0-11.0"}}, {"uniqueid": "w68101396:a94722188", "current_trial": 21, "dateTime": 1693483523122, "trialdata": {"revealed_states": [], "clicked_states": ["33", "30"], "num_clicks_accrued": [0, 0, 0, 0, 0, 0, 0, 0, 0, 0, 0, 0, 0], "stateRewards": ["", 2, 3, 6, -5, -74, -53, 17, -12, 46, 44, 18, -2, 4, 1, -8, 22, -23, -49, 9, -45, 55, 81, 1, -1, -7, -16, -83, -71, -45, 2, 51, 82, 61], "withholdReward": false, "trial_id": "mdp_trial_13", "block": "test", "trialIndex": 14, "score": 53.2, "costs": -2.8, "simulationMode": [null, null, null, null, null], "rewards": [1, -1, -7, 2, 61], "path": ["0", "0", "23", "24", "25", "30", "33"], "rt": [7859, 297, 322, 349, 1363], "actions": ["left", "left", "left", "down", "left"], "actionTimes": [10272, 11081, 11909, 12767, 14647], "queries": {"click": {"state": {"target": ["33", "30"], "time": [3754, 5646]}, "edge": {"target": [], "time": []}}, "mouseover": {"state": {"target": ["23", "24", "33", "25", "30"], "time": [2918, 2981, 3409, 4917, 5216]}, "edge": {"target": [], "time": []}}, "mouseout": {"state": {"target": ["0", "23", "24", "33", "25", "30", "19", "22", "21"], "time": [2899, 2964, 3014, 4567, 5121, 16509, 16580, 21970, 23946]}, "edge": {"target": [], "time": []}}}, "displayed_time": "16.41", "trialTime": 26001, "trial_type": "mouselab-mdp", "trial_index": 21, "time_elapsed": 905347, "internal_node_id": "0.0-6.0-1.0-12.0"}}, {"uniqueid": "w68101396:a94722188", "current_trial": 22, "dateTime": 1693483545761, "trialdata": {"revealed_states": [], "clicked_states": ["2", "4", "17"], "num_clicks_accrued": [0, 0, 0, 0, 0, 0, 0, 0, 0, 0, 0, 0, 0], "stateRewards": ["", 2, -3, -2, 14, -4, 85, 46, 15, -28, 41, 31, -1, -1, -1, 5, 62, 79, 57, 12, -73, -64, 86, -1, 1, -3, -5, 68, 11, -32, 8, -80, -21, -56], "withholdReward": false, "trial_id": "mdp_trial_14", "block": "test", "trialIndex": 15, "score": 76.8, "costs": -4.199999999999999, "simulationMode": [null, null, null, null, null], "rewards": [-1, -1, -1, 5, 79], "path": ["0", "0", "12", "13", "14", "15", "17"], "rt": [10837, 237, 325, 728, 277], "actions": ["right", "right", "right", "up", "right"], "actionTimes": [14093, 14843, 15664, 16900, 17683], "queries": {"click": {"state": {"target": ["2", "4", "17"], "time": [4776, 7118, 10332]}, "edge": {"target": [], "time": []}}, "mouseover": {"state": {"target": ["1", "2", "4", "6", "15", "17"], "time": [3918, 4368, 6379, 9254, 9451, 10069]}, "edge": {"target": [], "time": []}}, "mouseout": {"state": {"target": ["31", "24", "0", "1", "2", "4", "6", "15", "17"], "time": [1150, 1515, 3836, 4269, 5576, 9236, 9271, 9902, 11220]}, "edge": {"target": [], "time": []}}}, "displayed_time": "18.19", "trialTime": 21242, "trial_type": "mouselab-mdp", "trial_index": 22, "time_elapsed": 927984, "internal_node_id": "0.0-6.0-1.0-13.0"}}, {"uniqueid": "w68101396:a94722188", "current_trial": 23, "dateTime": 1693483567735, "trialdata": {"revealed_states": [], "clicked_states": ["8", "28", "32"], "num_clicks_accrued": [0, 0, 0, 0, 0, 0, 0, 0, 0, 0, 0, 0, 0], "stateRewards": ["", -1, 4, -8, 12, 14, 69, -8, 5, -72, -14, 56, -1, -1, -1, 9, 67, 19, 11, -9, -88, -58, 3, 2, -4, -8, 4, 62, 77, -74, 5, -31, 65, 88], "withholdReward": false, "trial_id": "mdp_trial_15", "block": "test", "trialIndex": 16, "score": 66.8, "costs": -4.199999999999999, "simulationMode": [null, null, null, null, null], "rewards": [2, -4, -8, 4, 77], "path": ["0", "0", "23", "24", "25", "26", "28"], "rt": [10277, 213, 242, 182, 661], "actions": ["left", "left", "left", "up", "right"], "actionTimes": [12860, 13584, 14340, 15037, 16210], "queries": {"click": {"state": {"target": ["8", "28", "32"], "time": [3982, 6231, 8883]}, "edge": {"target": [], "time": []}}, "mouseover": {"state": {"target": ["10", "10", "8", "10", "28", "24", "32", "31"], "time": [3428, 3527, 3611, 5627, 5978, 7531, 8512, 11560]}, "edge": {"target": [], "time": []}}, "mouseout": {"state": {"target": ["21", "22", "0", "10", "10", "8", "10", "28", "24", "32", "31"], "time": [1093, 1420, 3239, 3480, 3545, 5148, 5645, 7448, 8214, 11523, 11578]}, "edge": {"target": [], "time": []}}}, "displayed_time": "16.71", "trialTime": 21010, "trial_type": "mouselab-mdp", "trial_index": 23, "time_elapsed": 949958, "internal_node_id": "0.0-6.0-1.0-14.0"}}, {"uniqueid": "w68101396:a94722188", "current_trial": 24, "dateTime": 1693483588418, "trialdata": {"revealed_states": [], "clicked_states": ["20", "22", "32"], "num_clicks_accrued": [0, 0, 0, 0, 0, 0, 0, 0, 0, 0, 0, 0, 0], "stateRewards": ["", 1, 1, 1, 15, -76, 52, -32, 14, -57, 37, 49, 1, -4, -3, 6, 83, -76, 25, 9, 36, -1, -17, -1, 4, 4, -2, -22, -21, 58, -15, -57, 49, -24], "withholdReward": false, "trial_id": "mdp_trial_16", "block": "test", "trialIndex": 17, "score": 36.8, "costs": -4.199999999999999, "simulationMode": [null, null, null, null, null], "rewards": [-1, 4, 4, -15, 49], "path": ["0", "0", "23", "24", "25", "30", "32"], "rt": [10053, 115, 163, 210, 163], "actions": ["left", "left", "left", "down", "down"], "actionTimes": [13059, 13700, 14364, 15094, 15797], "queries": {"click": {"state": {"target": ["20", "22", "32"], "time": [4742, 6978, 9371]}, "edge": {"target": [], "time": []}}, "mouseover": {"state": {"target": ["13", "20", "20", "21", "22", "32"], "time": [3863, 3997, 4331, 5951, 6265, 8747]}, "edge": {"target": [], "time": []}}, "mouseout": {"state": {"target": ["22", "0", "13", "20", "20", "21", "22", "32"], "time": [1888, 3839, 3898, 4147, 5751, 6003, 7665, 11565]}, "edge": {"target": [], "time": []}}}, "displayed_time": "17.01", "trialTime": 19763, "trial_type": "mouselab-mdp", "trial_index": 24, "time_elapsed": 970641, "internal_node_id": "0.0-6.0-1.0-15.0"}}, {"uniqueid": "w68101396:a94722188", "current_trial": 25, "dateTime": 1693483608209, "trialdata": {"revealed_states": [], "clicked_states": ["29", "11", "17"], "num_clicks_accrued": [0, 0, 0, 0, 0, 0, 0, 0, 0, 0, 0, 0, 0], "stateRewards": ["", -2, 3, -5, -7, 66, 43, -60, -4, -70, -75, 4, -1, 2, 2, -13, 54, 11, -40, -1, 77, 32, 15, -2, 3, -8, -9, -35, 83, -27, 6, -74, -34, 44], "withholdReward": false, "trial_id": "mdp_trial_17", "block": "test", "trialIndex": 18, "score": 27.8, "costs": -4.199999999999999, "simulationMode": [null, null, null, null, null], "rewards": [-2, 3, -5, -7, 43], "path": ["0", "0", "1", "2", "3", "4", "6"], "rt": [9642, 167, 205, 614, 223], "actions": ["up", "up", "up", "right", "right"], "actionTimes": [11588, 12269, 13005, 14131, 14901], "queries": {"click": {"state": {"target": ["29", "11", "17"], "time": [2767, 4793, 7698]}, "edge": {"target": [], "time": []}}, "mouseover": {"state": {"target": ["24", "29", "27", "11", "7", "16", "17", "14"], "time": [1967, 2397, 3369, 3795, 6865, 6997, 7364, 10464]}, "edge": {"target": [], "time": []}}, "mouseout": {"state": {"target": ["15", "15", "18", "12", "24", "29", "27", "11", "7", "16", "17", "14", "19"], "time": [179, 513, 596, 812, 2197, 3301, 3484, 5518, 6882, 7081, 8317, 16315, 16380]}, "edge": {"target": [], "time": []}}}, "displayed_time": "15.95", "trialTime": 18904, "trial_type": "mouselab-mdp", "trial_index": 25, "time_elapsed": 990432, "internal_node_id": "0.0-6.0-1.0-16.0"}}, {"uniqueid": "w68101396:a94722188", "current_trial": 26, "dateTime": 1693483628993, "trialdata": {"revealed_states": [], "clicked_states": ["31", "17", "9"], "num_clicks_accrued": [0, 0, 0, 0, 0, 0, 0, 0, 0, 0, 0, 0, 0], "stateRewards": ["", -2, -4, 6, 14, -34, 49, 36, -8, -3, 32, -4, 1, -2, 1, -8, -20, -71, -57, -7, -86, -62, -16, -2, -3, -5, 11, 23, -21, 53, 5, -5, 85, 73], "withholdReward": false, "trial_id": "mdp_trial_18", "block": "test", "trialIndex": 19, "score": -27.2, "costs": -4.199999999999999, "simulationMode": [null, null, null, null, null], "rewards": [1, -2, 1, -7, -16], "path": ["0", "0", "12", "13", "14", "19", "22"], "rt": [11030, 270, 220, 399, 609], "actions": ["right", "right", "right", "down", "left"], "actionTimes": [13139, 13934, 14696, 15595, 16721], "queries": {"click": {"state": {"target": ["31", "17", "9"], "time": [3668, 6158, 8896]}, "edge": {"target": [], "time": []}}, "mouseover": {"state": {"target": ["31", "22", "14", "17", "17", "1", "2", "3", "9", "2"], "time": [3026, 5147, 5242, 5325, 5825, 7346, 7825, 8225, 8442, 11575]}, "edge": {"target": [], "time": []}}, "mouseout": {"state": {"target": ["0", "31", "22", "14", "17", "17", "1", "2", "3", "9", "2", "1", "14"], "time": [2726, 4523, 5204, 5292, 5392, 6763, 7775, 7892, 8275, 9879, 18008, 18544, 18575]}, "edge": {"target": [], "time": []}}}, "displayed_time": "17.23", "trialTime": 19884, "trial_type": "mouselab-mdp", "trial_index": 26, "time_elapsed": 1011216, "internal_node_id": "0.0-6.0-1.0-17.0"}}, {"uniqueid": "w68101396:a94722188", "current_trial": 27, "dateTime": 1693483648289, "trialdata": {"revealed_states": [], "clicked_states": ["6", "33", "21"], "num_clicks_accrued": [0, 0, 0, 0, 0, 0, 0, 0, 0, 0, 0, 0, 0], "stateRewards": ["", 1, 1, -7, -9, -44, 24, -83, -15, 44, -24, 72, -2, -3, 4, -5, 57, 55, 29, -11, 22, 12, -25, -1, 2, 7, 12, 33, -8, 47, -4, 8, 50, -4], "withholdReward": false, "trial_id": "mdp_trial_19", "block": "test", "trialIndex": 20, "score": 5.800000000000001, "costs": -4.199999999999999, "simulationMode": [null, null, null, null, null], "rewards": [1, 1, -7, -9, 24], "path": ["0", "0", "1", "2", "3", "4", "6"], "rt": [10021, 108, 604, 682, 4], "actions": ["up", "up", "up", "right", "right"], "actionTimes": [12110, 12731, 13860, 15064, 15577], "queries": {"click": {"state": {"target": ["6", "33", "21"], "time": [3402, 5627, 8478]}, "edge": {"target": [], "time": []}}, "mouseover": {"state": {"target": ["7", "6", "2", "28", "25", "33", "20", "20", "21"], "time": [2652, 2913, 3907, 4021, 4081, 4253, 7643, 7937, 8118]}, "edge": {"target": [], "time": []}}, "mouseout": {"state": {"target": ["19", "22", "12", "0", "7", "6", "2", "28", "25", "33", "20", "20", "21", "21"], "time": [650, 952, 1134, 2552, 2669, 3860, 3972, 4059, 4167, 7202, 7673, 8001, 8950, 17885]}, "edge": {"target": [], "time": []}}}, "displayed_time": "16.11", "trialTime": 18424, "trial_type": "mouselab-mdp", "trial_index": 27, "time_elapsed": 1030512, "internal_node_id": "0.0-6.0-1.0-18.0"}}, {"uniqueid": "w68101396:a94722188", "current_trial": 28, "dateTime": 1693483667718, "trialdata": {"revealed_states": [], "clicked_states": ["9", "5", "32"], "num_clicks_accrued": [0, 0, 0, 0, 0, 0, 0, 0, 0, 0, 0, 0, 0], "stateRewards": ["", -1, -1, 4, -16, -75, 81, -51, -7, -84, 73, -30, -2, 1, -3, -16, -77, 33, 14, 1, 45, 87, -66, 2, 2, -5, -7, -19, -17, 79, -3, 8, 49, 47], "withholdReward": false, "trial_id": "mdp_trial_20", "block": "test", "trialIndex": 21, "score": 40.8, "costs": -4.199999999999999, "simulationMode": [null, null, null, null, null], "rewards": [2, 2, -5, -3, 49], "path": ["0", "0", "23", "24", "25", "30", "32"], "rt": [9562, 192, 746, 1187, 315], "actions": ["left", "left", "left", "down", "down"], "actionTimes": [11627, 12421, 13672, 15363, 16175], "queries": {"click": {"state": {"target": ["9", "5", "32"], "time": [3577, 5592, 7957]}, "edge": {"target": [], "time": []}}, "mouseover": {"state": {"target": ["1", "2", "8", "9", "5", "4", "2", "1", "23", "31", "32"], "time": [2709, 2743, 3187, 3271, 4409, 6697, 6779, 6825, 6928, 7020, 7207]}, "edge": {"target": [], "time": []}}, "mouseout": {"state": {"target": ["0", "1", "2", "8", "9", "5", "4", "2", "1", "23", "31"], "time": [1108, 2738, 2771, 3205, 4130, 6659, 6739, 6803, 6866, 6953, 7084]}, "edge": {"target": [], "time": []}}}, "displayed_time": "16.68", "trialTime": 18488, "trial_type": "mouselab-mdp", "trial_index": 28, "time_elapsed": 1049941, "internal_node_id": "0.0-6.0-1.0-19.0"}}, {"uniqueid": "w68101396:a94722188", "current_trial": 29, "dateTime": 1693483689232, "trialdata": {"revealed_states": [], "clicked_states": ["29", "28", "17"], "num_clicks_accrued": [0, 0, 0, 0, 0, 0, 0, 0, 0, 0, 0, 0, 0], "stateRewards": ["", -1, 2, 7, 8, 75, 67, -11, 6, 52, -17, 38, -1, 4, -8, 14, 74, -37, -17, -12, 52, 55, 71, -2, -1, -5, 2, 21, 6, -88, -14, 64, -61, -47], "withholdReward": false, "trial_id": "mdp_trial_21", "block": "test", "trialIndex": 22, "score": 33.8, "costs": -4.199999999999999, "simulationMode": [null, null, null, null, null], "rewards": [-1, 4, -8, -12, 55], "path": ["0", "0", "12", "13", "14", "19", "21"], "rt": [11993, 175, 364, 409, 467], "actions": ["right", "right", "right", "down", "down"], "actionTimes": [13954, 14648, 15536, 16465, 17440], "queries": {"click": {"state": {"target": ["29", "28", "17"], "time": [2914, 5101, 8039]}, "edge": {"target": [], "time": []}}, "mouseover": {"state": {"target": ["23", "24", "25", "29", "26", "28", "28", "17", "14", "13", "12"], "time": [2287, 2320, 2370, 2569, 4147, 4225, 4502, 7735, 10355, 10391, 10423]}, "edge": {"target": [], "time": []}}, "mouseout": {"state": {"target": ["32", "32", "31", "0", "23", "24", "25", "29", "26", "28", "28", "17", "14", "13", "12", "19"], "time": [767, 801, 867, 2269, 2304, 2337, 2403, 4074, 4203, 4278, 7294, 9702, 10386, 10418, 10440, 18734]}, "edge": {"target": [], "time": []}}}, "displayed_time": "17.95", "trialTime": 20620, "trial_type": "mouselab-mdp", "trial_index": 29, "time_elapsed": 1071455, "internal_node_id": "0.0-6.0-1.0-20.0"}}, {"uniqueid": "w68101396:a94722188", "current_trial": 30, "dateTime": 1693483707778, "trialdata": {"revealed_states": [], "clicked_states": ["11", "17", "32"], "num_clicks_accrued": [0, 0, 0, 0, 0, 0, 0, 0, 0, 0, 0, 0, 0], "stateRewards": ["", 2, 4, 7, -6, -76, -81, 2, 5, -66, -3, 36, -2, -4, 6, -2, -69, 4, -49, -6, 67, 38, -67, 2, 1, 1, 6, -68, -21, 52, -16, -16, 6, -70], "withholdReward": false, "trial_id": "mdp_trial_22", "block": "test", "trialIndex": 23, "score": 49.8, "costs": -4.199999999999999, "simulationMode": [null, null, null, null, null], "rewards": [2, 4, 7, 5, 36], "path": ["0", "0", "1", "2", "3", "8", "11"], "rt": [10415, 175, 299, 393, 254], "actions": ["up", "up", "up", "left", "left"], "actionTimes": [12410, 13107, 13914, 14833, 15585], "queries": {"click": {"state": {"target": ["11", "17", "32"], "time": [3366, 5462, 8427]}, "edge": {"target": [], "time": []}}, "mouseover": {"state": {"target": ["10", "11", "8", "3", "7", "17", "14", "13", "23", "31", "32", "31"], "time": [2495, 2860, 4070, 4118, 4184, 4579, 7095, 7162, 7645, 7930, 8161, 10696]}, "edge": {"target": [], "time": []}}, "mouseout": {"state": {"target": ["22", "0", "10", "11", "8", "3", "7", "17", "14", "13", "23", "31", "32", "31"], "time": [576, 2437, 2513, 4049, 4095, 4143, 4208, 7045, 7131, 7196, 7830, 8063, 10672, 10731]}, "edge": {"target": [], "time": []}}}, "displayed_time": "16.10", "trialTime": 17644, "trial_type": "mouselab-mdp", "trial_index": 30, "time_elapsed": 1090001, "internal_node_id": "0.0-6.0-1.0-21.0"}}, {"uniqueid": "w68101396:a94722188", "current_trial": 31, "dateTime": 1693483725610, "trialdata": {"revealed_states": [], "clicked_states": ["5", "9", "21"], "num_clicks_accrued": [0, 0, 0, 0, 0, 0, 0, 0, 0, 0, 0, 0, 0], "stateRewards": ["", 1, 1, -5, 10, -31, 73, 14, -8, -23, 63, -70, -1, 2, 8, 7, 25, -59, 27, -10, -40, -71, -15, -2, 3, -8, -5, -19, 77, -34, 7, 67, 63, 19], "withholdReward": false, "trial_id": "mdp_trial_23", "block": "test", "trialIndex": 24, "score": 60.8, "costs": -4.199999999999999, "simulationMode": [null, null, null, null, null], "rewards": [-2, 3, -8, -5, 77], "path": ["0", "0", "23", "24", "25", "26", "28"], "rt": [8853, 129, 144, 223, 612], "actions": ["left", "left", "left", "up", "right"], "actionTimes": [10107, 10761, 11454, 12205, 13344], "queries": {"click": {"state": {"target": ["5", "9", "21"], "time": [2430, 4630, 6763]}, "edge": {"target": [], "time": []}}, "mouseover": {"state": {"target": ["1", "4", "5", "5", "9", "8", "1", "12", "22", "21"], "time": [1460, 1807, 1844, 2077, 3673, 5052, 5168, 5229, 5274, 5747]}, "edge": {"target": [], "time": []}}, "mouseout": {"state": {"target": ["0", "1", "4", "5", "5", "9", "8", "1", "12", "22", "21", "21"], "time": [458, 1494, 1828, 1861, 3397, 5030, 5095, 5208, 5251, 5296, 8980, 14809]}, "edge": {"target": [], "time": []}}}, "displayed_time": "15.26", "trialTime": 16924, "trial_type": "mouselab-mdp", "trial_index": 31, "time_elapsed": 1107833, "internal_node_id": "0.0-6.0-1.0-22.0"}}, {"uniqueid": "w68101396:a94722188", "current_trial": 32, "dateTime": 1693483744702, "trialdata": {"revealed_states": [], "clicked_states": ["16", "18", "17"], "num_clicks_accrued": [0, 0, 0, 0, 0, 0, 0, 0, 0, 0, 0, 0, 0], "stateRewards": ["", -2, 1, -7, 9, 8, 25, 61, -7, -17, 69, -81, 1, 4, -4, -11, 16, 67, 44, 3, 6, -45, -54, -2, 3, 6, -11, -15, 32, -47, 3, -39, -6, -88], "withholdReward": false, "trial_id": "mdp_trial_24", "block": "test", "trialIndex": 25, "score": 52.8, "costs": -4.199999999999999, "simulationMode": [null, null, null, null, null], "rewards": [1, 4, -4, -11, 67], "path": ["0", "0", "12", "13", "14", "15", "17"], "rt": [9665, 420, 249, 177, 39], "actions": ["right", "right", "right", "up", "right"], "actionTimes": [12450, 13405, 14217, 14903, 15449], "queries": {"click": {"state": {"target": ["16", "18", "17"], "time": [4120, 6248, 9187]}, "edge": {"target": [], "time": []}}, "mouseover": {"state": {"target": ["18", "15", "16", "18", "15", "17"], "time": [3305, 3439, 3789, 4817, 8688, 8940]}, "edge": {"target": [], "time": []}}, "mouseout": {"state": {"target": ["20", "19", "0", "18", "15", "16", "18", "15"], "time": [571, 931, 3225, 3389, 3555, 4675, 8659, 8788]}, "edge": {"target": [], "time": []}}}, "displayed_time": "16.79", "trialTime": 18196, "trial_type": "mouselab-mdp", "trial_index": 32, "time_elapsed": 1126925, "internal_node_id": "0.0-6.0-1.0-23.0"}}, {"uniqueid": "w68101396:a94722188", "current_trial": 33, "dateTime": 1693483763418, "trialdata": {"revealed_states": [], "clicked_states": ["32", "27", "5"], "num_clicks_accrued": [0, 0, 0, 0, 0, 0, 0, 0, 0, 0, 0, 0, 0], "stateRewards": ["", 2, -3, 5, -14, -63, -9, -24, -11, -54, -43, 68, 2, -2, -4, 7, -64, 30, 47, 12, -74, 11, 86, 1, -3, 3, 10, -71, -42, -52, -1, -29, -16, 69], "withholdReward": false, "trial_id": "mdp_trial_25", "block": "test", "trialIndex": 26, "score": 28.8, "costs": -4.199999999999999, "simulationMode": [null, null, null, null, null], "rewards": [2, -2, -4, 7, 30], "path": ["0", "0", "12", "13", "14", "15", "17"], "rt": [9282, 67, 211, 95, 110], "actions": ["right", "right", "right", "up", "right"], "actionTimes": [10935, 11534, 12249, 12851, 13465], "queries": {"click": {"state": {"target": ["32", "27", "5"], "time": [3384, 5461, 7553]}, "edge": {"target": [], "time": []}}, "mouseover": {"state": {"target": ["23", "33", "32", "30", "25", "26", "27", "8", "5", "4"], "time": [2305, 2469, 2637, 4233, 4275, 4344, 4522, 6002, 6392, 10134]}, "edge": {"target": [], "time": []}}, "mouseout": {"state": {"target": ["16", "0", "23", "33", "32", "30", "25", "26", "27", "8", "5", "4", "15"], "time": [16, 2286, 2325, 2586, 4206, 4269, 4334, 4421, 5911, 6075, 10085, 16520, 17054]}, "edge": {"target": [], "time": []}}}, "displayed_time": "15.66", "trialTime": 17775, "trial_type": "mouselab-mdp", "trial_index": 33, "time_elapsed": 1145642, "internal_node_id": "0.0-6.0-1.0-24.0"}}, {"uniqueid": "w68101396:a94722188", "current_trial": 34, "dateTime": 1693483783085, "trialdata": {"revealed_states": [], "clicked_states": ["10", "7", "21"], "num_clicks_accrued": [0, 0, 0, 0, 0, 0, 0, 0, 0, 0, 0, 0, 0], "stateRewards": ["", 2, -1, -1, 7, 11, -40, -22, -2, 69, 37, 8, -2, 4, -8, -12, -2, -72, -3, -12, 17, 63, 12, 1, 3, -7, 6, 25, 61, 61, -9, 28, -17, 27], "withholdReward": false, "trial_id": "mdp_trial_26", "block": "test", "trialIndex": 27, "score": 40.8, "costs": -4.199999999999999, "simulationMode": [null, null, null, null, null], "rewards": [-2, 4, -8, -12, 63], "path": ["0", "0", "12", "13", "14", "19", "21"], "rt": [9563, 636, 286, 158, 170], "actions": ["right", "right", "right", "down", "down"], "actionTimes": [12651, 13790, 14573, 15253, 15938], "queries": {"click": {"state": {"target": ["10", "7", "21"], "time": [4945, 7083, 9334]}, "edge": {"target": [], "time": []}}, "mouseover": {"state": {"target": ["1", "10", "11", "10", "2", "7", "13", "22", "21"], "time": [3565, 3647, 4114, 4564, 5552, 6004, 8014, 8092, 8414]}, "edge": {"target": [], "time": []}}, "mouseout": {"state": {"target": ["19", "22", "0", "1", "10", "11", "10", "2", "7", "13", "22"], "time": [1230, 1265, 3543, 3599, 3931, 4398, 5428, 5700, 7936, 8053, 8135]}, "edge": {"target": [], "time": []}}}, "displayed_time": "17.09", "trialTime": 18624, "trial_type": "mouselab-mdp", "trial_index": 34, "time_elapsed": 1165308, "internal_node_id": "0.0-6.0-1.0-25.0"}}, {"uniqueid": "w68101396:a94722188", "current_trial": 35, "dateTime": 1693483802924, "trialdata": {"revealed_states": [], "clicked_states": ["32", "29", "5"], "num_clicks_accrued": [0, 0, 0, 0, 0, 0, 0, 0, 0, 0, 0, 0, 0], "stateRewards": ["", 2, 3, 3, 10, 19, -21, 6, 9, 54, 68, 16, 2, 2, -6, -8, 40, -2, -75, -2, -42, 55, 59, -1, 2, 4, -14, 11, -34, -30, -6, 61, -53, 13], "withholdReward": false, "trial_id": "mdp_trial_27", "block": "test", "trialIndex": 28, "score": 19.8, "costs": -4.199999999999999, "simulationMode": [null, null, null, null, null], "rewards": [2, 3, 3, 10, 6], "path": ["0", "0", "1", "2", "3", "4", "7"], "rt": [9384, 59, 215, 1474, 752], "actions": ["up", "up", "up", "right", "down"], "actionTimes": [11170, 11741, 12480, 14456, 15717], "queries": {"click": {"state": {"target": ["32", "29", "5"], "time": [3397, 5428, 7448]}, "edge": {"target": [], "time": []}}, "mouseover": {"state": {"target": ["32", "33", "29", "10", "3", "5"], "time": [2777, 4137, 4441, 5904, 5970, 6180]}, "edge": {"target": [], "time": []}}, "mouseout": {"state": {"target": ["21", "22", "0", "32", "33", "29", "10", "3", "5", "4"], "time": [593, 643, 2495, 3928, 4368, 5796, 5930, 6064, 9844, 17961]}, "edge": {"target": [], "time": []}}}, "displayed_time": "16.21", "trialTime": 18880, "trial_type": "mouselab-mdp", "trial_index": 35, "time_elapsed": 1185148, "internal_node_id": "0.0-6.0-1.0-26.0"}}, {"uniqueid": "w68101396:a94722188", "current_trial": 36, "dateTime": 1693483823147, "trialdata": {"revealed_states": [], "clicked_states": ["32", "20", "10"], "num_clicks_accrued": [0, 0, 0, 0, 0, 0, 0, 0, 0, 0, 0, 0, 0], "stateRewards": ["", -1, -2, 4, 9, 10, -75, 39, 16, -43, 88, -19, -1, 1, 2, 4, -31, 10, 73, 12, 41, -64, -81, -2, 2, -6, 1, -81, -1, -26, 3, -59, -3, -20], "withholdReward": false, "trial_id": "mdp_trial_28", "block": "test", "trialIndex": 29, "score": 100.8, "costs": -4.199999999999999, "simulationMode": [null, null, null, null, null], "rewards": [-1, -2, 4, 16, 88], "path": ["0", "0", "1", "2", "3", "8", "10"], "rt": [9826, 329, 280, 451, 230], "actions": ["up", "up", "up", "left", "down"], "actionTimes": [11640, 12472, 13283, 14244, 14972], "queries": {"click": {"state": {"target": ["32", "20", "10"], "time": [3611, 6043, 8472]}, "edge": {"target": [], "time": []}}, "mouseover": {"state": {"target": ["23", "31", "32", "19", "20", "10", "10"], "time": [2754, 2955, 3227, 4988, 5181, 6770, 7159]}, "edge": {"target": [], "time": []}}, "mouseout": {"state": {"target": ["18", "0", "23", "31", "32", "19", "20", "10"], "time": [621, 2691, 2839, 3143, 4358, 5140, 6675, 6793]}, "edge": {"target": [], "time": []}}}, "displayed_time": "15.82", "trialTime": 19093, "trial_type": "mouselab-mdp", "trial_index": 36, "time_elapsed": 1205369, "internal_node_id": "0.0-6.0-1.0-27.0"}}, {"uniqueid": "w68101396:a94722188", "current_trial": 37, "dateTime": 1693483840843, "trialdata": {"revealed_states": [], "clicked_states": ["29", "11", "17"], "num_clicks_accrued": [0, 0, 0, 0, 0, 0, 0, 0, 0, 0, 0, 0, 0], "stateRewards": ["", -1, -3, -6, -2, -7, 80, -45, -3, -38, -72, 76, 2, 1, 7, 4, -62, 14, -74, 14, -87, -21, -88, -2, 1, -7, -10, 66, 56, -76, 10, -29, -72, -70], "withholdReward": false, "trial_id": "mdp_trial_29", "block": "test", "trialIndex": 30, "score": 58.8, "costs": -4.199999999999999, "simulationMode": [null, null, null, null, null], "rewards": [-1, -3, -6, -3, 76], "path": ["0", "0", "1", "2", "3", "8", "11"], "rt": [9602, 82, 605, 480, 247], "actions": ["up", "up", "up", "left", "left"], "actionTimes": [11330, 11938, 13041, 14030, 14780], "queries": {"click": {"state": {"target": ["29", "11", "17"], "time": [3215, 5256, 7571]}, "edge": {"target": [], "time": []}}, "mouseover": {"state": {"target": ["28", "26", "29", "27", "11", "8", "11", "17"], "time": [2596, 2679, 2878, 3860, 3921, 4222, 4400, 5952]}, "edge": {"target": [], "time": []}}, "mouseout": {"state": {"target": ["10", "1", "0", "28", "26", "29", "27", "11", "8", "11"], "time": [394, 578, 2499, 2629, 2762, 3615, 3881, 3962, 4313, 5784]}, "edge": {"target": [], "time": []}}}, "displayed_time": "15.73", "trialTime": 16716, "trial_type": "mouselab-mdp", "trial_index": 37, "time_elapsed": 1223066, "internal_node_id": "0.0-6.0-1.0-28.0"}}, {"uniqueid": "w68101396:a94722188", "current_trial": 38, "dateTime": 1693483860716, "trialdata": {"revealed_states": [], "clicked_states": ["20", "32", "9"], "num_clicks_accrued": [0, 0, 0, 0, 0, 0, 0, 0, 0, 0, 0, 0, 0], "stateRewards": ["", -2, -1, 3, -3, 71, -58, -21, 7, -10, -75, -37, 2, 4, -1, -12, -79, -29, -48, 3, -41, -10, -30, -1, -2, 1, -15, 13, 66, 22, -1, -42, -86, -55], "withholdReward": false, "trial_id": "mdp_trial_30", "block": "test", "trialIndex": 31, "score": -28.2, "costs": -4.199999999999999, "simulationMode": [null, null, null, null, null], "rewards": [-2, -1, 3, -3, -21], "path": ["0", "0", "1", "2", "3", "4", "7"], "rt": [11237, 267, 221, 117, 48], "actions": ["up", "up", "up", "right", "down"], "actionTimes": [13531, 14311, 15032, 15686, 16241], "queries": {"click": {"state": {"target": ["20", "32", "9"], "time": [4938, 6990, 10035]}, "edge": {"target": [], "time": []}}, "mouseover": {"state": {"target": ["12", "13", "14", "20", "19", "22", "32", "26", "8", "9", "2"], "time": [3824, 3891, 4040, 4556, 5749, 5779, 6217, 9123, 9340, 9705, 12373]}, "edge": {"target": [], "time": []}}, "mouseout": {"state": {"target": ["17", "14", "13", "12", "0", "12", "13", "14", "20", "19", "22", "32", "26", "8", "9", "2"], "time": [989, 1072, 1122, 1172, 1471, 3856, 3924, 4356, 5744, 5774, 5805, 7437, 9173, 9406, 12254, 18272]}, "edge": {"target": [], "time": []}}}, "displayed_time": "16.77", "trialTime": 18717, "trial_type": "mouselab-mdp", "trial_index": 38, "time_elapsed": 1242940, "internal_node_id": "0.0-6.0-1.0-29.0"}}, {"uniqueid": "w68101396:a94722188", "current_trial": 39, "dateTime": 1693483879135, "trialdata": {"revealed_states": [], "clicked_states": ["29", "17"], "num_clicks_accrued": [0, 0, 0, 0, 0, 0, 0, 0, 0, 0, 0, 0, 0], "stateRewards": ["", -2, 3, -1, 2, -72, 63, 20, -1, 62, -66, 39, -2, 3, -6, 14, 22, 47, 1, 8, -49, -1, -41, 2, 2, -6, -16, -64, -60, -34, 16, 54, 22, -7], "withholdReward": false, "trial_id": "mdp_trial_31", "block": "test", "trialIndex": 32, "score": 53.2, "costs": -2.8, "simulationMode": [null, null, null, null, null], "rewards": [-2, 3, -6, 14, 47], "path": ["0", "0", "12", "13", "14", "15", "17"], "rt": [8418, 158, 218, 198, 152], "actions": ["right", "right", "right", "up", "right"], "actionTimes": [10826, 11507, 12233, 12931, 13603], "queries": {"click": {"state": {"target": ["29", "17"], "time": [3487, 6846]}, "edge": {"target": [], "time": []}}, "mouseover": {"state": {"target": ["23", "25", "29", "15", "17"], "time": [2885, 2991, 3127, 5943, 6546]}, "edge": {"target": [], "time": []}}, "mouseout": {"state": {"target": ["0", "0", "23", "25", "29", "15"], "time": [943, 1192, 2910, 3032, 5144, 6415]}, "edge": {"target": [], "time": []}}}, "displayed_time": "16.41", "trialTime": 17324, "trial_type": "mouselab-mdp", "trial_index": 39, "time_elapsed": 1261358, "internal_node_id": "0.0-6.0-1.0-30.0"}}, {"uniqueid": "w68101396:a94722188", "current_trial": 40, "dateTime": 1693483899489, "trialdata": {"revealed_states": [], "clicked_states": ["21", "33"], "num_clicks_accrued": [0, 0, 0, 0, 0, 0, 0, 0, 0, 0, 0, 0, 0], "stateRewards": ["", 1, 4, 5, -5, 58, -80, 75, 6, 25, -39, 46, 2, -2, 4, 2, 59, 31, -22, -12, -61, 15, 72, 1, -2, -7, 8, 77, 76, -23, -7, 71, -15, -3], "withholdReward": false, "trial_id": "mdp_trial_32", "block": "test", "trialIndex": 33, "score": -71.8, "costs": -2.8, "simulationMode": [null, null, null, null, null], "rewards": [2, -2, 4, -12, -61], "path": ["0", "0", "12", "13", "14", "19", "20"], "rt": [10252, 187, 252, 636, 269], "actions": ["right", "right", "right", "down", "right"], "actionTimes": [11952, 12643, 13391, 14525, 15292], "queries": {"click": {"state": {"target": ["21", "33"], "time": [2848, 6273]}, "edge": {"target": [], "time": []}}, "mouseover": {"state": {"target": ["0", "22", "21", "31", "30", "33", "1", "2", "7"], "time": [2228, 2318, 2519, 5370, 5586, 5987, 9952, 9988, 10452]}, "edge": {"target": [], "time": []}}, "mouseout": {"state": {"target": ["17", "0", "22", "21", "31", "30", "33", "1", "2", "7"], "time": [474, 2268, 2368, 3324, 5470, 5965, 6971, 9970, 10018, 10502]}, "edge": {"target": [], "time": []}}}, "displayed_time": "15.79", "trialTime": 19220, "trial_type": "mouselab-mdp", "trial_index": 40, "time_elapsed": 1281712, "internal_node_id": "0.0-6.0-1.0-31.0"}}, {"uniqueid": "w68101396:a94722188", "current_trial": 41, "dateTime": 1693483917221, "trialdata": {"revealed_states": [], "clicked_states": ["10", "18"], "num_clicks_accrued": [0, 0, 0, 0, 0, 0, 0, 0, 0, 0, 0, 0, 0], "stateRewards": ["", 1, -2, -2, 10, -31, -77, 35, 9, -47, 8, 48, -2, 1, -4, -3, -26, -50, 43, -11, 76, -38, 17, 1, -1, 6, 10, 15, -9, 12, -8, 85, 11, -55], "withholdReward": false, "trial_id": "mdp_trial_33", "block": "test", "trialIndex": 34, "score": 32.2, "costs": -2.8, "simulationMode": [null, null, null, null, null], "rewards": [-2, 1, -4, -3, 43], "path": ["0", "0", "12", "13", "14", "15", "18"], "rt": [6832, 156, 212, 171, 253], "actions": ["right", "right", "right", "up", "left"], "actionTimes": [8671, 9361, 10094, 10771, 11536], "queries": {"click": {"state": {"target": ["10", "18"], "time": [2727, 5457]}, "edge": {"target": [], "time": []}}, "mouseover": {"state": {"target": ["10", "10", "1", "18", "12"], "time": [2178, 2378, 3317, 4995, 5986]}, "edge": {"target": [], "time": []}}, "mouseout": {"state": {"target": ["0", "10", "10", "1", "18", "18", "12"], "time": [1863, 2213, 2786, 3342, 5516, 5963, 6012]}, "edge": {"target": [], "time": []}}}, "displayed_time": "15.84", "trialTime": 16679, "trial_type": "mouselab-mdp", "trial_index": 41, "time_elapsed": 1299444, "internal_node_id": "0.0-6.0-1.0-32.0"}}, {"uniqueid": "w68101396:a94722188", "current_trial": 42, "dateTime": 1693483936112, "trialdata": {"revealed_states": [], "clicked_states": ["29", "9", "17"], "num_clicks_accrued": [0, 0, 0, 0, 0, 0, 0, 0, 0, 0, 0, 0, 0], "stateRewards": ["", 1, -2, -3, 14, -42, -87, -37, -11, -50, 33, -44, -2, 4, -7, 13, 48, -75, -66, 12, 23, -2, 82, 1, -4, 3, 12, 51, -15, -26, -11, -52, -29, 82], "withholdReward": false, "trial_id": "mdp_trial_34", "block": "test", "trialIndex": 35, "score": -67.2, "costs": -4.199999999999999, "simulationMode": [null, null, null, null, null], "rewards": [1, -4, 3, -11, -52], "path": ["0", "0", "23", "24", "25", "30", "31"], "rt": [10524, 15, 636, 553, 130], "actions": ["left", "left", "left", "down", "right"], "actionTimes": [12225, 12752, 13921, 14971, 15598], "queries": {"click": {"state": {"target": ["29", "9", "17"], "time": [2816, 5000, 8247]}, "edge": {"target": [], "time": []}}, "mouseover": {"state": {"target": ["23", "24", "26", "29", "26", "28", "10", "9", "2", "12", "22", "19", "17"], "time": [1731, 2062, 2178, 2279, 3337, 3419, 3596, 4218, 5579, 5628, 7134, 7261, 7599]}, "edge": {"target": [], "time": []}}, "mouseout": {"state": {"target": ["0", "23", "24", "26", "29", "26", "28", "10", "9", "2", "12", "22", "19", "17"], "time": [1727, 1794, 2096, 2229, 3332, 3378, 3497, 3617, 5531, 5603, 5652, 7195, 7282, 16814]}, "edge": {"target": [], "time": []}}}, "displayed_time": "16.10", "trialTime": 17621, "trial_type": "mouselab-mdp", "trial_index": 42, "time_elapsed": 1318335, "internal_node_id": "0.0-6.0-1.0-33.0"}}, {"uniqueid": "w68101396:a94722188", "current_trial": 43, "dateTime": 1693483957176, "trialdata": {"revealed_states": [], "clicked_states": ["6", "22"], "num_clicks_accrued": [0, 0, 0, 0, 0, 0, 0, 0, 0, 0, 0, 0, 0], "stateRewards": ["", 1, -2, -8, -3, 31, -84, -55, -14, 15, -58, 17, -2, -3, 7, 7, -12, 48, 67, 4, -44, -68, 46, 2, 3, -5, -7, 76, 27, 5, 11, 57, 52, 59], "withholdReward": false, "trial_id": "mdp_trial_35", "block": "test", "trialIndex": 36, "score": -64.8, "costs": -2.8, "simulationMode": [null, null, null, null, null], "rewards": [-2, -3, 7, 4, -68], "path": ["0", "0", "12", "13", "14", "19", "21"], "rt": [7830, 263, 282, 211, 178], "actions": ["right", "right", "right", "down", "down"], "actionTimes": [10539, 11331, 12117, 12828, 13513], "queries": {"click": {"state": {"target": ["6", "22"], "time": [4149, 7123]}, "edge": {"target": [], "time": []}}, "mouseover": {"state": {"target": ["1", "4", "6", "13", "22", "22"], "time": [3149, 3380, 3730, 5682, 5814, 6149]}, "edge": {"target": [], "time": []}}, "mouseout": {"state": {"target": ["6", "10", "1", "4", "6", "13", "22", "22"], "time": [733, 1150, 3180, 3630, 4672, 5731, 5964, 8698]}, "edge": {"target": [], "time": []}}}, "displayed_time": "16.71", "trialTime": 19919, "trial_type": "mouselab-mdp", "trial_index": 43, "time_elapsed": 1339398, "internal_node_id": "0.0-6.0-1.0-34.0"}}, {"uniqueid": "w68101396:a94722188", "current_trial": 44, "dateTime": 1693483975541, "trialdata": {"revealed_states": [], "clicked_states": ["31", "17"], "num_clicks_accrued": [0, 0, 0, 0, 0, 0, 0, 0, 0, 0, 0, 0, 0], "stateRewards": ["", -1, 1, -5, -6, -78, 47, -13, 12, 48, -88, 20, 2, -3, -2, 13, -20, 37, -57, 14, -38, 30, 31, -2, -2, 8, 2, -23, 78, 28, 12, -74, -88, 8], "withholdReward": false, "trial_id": "mdp_trial_36", "block": "test", "trialIndex": 37, "score": 44.2, "costs": -2.8, "simulationMode": [null, null, null, null, null], "rewards": [2, -3, -2, 13, 37], "path": ["0", "0", "12", "13", "14", "15", "17"], "rt": [8637, 188, 274, 173, 188], "actions": ["right", "right", "right", "up", "right"], "actionTimes": [10163, 10868, 11638, 12321, 13018], "queries": {"click": {"state": {"target": ["31", "17"], "time": [3529, 6555]}, "edge": {"target": [], "time": []}}, "mouseover": {"state": {"target": ["23", "31", "31", "12", "13", "14", "17", "14"], "time": [2442, 2625, 3245, 5775, 5813, 5861, 6025, 7120]}, "edge": {"target": [], "time": []}}, "mouseout": {"state": {"target": ["0", "23", "31", "31", "12", "13", "14", "17", "14"], "time": [2393, 2527, 2726, 5709, 5809, 5842, 5892, 7114, 7144]}, "edge": {"target": [], "time": []}}}, "displayed_time": "15.53", "trialTime": 17197, "trial_type": "mouselab-mdp", "trial_index": 44, "time_elapsed": 1357764, "internal_node_id": "0.0-6.0-1.0-35.0"}}, {"uniqueid": "w68101396:a94722188", "current_trial": 45, "dateTime": 1693483993885, "trialdata": {"revealed_states": [], "clicked_states": ["27"], "num_clicks_accrued": [0, 0, 0, 0, 0, 0, 0, 0, 0, 0, 0, 0, 0], "stateRewards": ["", 1, 1, 4, 11, 83, -66, 18, -16, -23, 5, 25, 1, -3, 1, -12, 18, 24, -86, -11, -64, 36, 40, 2, 1, -6, 13, 55, 29, 72, -2, 81, -72, -41], "withholdReward": false, "trial_id": "mdp_trial_37", "block": "test", "trialIndex": 38, "score": 63.6, "costs": -1.4, "simulationMode": [null, null, null, null, null], "rewards": [2, 1, -6, 13, 55], "path": ["0", "0", "23", "24", "25", "26", "27"], "rt": [5582, 66, 148, 215, 125], "actions": ["left", "left", "left", "up", "up"], "actionTimes": [7448, 8037, 8701, 9420, 10048], "queries": {"click": {"state": {"target": ["27"], "time": [3870]}, "edge": {"target": [], "time": []}}, "mouseover": {"state": {"target": ["11", "27"], "time": [2951, 3352]}, "edge": {"target": [], "time": []}}, "mouseout": {"state": {"target": ["0", "11", "27"], "time": [2467, 3303, 4704]}, "edge": {"target": [], "time": []}}}, "displayed_time": "15.87", "trialTime": 17201, "trial_type": "mouselab-mdp", "trial_index": 45, "time_elapsed": 1376108, "internal_node_id": "0.0-6.0-1.0-36.0"}}, {"uniqueid": "w68101396:a94722188", "current_trial": 46, "dateTime": 1693484012594, "trialdata": {"revealed_states": [], "clicked_states": ["6"], "num_clicks_accrued": [0, 0, 0, 0, 0, 0, 0, 0, 0, 0, 0, 0, 0], "stateRewards": ["", -1, 1, -1, 2, 19, 85, -18, 2, -3, -26, 36, 2, 4, 7, -9, -18, 70, 72, -5, 35, -20, -28, 1, -2, -4, -3, -59, -11, -63, -2, -72, 59, -69], "withholdReward": false, "trial_id": "mdp_trial_38", "block": "test", "trialIndex": 39, "score": 84.6, "costs": -1.4, "simulationMode": [null, null, null, null, null], "rewards": [-1, 1, -1, 2, 85], "path": ["0", "0", "1", "2", "3", "4", "6"], "rt": [4902, 120, 157, 504, 245], "actions": ["up", "up", "up", "right", "right"], "actionTimes": [7105, 7752, 8421, 9435, 10192], "queries": {"click": {"state": {"target": ["6"], "time": [3549]}, "edge": {"target": [], "time": []}}, "mouseover": {"state": {"target": ["1", "2", "4", "6"], "time": [2575, 2659, 2948, 3225]}, "edge": {"target": [], "time": []}}, "mouseout": {"state": {"target": ["23", "0", "1", "2", "4", "6", "7", "0", "31", "30"], "time": [840, 2507, 2640, 2678, 3090, 4315, 12473, 12674, 13007, 13474]}, "edge": {"target": [], "time": []}}}, "displayed_time": "16.21", "trialTime": 17473, "trial_type": "mouselab-mdp", "trial_index": 46, "time_elapsed": 1394818, "internal_node_id": "0.0-6.0-1.0-37.0"}}, {"uniqueid": "w68101396:a94722188", "current_trial": 47, "dateTime": 1693484034001, "trialdata": {"revealed_states": [], "clicked_states": ["33", "9"], "num_clicks_accrued": [0, 0, 0, 0, 0, 0, 0, 0, 0, 0, 0, 0, 0], "stateRewards": ["", -2, 1, -5, 2, -68, 80, 33, 10, 67, -59, 20, -1, -3, 3, 14, 74, -2, 24, -16, 63, 80, 46, -1, 4, 6, 12, 83, -38, -43, -4, 43, 14, -79], "withholdReward": false, "trial_id": "mdp_trial_39", "block": "test", "trialIndex": 40, "score": 68.2, "costs": -2.8, "simulationMode": [null, null, null, null, null], "rewards": [-2, 1, -5, 10, 67], "path": ["0", "0", "1", "2", "3", "8", "9"], "rt": [8653, 101, 169, 376, 122], "actions": ["up", "up", "up", "left", "up"], "actionTimes": [10889, 11509, 12212, 13100, 13730], "queries": {"click": {"state": {"target": ["33", "9"], "time": [3533, 6836]}, "edge": {"target": [], "time": []}}, "mouseover": {"state": {"target": ["31", "30", "33", "8", "9", "2", "1", "0"], "time": [2917, 2985, 3184, 6301, 6468, 7320, 7371, 7443]}, "edge": {"target": [], "time": []}}, "mouseout": {"state": {"target": ["33", "30", "0", "31", "30", "33", "8", "9", "2", "1", "0"], "time": [412, 449, 2835, 2951, 3034, 3954, 6320, 7273, 7346, 7397, 7938]}, "edge": {"target": [], "time": []}}}, "displayed_time": "16.24", "trialTime": 20173, "trial_type": "mouselab-mdp", "trial_index": 47, "time_elapsed": 1416225, "internal_node_id": "0.0-6.0-1.0-38.0"}}, {"uniqueid": "w68101396:a94722188", "current_trial": 48, "dateTime": 1693484057288, "trialdata": {"revealed_states": [], "clicked_states": ["17", "32"], "num_clicks_accrued": [0, 0, 0, 0, 0, 0, 0, 0, 0, 0, 0, 0, 0], "stateRewards": ["", 1, 1, -2, 7, -31, -6, 76, 1, -36, -16, -53, 2, 1, 7, 13, -47, -10, 47, -7, 72, 46, -56, -2, -2, -2, 11, -80, 44, 38, 16, 67, 85, -78], "withholdReward": false, "trial_id": "mdp_trial_40", "block": "test", "trialIndex": 41, "score": 92.2, "costs": -2.8, "simulationMode": [null, null, null, null, null], "rewards": [-2, -2, -2, 16, 85], "path": ["0", "0", "23", "24", "25", "30", "32"], "rt": [7898, 110, 235, 135, 192], "actions": ["left", "left", "left", "down", "down"], "actionTimes": [9557, 10193, 10932, 11567, 12259], "queries": {"click": {"state": {"target": ["17", "32"], "time": [2871, 5820]}, "edge": {"target": [], "time": []}}, "mouseover": {"state": {"target": ["12", "15", "17", "22", "31", "32"], "time": [2212, 2511, 2598, 3359, 5244, 5475]}, "edge": {"target": [], "time": []}}, "mouseout": {"state": {"target": ["0", "12", "15", "17", "22", "31", "32"], "time": [2193, 2243, 2557, 3301, 3392, 5309, 6225]}, "edge": {"target": [], "time": []}}}, "displayed_time": "15.66", "trialTime": 21836, "trial_type": "mouselab-mdp", "trial_index": 48, "time_elapsed": 1439512, "internal_node_id": "0.0-6.0-1.0-39.0"}}, {"uniqueid": "w68101396:a94722188", "current_trial": 49, "dateTime": 1693484135379, "trialdata": {"rt": 78041, "response": {"Q0": "$-2 to $2", "Q1": "$-16 to $16", "Q2": "$-88 to $88", "Q3": "The cost was always $1.4.", "Q4": "Slightly motivated"}, "question_order": [0, 1, 2, 3, 4], "trial_id": "final_quiz_control", "trial_type": "survey-multi-choice", "trial_index": 49, "time_elapsed": 1517604, "internal_node_id": "0.0-6.0-2.0"}}, {"uniqueid": "w68101396:a94722188", "current_trial": 50, "dateTime": 1693484352736, "trialdata": {"rt": 217265, "response": {"Q0": "When clicking a node if it had a value of 30 0r more I would head for that on most occasions but would sometimes deviate from this.", "Q1": "Yes took more notice of amounts as game progressed.", "Q2": "Because numbers seemed a bit random felt a bit of a guessing game at times."}, "trial_id": "self_report_control", "trial_type": "survey-text", "trial_index": 50, "time_elapsed": 1734960, "internal_node_id": "0.0-6.0-3.0"}}, {"uniqueid": "w68101396:a94722188", "current_trial": 51, "dateTime": 1693484386070, "trialdata": {"rt": 33303, "response": {"gender": "male", "age": "56", "colorblind": "0", "effort": "0"}, "trial_type": "survey-html-form", "trial_index": 51, "time_elapsed": 1768293, "internal_node_id": "0.0-6.0-4.0"}}, {"uniqueid": "w68101396:a94722188", "current_trial": 52, "dateTime": 1693484406272, "trialdata": {"rt": 20167, "response": {"Q0": "no", "Q1": "no", "Q2": ""}, "trial_type": "survey-text", "trial_index": 52, "time_elapsed": 1788496, "internal_node_id": "0.0-6.0-5.0"}}, {"uniqueid": "w68101396:a94722188", "current_trial": 53, "dateTime": 1693484415444, "trialdata": {"rt": 9142, "stimulus": "<h1>Completion Code Instructions (1/2)</h1>\n<br><br><br><br>\nYou have reached the end of the experiment! The completion code consists of two parts: (1) a code with 2 characters (2) a code with 6 characters. On this page, you will receive the second part of the code. The first part of the completion code will be on the next page.\n<br><br>\nThe second part of your completion code is: <b>EWEK22</b>\n<br><br>\nPlease note this down. Then, press 'Finish HIT' in order to find the first part of your completion code. Once the data has been saved, you will receive this code either in this window or in the original browser window where you started the experiment.\n", "response": 0, "trial_type": "html-button-response", "trial_index": 53, "time_elapsed": 1797669, "internal_node_id": "0.0-6.0-6.0"}}, {"uniqueid": "w68101396:a94722188", "current_trial": 54, "dateTime": 1693484416464, "trialdata": {"success": true, "trial_type": "fullscreen", "trial_index": 54, "time_elapsed": 1798689, "internal_node_id": "0.0-7.0"}}], "questiondata": {"params": {"CODE": "C6DMOQA6", "MIN_TIME": 14, "inspectCost": 1, "startTime": "Thu Aug 31 2023 12:50:16 GMT+0100 (British Summer Time)", "bonusRate": 0.002, "variance": "1_2_4_8_44", "branching": "31123"}, "final_score": 927.4}, "eventdata": [{"eventtype": "initialized", "value": null, "timestamp": 1693482616484, "interval": 0}, {"eventtype": "window_resize", "value": [1366, 670], "timestamp": 1693482616484, "interval": 0}, {"eventtype": "window_resize", "value": [1366, 670], "timestamp": 1693482616828, "interval": 344}, {"eventtype": "window_resize", "value": [1366, 768], "timestamp": 1693482621854, "interval": 5026}, {"eventtype": "window_resize", "value": [1366, 670], "timestamp": 1693484415799, "interval": 1793945}], "useragent": "Mozilla/5.0 (Windows NT 10.0; Win64; x64) AppleWebKit/537.36 (KHTML, like Gecko) Chrome/116.0.0.0 Safari/537.36", "mode": "live", "id": "w68101396:a94722188", "status": "user data saved", "Beginhit": "2023-08-31 11:50:12.035507", "Beginexp": "2023-08-31 11:50:20.447425", "Endhit": "2023-08-31 12:20:15.198416", "psiturkStatus": 3, "browser": "<redacted>", "platform": "windows", "language": "en-GB"}