{"condition": 0, "counterbalance": 0, "assignmentId": "a71205100", "workerId": "w13813327", "hitId": "h58979396", "currenttrial": 14, "bonus": 0, "data": [{"uniqueid": "w13813327:a71205100", "current_trial": 0, "dateTime": 1691142174303, "trialdata": {"success": true, "trial_type": "fullscreen", "trial_index": 0, "time_elapsed": 7342, "internal_node_id": "0.0-0.0"}}, {"uniqueid": "w13813327:a71205100", "current_trial": 1, "dateTime": 1691142214362, "trialdata": {"view_history": [{"page_index": 0, "viewing_time": 40026}], "rt": 40032, "trial_id": "exp_instructions_control", "trial_type": "instructions", "trial_index": 1, "time_elapsed": 47403, "internal_node_id": "0.0-1.0"}}, {"uniqueid": "w13813327:a71205100", "current_trial": 2, "dateTime": 1691142220116, "trialdata": {"success": true, "trial_type": "fullscreen", "trial_index": 2, "time_elapsed": 53157, "internal_node_id": "0.0-2.0-0.0"}}, {"uniqueid": "w13813327:a71205100", "current_trial": 3, "dateTime": 1691142643351, "trialdata": {"view_history": [{"page_index": 0, "viewing_time": 125755}, {"page_index": 1, "viewing_time": 158090}, {"page_index": 2, "viewing_time": 50822}, {"page_index": 3, "viewing_time": 88558}], "rt": 423226, "trial_id": "mouselab_instructions_1_control", "trial_type": "instructions", "trial_index": 3, "time_elapsed": 476392, "internal_node_id": "0.0-2.0-1.0"}}, {"uniqueid": "w13813327:a71205100", "current_trial": 4, "dateTime": 1691142742151, "trialdata": {"revealed_states": [], "clicked_states": ["12", "13", "23", "24", "25", "28", "27", "29", "30", "32", "19", "21", "1", "2", "11", "8", "9", "5", "4", "6", "7", "16", "15", "17", "20", "22", "14", "18", "10", "3", "31", "33", "26"], "num_clicks_accrued": [0, 0, 0, 0, 0, 0, 0, 0, 0, 0, 0, 0, 0], "stateRewards": ["", -10, 10, 10, 10, 10, -10, 10, -10, -10, 10, 10, 10, -10, -10, 10, 10, -10, 10, -10, 10, 10, -10, -10, -10, 10, -10, 10, 10, -10, -10, -10, 10, -10], "withholdReward": false, "trial_id": "practice_1", "block": "test", "trialIndex": 0, "score": -3, "costs": -16.5, "simulationMode": [null, null, null, null, null], "rewards": [10, -10, -10, 10, 10], "path": ["0", "0", "12", "13", "14", "15", "16"], "rt": [81733, 1340, 280, 819, 111], "actions": ["right", "right", "right", "up", "up"], "actionTimes": [82894, 84740, 85528, 86868, 87492], "queries": {"click": {"state": {"target": ["12", "13", "23", "24", "25", "28", "27", "29", "30", "32", "19", "21", "1", "2", "11", "8", "9", "5", "4", "6", "7", "16", "15", "17", "20", "22", "14", "18", "10", "3", "31", "33", "26"], "time": [2412, 4215, 5981, 8242, 10359, 12756, 13941, 15171, 17931, 19465, 20922, 23148, 25866, 27110, 28704, 30283, 31682, 33040, 34938, 36051, 37378, 38450, 42182, 44168, 46196, 48258, 49710, 51627, 54085, 58961, 60475, 62539, 66352]}, "edge": {"target": [], "time": []}}, "mouseover": {"state": {"target": ["12", "13", "14", "23", "24", "25", "26", "28", "27", "29", "26", "25", "30", "32", "31", "14", "19", "22", "21", "20", "14", "18", "1", "2", "10", "11", "8", "9", "5", "3", "4", "6", "7", "16", "18", "15", "17", "17", "14", "20", "19", "22", "22", "13", "14", "18", "18", "7", "3", "10", "2", "13", "2", "4", "3", "23", "31", "30", "33", "26", "2", "26", "16", "12", "0", "12", "13"], "time": [2117, 3970, 5038, 5626, 7900, 10114, 10921, 12461, 13546, 14890, 16376, 17279, 17521, 19211, 20124, 20221, 20534, 21514, 22374, 23792, 24920, 24992, 25557, 26759, 27551, 28396, 29273, 31401, 32735, 33741, 34565, 35760, 36950, 37918, 39765, 41873, 42648, 43780, 44757, 45776, 46751, 46848, 47977, 48799, 49395, 50328, 51211, 52018, 52110, 53810, 56596, 56728, 58096, 58416, 58511, 59565, 60093, 61374, 62265, 63128, 65333, 66023, 70365, 71160, 71461, 72506, 73600]}, "edge": {"target": [], "time": []}}, "mouseout": {"state": {"target": ["0", "12", "12", "13", "14", "23", "23", "24", "25", "26", "28", "27", "29", "26", "25", "30", "32", "31", "14", "19", "22", "21", "20", "14", "18", "1", "2", "10", "11", "8", "9", "5", "3", "4", "6", "7", "16", "18", "7", "16", "15", "17", "17", "14", "20", "19", "22", "22", "13", "14", "18", "18", "7", "3", "10", "2", "13", "2", "4", "3", "23", "31", "30", "33", "26", "2", "26", "16", "12", "0", "12", "13"], "time": [1985, 2584, 3931, 4412, 5280, 6178, 6627, 9099, 10779, 12364, 13397, 14545, 16293, 16476, 17328, 18582, 19696, 20189, 20284, 21483, 22328, 23667, 24880, 24942, 25089, 26061, 27512, 28251, 29191, 30479, 31926, 33631, 34538, 35750, 36808, 37742, 38985, 39814, 40856, 41846, 42597, 43338, 44605, 45478, 46735, 46807, 47829, 48411, 48843, 49906, 50390, 51968, 52051, 53677, 54277, 56629, 56743, 58140, 58445, 59448, 59597, 61293, 61534, 63112, 64611, 65365, 67152, 70411, 71277, 72479, 73533, 73893]}, "edge": {"target": [], "time": []}}}, "displayed_time": "88.00", "trialTime": 96887, "trial_type": "mouselab-mdp", "trial_index": 4, "time_elapsed": 575191, "internal_node_id": "0.0-2.0-2.0-0.0"}}, {"uniqueid": "w13813327:a71205100", "current_trial": 5, "dateTime": 1691142829483, "trialdata": {"revealed_states": [], "clicked_states": ["1", "23", "2", "10", "24", "31", "25", "26", "29", "27", "28", "33", "30", "12", "13", "14", "22", "21", "19", "20", "15", "18", "17", "16", "7", "4", "6", "3", "5", "8", "11", "9", "32"], "num_clicks_accrued": [0, 0, 0, 0, 0, 0, 0, 0, 0, 0, 0, 0, 0], "stateRewards": ["", 10, -10, -10, 10, 10, 10, -10, 10, -10, -10, -10, -10, -10, -10, -10, 10, 10, -10, 10, 10, -10, 10, 10, 10, -10, -10, -10, -10, -10, -10, -10, 10, -10], "withholdReward": false, "trial_id": "practice_2", "block": "test", "trialIndex": 1, "score": -23, "costs": -16.5, "simulationMode": [null, null, null, null, null], "rewards": [-10, -10, -10, 10, 10], "path": ["0", "0", "12", "13", "14", "19", "22"], "rt": [72985, 1209, 608, 942, 748], "actions": ["right", "right", "right", "down", "left"], "actionTimes": [75182, 76908, 78041, 79508, 80764], "queries": {"click": {"state": {"target": ["1", "23", "2", "10", "24", "31", "25", "26", "29", "27", "28", "33", "30", "12", "13", "14", "22", "21", "19", "20", "15", "18", "17", "16", "7", "4", "6", "3", "5", "8", "11", "9", "32"], "time": [4746, 6094, 8910, 11416, 12864, 14047, 16070, 17166, 18768, 20461, 22251, 23504, 25418, 28408, 29885, 31585, 32814, 34328, 35888, 39122, 40475, 42497, 43830, 45217, 46362, 47447, 49453, 51675, 53469, 54836, 56323, 59490, 60906]}, "edge": {"target": [], "time": []}}, "mouseover": {"state": {"target": ["1", "23", "2", "10", "28", "24", "31", "30", "25", "25", "26", "29", "27", "28", "25", "33", "32", "30", "32", "31", "1", "12", "13", "14", "19", "22", "21", "19", "20", "15", "20", "15", "18", "17", "16", "16", "7", "4", "6", "3", "3", "5", "8", "11", "9", "9", "28", "24", "31", "32"], "time": [4404, 5742, 7829, 10999, 12217, 12444, 13498, 15360, 15449, 15694, 16751, 18427, 19400, 20976, 22926, 23205, 24082, 25029, 25984, 27196, 27612, 28078, 29647, 30492, 32186, 32472, 34012, 35084, 36636, 38074, 38712, 39986, 42111, 43166, 44440, 44917, 46020, 47067, 48018, 50125, 51330, 53081, 54500, 55485, 57416, 59179, 60045, 60094, 60265, 60536]}, "edge": {"target": [], "time": []}}, "mouseout": {"state": {"target": ["12", "0", "1", "23", "23", "2", "2", "10", "28", "24", "31", "30", "25", "25", "26", "29", "27", "28", "25", "33", "32", "30", "32", "31", "1", "12", "13", "14", "19", "22", "21", "19", "20", "15", "20", "15", "18", "15", "17", "16", "16", "7", "4", "6", "3", "3", "5", "8", "8", "11", "9", "9", "28", "24", "31"], "time": [1224, 4145, 5461, 6288, 7375, 9099, 10494, 12014, 12378, 13416, 15183, 15398, 15513, 16266, 18387, 19328, 20866, 22839, 22968, 23969, 24964, 25927, 27080, 27575, 27666, 28608, 30463, 32058, 32443, 33567, 35034, 36084, 37662, 38596, 39769, 41979, 43008, 43058, 44402, 44502, 45928, 46980, 47664, 49645, 51147, 52597, 54174, 55025, 55417, 57156, 57859, 59994, 60068, 60142, 60409]}, "edge": {"target": [], "time": []}}}, "displayed_time": "81.28", "trialTime": 86397, "trial_type": "mouselab-mdp", "trial_index": 5, "time_elapsed": 662522, "internal_node_id": "0.0-2.0-2.0-1.0"}}, {"uniqueid": "w13813327:a71205100", "current_trial": 6, "dateTime": 1691142909411, "trialdata": {"view_history": [{"page_index": 0, "viewing_time": 63705}, {"page_index": 1, "viewing_time": 16215}], "rt": 79922, "trial_id": "mouselab_instructions_2_control", "trial_type": "instructions", "trial_index": 6, "time_elapsed": 742452, "internal_node_id": "0.0-2.0-3.0"}}, {"uniqueid": "w13813327:a71205100", "current_trial": 7, "dateTime": 1691143171215, "trialdata": {"rt": 261776, "response": {"Q0": "The cost for clicking on nodes may vary between nodes.", "Q1": "The better I perform the higher my bonus will be.", "Q2": "Yes.", "Q3": "To click on the least number of nodes.", "Q4": "Only before moving the spider.", "Q5": "3 seconds"}, "question_order": [0, 1, 2, 3, 4, 5], "correct": {"Q0": "The cost for clicking on nodes may vary between nodes.", "Q1": "The better I perform the higher my bonus will be.", "Q2": "No, the amount of cash at each node of the web may be different each time.", "Q3": "To get the highest total score.", "Q4": "Only before moving the spider.", "Q5": "3 seconds"}, "trial_id": "mouselab_quiz_control", "trial_type": "survey-multi-choice", "trial_index": 7, "time_elapsed": 1004255, "internal_node_id": "0.0-2.0-4.0"}}, {"uniqueid": "w13813327:a71205100", "current_trial": 8, "dateTime": 1691143180494, "trialdata": {"success": true, "trial_type": "fullscreen", "trial_index": 8, "time_elapsed": 1013535, "internal_node_id": "0.0-2.1-0.1"}}, {"uniqueid": "w13813327:a71205100", "current_trial": 9, "dateTime": 1691143195033, "trialdata": {"view_history": [{"page_index": 0, "viewing_time": 6524}, {"page_index": 1, "viewing_time": 4341}, {"page_index": 2, "viewing_time": 2161}, {"page_index": 3, "viewing_time": 1503}], "rt": 14530, "trial_id": "mouselab_instructions_1_control", "trial_type": "instructions", "trial_index": 9, "time_elapsed": 1028073, "internal_node_id": "0.0-2.1-1.1"}}, {"uniqueid": "w13813327:a71205100", "current_trial": 10, "dateTime": 1691143286090, "trialdata": {"revealed_states": [], "clicked_states": ["12", "13", "14", "19", "22", "21", "20", "15", "16", "18", "1", "2", "7", "4", "6", "3", "5", "9", "8", "11", "10", "23", "24", "26", "28", "27", "29", "33", "32", "30", "31", "17", "25"], "num_clicks_accrued": [0, 0, 0, 0, 0, 0, 0, 0, 0, 0, 0, 0, 0], "stateRewards": ["", -10, 10, 10, 10, 10, -10, 10, -10, -10, 10, 10, 10, -10, -10, 10, 10, -10, 10, -10, 10, 10, -10, -10, -10, 10, -10, 10, 10, -10, -10, -10, 10, -10], "withholdReward": false, "trial_id": "practice_1", "block": "test", "trialIndex": 2, "score": -23, "costs": -16.5, "simulationMode": [null, null, null, null, null], "rewards": [10, -10, -10, -10, 10], "path": ["0", "0", "12", "13", "14", "19", "21"], "rt": [74685, 3417, 277, 937, 134], "actions": ["right", "right", "right", "down", "down"], "actionTimes": [77033, 80973, 81767, 83225, 83870], "queries": {"click": {"state": {"target": ["12", "13", "14", "19", "22", "21", "20", "15", "16", "18", "1", "2", "7", "4", "6", "3", "5", "9", "8", "11", "10", "23", "24", "26", "28", "27", "29", "33", "32", "30", "31", "17", "25"], "time": [4277, 6112, 8174, 9308, 10752, 11913, 13747, 15028, 17359, 19349, 20979, 22122, 23335, 25074, 26901, 28841, 29978, 31207, 32374, 33460, 34606, 35848, 37012, 38704, 40366, 42016, 43974, 45326, 46437, 47585, 49277, 51429, 52898]}, "edge": {"target": [], "time": []}}, "mouseover": {"state": {"target": ["12", "13", "13", "22", "19", "14", "14", "19", "22", "21", "20", "15", "17", "16", "18", "18", "1", "2", "7", "7", "4", "4", "6", "3", "3", "5", "9", "8", "11", "10", "23", "24", "25", "26", "28", "27", "29", "29", "33", "32", "30", "31", "25", "17", "17", "15", "24", "25"], "time": [4061, 4657, 5643, 6653, 7598, 7679, 7862, 8865, 9879, 11569, 12382, 14583, 15548, 16911, 17937, 19093, 19930, 21506, 22504, 22992, 23851, 24791, 25504, 27634, 28553, 29376, 30729, 32133, 32973, 34153, 35504, 36551, 37564, 38384, 39324, 40866, 42557, 43617, 44930, 46027, 46956, 48298, 49908, 50769, 51229, 51980, 52328, 52555]}, "edge": {"target": [], "time": []}}, "mouseout": {"state": {"target": ["0", "12", "13", "13", "22", "19", "14", "14", "19", "22", "21", "20", "15", "17", "16", "18", "18", "1", "2", "7", "7", "4", "4", "6", "4", "3", "3", "5", "9", "8", "11", "10", "23", "24", "25", "26", "28", "27", "29", "29", "29", "33", "32", "30", "31", "25", "17", "17", "15", "24", "25", "0", "12", "13", "22", "19"], "time": [3942, 4633, 5346, 6568, 7551, 7614, 7733, 8724, 9769, 11461, 12109, 14351, 15210, 16796, 17823, 18880, 19555, 21437, 22440, 22620, 23450, 24032, 25454, 27527, 27598, 27667, 28970, 30507, 31873, 32496, 33872, 34791, 35979, 37423, 38350, 39258, 40774, 42455, 43479, 44164, 44569, 45917, 46874, 48155, 49740, 50636, 51066, 51964, 52016, 52358, 54517, 79034, 79854, 87601, 88867, 89013]}, "edge": {"target": [], "time": []}}}, "displayed_time": "84.39", "trialTime": 90135, "trial_type": "mouselab-mdp", "trial_index": 10, "time_elapsed": 1119129, "internal_node_id": "0.0-2.1-2.1-0.1"}}, {"uniqueid": "w13813327:a71205100", "current_trial": 11, "dateTime": 1691143363529, "trialdata": {"revealed_states": [], "clicked_states": ["1", "3", "6", "5", "7", "2", "10", "8", "9", "11", "27", "28", "26", "29", "25", "33", "32", "31", "30", "24", "23", "12", "13", "14", "15", "17", "16", "18", "22", "21", "20", "19"], "num_clicks_accrued": [0, 0, 0, 0, 0, 0, 0, 0, 0, 0, 0, 0, 0], "stateRewards": ["", 10, -10, -10, 10, 10, 10, -10, 10, -10, -10, -10, -10, -10, -10, -10, 10, 10, -10, 10, 10, -10, 10, 10, 10, -10, -10, -10, -10, -10, -10, -10, 10, -10], "withholdReward": false, "trial_id": "practice_2", "block": "test", "trialIndex": 3, "score": -42.5, "costs": -16, "simulationMode": [null, null, null, null, null], "rewards": [-10, -10, -10, 10, -10], "path": ["0", "0", "12", "13", "14", "19", "21"], "rt": [67692, 1321, 184, 491, 49], "actions": ["right", "right", "right", "down", "down"], "actionTimes": [70319, 72166, 72877, 73897, 74444], "queries": {"click": {"state": {"target": ["1", "3", "6", "5", "7", "2", "10", "8", "9", "11", "27", "28", "26", "29", "25", "33", "32", "31", "30", "24", "23", "12", "13", "14", "15", "17", "16", "18", "22", "21", "20", "19"], "time": [4221, 6324, 8427, 9551, 11568, 13269, 14422, 16502, 18592, 19847, 21135, 23238, 24309, 26006, 27309, 28551, 29631, 31601, 32885, 34025, 35153, 37303, 38425, 40487, 42269, 44363, 45789, 46874, 47979, 49945, 52052, 53809]}, "edge": {"target": [], "time": []}}, "mouseover": {"state": {"target": ["1", "2", "3", "4", "6", "5", "4", "7", "2", "10", "8", "11", "9", "11", "27", "26", "26", "28", "26", "29", "25", "33", "32", "30", "31", "30", "24", "23", "12", "13", "14", "18", "15", "16", "17", "16", "18", "13", "22", "19", "21", "20", "19"], "time": [3560, 4844, 5806, 6985, 7845, 9225, 10038, 10180, 12259, 14026, 16091, 17165, 18091, 19496, 20896, 21745, 22706, 22973, 23868, 24914, 27038, 28095, 29361, 30280, 31176, 32800, 33568, 34904, 36839, 38160, 39016, 41097, 41876, 42758, 43691, 44954, 46595, 47495, 47702, 48480, 49725, 50490, 52730]}, "edge": {"target": [], "time": []}}, "mouseout": {"state": {"target": ["0", "1", "2", "3", "4", "6", "5", "4", "7", "2", "10", "10", "8", "8", "11", "9", "11", "11", "27", "27", "26", "26", "28", "26", "29", "25", "33", "32", "30", "31", "30", "24", "24", "23", "12", "13", "14", "18", "15", "16", "17", "16", "16", "18", "18", "13", "22", "19", "21", "20"], "time": [1754, 4407, 5730, 6911, 7794, 9025, 10004, 10085, 12158, 13944, 14612, 14931, 16777, 17084, 17874, 19208, 19959, 20588, 21269, 21659, 21829, 22810, 23822, 24847, 26484, 27976, 29101, 29848, 31157, 32604, 33096, 34364, 34869, 35685, 38031, 38923, 40986, 41843, 42723, 43612, 44811, 45935, 46373, 47094, 47446, 47546, 48208, 49325, 50124, 52639]}, "edge": {"target": [], "time": []}}}, "displayed_time": "74.96", "trialTime": 76515, "trial_type": "mouselab-mdp", "trial_index": 11, "time_elapsed": 1196568, "internal_node_id": "0.0-2.1-2.1-1.1"}}, {"uniqueid": "w13813327:a71205100", "current_trial": 12, "dateTime": 1691143414016, "trialdata": {"view_history": [{"page_index": 0, "viewing_time": 43628}, {"page_index": 1, "viewing_time": 6841}], "rt": 50470, "trial_id": "mouselab_instructions_2_control", "trial_type": "instructions", "trial_index": 12, "time_elapsed": 1247056, "internal_node_id": "0.0-2.1-3.1"}}, {"uniqueid": "w13813327:a71205100", "current_trial": 13, "dateTime": 1691143531540, "trialdata": {"rt": 117509, "response": {"Q0": "The cost for clicking on nodes may vary between nodes.", "Q1": "The better I perform the higher my bonus will be.", "Q2": "No, the amount of cash at each node of the web may be different each time.", "Q3": "To click on the least number of nodes.", "Q4": "Only before moving the spider.", "Q5": "3 seconds"}, "question_order": [0, 1, 2, 3, 4, 5], "correct": {"Q0": "The cost for clicking on nodes may vary between nodes.", "Q1": "The better I perform the higher my bonus will be.", "Q2": "No, the amount of cash at each node of the web may be different each time.", "Q3": "To get the highest total score.", "Q4": "Only before moving the spider.", "Q5": "3 seconds"}, "trial_id": "mouselab_quiz_control", "trial_type": "survey-multi-choice", "trial_index": 13, "time_elapsed": 1364580, "internal_node_id": "0.0-2.1-4.1"}}], "questiondata": {"params": {"CODE": "C6DMOQA6", "MIN_TIME": 14, "inspectCost": 1, "startTime": "Fri Aug 04 2023 11:42:43 GMT+0200 (South Africa Standard Time)", "bonusRate": 0.002, "variance": "1_2_4_8_44", "branching": "31123"}}, "eventdata": [{"eventtype": "initialized", "value": null, "timestamp": 1691142162787, "interval": 0}, {"eventtype": "window_resize", "value": [1028, 744], "timestamp": 1691142162787, "interval": 0}, {"eventtype": "window_resize", "value": [1028, 744], "timestamp": 1691142163411, "interval": 624}, {"eventtype": "window_resize", "value": [1536, 864], "timestamp": 1691142173649, "interval": 10238}, {"eventtype": "focus", "value": "off", "timestamp": 1691143176812, "interval": 1003163}, {"eventtype": "focus", "value": "on", "timestamp": 1691143176813, "interval": 1}, {"eventtype": "window_resize", "value": [1028, 744], "timestamp": 1691143177047, "interval": 234}, {"eventtype": "window_resize", "value": [1536, 864], "timestamp": 1691143179816, "interval": 2769}, {"eventtype": "focus", "value": "off", "timestamp": 1691143541623, "interval": 361807}, {"eventtype": "focus", "value": "on", "timestamp": 1691143541624, "interval": 1}, {"eventtype": "window_resize", "value": [1028, 744], "timestamp": 1691143541868, "interval": 244}], "useragent": "Mozilla/5.0 (Windows NT 10.0; Win64; x64) AppleWebKit/537.36 (KHTML, like Gecko) Chrome/115.0.0.0 Safari/537.36", "mode": "live", "id": "w13813327:a71205100", "status": "user data saved", "Beginhit": "2023-08-04 09:42:39.643055", "Beginexp": "2023-08-04 09:42:56.883509", "Endhit": null, "psiturkStatus": 6, "browser": "<redacted>", "platform": "windows", "language": "en-GB", "excludeReason": "quizfail"}