{"condition": 1, "counterbalance": 0, "assignmentId": "a86043157", "workerId": "w20419254", "hitId": "h96455476", "currenttrial": 62, "bonus": 0, "data": [{"uniqueid": "w20419254:a86043157", "current_trial": 0, "dateTime": 1691159606793, "trialdata": {"success": true, "trial_type": "fullscreen", "trial_index": 0, "time_elapsed": 3426, "internal_node_id": "0.0-0.0"}}, {"uniqueid": "w20419254:a86043157", "current_trial": 1, "dateTime": 1691159615771, "trialdata": {"view_history": [{"page_index": 0, "viewing_time": 8965}], "rt": 8965, "trial_id": "exp_instructions_misaligned", "trial_type": "instructions", "trial_index": 1, "time_elapsed": 12405, "internal_node_id": "0.0-1.0"}}, {"uniqueid": "w20419254:a86043157", "current_trial": 2, "dateTime": 1691159619631, "trialdata": {"success": true, "trial_type": "fullscreen", "trial_index": 2, "time_elapsed": 16265, "internal_node_id": "0.0-2.0-0.0"}}, {"uniqueid": "w20419254:a86043157", "current_trial": 3, "dateTime": 1691159736397, "trialdata": {"view_history": [{"page_index": 0, "viewing_time": 35622}, {"page_index": 1, "viewing_time": 43802}, {"page_index": 2, "viewing_time": 15220}, {"page_index": 3, "viewing_time": 22115}], "rt": 116760, "trial_id": "mouselab_instructions_1_misaligned", "trial_type": "instructions", "trial_index": 3, "time_elapsed": 133031, "internal_node_id": "0.0-2.0-1.0"}}, {"uniqueid": "w20419254:a86043157", "current_trial": 4, "dateTime": 1691159811782, "trialdata": {"revealed_states": [], "clicked_states": ["12", "13", "14", "15", "23", "1", "24", "25", "26", "27", "2", "7", "3", "22", "19", "21", "20", "17", "16", "18", "31", "32", "33", "30", "29", "28", "10", "8", "11", "9"], "num_clicks_accrued": [0, 0, 0, 0, 0, 0, 0, 0, 0, 0, 0, 0, 0], "stateRewards": ["", -10, -10, 10, 10, 10, 10, -10, 10, -10, -10, -10, -10, -10, -10, 10, -10, 10, 10, -10, -10, -10, 10, -10, 10, 10, 10, 10, -10, 10, 10, -10, 10, 10], "withholdReward": false, "trial_id": "practice_1", "block": "test", "trialIndex": 0, "score": -41.5, "costs": -15, "simulationMode": [null, null, null, null, null], "rewards": [-10, -10, -10, -10, 10], "path": ["0", "0", "12", "13", "14", "19", "22"], "rt": [65806, 271, 885, 746, 154], "actions": ["right", "right", "right", "down", "left"], "actionTimes": [68102, 68896, 70307, 71566, 72237], "queries": {"click": {"state": {"target": ["12", "13", "14", "15", "23", "1", "24", "25", "26", "27", "2", "7", "3", "22", "19", "21", "20", "17", "16", "18", "31", "32", "33", "30", "29", "28", "10", "8", "11", "9"], "time": [4976, 8762, 12208, 14580, 15813, 17182, 20647, 21990, 23606, 24943, 28469, 29493, 31411, 37409, 39930, 41795, 42883, 44488, 46347, 47650, 50663, 51769, 53018, 54515, 55823, 57583, 58937, 60527, 63875, 65451]}, "edge": {"target": [], "time": []}}, "mouseover": {"state": {"target": ["12", "13", "14", "14", "18", "15", "0", "23", "23", "1", "24", "25", "25", "26", "27", "24", "23", "23", "1", "2", "7", "4", "3", "19", "12", "12", "13", "14", "22", "19", "21", "20", "14", "15", "17", "16", "18", "17", "13", "12", "0", "31", "32", "33", "30", "30", "25", "29", "26", "28", "10", "10", "8", "11", "9", "5", "4", "7"], "time": [4134, 7597, 10413, 11580, 13811, 14209, 15122, 15203, 15486, 16651, 18956, 21153, 21612, 22597, 24629, 25827, 27013, 27381, 27639, 27929, 28925, 29990, 31127, 32140, 34006, 36189, 36283, 36387, 37055, 37813, 40328, 42411, 43441, 43677, 44181, 44957, 47123, 49076, 49594, 49733, 49753, 50241, 51234, 52351, 53607, 54017, 54982, 55337, 56231, 56314, 57963, 58479, 59444, 61042, 64978, 66306, 66687, 66742]}, "edge": {"target": [], "time": []}}, "mouseout": {"state": {"target": ["12", "23", "0", "12", "13", "14", "14", "18", "15", "0", "23", "23", "1", "1", "24", "25", "25", "26", "27", "26", "24", "23", "23", "1", "2", "7", "4", "3", "19", "12", "12", "13", "14", "22", "19", "21", "20", "14", "15", "17", "16", "18", "17", "13", "12", "0", "31", "32", "33", "30", "30", "25", "29", "26", "28", "10", "10", "8", "11", "9", "5", "4", "7"], "time": [708, 1085, 4102, 7516, 10211, 10962, 13393, 13941, 15072, 15188, 15237, 16218, 17192, 17699, 21136, 21297, 22548, 24327, 25629, 25714, 26298, 27081, 27406, 27656, 28856, 29891, 30827, 31806, 32153, 35123, 36254, 36356, 36638, 37798, 40278, 42127, 43408, 43475, 43732, 44841, 46689, 48624, 49493, 49726, 49741, 49860, 51051, 52168, 53602, 53633, 54914, 55014, 56201, 56250, 57928, 57998, 59312, 60864, 64539, 65955, 66674, 66702, 66774]}, "edge": {"target": [], "time": []}}}, "displayed_time": "72.75", "trialTime": 74868, "trial_type": "mouselab-mdp", "trial_index": 4, "time_elapsed": 208415, "internal_node_id": "0.0-2.0-2.0-0.0"}}, {"uniqueid": "w20419254:a86043157", "current_trial": 5, "dateTime": 1691159827561, "trialdata": {"revealed_states": [], "clicked_states": ["25"], "num_clicks_accrued": [0, 0, 0, 0, 0, 0, 0, 0, 0, 0, 0, 0, 0], "stateRewards": ["", 10, 10, -10, -10, -10, -10, -10, 10, -10, 10, -10, 10, 10, 10, 10, -10, 10, -10, -10, -10, -10, -10, 10, -10, -10, 10, 10, -10, -10, 10, 10, 10, 10], "withholdReward": false, "trial_id": "practice_2", "block": "test", "trialIndex": 1, "score": 13, "costs": -0.5, "simulationMode": [null, null, null, null, null], "rewards": [10, -10, -10, 10, 10], "path": ["0", "0", "23", "24", "25", "30", "32"], "rt": [5549, 196, 399, 1259, 437], "actions": ["left", "left", "left", "down", "down"], "actionTimes": [8534, 9241, 10163, 11939, 12893], "queries": {"click": {"state": {"target": ["25"], "time": [5924]}, "edge": {"target": [], "time": []}}, "mouseover": {"state": {"target": ["0", "23", "24", "25"], "time": [4056, 4120, 4437, 4549]}, "edge": {"target": [], "time": []}}, "mouseout": {"state": {"target": ["0", "0", "23", "24", "25"], "time": [1686, 4068, 4252, 4502, 7300]}, "edge": {"target": [], "time": []}}}, "displayed_time": "13.41", "trialTime": 15485, "trial_type": "mouselab-mdp", "trial_index": 5, "time_elapsed": 224194, "internal_node_id": "0.0-2.0-2.0-1.0"}}, {"uniqueid": "w20419254:a86043157", "current_trial": 6, "dateTime": 1691159852544, "trialdata": {"view_history": [{"page_index": 0, "viewing_time": 17354}, {"page_index": 1, "viewing_time": 7618}], "rt": 24973, "trial_id": "mouselab_instructions_2_misaligned", "trial_type": "instructions", "trial_index": 6, "time_elapsed": 249177, "internal_node_id": "0.0-2.0-3.0"}}, {"uniqueid": "w20419254:a86043157", "current_trial": 7, "dateTime": 1691159881730, "trialdata": {"rt": 29174, "response": {"Q0": "The cost for clicking on nodes may vary between nodes.", "Q1": "The better I perform the higher my bonus will be.", "Q2": "No, the amount of cash at each node of the web may be different each time.", "Q3": "To get the highest total score.", "Q4": "Any time during the round.", "Q5": "3 seconds"}, "question_order": [0, 1, 2, 3, 4, 5], "correct": {"Q0": "The cost for clicking on nodes may vary between nodes.", "Q1": "The better I perform the higher my bonus will be.", "Q2": "No, the amount of cash at each node of the web may be different each time.", "Q3": "To get the highest total score.", "Q4": "Only before moving the spider.", "Q5": "3 seconds"}, "trial_id": "mouselab_quiz_misaligned", "trial_type": "survey-multi-choice", "trial_index": 7, "time_elapsed": 278364, "internal_node_id": "0.0-2.0-4.0"}}, {"uniqueid": "w20419254:a86043157", "current_trial": 8, "dateTime": 1691159888175, "trialdata": {"success": true, "trial_type": "fullscreen", "trial_index": 8, "time_elapsed": 284809, "internal_node_id": "0.0-2.1-0.1"}}, {"uniqueid": "w20419254:a86043157", "current_trial": 9, "dateTime": 1691159942701, "trialdata": {"view_history": [{"page_index": 0, "viewing_time": 20373}, {"page_index": 1, "viewing_time": 31055}, {"page_index": 2, "viewing_time": 1636}, {"page_index": 3, "viewing_time": 1455}], "rt": 54520, "trial_id": "mouselab_instructions_1_misaligned", "trial_type": "instructions", "trial_index": 9, "time_elapsed": 339335, "internal_node_id": "0.0-2.1-1.1"}}, {"uniqueid": "w20419254:a86043157", "current_trial": 10, "dateTime": 1691159957833, "trialdata": {"revealed_states": [], "clicked_states": ["12", "23", "1"], "num_clicks_accrued": [0, 0, 0, 0, 0, 0, 0, 0, 0, 0, 0, 0, 0], "stateRewards": ["", -10, -10, 10, 10, 10, 10, -10, 10, -10, -10, -10, -10, -10, -10, 10, -10, 10, 10, -10, -10, -10, 10, -10, 10, 10, 10, 10, -10, 10, 10, -10, 10, 10], "withholdReward": false, "trial_id": "practice_1", "block": "test", "trialIndex": 2, "score": -8, "costs": -1.5, "simulationMode": [null, null, null, null, null], "rewards": [-10, -10, 10, 10, -10], "path": ["0", "0", "1", "2", "3", "4", "7"], "rt": [7155, 73, 437, 725, 484], "actions": ["up", "up", "up", "right", "down"], "actionTimes": [9140, 9726, 10688, 11925, 12931], "queries": {"click": {"state": {"target": ["12", "23", "1"], "time": [3797, 5476, 7131]}, "edge": {"target": [], "time": []}}, "mouseover": {"state": {"target": ["0", "12", "12", "0", "23", "1", "13"], "time": [2726, 2940, 3191, 4602, 5024, 5867, 7668]}, "edge": {"target": [], "time": []}}, "mouseout": {"state": {"target": ["0", "12", "12", "0", "23", "1"], "time": [2893, 2952, 4585, 4685, 5834, 7600]}, "edge": {"target": [], "time": []}}}, "displayed_time": "13.45", "trialTime": 14817, "trial_type": "mouselab-mdp", "trial_index": 10, "time_elapsed": 354466, "internal_node_id": "0.0-2.1-2.1-0.1"}}, {"uniqueid": "w20419254:a86043157", "current_trial": 11, "dateTime": 1691159969029, "trialdata": {"revealed_states": [], "clicked_states": ["29", "33", "32"], "num_clicks_accrued": [0, 0, 0, 0, 0, 0, 0, 0, 0, 0, 0, 0, 0], "stateRewards": ["", 10, 10, -10, -10, -10, -10, -10, 10, -10, 10, -10, 10, 10, 10, 10, -10, 10, -10, -10, -10, -10, -10, 10, -10, -10, 10, 10, -10, -10, 10, 10, 10, 10], "withholdReward": false, "trial_id": "practice_2", "block": "test", "trialIndex": 3, "score": -8, "costs": -1.5, "simulationMode": [null, null, null, null, null], "rewards": [10, -10, -10, 10, -10], "path": ["0", "0", "23", "24", "25", "26", "28"], "rt": [4673, 9, 120, 64, 58], "actions": ["left", "left", "left", "up", "right"], "actionTimes": [6911, 7433, 8094, 8685, 9258], "queries": {"click": {"state": {"target": ["29", "33", "32"], "time": [3447, 4649, 5851]}, "edge": {"target": [], "time": []}}, "mouseover": {"state": {"target": ["26", "29", "33", "32"], "time": [2729, 2805, 4208, 5436]}, "edge": {"target": [], "time": []}}, "mouseout": {"state": {"target": ["13", "12", "0", "26", "29", "33", "33", "32"], "time": [1126, 1326, 1643, 2775, 3937, 4658, 5169, 6219]}, "edge": {"target": [], "time": []}}}, "displayed_time": "9.79", "trialTime": 10880, "trial_type": "mouselab-mdp", "trial_index": 11, "time_elapsed": 365662, "internal_node_id": "0.0-2.1-2.1-1.1"}}, {"uniqueid": "w20419254:a86043157", "current_trial": 12, "dateTime": 1691159972753, "trialdata": {"view_history": [{"page_index": 0, "viewing_time": 1961}, {"page_index": 1, "viewing_time": 1758}], "rt": 3721, "trial_id": "mouselab_instructions_2_misaligned", "trial_type": "instructions", "trial_index": 12, "time_elapsed": 369387, "internal_node_id": "0.0-2.1-3.1"}}, {"uniqueid": "w20419254:a86043157", "current_trial": 13, "dateTime": 1691159990170, "trialdata": {"rt": 17407, "response": {"Q0": "The cost for clicking on nodes may vary between nodes.", "Q1": "The better I perform the higher my bonus will be.", "Q2": "No, the amount of cash at each node of the web may be different each time.", "Q3": "To get the highest total score.", "Q4": "Only before moving the spider.", "Q5": "3 seconds"}, "question_order": [0, 1, 2, 3, 4, 5], "correct": {"Q0": "The cost for clicking on nodes may vary between nodes.", "Q1": "The better I perform the higher my bonus will be.", "Q2": "No, the amount of cash at each node of the web may be different each time.", "Q3": "To get the highest total score.", "Q4": "Only before moving the spider.", "Q5": "3 seconds"}, "trial_id": "mouselab_quiz_misaligned", "trial_type": "survey-multi-choice", "trial_index": 13, "time_elapsed": 386804, "internal_node_id": "0.0-2.1-4.1"}}, {"uniqueid": "w20419254:a86043157", "current_trial": 14, "dateTime": 1691159997348, "trialdata": {"rt": 7161, "stimulus": "\n<h1> Get ready to start the game! </h1>\n\nThank you for reading the instructions. Get ready start with the 40 rounds of this game.\n<br><br>\nIf you need to take a break, feel free to take one after the end of a round, before continuing to the next one.\n<br><br>\nRemember, the more money the spider gets, the bigger your bonus will be!\n<br><br>\n<div style='text-align: center;'>Press <code>space</code> to begin.</div>\n\n<br><br>\n(If, at any point, the <code>space</code> key does not take you to the next page, click once on the text and try again.)", "response": " ", "trial_id": "mdp_ready", "trial_type": "html-keyboard-response", "trial_index": 14, "time_elapsed": 393982, "internal_node_id": "0.0-4.0-0.0"}}, {"uniqueid": "w20419254:a86043157", "current_trial": 15, "dateTime": 1691160015559, "trialdata": {"revealed_states": [], "clicked_states": ["14", "25"], "num_clicks_accrued": [0, 0, 0, 0, 0, 0, 0, 0, 0, 0, 0, 0, 0], "stateRewards": ["", 1, 3, 1, -13, 52, -28, 67, -14, 3, 63, -70, -1, -4, 7, -11, -10, 47, -18, 6, 69, -9, -61, 2, 3, -6, 10, 63, -34, 40, -6, -79, -35, -32], "withholdReward": false, "trial_id": "mdp_trial_1", "block": "test", "trialIndex": 4, "score": -37.9, "costs": -1.9, "simulationMode": [null, null, null, null, null], "rewards": [1, 3, 1, -13, -28], "path": ["0", "0", "1", "2", "3", "4", "6"], "rt": [7425, 46, 2292, 178, 27], "actions": ["up", "up", "up", "right", "right"], "actionTimes": [9262, 9830, 12657, 13358, 13908], "queries": {"click": {"state": {"target": ["14", "25"], "time": [4227, 6105]}, "edge": {"target": [], "time": []}}, "mouseover": {"state": {"target": ["12", "13", "19", "14", "0", "23", "24", "25", "31"], "time": [2419, 2592, 3357, 3573, 5438, 5469, 5483, 5531, 6714]}, "edge": {"target": [], "time": []}}, "mouseout": {"state": {"target": ["22", "13", "12", "0", "0", "12", "13", "19", "14", "0", "23", "24", "25", "31"], "time": [557, 589, 774, 840, 2409, 2589, 2601, 3540, 5325, 5466, 5481, 5516, 6664, 6748]}, "edge": {"target": [], "time": []}}}, "displayed_time": "15.84", "trialTime": 17876, "trial_type": "mouselab-mdp", "trial_index": 15, "time_elapsed": 412192, "internal_node_id": "0.0-4.0-1.0-0.0"}}, {"uniqueid": "w20419254:a86043157", "current_trial": 16, "dateTime": 1691160034473, "trialdata": {"revealed_states": [], "clicked_states": ["9", "29", "31"], "num_clicks_accrued": [0, 0, 0, 0, 0, 0, 0, 0, 0, 0, 0, 0, 0], "stateRewards": ["", 2, 4, -6, -13, -75, -81, 30, 7, 5, 59, -65, -1, -1, 7, 14, -38, 36, -41, 1, -54, -5, 64, 2, -1, 5, 6, -19, 79, 11, 16, -33, -50, 58], "withholdReward": false, "trial_id": "mdp_trial_2", "block": "test", "trialIndex": 5, "score": -25.45, "costs": -6.449999999999999, "simulationMode": [null, null, null, null, null, null], "rewards": [-1, -1, 7, 14, -38], "path": ["0", "0", "12", "13", "14", "15", "16"], "rt": [9889, 1213, 146, 165, 449, 98], "actions": ["right", "right", "right", "right", "up", "up"], "actionTimes": [11738, 12957, 13622, 14307, 15272, 15894], "queries": {"click": {"state": {"target": ["9", "29", "31"], "time": [3179, 6431, 10118]}, "edge": {"target": [], "time": []}}, "mouseover": {"state": {"target": ["10", "8", "9", "11", "27", "29", "33", "30", "31"], "time": [2207, 2248, 2704, 3880, 4063, 4331, 7062, 9026, 9443]}, "edge": {"target": [], "time": []}}, "mouseout": {"state": {"target": ["31", "30", "24", "1", "12", "0", "10", "8", "9", "11", "27", "29", "33", "30", "31"], "time": [321, 438, 487, 536, 770, 2197, 2231, 2321, 3864, 3998, 4130, 6962, 9009, 9042, 10734]}, "edge": {"target": [], "time": []}}}, "displayed_time": "16.39", "trialTime": 18587, "trial_type": "mouselab-mdp", "trial_index": 16, "time_elapsed": 431106, "internal_node_id": "0.0-4.0-1.0-1.0"}}, {"uniqueid": "w20419254:a86043157", "current_trial": 17, "dateTime": 1691160051819, "trialdata": {"revealed_states": [], "clicked_states": ["12", "13", "14", "19", "22"], "num_clicks_accrued": [0, 0, 0, 0, 0, 0, 0, 0, 0, 0, 0, 0, 0], "stateRewards": ["", -2, -4, -2, 10, -8, -15, -47, 7, -84, 53, 5, -1, 2, -7, 3, 83, 31, 47, -1, 30, -8, 69, 2, -4, -1, 8, -7, 12, -8, -8, -13, 30, -84], "withholdReward": false, "trial_id": "mdp_trial_3", "block": "test", "trialIndex": 6, "score": 23.25, "costs": -4.75, "simulationMode": [null, null, null, null, null, null], "rewards": [-1, 2, -7, 3, 31], "path": ["0", "0", "12", "13", "14", "15", "17"], "rt": [9340, 598, 91, 91, 50, 94], "actions": ["right", "right", "right", "right", "up", "right"], "actionTimes": [10773, 11375, 11996, 12613, 13188, 13813], "queries": {"click": {"state": {"target": ["12", "13", "14", "19", "22"], "time": [2409, 4966, 6634, 7835, 8897]}, "edge": {"target": [], "time": []}}, "mouseover": {"state": {"target": ["0", "12", "13", "14", "19", "22"], "time": [1734, 2000, 4515, 6181, 7408, 8440]}, "edge": {"target": [], "time": []}}, "mouseout": {"state": {"target": ["0", "0", "12", "13", "14", "19", "22"], "time": [863, 1748, 4366, 5857, 7290, 7844, 9521]}, "edge": {"target": [], "time": []}}}, "displayed_time": "15.44", "trialTime": 17032, "trial_type": "mouselab-mdp", "trial_index": 17, "time_elapsed": 448453, "internal_node_id": "0.0-4.0-1.0-2.0"}}, {"uniqueid": "w20419254:a86043157", "current_trial": 18, "dateTime": 1691160070713, "trialdata": {"revealed_states": [], "clicked_states": ["1", "2", "7", "10"], "num_clicks_accrued": [0, 0, 0, 0, 0, 0, 0, 0, 0, 0, 0, 0, 0], "stateRewards": ["", -2, 1, -5, 2, -68, 80, 33, 10, 67, -59, 20, -1, -3, 3, 14, 74, -2, 24, -16, 63, 80, 46, -1, 4, 6, 12, 83, -38, -43, -4, 43, 14, -79], "withholdReward": false, "trial_id": "mdp_trial_4", "block": "test", "trialIndex": 7, "score": -76.4, "costs": -4.4, "simulationMode": [null, null, null, null, null, null], "rewards": [-2, 1, -5, 2, -68], "path": ["0", "0", "1", "2", "3", "4", "5"], "rt": [9397, 546, 82, 53, 203, 345], "actions": ["up", "up", "up", "up", "right", "up"], "actionTimes": [11331, 11881, 12494, 13080, 13811, 14671], "queries": {"click": {"state": {"target": ["1", "2", "7", "10"], "time": [3144, 5396, 6982, 9766]}, "edge": {"target": [], "time": []}}, "mouseover": {"state": {"target": ["1", "2", "2", "7", "10", "18"], "time": [2638, 4381, 4755, 6617, 7478, 10400]}, "edge": {"target": [], "time": []}}, "mouseout": {"state": {"target": ["0", "1", "2", "2", "7", "2", "10", "18", "0"], "time": [2428, 4371, 4432, 6312, 7361, 7394, 10326, 15827, 16060]}, "edge": {"target": [], "time": []}}}, "displayed_time": "15.94", "trialTime": 18578, "trial_type": "mouselab-mdp", "trial_index": 18, "time_elapsed": 467346, "internal_node_id": "0.0-4.0-1.0-3.0"}}, {"uniqueid": "w20419254:a86043157", "current_trial": 19, "dateTime": 1691160108401, "trialdata": {"revealed_states": [], "clicked_states": ["23", "31", "33", "29", "28", "27", "24", "32", "21"], "num_clicks_accrued": [0, 0, 0, 0, 0, 0, 0, 0, 0, 0, 0, 0, 0], "stateRewards": ["", -2, -3, -7, 7, -54, -69, -4, -14, -77, 22, 40, -2, -1, 5, 6, -35, 50, -60, 10, -28, 75, 57, 1, -4, -2, 2, 68, 34, -18, 12, 3, -21, -43], "withholdReward": false, "trial_id": "mdp_trial_5", "block": "test", "trialIndex": 8, "score": -29.15, "costs": -15.15, "simulationMode": [null, null, null, null, null, null], "rewards": [1, -4, -2, 12, -21], "path": ["0", "0", "23", "24", "25", "30", "32"], "rt": [26654, 2471, 296, 1166, 181, 116], "actions": ["right", "left", "left", "left", "down", "down"], "actionTimes": [29151, 31626, 32437, 34124, 34820, 35452], "queries": {"click": {"state": {"target": ["23", "31", "33", "29", "28", "27", "24", "32", "21"], "time": [3579, 6388, 9729, 13068, 16233, 19008, 22017, 23669, 26914]}, "edge": {"target": [], "time": []}}, "mouseover": {"state": {"target": ["23", "0", "12", "24", "31", "30", "33", "33", "29", "29", "26", "28", "27", "24", "25", "30", "32", "19", "19", "13", "19", "21", "21", "12"], "time": [3105, 4315, 4499, 4969, 5435, 6977, 7128, 9175, 10827, 11074, 13605, 14023, 16868, 20184, 22796, 22952, 23183, 24361, 24577, 24727, 24879, 24914, 25278, 30279]}, "edge": {"target": [], "time": []}}, "mouseout": {"state": {"target": ["1", "23", "12", "0", "23", "0", "12", "24", "31", "30", "33", "33", "29", "29", "26", "28", "27", "28", "24", "25", "30", "32", "19", "19", "13", "19", "21", "21", "12"], "time": [1204, 1436, 1703, 2996, 4217, 4347, 4771, 5385, 6963, 6993, 9041, 10559, 10926, 13572, 13754, 16834, 19716, 19983, 22730, 22913, 23065, 24278, 24394, 24594, 24845, 24910, 25094, 29962, 30293]}, "edge": {"target": [], "time": []}}}, "displayed_time": "35.97", "trialTime": 37333, "trial_type": "mouselab-mdp", "trial_index": 19, "time_elapsed": 505034, "internal_node_id": "0.0-4.0-1.0-4.0"}}, {"uniqueid": "w20419254:a86043157", "current_trial": 20, "dateTime": 1691160142792, "trialdata": {"revealed_states": [], "clicked_states": ["3", "9", "23", "12", "1", "2", "13", "24", "22", "20", "21"], "num_clicks_accrued": [0, 0, 0, 0, 0, 0, 0, 0, 0, 0, 0, 0, 0], "stateRewards": ["", -2, 3, 8, -9, 59, 41, -50, -1, 82, 66, 33, 2, -2, 7, 8, 1, -38, 12, -16, 24, -37, 67, 1, 4, -2, 5, 35, -83, 28, 8, -27, 69, -64], "withholdReward": false, "trial_id": "mdp_trial_6", "block": "test", "trialIndex": 9, "score": -32.85, "costs": -9.85, "simulationMode": [null, null, null, null, null], "rewards": [2, -2, 7, 8, -38], "path": ["0", "0", "12", "13", "14", "15", "17"], "rt": [25515, 637, 53, 44, 47], "actions": ["right", "right", "right", "up", "right"], "actionTimes": [29142, 30298, 30862, 31435, 32009], "queries": {"click": {"state": {"target": ["3", "9", "23", "12", "1", "2", "13", "24", "22", "20", "21"], "time": [5114, 6456, 9636, 11557, 12849, 14112, 15789, 17123, 18365, 21201, 25784]}, "edge": {"target": [], "time": []}}, "mouseover": {"state": {"target": ["1", "3", "9", "5", "1", "23", "31", "32", "30", "24", "23", "24", "0", "12", "12", "1", "1", "2", "12", "13", "12", "23", "24", "24", "22", "20", "14", "12", "0", "21", "21", "0"], "time": [4116, 4385, 5850, 6981, 7145, 7165, 7182, 7250, 7446, 7496, 7845, 10495, 10774, 10898, 11114, 12057, 12390, 13606, 14855, 15194, 16258, 16274, 16303, 16637, 17737, 19634, 21748, 22514, 22782, 22897, 23482, 27994]}, "edge": {"target": [], "time": []}}, "mouseout": {"state": {"target": ["23", "0", "0", "1", "3", "9", "5", "1", "23", "31", "32", "30", "24", "23", "24", "23", "0", "12", "12", "1", "1", "2", "12", "13", "12", "23", "24", "24", "22", "20", "14", "12", "0", "21", "21", "0"], "time": [2151, 2771, 4102, 4147, 5781, 6930, 7112, 7161, 7178, 7213, 7411, 7462, 7511, 10344, 10731, 10765, 10792, 10948, 12041, 12090, 13506, 14822, 14889, 16254, 16270, 16287, 16357, 17636, 19000, 21715, 22464, 22549, 22864, 23080, 26744, 28294]}, "edge": {"target": [], "time": []}}}, "displayed_time": "32.54", "trialTime": 34044, "trial_type": "mouselab-mdp", "trial_index": 20, "time_elapsed": 539424, "internal_node_id": "0.0-4.0-1.0-5.0"}}, {"uniqueid": "w20419254:a86043157", "current_trial": 21, "dateTime": 1691160190781, "trialdata": {"revealed_states": [], "clicked_states": ["5", "9", "27", "29", "33", "32", "31", "28", "10", "7", "6", "11"], "num_clicks_accrued": [0, 0, 0, 0, 0, 0, 0, 0, 0, 0, 0, 0, 0], "stateRewards": ["", -2, -3, -3, 9, 79, 67, 22, -15, -56, 27, -85, -2, 4, -4, -15, -20, -32, 60, 15, 71, 57, 17, 1, 2, -8, 15, -37, -81, 82, 15, 21, -3, 2], "withholdReward": false, "trial_id": "mdp_trial_7", "block": "test", "trialIndex": 10, "score": 42.2, "costs": -25.799999999999994, "simulationMode": [null, null, null, null, null], "rewards": [-2, -3, -3, 9, 67], "path": ["0", "0", "1", "2", "3", "4", "6"], "rt": [40741, 555, 79, 92, 50], "actions": ["up", "up", "up", "right", "right"], "actionTimes": [42656, 43734, 44327, 44937, 45495], "queries": {"click": {"state": {"target": ["5", "9", "27", "29", "33", "32", "31", "28", "10", "7", "6", "11"], "time": [4038, 7022, 10167, 13805, 16718, 19509, 22465, 25577, 28657, 31651, 34725, 38012]}, "edge": {"target": [], "time": []}}, "mouseover": {"state": {"target": ["1", "2", "3", "5", "5", "9", "27", "29", "29", "33", "32", "31", "24", "28", "10", "2", "7", "7", "6", "3", "11", "11"], "time": [2168, 2215, 2286, 2821, 3705, 4796, 7628, 10691, 10974, 14722, 17485, 20164, 22912, 22946, 26294, 29259, 29277, 29939, 32288, 35218, 35369, 35817]}, "edge": {"target": [], "time": []}}, "mouseout": {"state": {"target": ["23", "18", "23", "0", "1", "2", "3", "5", "5", "9", "27", "29", "29", "33", "32", "31", "24", "28", "10", "2", "7", "7", "6", "3", "11", "11", "12"], "time": [239, 404, 954, 1003, 2201, 2250, 2354, 2870, 4448, 7530, 10560, 10774, 14639, 17234, 20131, 22896, 22929, 26193, 29091, 29274, 29290, 32223, 35189, 35234, 35485, 38652, 46835]}, "edge": {"target": [], "time": []}}}, "displayed_time": "46.03", "trialTime": 47665, "trial_type": "mouselab-mdp", "trial_index": 21, "time_elapsed": 587414, "internal_node_id": "0.0-4.0-1.0-6.0"}}, {"uniqueid": "w20419254:a86043157", "current_trial": 22, "dateTime": 1691160212806, "trialdata": {"revealed_states": [], "clicked_states": ["12", "23", "1", "2", "3", "4", "6"], "num_clicks_accrued": [0, 0, 0, 0, 0, 0, 0, 0, 0, 0, 0, 0, 0], "stateRewards": ["", -1, 3, 1, -11, -22, -36, 19, -5, -70, -52, 50, -2, -4, 4, -2, -41, -83, 29, -2, 22, 10, -6, -2, 3, -2, 14, 54, 44, 77, -9, -65, -37, -40], "withholdReward": false, "trial_id": "mdp_trial_8", "block": "test", "trialIndex": 11, "score": -58.25, "costs": -4.25, "simulationMode": [null, null, null, null, null, null], "rewards": [-1, 3, 1, -5, -52], "path": ["0", "0", "1", "2", "3", "8", "10"], "rt": [12292, 507, 377, 83, 258, 31], "actions": ["up", "up", "up", "up", "left", "down"], "actionTimes": [16281, 16792, 17705, 18309, 19082, 19623], "queries": {"click": {"state": {"target": ["12", "23", "1", "2", "3", "4", "6"], "time": [4679, 6448, 7833, 10580, 12823, 13851, 14828]}, "edge": {"target": [], "time": []}}, "mouseover": {"state": {"target": ["12", "13", "23", "23", "1", "1", "2", "3", "4", "6", "7"], "time": [4236, 5435, 5682, 6035, 7181, 7538, 9752, 11796, 13325, 14309, 15425]}, "edge": {"target": [], "time": []}}, "mouseout": {"state": {"target": ["12", "22", "0", "12", "13", "23", "23", "1", "1", "1", "2", "3", "4", "6", "7", "1"], "time": [341, 425, 858, 5284, 5653, 5756, 7165, 7197, 8514, 9438, 11361, 13292, 14259, 15224, 20990, 21019]}, "edge": {"target": [], "time": []}}}, "displayed_time": "20.14", "trialTime": 21672, "trial_type": "mouselab-mdp", "trial_index": 22, "time_elapsed": 609439, "internal_node_id": "0.0-4.0-1.0-7.0"}}, {"uniqueid": "w20419254:a86043157", "current_trial": 23, "dateTime": 1691160232160, "trialdata": {"revealed_states": [], "clicked_states": ["12", "23", "1", "13", "21"], "num_clicks_accrued": [0, 0, 0, 0, 0, 0, 0, 0, 0, 0, 0, 0, 0], "stateRewards": ["", -1, 3, 2, 9, 41, 4, -46, -12, -54, -87, -25, 2, 3, -1, 11, -77, 12, -33, -9, -32, 35, 72, 1, 3, -7, 4, 37, 65, -73, 6, 77, -43, 8], "withholdReward": false, "trial_id": "mdp_trial_9", "block": "test", "trialIndex": 12, "score": 28.25, "costs": -1.75, "simulationMode": [null, null, null, null, null], "rewards": [2, 3, -1, -9, 35], "path": ["0", "0", "12", "13", "14", "19", "21"], "rt": [10905, 340, 6, 308, 512], "actions": ["right", "right", "right", "down", "down"], "actionTimes": [13879, 14731, 15261, 16096, 17133], "queries": {"click": {"state": {"target": ["12", "23", "1", "13", "21"], "time": [3672, 4719, 5721, 7753, 9135]}, "edge": {"target": [], "time": []}}, "mouseover": {"state": {"target": ["12", "0", "23", "1", "1", "13", "19", "21", "21", "22"], "time": [3312, 4029, 4445, 5062, 5361, 7000, 8393, 8459, 8814, 9990]}, "edge": {"target": [], "time": []}}, "mouseout": {"state": {"target": ["0", "0", "12", "0", "23", "1", "1", "12", "13", "19", "21", "21", "22"], "time": [1819, 3214, 4014, 4096, 5031, 5129, 6129, 6426, 8142, 8443, 8491, 9658, 13090]}, "edge": {"target": [], "time": []}}}, "displayed_time": "17.65", "trialTime": 19009, "trial_type": "mouselab-mdp", "trial_index": 23, "time_elapsed": 628794, "internal_node_id": "0.0-4.0-1.0-8.0"}}, {"uniqueid": "w20419254:a86043157", "current_trial": 24, "dateTime": 1691160251793, "trialdata": {"revealed_states": [], "clicked_states": ["12", "23", "1"], "num_clicks_accrued": [0, 0, 0, 0, 0, 0, 0, 0, 0, 0, 0, 0, 0], "stateRewards": ["", -2, 1, -7, 9, 8, 25, 61, -7, -17, 69, -81, 1, 4, -4, -11, 16, 67, 44, 3, 6, -45, -54, -2, 3, 6, -11, -15, 32, -47, 3, -39, -6, -88], "withholdReward": false, "trial_id": "mdp_trial_10", "block": "test", "trialIndex": 13, "score": 6.75, "costs": 0.75, "simulationMode": [null, null, null, null, null], "rewards": [1, 4, -4, -11, 16], "path": ["0", "0", "12", "13", "14", "15", "16"], "rt": [12085, 496, 149, 101, 619], "actions": ["right", "right", "right", "up", "up"], "actionTimes": [13952, 14966, 15636, 16253, 17404], "queries": {"click": {"state": {"target": ["12", "23", "1"], "time": [3976, 5042, 6608]}, "edge": {"target": [], "time": []}}, "mouseover": {"state": {"target": ["23", "12", "12", "0", "23", "1", "13", "14", "14"], "time": [2960, 3227, 3564, 4442, 4691, 6229, 7712, 9360, 11590]}, "edge": {"target": [], "time": []}}, "mouseout": {"state": {"target": ["23", "0", "23", "12", "12", "0", "23", "1", "13", "14", "14"], "time": [1132, 2934, 3215, 3242, 4396, 4475, 5759, 6650, 9311, 11389, 13140]}, "edge": {"target": [], "time": []}}}, "displayed_time": "17.92", "trialTime": 19289, "trial_type": "mouselab-mdp", "trial_index": 24, "time_elapsed": 648426, "internal_node_id": "0.0-4.0-1.0-9.0"}}, {"uniqueid": "w20419254:a86043157", "current_trial": 25, "dateTime": 1691160274715, "trialdata": {"revealed_states": [], "clicked_states": ["12", "23", "14", "1", "17", "16", "20"], "num_clicks_accrued": [0, 0, 0, 0, 0, 0, 0, 0, 0, 0, 0, 0, 0], "stateRewards": ["", 1, 2, -3, -5, 66, -50, -47, -5, 1, 28, -27, 1, 1, -1, -6, 37, -25, 56, 1, -82, -66, -40, -1, -4, -7, 15, -61, -23, 26, 10, 14, -56, 29], "withholdReward": false, "trial_id": "mdp_trial_11", "block": "test", "trialIndex": 14, "score": 25.35, "costs": -6.65, "simulationMode": [null, null, null, null, null], "rewards": [1, 1, -1, -6, 37], "path": ["0", "0", "12", "13", "14", "15", "16"], "rt": [16802, 91, 75, 30, 40], "actions": ["right", "right", "right", "up", "up"], "actionTimes": [18387, 18997, 19595, 20135, 20694], "queries": {"click": {"state": {"target": ["12", "23", "14", "1", "17", "16", "20"], "time": [2241, 3605, 4976, 6439, 9293, 12324, 15525]}, "edge": {"target": [], "time": []}}, "mouseover": {"state": {"target": ["12", "0", "23", "14", "1", "17", "16", "16", "15", "19", "20"], "time": [1854, 2898, 3285, 4315, 5865, 8584, 10409, 11160, 13007, 13223, 13857]}, "edge": {"target": [], "time": []}}, "mouseout": {"state": {"target": ["2", "1", "0", "0", "12", "0", "23", "14", "1", "14", "17", "16", "16", "15", "19", "20", "22"], "time": [472, 589, 601, 1804, 2872, 2999, 3983, 5535, 6999, 7666, 10145, 10613, 12991, 13023, 13558, 16172, 21889]}, "edge": {"target": [], "time": []}}}, "displayed_time": "21.20", "trialTime": 22569, "trial_type": "mouselab-mdp", "trial_index": 25, "time_elapsed": 671348, "internal_node_id": "0.0-4.0-1.0-10.0"}}, {"uniqueid": "w20419254:a86043157", "current_trial": 26, "dateTime": 1691160291964, "trialdata": {"revealed_states": [], "clicked_states": ["1", "2", "3", "4", "6"], "num_clicks_accrued": [0, 0, 0, 0, 0, 0, 0, 0, 0, 0, 0, 0, 0], "stateRewards": ["", 2, 3, 8, 14, 69, -27, 17, 2, -71, -65, -10, 2, -3, 7, 8, 65, -10, 65, -12, 73, -12, 13, -2, -2, 6, 10, -79, -69, -18, 10, -85, 67, 74], "withholdReward": false, "trial_id": "mdp_trial_12", "block": "test", "trialIndex": 15, "score": 91.25, "costs": -4.75, "simulationMode": [null, null, null, null, null], "rewards": [2, 3, 8, 14, 69], "path": ["0", "0", "1", "2", "3", "4", "5"], "rt": [9413, 446, 109, 168, 137], "actions": ["up", "up", "up", "right", "up"], "actionTimes": [10844, 11800, 12427, 13122, 13774], "queries": {"click": {"state": {"target": ["1", "2", "3", "4", "6"], "time": [2176, 3840, 5439, 6401, 7449]}, "edge": {"target": [], "time": []}}, "mouseover": {"state": {"target": ["1", "2", "3", "4", "6"], "time": [1734, 3299, 4741, 5912, 7107]}, "edge": {"target": [], "time": []}}, "mouseout": {"state": {"target": ["1", "1", "2", "3", "3", "4", "6", "12"], "time": [516, 2609, 4361, 5514, 5908, 7024, 7771, 14815]}, "edge": {"target": [], "time": []}}}, "displayed_time": "15.44", "trialTime": 16898, "trial_type": "mouselab-mdp", "trial_index": 26, "time_elapsed": 688596, "internal_node_id": "0.0-4.0-1.0-11.0"}}, {"uniqueid": "w20419254:a86043157", "current_trial": 27, "dateTime": 1691160309128, "trialdata": {"revealed_states": [], "clicked_states": ["23", "24", "25"], "num_clicks_accrued": [0, 0, 0, 0, 0, 0, 0, 0, 0, 0, 0, 0, 0], "stateRewards": ["", 2, 2, 3, -15, 23, -14, 73, -7, -32, -20, -6, 1, 1, -5, -12, 73, 6, -84, 11, -81, -57, 13, -2, -1, -4, -8, -52, -58, 49, 13, 5, -41, -41], "withholdReward": false, "trial_id": "mdp_trial_13", "block": "test", "trialIndex": 16, "score": 56.95, "costs": -1.0499999999999998, "simulationMode": [null, null, null, null, null], "rewards": [1, 1, -5, -12, 73], "path": ["0", "0", "12", "13", "14", "15", "16"], "rt": [8315, 294, 100, 126, 30], "actions": ["right", "right", "right", "up", "up"], "actionTimes": [9808, 10614, 11239, 11878, 12430], "queries": {"click": {"state": {"target": ["23", "24", "25"], "time": [2399, 4174, 5754]}, "edge": {"target": [], "time": []}}, "mouseover": {"state": {"target": ["23", "24", "25", "12"], "time": [1976, 2992, 4845, 6639]}, "edge": {"target": [], "time": []}}, "mouseout": {"state": {"target": ["23", "24", "25", "12"], "time": [2877, 4755, 6304, 13113]}, "edge": {"target": [], "time": []}}}, "displayed_time": "15.50", "trialTime": 16793, "trial_type": "mouselab-mdp", "trial_index": 27, "time_elapsed": 705761, "internal_node_id": "0.0-4.0-1.0-12.0"}}, {"uniqueid": "w20419254:a86043157", "current_trial": 28, "dateTime": 1691160328957, "trialdata": {"revealed_states": [], "clicked_states": ["1", "2", "12", "13", "14", "15", "19", "20"], "num_clicks_accrued": [0, 0, 0, 0, 0, 0, 0, 0, 0, 0, 0, 0, 0], "stateRewards": ["", 1, -3, 4, 13, -72, 52, 5, 5, -58, 5, 14, 2, 1, 3, -14, -86, -4, 73, 6, -58, -50, 49, 2, -3, -4, 2, 33, -41, 42, -11, 81, 45, 53], "withholdReward": false, "trial_id": "mdp_trial_14", "block": "test", "trialIndex": 17, "score": -44.4, "costs": -6.4, "simulationMode": [null, null, null, null, null], "rewards": [2, 1, 3, 6, -50], "path": ["0", "0", "12", "13", "14", "19", "21"], "rt": [13841, 453, 54, 94, 44], "actions": ["right", "right", "right", "down", "down"], "actionTimes": [15151, 16119, 16685, 17308, 17873], "queries": {"click": {"state": {"target": ["1", "2", "12", "13", "14", "15", "19", "20"], "time": [2164, 3467, 5659, 6986, 7846, 9100, 10211, 11579]}, "edge": {"target": [], "time": []}}, "mouseover": {"state": {"target": ["1", "2", "2", "0", "12", "13", "14", "15", "19", "20"], "time": [1746, 2743, 3057, 4404, 4911, 6670, 7502, 8751, 9866, 11233]}, "edge": {"target": [], "time": []}}, "mouseout": {"state": {"target": ["0", "1", "2", "2", "0", "12", "13", "14", "15", "14", "19", "19", "20"], "time": [811, 2739, 2772, 4355, 4488, 6505, 7043, 8450, 9599, 9750, 10275, 10800, 11914]}, "edge": {"target": [], "time": []}}}, "displayed_time": "18.41", "trialTime": 19471, "trial_type": "mouselab-mdp", "trial_index": 28, "time_elapsed": 725589, "internal_node_id": "0.0-4.0-1.0-13.0"}}, {"uniqueid": "w20419254:a86043157", "current_trial": 29, "dateTime": 1691160348780, "trialdata": {"revealed_states": [], "clicked_states": ["23", "12", "13", "14", "1"], "num_clicks_accrued": [0, 0, 0, 0, 0, 0, 0, 0, 0, 0, 0, 0, 0], "stateRewards": ["", -1, 4, 3, 12, -27, 34, -33, 3, -63, 1, 6, 2, 2, -6, -11, -77, -85, 68, -6, 51, 81, -60, -2, -2, 1, 15, 20, 15, 68, -10, -14, 6, -4], "withholdReward": false, "trial_id": "mdp_trial_15", "block": "test", "trialIndex": 18, "score": 54.45, "costs": -0.5499999999999999, "simulationMode": [null, null, null, null, null], "rewards": [2, 2, -6, -11, 68], "path": ["0", "0", "12", "13", "14", "15", "18"], "rt": [11305, 463, 37, 21, 110], "actions": ["right", "right", "right", "up", "left"], "actionTimes": [14701, 15674, 16230, 16763, 17404], "queries": {"click": {"state": {"target": ["23", "12", "13", "14", "1"], "time": [4863, 6718, 7877, 9013, 10654]}, "edge": {"target": [], "time": []}}, "mouseover": {"state": {"target": ["23", "0", "12", "13", "12", "13", "14", "14", "2", "1", "24", "13", "15", "15"], "time": [4356, 5553, 5570, 5599, 6436, 7330, 8279, 8614, 10101, 10351, 11614, 11816, 13415, 13763]}, "edge": {"target": [], "time": []}}, "mouseout": {"state": {"target": ["23", "1", "0", "23", "23", "0", "12", "13", "12", "13", "14", "14", "2", "1", "1", "24", "13", "14", "15", "15"], "time": [914, 2771, 3891, 5351, 5550, 5566, 5582, 5883, 7248, 7961, 8316, 9529, 10267, 11027, 11277, 11749, 11828, 12166, 13427, 18475]}, "edge": {"target": [], "time": []}}}, "displayed_time": "17.93", "trialTime": 19458, "trial_type": "mouselab-mdp", "trial_index": 29, "time_elapsed": 745413, "internal_node_id": "0.0-4.0-1.0-14.0"}}, {"uniqueid": "w20419254:a86043157", "current_trial": 30, "dateTime": 1691160376766, "trialdata": {"revealed_states": [], "clicked_states": ["12", "23", "1", "2", "3", "7", "4", "5"], "num_clicks_accrued": [0, 0, 0, 0, 0, 0, 0, 0, 0, 0, 0, 0, 0], "stateRewards": ["", -1, 2, -6, 6, 43, 78, 78, -2, 55, -29, -17, -2, -4, 1, -15, 13, 7, -79, 8, -28, -68, 36, -1, -3, 3, -16, 84, -18, 87, 10, 32, 13, -81], "withholdReward": false, "trial_id": "mdp_trial_16", "block": "test", "trialIndex": 19, "score": 37.6, "costs": -6.4, "simulationMode": [null, null, null, null, null], "rewards": [-1, 2, -6, 6, 43], "path": ["0", "0", "1", "2", "3", "4", "5"], "rt": [15562, 62, 1872, 60, 530], "actions": ["up", "up", "up", "right", "up"], "actionTimes": [21372, 21950, 24359, 24928, 25980], "queries": {"click": {"state": {"target": ["12", "23", "1", "2", "3", "7", "4", "5"], "time": [6711, 7905, 8977, 11439, 12712, 13992, 16879, 18263]}, "edge": {"target": [], "time": []}}, "mouseover": {"state": {"target": ["12", "12", "23", "1", "22", "13", "10", "2", "3", "4", "7", "7", "4", "5"], "time": [6033, 6288, 7280, 8546, 9712, 9944, 10434, 11116, 12428, 13141, 13329, 13659, 14491, 17871]}, "edge": {"target": [], "time": []}}, "mouseout": {"state": {"target": ["0", "12", "0", "0", "12", "0", "12", "12", "23", "1", "12", "22", "13", "10", "2", "3", "4", "7", "7", "4", "5"], "time": [408, 594, 640, 1074, 1506, 6003, 6138, 7264, 8297, 9612, 9647, 9912, 10384, 10782, 12127, 13108, 13325, 13341, 14390, 17554, 18754]}, "edge": {"target": [], "time": []}}}, "displayed_time": "26.50", "trialTime": 27629, "trial_type": "mouselab-mdp", "trial_index": 30, "time_elapsed": 773399, "internal_node_id": "0.0-4.0-1.0-15.0"}}, {"uniqueid": "w20419254:a86043157", "current_trial": 31, "dateTime": 1691160410627, "trialdata": {"revealed_states": [], "clicked_states": ["1", "12", "23", "24", "13", "14", "2", "3", "4", "8", "10", "9", "11"], "num_clicks_accrued": [0, 0, 0, 0, 0, 0, 0, 0, 0, 0, 0, 0, 0], "stateRewards": ["", -2, -3, 1, -14, 48, -49, 67, -1, -35, -48, 3, -2, 1, -4, -5, 86, -84, 39, 1, 48, 41, -42, -1, -4, 2, -7, 18, -86, 17, 7, -9, 57, -69], "withholdReward": false, "trial_id": "mdp_trial_17", "block": "test", "trialIndex": 20, "score": -13.75, "costs": -11.75, "simulationMode": [null, null, null, null, null], "rewards": [-2, -3, 1, -1, 3], "path": ["0", "0", "1", "2", "3", "8", "11"], "rt": [26800, 316, 142, 242, 204], "actions": ["up", "up", "up", "left", "left"], "actionTimes": [28223, 29056, 29718, 30481, 31208], "queries": {"click": {"state": {"target": ["1", "12", "23", "24", "13", "14", "2", "3", "4", "8", "10", "9", "11"], "time": [2847, 3918, 4910, 6848, 8487, 9499, 10822, 12898, 13648, 14905, 16048, 20600, 23827]}, "edge": {"target": [], "time": []}}, "mouseover": {"state": {"target": ["1", "12", "23", "28", "24", "14", "13", "14", "19", "2", "3", "22", "18", "7", "3", "4", "11", "8", "10", "3", "2", "2", "3", "9", "11", "10", "3", "3"], "time": [2215, 3511, 4342, 6147, 6543, 7948, 8228, 9162, 9937, 10537, 11586, 11926, 12390, 12423, 12451, 13368, 14183, 14616, 15815, 16797, 17080, 17614, 17997, 20234, 21310, 24359, 26439, 27177]}, "edge": {"target": [], "time": []}}, "mouseout": {"state": {"target": ["0", "1", "12", "23", "28", "24", "24", "24", "14", "13", "14", "19", "2", "3", "2", "22", "14", "18", "7", "3", "4", "11", "8", "10", "3", "2", "2", "3", "9", "11", "10", "3", "3", "16", "18"], "time": [1937, 3294, 4261, 5260, 6427, 6883, 7390, 7672, 7977, 9141, 9921, 10170, 11274, 11602, 11618, 11952, 12139, 12420, 12435, 13334, 14134, 14483, 15282, 16448, 17063, 17265, 17798, 18013, 20636, 24292, 24442, 26809, 32242, 32404, 32572]}, "edge": {"target": [], "time": []}}}, "displayed_time": "31.72", "trialTime": 33492, "trial_type": "mouselab-mdp", "trial_index": 31, "time_elapsed": 807259, "internal_node_id": "0.0-4.0-1.0-16.0"}}, {"uniqueid": "w20419254:a86043157", "current_trial": 32, "dateTime": 1691160433902, "trialdata": {"revealed_states": [], "clicked_states": ["12", "1", "23", "2", "3", "7", "4", "8", "11"], "num_clicks_accrued": [0, 0, 0, 0, 0, 0, 0, 0, 0, 0, 0, 0, 0], "stateRewards": ["", -1, 3, -4, -14, 78, 67, 2, 13, -32, 28, 39, -2, 1, -4, -4, -4, -42, -86, 11, 64, -29, -32, -1, -4, 2, -7, 5, 68, -61, 2, -21, 85, 50], "withholdReward": false, "trial_id": "mdp_trial_18", "block": "test", "trialIndex": 21, "score": 42.05, "costs": -7.949999999999999, "simulationMode": [null, null, null, null, null], "rewards": [-1, 3, -4, 13, 39], "path": ["0", "0", "1", "2", "3", "8", "11"], "rt": [17308, 269, 31, 122, 5], "actions": ["up", "up", "up", "left", "left"], "actionTimes": [18606, 19397, 19942, 20583, 21099], "queries": {"click": {"state": {"target": ["12", "1", "23", "2", "3", "7", "4", "8", "11"], "time": [2532, 3547, 4507, 5783, 6715, 8019, 11500, 13085, 14850]}, "edge": {"target": [], "time": []}}, "mouseover": {"state": {"target": ["12", "1", "23", "2", "2", "3", "7", "4", "6", "3", "8", "8", "11", "10", "10", "8"], "time": [1915, 3025, 4173, 4989, 5322, 6322, 7487, 8536, 12184, 12520, 12638, 12869, 14320, 15246, 16745, 17012]}, "edge": {"target": [], "time": []}}, "mouseout": {"state": {"target": ["0", "12", "1", "23", "2", "2", "3", "7", "4", "6", "4", "3", "8", "8", "11", "10", "10", "8", "11", "11", "8"], "time": [1668, 2857, 3890, 4582, 5025, 5829, 7287, 8386, 12016, 12499, 12516, 12532, 12665, 13483, 15213, 15279, 16879, 17034, 17560, 18049, 22277]}, "edge": {"target": [], "time": []}}}, "displayed_time": "21.63", "trialTime": 22896, "trial_type": "mouselab-mdp", "trial_index": 32, "time_elapsed": 830535, "internal_node_id": "0.0-4.0-1.0-17.0"}}, {"uniqueid": "w20419254:a86043157", "current_trial": 33, "dateTime": 1691160456744, "trialdata": {"revealed_states": [], "clicked_states": ["12", "23", "1", "21", "16", "32"], "num_clicks_accrued": [0, 0, 0, 0, 0, 0, 0, 0, 0, 0, 0, 0, 0], "stateRewards": ["", -1, -3, -7, -7, -76, 30, -49, 11, -70, 56, 2, 1, 4, -3, -14, -59, -83, -25, -9, -21, -67, -73, -2, 4, 4, -9, -11, -32, 60, 9, -87, 22, -64], "withholdReward": false, "trial_id": "mdp_trial_19", "block": "test", "trialIndex": 22, "score": 31.3, "costs": -5.699999999999999, "simulationMode": [null, null, null, null, null], "rewards": [-2, 4, 4, 9, 22], "path": ["0", "0", "23", "24", "25", "30", "32"], "rt": [17021, 347, 104, 71, 11], "actions": ["left", "left", "left", "down", "down"], "actionTimes": [18393, 19251, 19874, 20458, 20980], "queries": {"click": {"state": {"target": ["12", "23", "1", "21", "16", "32"], "time": [1910, 2711, 3754, 5346, 10094, 14548]}, "edge": {"target": [], "time": []}}, "mouseover": {"state": {"target": ["12", "0", "23", "1", "1", "13", "19", "19", "21", "19", "14", "15", "16", "15", "19", "15", "16", "13", "12", "0", "23", "33", "33", "32", "32", "31"], "time": [1492, 2183, 2350, 3015, 3348, 4130, 4463, 4838, 5053, 5846, 6166, 6184, 6562, 8544, 8593, 9682, 9898, 13509, 13538, 13572, 13591, 13679, 13925, 13941, 14277, 15820]}, "edge": {"target": [], "time": []}}, "mouseout": {"state": {"target": ["12", "0", "23", "1", "1", "13", "19", "19", "21", "19", "14", "15", "16", "15", "19", "21", "15", "16", "13", "12", "0", "23", "33", "33", "32", "32", "31", "32"], "time": [2166, 2200, 2768, 3049, 4098, 4148, 4481, 4867, 5388, 6163, 6180, 6198, 8517, 8577, 8628, 8643, 9800, 11574, 13522, 13555, 13588, 13605, 13693, 13938, 13971, 15541, 17236, 21851]}, "edge": {"target": [], "time": []}}}, "displayed_time": "21.52", "trialTime": 22451, "trial_type": "mouselab-mdp", "trial_index": 33, "time_elapsed": 853376, "internal_node_id": "0.0-4.0-1.0-18.0"}}, {"uniqueid": "w20419254:a86043157", "current_trial": 34, "dateTime": 1691160473635, "trialdata": {"revealed_states": [], "clicked_states": ["25", "29", "23", "1", "12"], "num_clicks_accrued": [0, 0, 0, 0, 0, 0, 0, 0, 0, 0, 0, 0, 0], "stateRewards": ["", -2, -3, 8, 14, -73, 73, 84, -12, -2, -50, -17, 2, 1, -2, -9, -44, -27, -33, 16, -63, -47, -66, -2, 1, 4, -5, -33, -11, 50, 9, 38, -79, 31], "withholdReward": false, "trial_id": "mdp_trial_20", "block": "test", "trialIndex": 23, "score": 45.65, "costs": -2.3499999999999996, "simulationMode": [null, null, null, null, null], "rewards": [-2, 1, 4, -5, 50], "path": ["0", "0", "23", "24", "25", "26", "29"], "rt": [9357, 241, 64, 1848, 50], "actions": ["left", "left", "left", "up", "left"], "actionTimes": [10464, 11234, 11808, 14190, 14757], "queries": {"click": {"state": {"target": ["25", "29", "23", "1", "12"], "time": [2335, 3900, 7487, 8497, 9526]}, "edge": {"target": [], "time": []}}, "mouseover": {"state": {"target": ["23", "24", "25", "29", "25", "23", "1", "1", "12", "12"], "time": [1582, 1615, 1938, 3533, 5412, 6999, 7793, 8093, 8808, 9192]}, "edge": {"target": [], "time": []}}, "mouseout": {"state": {"target": ["32", "24", "23", "0", "0", "23", "24", "25", "29", "29", "25", "25", "23", "1", "1", "12", "12", "12"], "time": [201, 254, 287, 421, 1545, 1598, 1707, 2376, 3917, 4247, 4634, 6328, 7776, 7810, 8536, 8877, 9891, 15755]}, "edge": {"target": [], "time": []}}}, "displayed_time": "15.29", "trialTime": 16512, "trial_type": "mouselab-mdp", "trial_index": 34, "time_elapsed": 870268, "internal_node_id": "0.0-4.0-1.0-19.0"}}, {"uniqueid": "w20419254:a86043157", "current_trial": 35, "dateTime": 1691160498714, "trialdata": {"revealed_states": [], "clicked_states": ["1", "12", "23", "17", "20", "33", "29"], "num_clicks_accrued": [0, 0, 0, 0, 0, 0, 0, 0, 0, 0, 0, 0, 0], "stateRewards": ["", 2, 3, 3, 10, 19, -21, 6, 9, 54, 68, 16, 2, 2, -6, -8, 40, -2, -75, -2, -42, 55, 59, -1, 2, 4, -14, 11, -34, -30, -6, 61, -53, 13], "withholdReward": false, "trial_id": "mdp_trial_21", "block": "test", "trialIndex": 24, "score": 4.15, "costs": -7.85, "simulationMode": [null, null, null, null, null], "rewards": [-1, 2, 4, -6, 13], "path": ["0", "0", "23", "24", "25", "30", "33"], "rt": [18065, 12, 20, 637, 389], "actions": ["left", "left", "left", "down", "left"], "actionTimes": [19527, 20082, 20674, 21866, 22787], "queries": {"click": {"state": {"target": ["1", "12", "23", "17", "20", "33", "29"], "time": [2508, 3684, 4608, 6252, 9817, 13165, 16383]}, "edge": {"target": [], "time": []}}, "mouseover": {"state": {"target": ["1", "12", "0", "23", "17", "19", "14", "20", "19", "22", "31", "30", "33", "29", "25", "30", "31"], "time": [1979, 3081, 4063, 4213, 5834, 6919, 7126, 9111, 10294, 10311, 11722, 11772, 12024, 13538, 16761, 16790, 16835]}, "edge": {"target": [], "time": []}}, "mouseout": {"state": {"target": ["12", "7", "1", "12", "0", "23", "17", "19", "14", "17", "17", "20", "19", "22", "31", "30", "33", "29", "25", "30", "31", "31"], "time": [132, 319, 2747, 4013, 4113, 5263, 6628, 6953, 8160, 8192, 8809, 10290, 10307, 10340, 11756, 11946, 13521, 16738, 16784, 16812, 16860, 23818]}, "edge": {"target": [], "time": []}}}, "displayed_time": "23.30", "trialTime": 24639, "trial_type": "mouselab-mdp", "trial_index": 35, "time_elapsed": 895346, "internal_node_id": "0.0-4.0-1.0-20.0"}}, {"uniqueid": "w20419254:a86043157", "current_trial": 36, "dateTime": 1691160531245, "trialdata": {"revealed_states": [], "clicked_states": ["12", "1", "23", "13", "14", "19", "25", "24", "2", "3", "4", "8", "10", "9"], "num_clicks_accrued": [0, 0, 0, 0, 0, 0, 0, 0, 0, 0, 0, 0, 0], "stateRewards": ["", 2, 3, 6, -12, -29, 12, 87, 4, 35, -30, 67, 2, 3, -5, -9, 44, 69, -8, 1, 45, -8, 28, -2, -1, -8, 11, -12, -5, 81, 9, 87, 82, 88], "withholdReward": false, "trial_id": "mdp_trial_22", "block": "test", "trialIndex": 25, "score": 37.9, "costs": -12.1, "simulationMode": [null, null, null, null, null], "rewards": [2, 3, 6, 4, 35], "path": ["0", "0", "1", "2", "3", "8", "9"], "rt": [25807, 416, 162, 144, 202], "actions": ["up", "up", "up", "left", "up"], "actionTimes": [27146, 28085, 28766, 29426, 30152], "queries": {"click": {"state": {"target": ["12", "1", "23", "13", "14", "19", "25", "24", "2", "3", "4", "8", "10", "9"], "time": [2319, 4022, 5043, 6613, 7651, 9630, 11076, 12505, 14463, 15803, 16752, 17799, 18822, 22797]}, "edge": {"target": [], "time": []}}, "mouseover": {"state": {"target": ["12", "13", "1", "23", "13", "14", "14", "13", "14", "15", "21", "19", "25", "24", "2", "2", "3", "4", "8", "10", "8", "8", "9", "8", "8", "11", "18"], "time": [1760, 3044, 3740, 4727, 5403, 5432, 6017, 6288, 6968, 8289, 8888, 9319, 10221, 11528, 13601, 14170, 15468, 16308, 17328, 18283, 20932, 22181, 22492, 23205, 25368, 25738, 26136]}, "edge": {"target": [], "time": []}}, "mouseout": {"state": {"target": ["12", "12", "13", "1", "1", "23", "13", "14", "14", "13", "14", "15", "14", "21", "19", "25", "24", "2", "2", "2", "3", "4", "8", "10", "10", "10", "8", "8", "9", "8", "8", "11", "18", "16", "13"], "time": [472, 2954, 3304, 4078, 4352, 5097, 5425, 5462, 6206, 6935, 8143, 8805, 8829, 9135, 10133, 11466, 12947, 13668, 14929, 15129, 16231, 17301, 18216, 18881, 19242, 20824, 21518, 22201, 23170, 23304, 25484, 26088, 31026, 31196, 31265]}, "edge": {"target": [], "time": []}}}, "displayed_time": "30.67", "trialTime": 32084, "trial_type": "mouselab-mdp", "trial_index": 36, "time_elapsed": 927877, "internal_node_id": "0.0-4.0-1.0-21.0"}}, {"uniqueid": "w20419254:a86043157", "current_trial": 37, "dateTime": 1691160566784, "trialdata": {"revealed_states": [], "clicked_states": ["12", "13", "14", "23", "24", "1", "2", "7", "10", "28", "31", "33"], "num_clicks_accrued": [0, 0, 0, 0, 0, 0, 0, 0, 0, 0, 0, 0, 0], "stateRewards": ["", -2, -4, -6, 12, -58, -70, -80, 2, 16, -88, -62, 1, 2, -5, 11, 77, -35, -44, -5, 18, -83, 87, 1, -3, -5, 13, -44, -21, -86, 10, -52, 8, 29], "withholdReward": false, "trial_id": "mdp_trial_23", "block": "test", "trialIndex": 26, "score": 20, "costs": -12, "simulationMode": [null, null, null, null, null], "rewards": [1, -3, -5, 10, 29], "path": ["0", "0", "23", "24", "25", "30", "33"], "rt": [29540, 6, 90, 7, 413], "actions": ["left", "left", "left", "down", "left"], "actionTimes": [30825, 31353, 31971, 32487, 33429], "queries": {"click": {"state": {"target": ["12", "13", "14", "23", "24", "1", "2", "7", "10", "28", "31", "33"], "time": [2075, 3599, 4826, 6521, 7392, 8854, 9765, 10824, 14453, 19616, 22851, 26751]}, "edge": {"target": [], "time": []}}, "mouseover": {"state": {"target": ["12", "13", "14", "12", "23", "24", "1", "2", "7", "10", "1", "0", "23", "1", "28", "31", "30", "33", "26", "29"], "time": [1677, 3015, 4272, 5591, 6320, 6998, 8555, 9177, 10466, 11418, 14933, 15698, 18628, 18644, 19374, 21569, 26162, 26184, 27264, 28147]}, "edge": {"target": [], "time": []}}, "mouseout": {"state": {"target": ["1", "0", "12", "13", "14", "12", "23", "24", "1", "2", "7", "10", "1", "0", "23", "1", "28", "31", "30", "33", "26", "29", "13"], "time": [211, 1595, 2905, 4155, 5304, 5614, 6953, 7978, 9152, 10392, 11252, 14879, 15628, 15738, 18640, 18656, 20922, 26156, 26182, 27199, 27382, 30181, 34598]}, "edge": {"target": [], "time": []}}}, "displayed_time": "33.95", "trialTime": 35136, "trial_type": "mouselab-mdp", "trial_index": 37, "time_elapsed": 963416, "internal_node_id": "0.0-4.0-1.0-22.0"}}, {"uniqueid": "w20419254:a86043157", "current_trial": 38, "dateTime": 1691160592087, "trialdata": {"revealed_states": [], "clicked_states": ["12", "23", "1", "2", "13", "24", "14", "15", "17", "16"], "num_clicks_accrued": [0, 0, 0, 0, 0, 0, 0, 0, 0, 0, 0, 0, 0], "stateRewards": ["", 1, -2, -3, 14, -42, -87, -37, -11, -50, 33, -44, -2, 4, -7, 13, 48, -75, -66, 12, 23, -2, 82, 1, -4, 3, 12, 51, -15, -26, -11, -52, -29, 82], "withholdReward": false, "trial_id": "mdp_trial_24", "block": "test", "trialIndex": 27, "score": 48.9, "costs": -7.1, "simulationMode": [null, null, null, null, null], "rewards": [-2, 4, -7, 13, 48], "path": ["0", "0", "12", "13", "14", "15", "16"], "rt": [18958, 351, 130, 32, 73], "actions": ["right", "right", "right", "up", "up"], "actionTimes": [20354, 21221, 21865, 22424, 23008], "queries": {"click": {"state": {"target": ["12", "23", "1", "2", "13", "24", "14", "15", "17", "16"], "time": [2031, 2879, 3772, 4936, 6594, 7809, 9766, 10596, 11762, 16309]}, "edge": {"target": [], "time": []}}, "mouseover": {"state": {"target": ["12", "0", "23", "1", "2", "13", "24", "23", "14", "15", "17", "20", "14", "16", "18"], "time": [1703, 2348, 2398, 3332, 4551, 6284, 7325, 8589, 9365, 10239, 11110, 12208, 15159, 16041, 16820]}, "edge": {"target": [], "time": []}}, "mouseout": {"state": {"target": ["18", "0", "12", "0", "23", "1", "2", "13", "24", "23", "14", "15", "17", "20", "14", "16", "18"], "time": [537, 1587, 2315, 2364, 3198, 4484, 5815, 7172, 8581, 8623, 10128, 11004, 12099, 12417, 15206, 16653, 19735]}, "edge": {"target": [], "time": []}}}, "displayed_time": "23.54", "trialTime": 24882, "trial_type": "mouselab-mdp", "trial_index": 38, "time_elapsed": 988720, "internal_node_id": "0.0-4.0-1.0-23.0"}}, {"uniqueid": "w20419254:a86043157", "current_trial": 39, "dateTime": 1691160609173, "trialdata": {"revealed_states": [], "clicked_states": ["12", "13", "14", "19", "21"], "num_clicks_accrued": [0, 0, 0, 0, 0, 0, 0, 0, 0, 0, 0, 0, 0], "stateRewards": ["", -1, 2, 5, -6, 13, -64, -47, 8, -79, -80, -33, 1, 2, -2, -16, 56, -71, -10, 3, 29, 44, 85, -1, 4, 5, 4, -36, -56, 19, 8, 52, -13, -2], "withholdReward": false, "trial_id": "mdp_trial_25", "block": "test", "trialIndex": 28, "score": 43.25, "costs": -4.75, "simulationMode": [null, null, null, null, null], "rewards": [1, 2, -2, 3, 44], "path": ["0", "0", "12", "13", "14", "19", "21"], "rt": [8512, 310, 109, 411, 11], "actions": ["right", "right", "right", "down", "down"], "actionTimes": [9867, 10698, 11330, 12265, 12796], "queries": {"click": {"state": {"target": ["12", "13", "14", "19", "21"], "time": [2922, 3751, 4486, 5371, 6144]}, "edge": {"target": [], "time": []}}, "mouseover": {"state": {"target": ["12", "13", "14", "19", "21", "19"], "time": [2681, 3322, 4171, 4952, 5759, 9221]}, "edge": {"target": [], "time": []}}, "mouseout": {"state": {"target": ["21", "0", "12", "13", "14", "19", "21", "19", "22", "33", "30", "31"], "time": [179, 1597, 3306, 4122, 4891, 5705, 6522, 9369, 13703, 13985, 14034, 14101]}, "edge": {"target": [], "time": []}}}, "displayed_time": "15.36", "trialTime": 16618, "trial_type": "mouselab-mdp", "trial_index": 39, "time_elapsed": 1005806, "internal_node_id": "0.0-4.0-1.0-24.0"}}, {"uniqueid": "w20419254:a86043157", "current_trial": 40, "dateTime": 1691160631879, "trialdata": {"revealed_states": [], "clicked_states": ["1", "12", "23", "7", "10", "9"], "num_clicks_accrued": [0, 0, 0, 0, 0, 0, 0, 0, 0, 0, 0, 0, 0], "stateRewards": ["", -1, 4, -3, 3, 57, -61, 5, -11, 23, -1, 34, -2, -4, -1, -13, 27, 38, -36, 4, -45, 21, 88, 1, -2, -1, 1, -69, -5, -78, -12, -9, 38, -54], "withholdReward": false, "trial_id": "mdp_trial_26", "block": "test", "trialIndex": 29, "score": 6.300000000000001, "costs": -5.699999999999999, "simulationMode": [null, null, null, null, null], "rewards": [-1, 4, -3, -11, 23], "path": ["0", "0", "1", "2", "3", "8", "9"], "rt": [16937, 173, 41, 8, 58], "actions": ["up", "up", "up", "left", "up"], "actionTimes": [18106, 18795, 19361, 19911, 20511], "queries": {"click": {"state": {"target": ["1", "12", "23", "7", "10", "9"], "time": [3024, 4862, 5840, 6976, 10523, 14262]}, "edge": {"target": [], "time": []}}, "mouseover": {"state": {"target": ["1", "1", "2", "12", "0", "23", "7", "7", "2", "10", "2", "2", "9", "5", "5"], "time": [1796, 2748, 3597, 4483, 5227, 5427, 6228, 6643, 9247, 9561, 11034, 13674, 13856, 14624, 15017]}, "edge": {"target": [], "time": []}}, "mouseout": {"state": {"target": ["23", "1", "1", "2", "12", "0", "23", "7", "7", "2", "10", "2", "2", "9", "5", "5", "8", "11", "23"], "time": [284, 1813, 3073, 4216, 5211, 5315, 6177, 6247, 7543, 9322, 11009, 11098, 13775, 14570, 14813, 21314, 21347, 21550, 21580]}, "edge": {"target": [], "time": []}}}, "displayed_time": "21.04", "trialTime": 22299, "trial_type": "mouselab-mdp", "trial_index": 40, "time_elapsed": 1028512, "internal_node_id": "0.0-4.0-1.0-25.0"}}, {"uniqueid": "w20419254:a86043157", "current_trial": 41, "dateTime": 1691160654173, "trialdata": {"revealed_states": [], "clicked_states": ["14", "25", "23", "1", "12", "17", "16"], "num_clicks_accrued": [0, 0, 0, 0, 0, 0, 0, 0, 0, 0, 0, 0, 0], "stateRewards": ["", 2, -1, 5, 8, 75, -35, -77, 1, -9, -81, -58, 1, 2, -7, 5, 77, -16, 19, 16, -10, -18, 40, -2, 3, 7, -5, 64, 1, -62, 10, 27, 10, 65], "withholdReward": false, "trial_id": "mdp_trial_27", "block": "test", "trialIndex": 30, "score": 72.55, "costs": -5.449999999999999, "simulationMode": [null, null, null, null, null], "rewards": [1, 2, -7, 5, 77], "path": ["0", "0", "12", "13", "14", "15", "16"], "rt": [16051, 9, 112, 532, 59], "actions": ["right", "right", "right", "up", "up"], "actionTimes": [17194, 17717, 18369, 19421, 19996], "queries": {"click": {"state": {"target": ["14", "25", "23", "1", "12", "17", "16"], "time": [2585, 5254, 6529, 7210, 8035, 9487, 13238]}, "edge": {"target": [], "time": []}}, "mouseover": {"state": {"target": ["12", "14", "13", "12", "0", "23", "24", "25", "25", "25", "24", "23", "23", "1", "12", "12", "15", "17", "14", "14", "14", "15", "16", "18"], "time": [1589, 2233, 3015, 3198, 3639, 3686, 3902, 4252, 4668, 4947, 5613, 5649, 6129, 6795, 7495, 7828, 8831, 9164, 9884, 10154, 11146, 12281, 12811, 13835]}, "edge": {"target": [], "time": []}}, "mouseout": {"state": {"target": ["13", "22", "0", "12", "14", "13", "12", "0", "23", "24", "25", "25", "25", "24", "23", "23", "1", "12", "12", "15", "17", "14", "14", "14", "15", "17", "16", "18", "12", "2", "7"], "time": [221, 319, 1488, 1655, 2998, 3148, 3618, 3667, 3854, 4003, 4303, 4682, 5600, 5646, 5663, 6745, 7471, 7621, 8713, 8892, 9861, 9907, 10216, 11257, 12379, 12626, 13680, 20786, 20815, 21004, 21070]}, "edge": {"target": [], "time": []}}}, "displayed_time": "20.52", "trialTime": 21781, "trial_type": "mouselab-mdp", "trial_index": 41, "time_elapsed": 1050806, "internal_node_id": "0.0-4.0-1.0-26.0"}}, {"uniqueid": "w20419254:a86043157", "current_trial": 42, "dateTime": 1691160682870, "trialdata": {"revealed_states": [], "clicked_states": ["23", "12", "1", "2", "3", "7", "10", "9", "5"], "num_clicks_accrued": [0, 0, 0, 0, 0, 0, 0, 0, 0, 0, 0, 0, 0], "stateRewards": ["", -1, 2, -6, 6, -82, -19, -39, -16, -83, 11, -33, -2, -2, 4, -6, -82, -1, -19, -6, -10, -67, -41, -2, 1, -7, 16, -23, -78, -52, 14, 31, -71, 74], "withholdReward": false, "trial_id": "mdp_trial_28", "block": "test", "trialIndex": 31, "score": -19.15, "costs": -9.15, "simulationMode": [null, null, null, null, null], "rewards": [-1, 2, -6, -16, 11], "path": ["0", "0", "1", "2", "3", "8", "10"], "rt": [22279, 8, 132, 628, 42], "actions": ["up", "up", "up", "left", "down"], "actionTimes": [23743, 24267, 24925, 26070, 26631], "queries": {"click": {"state": {"target": ["23", "12", "1", "2", "3", "7", "10", "9", "5"], "time": [2206, 3615, 4733, 7274, 8200, 9669, 12944, 16245, 19484]}, "edge": {"target": [], "time": []}}, "mouseover": {"state": {"target": ["23", "12", "1", "13", "10", "2", "3", "7", "2", "10", "8", "9", "9", "5", "2", "2", "28"], "time": [1842, 3289, 4221, 5404, 6588, 6752, 7846, 9162, 10432, 10832, 13452, 13476, 13998, 16972, 20130, 20502, 22993]}, "edge": {"target": [], "time": []}}, "mouseout": {"state": {"target": ["12", "7", "1", "23", "12", "1", "12", "13", "12", "10", "2", "3", "2", "7", "2", "10", "8", "9", "9", "5", "2", "2", "28", "7", "6"], "time": [362, 379, 844, 2757, 3921, 5254, 5337, 5925, 6173, 6723, 7763, 8667, 8967, 10187, 10516, 13447, 13471, 13496, 16595, 20011, 20161, 22726, 23016, 27584, 27822]}, "edge": {"target": [], "time": []}}}, "displayed_time": "27.17", "trialTime": 28306, "trial_type": "mouselab-mdp", "trial_index": 42, "time_elapsed": 1079504, "internal_node_id": "0.0-4.0-1.0-27.0"}}, {"uniqueid": "w20419254:a86043157", "current_trial": 43, "dateTime": 1691160699486, "trialdata": {"revealed_states": [], "clicked_states": ["12", "23", "1", "2", "3", "6"], "num_clicks_accrued": [0, 0, 0, 0, 0, 0, 0, 0, 0, 0, 0, 0, 0], "stateRewards": ["", 1, 1, -3, 7, 49, 78, 26, -5, 26, 48, -43, -1, -3, 2, -5, 4, -1, -60, 10, -35, 51, 81, -2, 1, -7, -5, -39, -86, -54, 4, -3, 74, 77], "withholdReward": false, "trial_id": "mdp_trial_29", "block": "test", "trialIndex": 32, "score": 81.3, "costs": -2.6999999999999997, "simulationMode": [null, null, null, null, null], "rewards": [1, 1, -3, 7, 78], "path": ["0", "0", "1", "2", "3", "4", "6"], "rt": [10403, 30, 64, 7, 522], "actions": ["up", "up", "up", "right", "right"], "actionTimes": [11552, 12092, 12677, 13202, 14251], "queries": {"click": {"state": {"target": ["12", "23", "1", "2", "3", "6"], "time": [1938, 2936, 3707, 4692, 6240, 7570]}, "edge": {"target": [], "time": []}}, "mouseover": {"state": {"target": ["12", "0", "23", "1", "2", "3", "3", "4", "6", "4", "8", "11"], "time": [1539, 2268, 2621, 3302, 4324, 5232, 5839, 6919, 7187, 8424, 9427, 9910]}, "edge": {"target": [], "time": []}}, "mouseout": {"state": {"target": ["7", "2", "12", "0", "23", "1", "2", "3", "3", "4", "6", "4", "3", "8", "11", "9", "3", "2"], "time": [157, 423, 2251, 2401, 3185, 4285, 5170, 5255, 6882, 6957, 8400, 8466, 9421, 9453, 15106, 15361, 15408, 15440]}, "edge": {"target": [], "time": []}}}, "displayed_time": "15.15", "trialTime": 16144, "trial_type": "mouselab-mdp", "trial_index": 43, "time_elapsed": 1096118, "internal_node_id": "0.0-4.0-1.0-28.0"}}, {"uniqueid": "w20419254:a86043157", "current_trial": 44, "dateTime": 1691160733402, "trialdata": {"revealed_states": [], "clicked_states": ["23", "1", "12", "13", "14", "19", "21", "15", "16", "17", "18", "25", "29"], "num_clicks_accrued": [0, 0, 0, 0, 0, 0, 0, 0, 0, 0, 0, 0, 0], "stateRewards": ["", -2, -4, 6, 14, -34, 49, 36, -8, -3, 32, -4, 1, -2, 1, -8, -20, -71, -57, -7, -86, -62, -16, -2, -3, -5, 11, 23, -21, 53, 5, -5, 85, 73], "withholdReward": false, "trial_id": "mdp_trial_30", "block": "test", "trialIndex": 33, "score": 38.65, "costs": -15.35, "simulationMode": [null, null, null, null, null], "rewards": [-2, -3, -5, 11, 53], "path": ["0", "0", "23", "24", "25", "26", "29"], "rt": [26944, 343, 49, 598, 451], "actions": ["left", "left", "left", "up", "left"], "actionTimes": [28290, 29164, 29737, 30869, 31836], "queries": {"click": {"state": {"target": ["23", "1", "12", "13", "14", "19", "21", "15", "16", "17", "18", "25", "29"], "time": [2200, 3157, 4122, 4981, 5763, 6808, 7612, 10937, 11990, 15453, 18698, 23106, 24500]}, "edge": {"target": [], "time": []}}, "mouseover": {"state": {"target": ["23", "1", "1", "12", "12", "13", "14", "19", "21", "20", "20", "15", "16", "17", "15", "18", "12", "0", "25", "29", "29", "26", "28"], "time": [1881, 2491, 2874, 3574, 3857, 4641, 5383, 6497, 7220, 8044, 8384, 9176, 11571, 12617, 15815, 15904, 21579, 21605, 22793, 24022, 24256, 24932, 25275]}, "edge": {"target": [], "time": []}}, "mouseout": {"state": {"target": ["1", "2", "6", "23", "1", "1", "12", "12", "13", "14", "14", "19", "21", "20", "20", "15", "16", "17", "15", "18", "12", "0", "25", "29", "29", "26", "28"], "time": [298, 314, 463, 2215, 2641, 3196, 3590, 4608, 5360, 5784, 6285, 7187, 7994, 8225, 8671, 11339, 12418, 15516, 15840, 19497, 21599, 22079, 23989, 24041, 24908, 24967, 32827]}, "edge": {"target": [], "time": []}}}, "displayed_time": "32.35", "trialTime": 33498, "trial_type": "mouselab-mdp", "trial_index": 44, "time_elapsed": 1130034, "internal_node_id": "0.0-4.0-1.0-29.0"}}, {"uniqueid": "w20419254:a86043157", "current_trial": 45, "dateTime": 1691160757454, "trialdata": {"revealed_states": [], "clicked_states": ["12", "23", "1", "13", "14", "19", "21", "20", "22"], "num_clicks_accrued": [0, 0, 0, 0, 0, 0, 0, 0, 0, 0, 0, 0, 0], "stateRewards": ["", 2, -1, 5, 6, 10, 86, 55, 10, -45, 63, -71, 1, -2, 5, -8, -50, -72, 36, 15, 61, 12, 33, -1, -4, 6, 5, 79, -56, -21, -16, -87, 60, -81], "withholdReward": false, "trial_id": "mdp_trial_31", "block": "test", "trialIndex": 34, "score": 71.45, "costs": -8.55, "simulationMode": [null, null, null, null, null], "rewards": [1, -2, 5, 15, 61], "path": ["0", "0", "12", "13", "14", "19", "20"], "rt": [18010, 319, 91, 50, 153], "actions": ["right", "right", "right", "down", "right"], "actionTimes": [19215, 20053, 20656, 21215, 21902], "queries": {"click": {"state": {"target": ["12", "23", "1", "13", "14", "19", "21", "20", "22"], "time": [1993, 3028, 3835, 4925, 5675, 6738, 7447, 10945, 16148]}, "edge": {"target": [], "time": []}}, "mouseover": {"state": {"target": ["12", "23", "1", "13", "14", "19", "21", "20", "19", "22", "22", "22"], "time": [1668, 2613, 3443, 4282, 5313, 6252, 7164, 9266, 11273, 11634, 15364, 15755]}, "edge": {"target": [], "time": []}}, "mouseout": {"state": {"target": ["2", "1", "12", "23", "1", "13", "14", "19", "21", "20", "19", "22", "20", "22", "22", "20"], "time": [336, 351, 2563, 3073, 4217, 5282, 6165, 6987, 7467, 11268, 11340, 14534, 15358, 15384, 16162, 23096]}, "edge": {"target": [], "time": []}}}, "displayed_time": "22.41", "trialTime": 23620, "trial_type": "mouselab-mdp", "trial_index": 45, "time_elapsed": 1154086, "internal_node_id": "0.0-4.0-1.0-30.0"}}, {"uniqueid": "w20419254:a86043157", "current_trial": 46, "dateTime": 1691160775392, "trialdata": {"revealed_states": [], "clicked_states": ["12", "1", "23", "17", "20"], "num_clicks_accrued": [0, 0, 0, 0, 0, 0, 0, 0, 0, 0, 0, 0, 0], "stateRewards": ["", 2, -3, -4, -1, 25, -16, 16, 10, -71, -20, -55, 1, 3, -4, -9, 1, 32, 11, -6, 32, -50, -41, -1, 4, 4, -8, 7, -81, 70, 2, -52, 45, -10], "withholdReward": false, "trial_id": "mdp_trial_32", "block": "test", "trialIndex": 35, "score": 22.45, "costs": -3.55, "simulationMode": [null, null, null, null, null], "rewards": [1, 3, -4, -6, 32], "path": ["0", "0", "12", "13", "14", "19", "20"], "rt": [11945, 63, 189, 390, 89], "actions": ["right", "right", "right", "down", "right"], "actionTimes": [13144, 13735, 14437, 15353, 15967], "queries": {"click": {"state": {"target": ["12", "1", "23", "17", "20"], "time": [1930, 3561, 4523, 5789, 9399]}, "edge": {"target": [], "time": []}}, "mouseover": {"state": {"target": ["12", "13", "1", "23", "15", "17", "17", "19", "20"], "time": [1647, 2435, 3288, 4157, 5061, 5115, 5410, 6372, 8498]}, "edge": {"target": [], "time": []}}, "mouseout": {"state": {"target": ["19", "22", "12", "0", "0", "12", "13", "1", "23", "15", "17", "17", "19", "20"], "time": [173, 203, 441, 469, 1392, 2335, 2834, 3967, 4853, 5089, 5182, 6219, 8367, 9817]}, "edge": {"target": [], "time": []}}}, "displayed_time": "16.50", "trialTime": 17520, "trial_type": "mouselab-mdp", "trial_index": 46, "time_elapsed": 1172025, "internal_node_id": "0.0-4.0-1.0-31.0"}}, {"uniqueid": "w20419254:a86043157", "current_trial": 47, "dateTime": 1691160803805, "trialdata": {"revealed_states": [], "clicked_states": ["1", "23", "12", "24", "2", "3", "5", "9", "10", "7", "8"], "num_clicks_accrued": [0, 0, 0, 0, 0, 0, 0, 0, 0, 0, 0, 0, 0], "stateRewards": ["", 2, 4, 7, 7, -79, -2, -21, -5, -53, 47, -21, 1, -3, -1, 7, 83, 7, 84, -7, 80, -37, 69, 2, -4, 5, 2, 4, -20, -30, 7, 71, 44, -81], "withholdReward": false, "trial_id": "mdp_trial_33", "block": "test", "trialIndex": 36, "score": 43.95, "costs": -11.05, "simulationMode": [null, null, null, null, null], "rewards": [2, 4, 7, -5, 47], "path": ["0", "0", "1", "2", "3", "8", "10"], "rt": [22695, 33, 11, 50, 61], "actions": ["up", "up", "up", "left", "down"], "actionTimes": [23791, 24342, 24870, 25460, 26053], "queries": {"click": {"state": {"target": ["1", "23", "12", "24", "2", "3", "5", "9", "10", "7", "8"], "time": [2049, 2808, 3831, 5309, 6414, 7634, 9160, 12568, 15802, 19046, 22652]}, "edge": {"target": [], "time": []}}, "mouseover": {"state": {"target": ["1", "23", "13", "12", "28", "24", "3", "2", "10", "3", "4", "5", "9", "8", "10", "2", "7", "2", "2", "8"], "time": [1546, 2342, 3142, 3478, 4795, 5029, 5867, 6054, 7081, 7135, 8493, 8755, 9804, 12937, 13150, 16172, 16431, 20223, 22097, 22296]}, "edge": {"target": [], "time": []}}, "mouseout": {"state": {"target": ["1", "23", "13", "12", "28", "24", "3", "2", "10", "3", "4", "5", "9", "8", "10", "2", "7", "2", "2", "8", "12"], "time": [2294, 3059, 3442, 4547, 4838, 5792, 5883, 6856, 7108, 8462, 8727, 9506, 12933, 12970, 16119, 16344, 19445, 20295, 22112, 22919, 27109]}, "edge": {"target": [], "time": []}}}, "displayed_time": "26.57", "trialTime": 27941, "trial_type": "mouselab-mdp", "trial_index": 47, "time_elapsed": 1200438, "internal_node_id": "0.0-4.0-1.0-32.0"}}, {"uniqueid": "w20419254:a86043157", "current_trial": 48, "dateTime": 1691160821789, "trialdata": {"revealed_states": [], "clicked_states": ["12", "1", "23", "24", "25", "30", "32"], "num_clicks_accrued": [0, 0, 0, 0, 0, 0, 0, 0, 0, 0, 0, 0, 0], "stateRewards": ["", 1, 1, -5, 10, -31, 73, 14, -8, -23, 63, -70, -1, 2, 8, 7, 25, -59, 27, -10, -40, -71, -15, -2, 3, -8, -5, -19, 77, -34, 7, 67, 63, 19], "withholdReward": false, "trial_id": "mdp_trial_34", "block": "test", "trialIndex": 37, "score": 58.75, "costs": -4.25, "simulationMode": [null, null, null, null, null], "rewards": [-2, 3, -8, 7, 63], "path": ["0", "0", "23", "24", "25", "30", "32"], "rt": [11593, 333, 146, 594, 71], "actions": ["left", "left", "left", "down", "down"], "actionTimes": [13087, 13938, 14599, 15722, 16304], "queries": {"click": {"state": {"target": ["12", "1", "23", "24", "25", "30", "32"], "time": [2563, 3503, 4441, 5668, 7370, 8395, 9321]}, "edge": {"target": [], "time": []}}, "mouseover": {"state": {"target": ["1", "12", "1", "23", "24", "25", "30", "32"], "time": [1769, 2197, 3190, 4090, 5282, 6711, 7966, 8892]}, "edge": {"target": [], "time": []}}, "mouseout": {"state": {"target": ["1", "1", "1", "12", "1", "23", "24", "25", "30", "32"], "time": [631, 861, 1784, 2578, 3774, 5162, 6375, 7942, 8844, 10074]}, "edge": {"target": [], "time": []}}}, "displayed_time": "16.83", "trialTime": 17568, "trial_type": "mouselab-mdp", "trial_index": 48, "time_elapsed": 1218423, "internal_node_id": "0.0-4.0-1.0-33.0"}}, {"uniqueid": "w20419254:a86043157", "current_trial": 49, "dateTime": 1691160844711, "trialdata": {"revealed_states": [], "clicked_states": ["12", "1", "23", "21", "20", "22"], "num_clicks_accrued": [0, 0, 0, 0, 0, 0, 0, 0, 0, 0, 0, 0, 0], "stateRewards": ["", 1, 4, 5, -5, 58, -80, 75, 6, 25, -39, 46, 2, -2, 4, 2, 59, 31, -22, -12, -61, 15, 72, 1, -2, -7, 8, 77, 76, -23, -7, 71, -15, -3], "withholdReward": false, "trial_id": "mdp_trial_35", "block": "test", "trialIndex": 38, "score": 58.3, "costs": -5.699999999999999, "simulationMode": [null, null, null, null, null], "rewards": [2, -2, 4, -12, 72], "path": ["0", "0", "12", "13", "14", "19", "22"], "rt": [17208, 31, 108, 135, 110], "actions": ["right", "right", "right", "down", "left"], "actionTimes": [18390, 18946, 19573, 20232, 20857], "queries": {"click": {"state": {"target": ["12", "1", "23", "21", "20", "22"], "time": [2123, 3024, 3985, 6817, 10971, 14541]}, "edge": {"target": [], "time": []}}, "mouseover": {"state": {"target": ["12", "1", "23", "13", "19", "14", "13", "20", "21", "19", "20", "19", "22", "17"], "time": [1846, 2792, 3524, 4523, 5006, 5528, 5873, 6158, 6442, 7780, 10702, 11328, 11650, 15649]}, "edge": {"target": [], "time": []}}, "mouseout": {"state": {"target": ["10", "0", "12", "1", "23", "12", "13", "19", "14", "13", "20", "21", "19", "20", "19", "22", "17"], "time": [232, 1764, 2375, 3327, 4430, 4496, 4656, 5035, 5844, 6108, 6176, 7622, 7945, 11287, 11477, 15282, 21730]}, "edge": {"target": [], "time": []}}}, "displayed_time": "21.38", "trialTime": 22423, "trial_type": "mouselab-mdp", "trial_index": 49, "time_elapsed": 1241343, "internal_node_id": "0.0-4.0-1.0-34.0"}}, {"uniqueid": "w20419254:a86043157", "current_trial": 50, "dateTime": 1691160861307, "trialdata": {"revealed_states": [], "clicked_states": ["12", "1", "23", "3", "5"], "num_clicks_accrued": [0, 0, 0, 0, 0, 0, 0, 0, 0, 0, 0, 0, 0], "stateRewards": ["", -1, 1, 6, -6, 70, 66, 67, -16, -75, -35, 37, -1, 4, 4, -6, 47, -9, 63, 15, 21, -63, 13, 1, 3, -6, 10, 79, -29, 18, -15, 9, -67, -19], "withholdReward": false, "trial_id": "mdp_trial_36", "block": "test", "trialIndex": 39, "score": 67.65, "costs": -2.3499999999999996, "simulationMode": [null, null, null, null, null], "rewards": [-1, 1, 6, -6, 70], "path": ["0", "0", "1", "2", "3", "4", "5"], "rt": [10335, 352, 132, 81, 490], "actions": ["up", "up", "up", "right", "up"], "actionTimes": [11472, 12343, 12989, 13587, 14596], "queries": {"click": {"state": {"target": ["12", "1", "23", "3", "5"], "time": [1891, 3119, 4049, 5476, 7323]}, "edge": {"target": [], "time": []}}, "mouseover": {"state": {"target": ["0", "12", "0", "1", "23", "2", "3", "2", "5", "2", "2"], "time": [1383, 1464, 2448, 2727, 3529, 4686, 4981, 6462, 7076, 7778, 9869]}, "edge": {"target": [], "time": []}}, "mouseout": {"state": {"target": ["22", "0", "0", "12", "0", "1", "23", "2", "3", "2", "5", "2", "2", "5", "5", "8", "9"], "time": [269, 615, 1411, 2444, 2465, 3427, 4661, 4756, 6432, 6810, 7727, 8478, 9960, 10028, 15497, 15568, 15700]}, "edge": {"target": [], "time": []}}}, "displayed_time": "15.14", "trialTime": 16142, "trial_type": "mouselab-mdp", "trial_index": 50, "time_elapsed": 1257940, "internal_node_id": "0.0-4.0-1.0-35.0"}}, {"uniqueid": "w20419254:a86043157", "current_trial": 51, "dateTime": 1691160881617, "trialdata": {"revealed_states": [], "clicked_states": ["12", "1", "23", "24", "25", "30", "32", "26", "27"], "num_clicks_accrued": [0, 0, 0, 0, 0, 0, 0, 0, 0, 0, 0, 0, 0], "stateRewards": ["", 2, -4, 7, 3, 23, -42, 4, 7, -81, -33, 7, -2, -4, 5, -1, 50, -57, -14, -13, -14, 44, 55, -2, -2, 5, -2, 33, 1, 57, -13, -7, 58, 87], "withholdReward": false, "trial_id": "mdp_trial_37", "block": "test", "trialIndex": 40, "score": 38.05, "costs": -7.949999999999999, "simulationMode": [null, null, null, null, null], "rewards": [-2, -2, 5, -13, 58], "path": ["0", "0", "23", "24", "25", "30", "32"], "rt": [14648, 228, 48, 29, 451], "actions": ["left", "left", "left", "down", "down"], "actionTimes": [15949, 16701, 17269, 17833, 18805], "queries": {"click": {"state": {"target": ["12", "1", "23", "24", "25", "30", "32", "26", "27"], "time": [1893, 2770, 3758, 4663, 5637, 6549, 7311, 10550, 11916]}, "edge": {"target": [], "time": []}}, "mouseover": {"state": {"target": ["12", "1", "23", "23", "24", "25", "30", "32", "26", "27", "25", "30"], "time": [1579, 2460, 3088, 3500, 4109, 5111, 6187, 6932, 7914, 11550, 12426, 12515]}, "edge": {"target": [], "time": []}}, "mouseout": {"state": {"target": ["8", "9", "0", "12", "1", "23", "23", "24", "25", "30", "30", "32", "26", "27", "25", "30", "26"], "time": [120, 351, 1348, 2298, 3021, 3195, 4078, 5046, 6149, 6586, 6887, 7871, 11354, 12339, 12470, 12538, 13128]}, "edge": {"target": [], "time": []}}}, "displayed_time": "19.32", "trialTime": 19837, "trial_type": "mouselab-mdp", "trial_index": 51, "time_elapsed": 1278250, "internal_node_id": "0.0-4.0-1.0-36.0"}}, {"uniqueid": "w20419254:a86043157", "current_trial": 52, "dateTime": 1691160898570, "trialdata": {"revealed_states": [], "clicked_states": ["12", "1", "23", "13", "14", "15", "17"], "num_clicks_accrued": [0, 0, 0, 0, 0, 0, 0, 0, 0, 0, 0, 0, 0], "stateRewards": ["", 2, -3, -8, 14, -7, -51, 73, 2, 36, 36, -43, -1, 3, -4, 1, 6, 87, -65, 15, 61, -42, -83, -1, 3, -2, -7, 30, -48, 35, 13, 26, 60, 78], "withholdReward": false, "trial_id": "mdp_trial_38", "block": "test", "trialIndex": 41, "score": 81.75, "costs": -4.25, "simulationMode": [null, null, null, null, null], "rewards": [-1, 3, -4, 1, 87], "path": ["0", "0", "12", "13", "14", "15", "17"], "rt": [11081, 209, 70, 53, 72], "actions": ["right", "right", "right", "up", "right"], "actionTimes": [12383, 13112, 13705, 14271, 14874], "queries": {"click": {"state": {"target": ["12", "1", "23", "13", "14", "15", "17"], "time": [2050, 3333, 4278, 5556, 6435, 7280, 7955]}, "edge": {"target": [], "time": []}}, "mouseover": {"state": {"target": ["12", "1", "23", "0", "13", "13", "14", "15", "17", "16"], "time": [1687, 2984, 3941, 4691, 5007, 5250, 6207, 6791, 7627, 8488]}, "edge": {"target": [], "time": []}}, "mouseout": {"state": {"target": ["3", "12", "1", "1", "23", "0", "13", "13", "14", "15", "17", "16"], "time": [429, 2441, 3390, 3665, 4683, 4729, 5039, 5933, 6757, 7310, 8449, 11783]}, "edge": {"target": [], "time": []}}}, "displayed_time": "15.40", "trialTime": 16385, "trial_type": "mouselab-mdp", "trial_index": 52, "time_elapsed": 1295202, "internal_node_id": "0.0-4.0-1.0-37.0"}}, {"uniqueid": "w20419254:a86043157", "current_trial": 53, "dateTime": 1691160922182, "trialdata": {"revealed_states": [], "clicked_states": ["12", "1", "23", "27", "16", "21", "32"], "num_clicks_accrued": [0, 0, 0, 0, 0, 0, 0, 0, 0, 0, 0, 0, 0], "stateRewards": ["", 2, -1, -1, -9, -81, -30, 55, -6, 78, 25, 62, 2, 4, -1, 9, -85, 1, -19, 1, -60, 12, -34, 1, 4, -1, -13, -24, -16, -83, -8, 16, 43, 9], "withholdReward": false, "trial_id": "mdp_trial_39", "block": "test", "trialIndex": 42, "score": 31.15, "costs": -7.85, "simulationMode": [null, null, null, null, null], "rewards": [1, 4, -1, -8, 43], "path": ["0", "0", "23", "24", "25", "30", "32"], "rt": [17731, 10, 11, 21, 275], "actions": ["left", "left", "left", "down", "down"], "actionTimes": [19272, 19808, 20346, 20910, 21721], "queries": {"click": {"state": {"target": ["12", "1", "23", "27", "16", "21", "32"], "time": [2285, 3125, 4013, 5396, 8767, 12004, 15216]}, "edge": {"target": [], "time": []}}, "mouseover": {"state": {"target": ["12", "12", "1", "23", "24", "26", "27", "3", "6", "16", "19", "21", "32", "33", "30"], "time": [1708, 1977, 2841, 3662, 4668, 4738, 5144, 5930, 5959, 6361, 9769, 9876, 12936, 18430, 18508]}, "edge": {"target": [], "time": []}}, "mouseout": {"state": {"target": ["7", "4", "5", "4", "7", "1", "0", "12", "12", "1", "23", "24", "26", "27", "3", "6", "16", "19", "21", "32", "33", "30"], "time": [264, 291, 306, 479, 509, 613, 1664, 1778, 2558, 3410, 4663, 4693, 4947, 5906, 5955, 5982, 9544, 9824, 12338, 15786, 18479, 18613]}, "edge": {"target": [], "time": []}}}, "displayed_time": "22.27", "trialTime": 23098, "trial_type": "mouselab-mdp", "trial_index": 53, "time_elapsed": 1318815, "internal_node_id": "0.0-4.0-1.0-38.0"}}, {"uniqueid": "w20419254:a86043157", "current_trial": 54, "dateTime": 1691160940773, "trialdata": {"revealed_states": [], "clicked_states": ["12", "1", "23", "14", "17", "20"], "num_clicks_accrued": [0, 0, 0, 0, 0, 0, 0, 0, 0, 0, 0, 0, 0], "stateRewards": ["", -2, 1, -3, -16, -39, -52, 30, -7, -41, -59, 11, 2, 1, 8, 2, -11, -26, -42, -13, 87, -59, -48, -1, -1, -1, 16, -79, 31, 50, -1, -84, 34, -82], "withholdReward": false, "trial_id": "mdp_trial_40", "block": "test", "trialIndex": 43, "score": 80.5, "costs": -4.5, "simulationMode": [null, null, null, null, null], "rewards": [2, 1, 8, -13, 87], "path": ["0", "0", "12", "13", "14", "19", "20"], "rt": [12818, 8, 91, 81, 108], "actions": ["right", "right", "right", "down", "right"], "actionTimes": [14179, 14713, 15346, 15953, 16593], "queries": {"click": {"state": {"target": ["12", "1", "23", "14", "17", "20"], "time": [1940, 2906, 3844, 5203, 7020, 10279]}, "edge": {"target": [], "time": []}}, "mouseover": {"state": {"target": ["12", "12", "1", "23", "14", "17", "17", "20", "21", "21"], "time": [1384, 1667, 2535, 3493, 4509, 5764, 6699, 7488, 10616, 11112]}, "edge": {"target": [], "time": []}}, "mouseout": {"state": {"target": ["10", "12", "0", "12", "12", "1", "23", "14", "17", "17", "20", "21", "21"], "time": [218, 665, 748, 1519, 2329, 3334, 4196, 5702, 6188, 7393, 10592, 10900, 17441]}, "edge": {"target": [], "time": []}}}, "displayed_time": "17.10", "trialTime": 18064, "trial_type": "mouselab-mdp", "trial_index": 54, "time_elapsed": 1337405, "internal_node_id": "0.0-4.0-1.0-39.0"}}, {"uniqueid": "w20419254:a86043157", "current_trial": 55, "dateTime": 1691160980883, "trialdata": {"rt": 40078, "response": {"Q0": "$-2 to $2", "Q1": "$-32 to $32", "Q2": "$-88 to $88", "Q3": "The cost for clicking on nodes varied between nodes.", "Q4": "Very motivated"}, "question_order": [0, 1, 2, 3, 4], "trial_id": "final_quiz_control", "trial_type": "survey-multi-choice", "trial_index": 55, "time_elapsed": 1377516, "internal_node_id": "0.0-4.0-2.0"}}, {"uniqueid": "w20419254:a86043157", "current_trial": 56, "dateTime": 1691161278611, "trialdata": {"rt": 297697, "response": {"Q0": "I just wanted to see the edge values more than anything because I saw that they were the highest. I focused mainly on those so, if I pressed on a node and it was over 40, I would go to that one without checking the other 4 nodes to get there", "Q1": "At the start, I didn't really understand what pressing the nodes did, I thought the money added or taken away was the value of the node but after a few games realised my mistake. That meant I did improve overtime as I picked up the proper strategy. I did read the instructions and thought I understood them but I obviously didn't take them in as much as I thought I had", "Q2": "The unpredictability made it hard for me to improve my performance. I did come to realise that the first 3 inner nodes nearly always gave an extra $0.25 so I made sure to press those every time. Trying to find a pattern in the outer nodes was difficult for me and I didn't find any patterns of those in the end"}, "trial_id": "self_report_control", "trial_type": "survey-text", "trial_index": 56, "time_elapsed": 1675245, "internal_node_id": "0.0-4.0-3.0"}}, {"uniqueid": "w20419254:a86043157", "current_trial": 57, "dateTime": 1691161342742, "trialdata": {"rt": 64116, "response": {"Q0": "Strongly agree", "Q1": "Neither disagree nor agree", "Q2": "Agree", "Q3": "Agree", "Q4": "Agree", "Q5": "Agree", "Q6": "Strongly disagree"}, "question_order": [0, 1, 2, 3, 4, 5, 6], "trial_id": "self_report_2", "trial_type": "survey-multi-choice", "trial_index": 57, "time_elapsed": 1739376, "internal_node_id": "0.0-4.0-4.0"}}, {"uniqueid": "w20419254:a86043157", "current_trial": 58, "dateTime": 1691161360541, "trialdata": {"rt": 17781, "response": {"gender": "female", "age": "22", "colorblind": "0", "effort": "0"}, "trial_type": "survey-html-form", "trial_index": 58, "time_elapsed": 1757175, "internal_node_id": "0.0-4.0-5.0"}}, {"uniqueid": "w20419254:a86043157", "current_trial": 59, "dateTime": 1691161481157, "trialdata": {"rt": 120599, "response": {"Q0": "I did find it hard to understand that the cash number that came up after pressing a node wasn't linked to the actual value of the node. I was so focused on the green or red values that for a few rounds at the start I didn't notice the actual node value that appeared for those 3 seconds though I did soon see my mistake", "Q1": "No", "Q2": ""}, "trial_type": "survey-text", "trial_index": 59, "time_elapsed": 1877791, "internal_node_id": "0.0-4.0-6.0"}}, {"uniqueid": "w20419254:a86043157", "current_trial": 60, "dateTime": 1691161483421, "trialdata": {"rt": 2246, "stimulus": "Press 'Finish HIT' in order to reach the completion code. Once the data has been saved, you will receive the code either in this window or in the original browser window where you started the experiment.\n", "response": 0, "trial_type": "html-button-response", "trial_index": 60, "time_elapsed": 1880055, "internal_node_id": "0.0-5.0"}}, {"uniqueid": "w20419254:a86043157", "current_trial": 61, "dateTime": 1691161484439, "trialdata": {"success": true, "trial_type": "fullscreen", "trial_index": 61, "time_elapsed": 1881073, "internal_node_id": "0.0-6.0"}}], "questiondata": {"params": {"CODE": "C6DMOQA6", "MIN_TIME": 14, "inspectCost": 1, "startTime": "Fri Aug 04 2023 15:33:22 GMT+0100 (British Summer Time)", "bonusRate": 0.002, "variance": "1_2_4_8_44", "branching": "31123"}, "final_score": 1054.75}, "eventdata": [{"eventtype": "initialized", "value": null, "timestamp": 1691159602371, "interval": 0}, {"eventtype": "window_resize", "value": [1024, 767], "timestamp": 1691159602371, "interval": 0}, {"eventtype": "window_resize", "value": [1024, 767], "timestamp": 1691159602727, "interval": 356}, {"eventtype": "window_resize", "value": [1920, 1080], "timestamp": 1691159606031, "interval": 3304}, {"eventtype": "focus", "value": "off", "timestamp": 1691159885556, "interval": 279525}, {"eventtype": "focus", "value": "on", "timestamp": 1691159885558, "interval": 2}, {"eventtype": "window_resize", "value": [1024, 767], "timestamp": 1691159885775, "interval": 217}, {"eventtype": "window_resize", "value": [1920, 1080], "timestamp": 1691159887399, "interval": 1624}, {"eventtype": "window_resize", "value": [1024, 767], "timestamp": 1691161483824, "interval": 1596425}], "useragent": "Mozilla/5.0 (X11; CrOS x86_64 14541.0.0) AppleWebKit/537.36 (KHTML, like Gecko) Chrome/114.0.0.0 Safari/537.36", "mode": "live", "id": "w20419254:a86043157", "status": "user data saved", "Beginhit": "2023-08-04 14:33:21.1381", "Beginexp": "2023-08-04 14:33:26.82152", "Endhit": "2023-08-04 15:04:44.755335", "psiturkStatus": 3, "browser": "<redacted>", "platform": "chromeos", "language": "en-GB"}