{"condition": 0, "counterbalance": 0, "assignmentId": "a17327421", "workerId": "w95513092", "hitId": "h56447739", "currenttrial": 55, "bonus": 0, "data": [{"uniqueid": "w95513092:a17327421", "current_trial": 0, "dateTime": 1691076783161, "trialdata": {"success": true, "trial_type": "fullscreen", "trial_index": 0, "time_elapsed": 144590, "internal_node_id": "0.0-0.0"}}, {"uniqueid": "w95513092:a17327421", "current_trial": 1, "dateTime": 1691076792909, "trialdata": {"view_history": [{"page_index": 0, "viewing_time": 9740}], "rt": 9741, "trial_id": "exp_instructions_control", "trial_type": "instructions", "trial_index": 1, "time_elapsed": 154339, "internal_node_id": "0.0-1.0"}}, {"uniqueid": "w95513092:a17327421", "current_trial": 2, "dateTime": 1691076795591, "trialdata": {"success": true, "trial_type": "fullscreen", "trial_index": 2, "time_elapsed": 157021, "internal_node_id": "0.0-2.0-0.0"}}, {"uniqueid": "w95513092:a17327421", "current_trial": 3, "dateTime": 1691076918478, "trialdata": {"view_history": [{"page_index": 0, "viewing_time": 41750}, {"page_index": 1, "viewing_time": 54069}, {"page_index": 2, "viewing_time": 7906}, {"page_index": 3, "viewing_time": 19156}], "rt": 122881, "trial_id": "mouselab_instructions_1_control", "trial_type": "instructions", "trial_index": 3, "time_elapsed": 279908, "internal_node_id": "0.0-2.0-1.0"}}, {"uniqueid": "w95513092:a17327421", "current_trial": 4, "dateTime": 1691076941619, "trialdata": {"revealed_states": [], "clicked_states": ["12", "23", "1", "13", "14", "20"], "num_clicks_accrued": [0, 0, 0, 0, 0, 0, 0, 0, 0, 0, 0, 0, 0], "stateRewards": ["", 10, 10, -10, 10, -10, 10, 10, 10, -10, 10, 10, 10, -10, 10, -10, 10, -10, 10, -10, -10, 10, 10, -10, -10, 10, 10, 10, 10, -10, -10, -10, 10, -10], "withholdReward": false, "trial_id": "practice_1", "block": "test", "trialIndex": 0, "score": -9.5, "costs": -3, "simulationMode": [null, null, null, null, null], "rewards": [-10, -10, 10, -10, 10], "path": ["0", "0", "23", "24", "25", "30", "32"], "rt": [14194, 435, 595, 644, 255], "actions": ["left", "left", "left", "down", "down"], "actionTimes": [15917, 16883, 17991, 19154, 19932], "queries": {"click": {"state": {"target": ["12", "23", "1", "13", "14", "20"], "time": [3923, 5778, 6843, 8182, 10902, 12860]}, "edge": {"target": [], "time": []}}, "mouseover": {"state": {"target": ["0", "12", "13", "23", "1", "13", "14", "19", "20", "21", "0", "0"], "time": [2689, 3686, 4719, 5201, 6636, 7934, 9617, 11347, 12549, 13230, 15076, 15330]}, "edge": {"target": [], "time": []}}, "mouseout": {"state": {"target": ["0", "0", "12", "13", "12", "23", "1", "13", "14", "19", "20", "21", "0"], "time": [1287, 3522, 4652, 5038, 5086, 6433, 7666, 9332, 11296, 12380, 13144, 14645, 15127]}, "edge": {"target": [], "time": []}}}, "displayed_time": "20.46", "trialTime": 22578, "trial_type": "mouselab-mdp", "trial_index": 4, "time_elapsed": 303048, "internal_node_id": "0.0-2.0-2.0-0.0"}}, {"uniqueid": "w95513092:a17327421", "current_trial": 5, "dateTime": 1691076951404, "trialdata": {"revealed_states": [], "clicked_states": [], "num_clicks_accrued": [0, 0, 0, 0, 0, 0, 0, 0, 0, 0, 0, 0, 0], "stateRewards": ["", 10, 10, 10, -10, -10, 10, -10, -10, 10, 10, 10, 10, -10, -10, -10, 10, 10, -10, -10, 10, -10, -10, -10, 10, 10, 10, 10, 10, -10, -10, 10, -10, 10], "withholdReward": false, "trial_id": "practice_2", "block": "test", "trialIndex": 1, "score": 13.5, "costs": 0, "simulationMode": [null, null, null, null, null], "rewards": [10, 10, 10, -10, -10], "path": ["0", "0", "1", "2", "3", "4", "5"], "rt": [2341, 323, 102, 36, 28], "actions": ["up", "up", "up", "right", "up"], "actionTimes": [4106, 4973, 5588, 6177, 6716], "queries": {"click": {"state": {"target": [], "time": []}, "edge": {"target": [], "time": []}}, "mouseover": {"state": {"target": ["0"], "time": [2057]}, "edge": {"target": [], "time": []}}, "mouseout": {"state": {"target": ["0", "0"], "time": [1268, 2304]}, "edge": {"target": [], "time": []}}}, "displayed_time": "7.24", "trialTime": 9512, "trial_type": "mouselab-mdp", "trial_index": 5, "time_elapsed": 312833, "internal_node_id": "0.0-2.0-2.0-1.0"}}, {"uniqueid": "w95513092:a17327421", "current_trial": 6, "dateTime": 1691076972812, "trialdata": {"view_history": [{"page_index": 0, "viewing_time": 16411}, {"page_index": 1, "viewing_time": 4992}], "rt": 21404, "trial_id": "mouselab_instructions_2_control", "trial_type": "instructions", "trial_index": 6, "time_elapsed": 334241, "internal_node_id": "0.0-2.0-3.0"}}, {"uniqueid": "w95513092:a17327421", "current_trial": 7, "dateTime": 1691076995098, "trialdata": {"rt": 22278, "response": {"Q0": "The cost for clicking on nodes may vary between nodes.", "Q1": "The better I perform the higher my bonus will be.", "Q2": "No, the amount of cash at each node of the web may be different each time.", "Q3": "To get the highest total score.", "Q4": "Only before moving the spider.", "Q5": "3 seconds"}, "question_order": [0, 1, 2, 3, 4, 5], "correct": {"Q0": "The cost for clicking on nodes may vary between nodes.", "Q1": "The better I perform the higher my bonus will be.", "Q2": "No, the amount of cash at each node of the web may be different each time.", "Q3": "To get the highest total score.", "Q4": "Only before moving the spider.", "Q5": "3 seconds"}, "trial_id": "mouselab_quiz_control", "trial_type": "survey-multi-choice", "trial_index": 7, "time_elapsed": 356528, "internal_node_id": "0.0-2.0-4.0"}}, {"uniqueid": "w95513092:a17327421", "current_trial": 8, "dateTime": 1691077000260, "trialdata": {"rt": 5154, "stimulus": "\n<h1> Get ready to start the game! </h1>\n\nThank you for reading the instructions. Get ready start with the 40 rounds of this game.\n<br><br>\nIf you need to take a break, feel free to take one after the end of a round, before continuing to the next one.\n<br><br>\nRemember, the more money the spider gets, the bigger your bonus will be!\n<br><br>\n<div style='text-align: center;'>Press <code>space</code> to begin.</div>\n\n<br><br>\n(If, at any point, the <code>space</code> key does not take you to the next page, click once on the text and try again.)", "response": " ", "trial_id": "mdp_ready", "trial_type": "html-keyboard-response", "trial_index": 8, "time_elapsed": 361690, "internal_node_id": "0.0-4.0-0.0"}}, {"uniqueid": "w95513092:a17327421", "current_trial": 9, "dateTime": 1691077018192, "trialdata": {"revealed_states": [], "clicked_states": ["14", "25", "5", "9"], "num_clicks_accrued": [0, 0, 0, 0, 0, 0, 0, 0, 0, 0, 0, 0, 0], "stateRewards": ["", -2, 1, -3, -16, -39, -52, 30, -7, -41, -59, 11, 2, 1, 8, 2, -11, -26, -42, -13, 87, -59, -48, -1, -1, -1, 16, -79, 31, 50, -1, -84, 34, -82], "withholdReward": false, "trial_id": "mdp_trial_1", "block": "test", "trialIndex": 2, "score": -66.6, "costs": -5.6, "simulationMode": [null, null, null, null, null], "rewards": [2, 1, 8, -13, -59], "path": ["0", "0", "12", "13", "14", "19", "21"], "rt": [10383, 319, 155, 216, 265], "actions": ["right", "right", "right", "down", "down"], "actionTimes": [12348, 13186, 13855, 14581, 15366], "queries": {"click": {"state": {"target": ["14", "25", "5", "9"], "time": [4161, 6137, 8001, 10118]}, "edge": {"target": [], "time": []}}, "mouseover": {"state": {"target": ["12", "13", "14", "17", "17", "16", "15", "14", "14", "19", "20", "26", "25", "28", "5", "9", "2", "13"], "time": [2273, 2338, 2387, 2690, 2928, 3372, 3469, 3503, 3955, 4622, 4789, 5125, 5369, 6587, 7308, 8665, 10494, 11021]}, "edge": {"target": [], "time": []}}, "mouseout": {"state": {"target": ["3", "2", "1", "0", "12", "13", "14", "17", "17", "16", "15", "14", "14", "19", "20", "26", "25", "28", "5", "9", "2", "13", "12"], "time": [1009, 1059, 1341, 2241, 2322, 2370, 2624, 2792, 3274, 3453, 3486, 3559, 4553, 4756, 4904, 5221, 6552, 6604, 8393, 10449, 10533, 16892, 17114]}, "edge": {"target": [], "time": []}}}, "displayed_time": "15.97", "trialTime": 17660, "trial_type": "mouselab-mdp", "trial_index": 9, "time_elapsed": 379621, "internal_node_id": "0.0-4.0-1.0-0.0"}}, {"uniqueid": "w95513092:a17327421", "current_trial": 10, "dateTime": 1691077035825, "trialdata": {"revealed_states": [], "clicked_states": [], "num_clicks_accrued": [0, 0, 0, 0, 0, 0, 0, 0, 0, 0, 0, 0, 0], "stateRewards": ["", -2, -4, -6, 12, -58, -70, -80, 2, 16, -88, -62, 1, 2, -5, 11, 77, -35, -44, -5, 18, -83, 87, 1, -3, -5, 13, -44, -21, -86, 10, -52, 8, 29], "withholdReward": false, "trial_id": "mdp_trial_2", "block": "test", "trialIndex": 3, "score": 86, "costs": 0, "simulationMode": [null, null, null, null, null], "rewards": [1, 2, -5, 11, 77], "path": ["0", "0", "12", "13", "14", "15", "16"], "rt": [5673, 35, 12, 173, 903], "actions": ["right", "right", "right", "up", "up"], "actionTimes": [7475, 8041, 8600, 9314, 10741], "queries": {"click": {"state": {"target": [], "time": []}, "edge": {"target": [], "time": []}}, "mouseover": {"state": {"target": ["18", "15", "17", "14", "13", "12", "13", "14", "15", "16", "18", "12"], "time": [3220, 3240, 3585, 3938, 4222, 4471, 4703, 5054, 5239, 5401, 6583, 6637]}, "edge": {"target": [], "time": []}}, "mouseout": {"state": {"target": ["0", "18", "15", "17", "14", "13", "12", "13", "14", "15", "16", "18", "12"], "time": [3157, 3236, 3252, 3790, 4005, 4271, 4654, 4988, 5206, 5370, 6567, 6599, 6650]}, "edge": {"target": [], "time": []}}}, "displayed_time": "15.81", "trialTime": 17354, "trial_type": "mouselab-mdp", "trial_index": 10, "time_elapsed": 397254, "internal_node_id": "0.0-4.0-1.0-1.0"}}, {"uniqueid": "w95513092:a17327421", "current_trial": 11, "dateTime": 1691077052742, "trialdata": {"revealed_states": [], "clicked_states": ["32"], "num_clicks_accrued": [0, 0, 0, 0, 0, 0, 0, 0, 0, 0, 0, 0, 0], "stateRewards": ["", -2, -2, -7, -13, -10, 49, -68, -1, 84, 70, 88, 1, 4, 4, 12, -57, 25, 30, 8, -1, -77, 57, 2, 3, 2, 3, -18, -80, 23, -15, -41, 70, 11], "withholdReward": false, "trial_id": "mdp_trial_3", "block": "test", "trialIndex": 4, "score": -9.4, "costs": -1.4, "simulationMode": [null, null, null, null, null], "rewards": [2, 3, 2, 3, -18], "path": ["0", "0", "23", "24", "25", "26", "27"], "rt": [3782, 68, 690, 524, 565], "actions": ["left", "left", "left", "up", "up"], "actionTimes": [5034, 5620, 6829, 7878, 8966], "queries": {"click": {"state": {"target": ["32"], "time": [2132]}, "edge": {"target": [], "time": []}}, "mouseover": {"state": {"target": ["31", "30", "32", "33", "30", "31"], "time": [1639, 1668, 1862, 3702, 4186, 4234]}, "edge": {"target": [], "time": []}}, "mouseout": {"state": {"target": ["0", "31", "30", "32", "33", "30", "31"], "time": [1588, 1652, 1752, 2141, 4154, 4218, 4386]}, "edge": {"target": [], "time": []}}}, "displayed_time": "15.26", "trialTime": 16564, "trial_type": "mouselab-mdp", "trial_index": 11, "time_elapsed": 414171, "internal_node_id": "0.0-4.0-1.0-2.0"}}, {"uniqueid": "w95513092:a17327421", "current_trial": 12, "dateTime": 1691077069534, "trialdata": {"revealed_states": [], "clicked_states": ["32"], "num_clicks_accrued": [0, 0, 0, 0, 0, 0, 0, 0, 0, 0, 0, 0, 0], "stateRewards": ["", -1, -1, 4, -16, -75, 81, -51, -7, -84, 73, -30, -2, 1, -3, -16, -77, 33, 14, 1, 45, 87, -66, 2, 2, -5, -7, -19, -17, 79, -3, 8, 49, 47], "withholdReward": false, "trial_id": "mdp_trial_4", "block": "test", "trialIndex": 5, "score": 43.6, "costs": -1.4, "simulationMode": [null, null, null, null, null], "rewards": [2, 2, -5, -3, 49], "path": ["0", "0", "23", "24", "25", "30", "32"], "rt": [3939, 101, 56, 495, 16], "actions": ["left", "left", "left", "down", "down"], "actionTimes": [5344, 5970, 6542, 7562, 8099], "queries": {"click": {"state": {"target": ["32"], "time": [2606]}, "edge": {"target": [], "time": []}}, "mouseover": {"state": {"target": ["31", "32"], "time": [2102, 2422]}, "edge": {"target": [], "time": []}}, "mouseout": {"state": {"target": ["12", "0", "31", "32", "32"], "time": [852, 2003, 2118, 2709, 2884]}, "edge": {"target": [], "time": []}}}, "displayed_time": "15.41", "trialTime": 16384, "trial_type": "mouselab-mdp", "trial_index": 12, "time_elapsed": 430963, "internal_node_id": "0.0-4.0-1.0-3.0"}}, {"uniqueid": "w95513092:a17327421", "current_trial": 13, "dateTime": 1691077087884, "trialdata": {"revealed_states": [], "clicked_states": ["5", "9"], "num_clicks_accrued": [0, 0, 0, 0, 0, 0, 0, 0, 0, 0, 0, 0, 0], "stateRewards": ["", 1, -1, 1, 13, 31, -56, 72, 2, 41, 5, 63, -2, -3, -2, 3, -71, -26, 52, 13, -31, 24, -67, 2, -2, 5, 4, 66, 43, 72, 9, 86, -26, 44], "withholdReward": false, "trial_id": "mdp_trial_5", "block": "test", "trialIndex": 6, "score": 41.2, "costs": -2.8, "simulationMode": [null, null, null, null, null], "rewards": [1, -1, 1, 2, 41], "path": ["0", "0", "1", "2", "3", "8", "9"], "rt": [6985, 552, 142, 19, 584], "actions": ["up", "up", "up", "left", "up"], "actionTimes": [9696, 10768, 11422, 11952, 13065], "queries": {"click": {"state": {"target": ["5", "9"], "time": [4011, 6583]}, "edge": {"target": [], "time": []}}, "mouseover": {"state": {"target": ["1", "4", "5", "8", "9", "9", "3", "7", "18"], "time": [3406, 3469, 3822, 5819, 6095, 6400, 7452, 8030, 8833]}, "edge": {"target": [], "time": []}}, "mouseout": {"state": {"target": ["0", "1", "4", "5", "8", "9", "9", "3", "7", "18"], "time": [1637, 3420, 3503, 4750, 5968, 6128, 7365, 7481, 8450, 8984]}, "edge": {"target": [], "time": []}}}, "displayed_time": "16.72", "trialTime": 17980, "trial_type": "mouselab-mdp", "trial_index": 13, "time_elapsed": 449313, "internal_node_id": "0.0-4.0-1.0-4.0"}}, {"uniqueid": "w95513092:a17327421", "current_trial": 14, "dateTime": 1691077105649, "trialdata": {"revealed_states": [], "clicked_states": ["33", "31", "20"], "num_clicks_accrued": [0, 0, 0, 0, 0, 0, 0, 0, 0, 0, 0, 0, 0], "stateRewards": ["", 2, -1, 3, -12, -83, 6, -33, 9, 28, 24, -50, -2, -1, -2, -5, -87, 37, 82, 12, 80, -5, 10, -2, -3, -6, 9, 22, -1, 16, 9, 77, -62, 58], "withholdReward": false, "trial_id": "mdp_trial_6", "block": "test", "trialIndex": 7, "score": 82.8, "costs": -4.199999999999999, "simulationMode": [null, null, null, null, null], "rewards": [-2, -1, -2, 12, 80], "path": ["0", "0", "12", "13", "14", "19", "20"], "rt": [10065, 489, 61, 78, 40], "actions": ["right", "right", "right", "down", "right"], "actionTimes": [11987, 12993, 13565, 14167, 14727], "queries": {"click": {"state": {"target": ["33", "31", "20"], "time": [3964, 6361, 9253]}, "edge": {"target": [], "time": []}}, "mouseover": {"state": {"target": ["23", "24", "25", "30", "33", "31", "22", "22", "19", "20", "20"], "time": [2477, 2671, 2725, 3494, 3777, 6042, 6874, 8521, 8733, 8858, 9106]}, "edge": {"target": [], "time": []}}, "mouseout": {"state": {"target": ["12", "23", "24", "25", "30", "33", "33", "31", "31", "22", "22", "19", "20", "20", "20"], "time": [1029, 2623, 2676, 3229, 3602, 4058, 4239, 6372, 6774, 6906, 8572, 8823, 8925, 9367, 9872]}, "edge": {"target": [], "time": []}}}, "displayed_time": "15.93", "trialTime": 17297, "trial_type": "mouselab-mdp", "trial_index": 14, "time_elapsed": 467078, "internal_node_id": "0.0-4.0-1.0-5.0"}}, {"uniqueid": "w95513092:a17327421", "current_trial": 15, "dateTime": 1691077125308, "trialdata": {"revealed_states": [], "clicked_states": ["32", "6", "9"], "num_clicks_accrued": [0, 0, 0, 0, 0, 0, 0, 0, 0, 0, 0, 0, 0], "stateRewards": ["", 1, 2, 8, -2, 23, -69, -18, -16, 54, -21, 71, -1, -4, 7, 11, 43, -6, 88, 6, -55, 72, 43, 1, -3, -2, -1, 68, -31, -54, 4, -8, 25, -2], "withholdReward": false, "trial_id": "mdp_trial_7", "block": "test", "trialIndex": 8, "score": -30.2, "costs": -4.199999999999999, "simulationMode": [null, null, null, null, null], "rewards": [1, 2, 8, -16, -21], "path": ["0", "0", "1", "2", "3", "8", "10"], "rt": [10203, 444, 103, 87, 77], "actions": ["up", "up", "up", "left", "down"], "actionTimes": [12745, 13702, 14323, 14923, 15514], "queries": {"click": {"state": {"target": ["32", "6", "9"], "time": [4474, 6491, 9923]}, "edge": {"target": [], "time": []}}, "mouseover": {"state": {"target": ["31", "32", "31", "23", "1", "7", "6", "6", "13", "7", "3", "9", "3"], "time": [3575, 3792, 4894, 4942, 4961, 5376, 5591, 5811, 7657, 9276, 9540, 9673, 10687]}, "edge": {"target": [], "time": []}}, "mouseout": {"state": {"target": ["19", "12", "0", "31", "32", "31", "23", "1", "7", "6", "6", "13", "7", "3", "9", "3"], "time": [1064, 1293, 3145, 3625, 4860, 4924, 4959, 5024, 5395, 5660, 7158, 9224, 9307, 9589, 10661, 10721]}, "edge": {"target": [], "time": []}}}, "displayed_time": "16.55", "trialTime": 19202, "trial_type": "mouselab-mdp", "trial_index": 15, "time_elapsed": 486737, "internal_node_id": "0.0-4.0-1.0-6.0"}}, {"uniqueid": "w95513092:a17327421", "current_trial": 16, "dateTime": 1691077144374, "trialdata": {"revealed_states": [], "clicked_states": ["11", "6", "17", "20"], "num_clicks_accrued": [0, 0, 0, 0, 0, 0, 0, 0, 0, 0, 0, 0, 0], "stateRewards": ["", -2, -1, -1, 5, -54, -87, 35, 2, -8, 20, -22, 1, 3, 6, 13, -75, -32, -55, -3, 56, 62, -22, -1, -4, -1, -7, -51, 84, 70, 7, -15, 5, 55], "withholdReward": false, "trial_id": "mdp_trial_8", "block": "test", "trialIndex": 9, "score": 57.4, "costs": -5.6, "simulationMode": [null, null, null, null, null], "rewards": [1, 3, 6, -3, 56], "path": ["0", "0", "12", "13", "14", "19", "20"], "rt": [12218, 450, 151, 102, 282], "actions": ["right", "right", "right", "down", "right"], "actionTimes": [13416, 14388, 15072, 15689, 16489], "queries": {"click": {"state": {"target": ["11", "6", "17", "20"], "time": [3071, 5342, 7756, 9805]}, "edge": {"target": [], "time": []}}, "mouseover": {"state": {"target": ["10", "8", "9", "11", "8", "10", "4", "6", "4", "2", "18", "14", "17", "20", "19", "22", "32", "32", "21"], "time": [1847, 2194, 2378, 2931, 3295, 3776, 4928, 5193, 5740, 5840, 6357, 6694, 7258, 8790, 10254, 10272, 10748, 10987, 12156]}, "edge": {"target": [], "time": []}}, "mouseout": {"state": {"target": ["2", "1", "10", "8", "9", "11", "11", "8", "10", "4", "6", "4", "2", "18", "14", "17", "20", "19", "22", "32", "32"], "time": [561, 615, 2179, 2214, 2695, 3139, 3259, 3319, 4845, 4993, 5710, 5760, 6309, 6374, 7176, 8198, 10239, 10269, 10281, 10789, 11975]}, "edge": {"target": [], "time": []}}}, "displayed_time": "17.01", "trialTime": 18716, "trial_type": "mouselab-mdp", "trial_index": 16, "time_elapsed": 505803, "internal_node_id": "0.0-4.0-1.0-7.0"}}, {"uniqueid": "w95513092:a17327421", "current_trial": 17, "dateTime": 1691077162463, "trialdata": {"revealed_states": [], "clicked_states": ["32", "31", "33"], "num_clicks_accrued": [0, 0, 0, 0, 0, 0, 0, 0, 0, 0, 0, 0, 0], "stateRewards": ["", 1, -3, -2, 14, 49, -40, -39, 2, 26, -61, 73, 1, -4, -8, 12, 79, 29, -65, -13, 55, -26, 27, -1, 3, 3, 9, -17, -60, -18, -8, 35, -88, 69], "withholdReward": false, "trial_id": "mdp_trial_9", "block": "test", "trialIndex": 10, "score": 61.8, "costs": -4.199999999999999, "simulationMode": [null, null, null, null, null], "rewards": [-1, 3, 3, -8, 69], "path": ["0", "0", "23", "24", "25", "30", "33"], "rt": [9266, 3, 68, 512, 518], "actions": ["left", "left", "left", "down", "left"], "actionTimes": [11631, 12160, 12758, 13783, 14823], "queries": {"click": {"state": {"target": ["32", "31", "33"], "time": [3257, 6076, 9822]}, "edge": {"target": [], "time": []}}, "mouseover": {"state": {"target": ["31", "32", "31", "22", "21", "33"], "time": [2896, 3126, 5926, 6505, 7957, 9756]}, "edge": {"target": [], "time": []}}, "mouseout": {"state": {"target": ["21", "22", "0", "0", "31", "32", "31", "22", "21", "33", "31"], "time": [479, 509, 575, 2826, 2910, 5692, 6087, 6524, 8072, 10269, 10320]}, "edge": {"target": [], "time": []}}}, "displayed_time": "16.37", "trialTime": 17766, "trial_type": "mouselab-mdp", "trial_index": 17, "time_elapsed": 523892, "internal_node_id": "0.0-4.0-1.0-8.0"}}, {"uniqueid": "w95513092:a17327421", "current_trial": 18, "dateTime": 1691077179345, "trialdata": {"revealed_states": [], "clicked_states": ["17", "18"], "num_clicks_accrued": [0, 0, 0, 0, 0, 0, 0, 0, 0, 0, 0, 0, 0], "stateRewards": ["", -1, 4, -5, 9, 29, -75, -42, -16, 24, -28, -41, 2, -3, 1, 10, 60, 47, 55, -1, -53, 22, -40, 2, -3, -6, 4, -26, 44, 54, 15, -76, 42, 14], "withholdReward": false, "trial_id": "mdp_trial_10", "block": "test", "trialIndex": 11, "score": 62.2, "costs": -2.8, "simulationMode": [null, null, null, null, null], "rewards": [2, -3, 1, 10, 55], "path": ["0", "0", "12", "13", "14", "15", "18"], "rt": [5947, 59, 146, 85, 87], "actions": ["right", "right", "right", "up", "left"], "actionTimes": [7408, 7986, 8656, 9269, 9882], "queries": {"click": {"state": {"target": ["17", "18"], "time": [3058, 5400]}, "edge": {"target": [], "time": []}}, "mouseover": {"state": {"target": ["15", "17", "16", "18", "14"], "time": [2746, 2878, 3960, 5292, 5776]}, "edge": {"target": [], "time": []}}, "mouseout": {"state": {"target": ["12", "0", "15", "17", "16", "18", "14"], "time": [782, 2248, 2812, 3844, 5156, 5727, 5842]}, "edge": {"target": [], "time": []}}}, "displayed_time": "15.47", "trialTime": 16528, "trial_type": "mouselab-mdp", "trial_index": 18, "time_elapsed": 540774, "internal_node_id": "0.0-4.0-1.0-9.0"}}, {"uniqueid": "w95513092:a17327421", "current_trial": 19, "dateTime": 1691077196487, "trialdata": {"revealed_states": [], "clicked_states": ["9", "10", "28", "27"], "num_clicks_accrued": [0, 0, 0, 0, 0, 0, 0, 0, 0, 0, 0, 0, 0], "stateRewards": ["", 2, -1, 8, -2, -16, 69, -39, -7, -13, -27, -86, 2, -2, 2, 13, -34, -16, -20, -5, 19, 81, 32, -2, -1, 2, -14, 20, 80, 58, 4, 70, 12, 73], "withholdReward": false, "trial_id": "mdp_trial_11", "block": "test", "trialIndex": 12, "score": 59.4, "costs": -5.6, "simulationMode": [null, null, null, null, null], "rewards": [-2, -1, 2, -14, 80], "path": ["0", "0", "23", "24", "25", "26", "28"], "rt": [9537, 2, 120, 43, 38], "actions": ["left", "left", "left", "up", "right"], "actionTimes": [11314, 11831, 12500, 13053, 13618], "queries": {"click": {"state": {"target": ["9", "10", "28", "27"], "time": [3399, 5574, 7474, 9437]}, "edge": {"target": [], "time": []}}, "mouseover": {"state": {"target": ["1", "2", "3", "9", "8", "10", "28", "27"], "time": [2465, 2568, 2650, 3251, 4797, 4997, 6878, 8029]}, "edge": {"target": [], "time": []}}, "mouseout": {"state": {"target": ["13", "12", "1", "2", "3", "9", "8", "10", "28", "27"], "time": [1115, 1149, 2532, 2619, 3018, 4734, 4882, 6745, 7913, 9728]}, "edge": {"target": [], "time": []}}}, "displayed_time": "15.79", "trialTime": 16670, "trial_type": "mouselab-mdp", "trial_index": 19, "time_elapsed": 557917, "internal_node_id": "0.0-4.0-1.0-10.0"}}, {"uniqueid": "w95513092:a17327421", "current_trial": 20, "dateTime": 1691077212441, "trialdata": {"revealed_states": [], "clicked_states": ["29", "33", "32"], "num_clicks_accrued": [0, 0, 0, 0, 0, 0, 0, 0, 0, 0, 0, 0, 0], "stateRewards": ["", 2, -4, 7, 3, 23, -42, 4, 7, -81, -33, 7, -2, -4, 5, -1, 50, -57, -14, -13, -14, 44, 55, -2, -2, 5, -2, 33, 1, 57, -13, -7, 58, 87], "withholdReward": false, "trial_id": "mdp_trial_12", "block": "test", "trialIndex": 13, "score": 70.8, "costs": -4.199999999999999, "simulationMode": [null, null, null, null, null], "rewards": [-2, -2, 5, -13, 87], "path": ["0", "0", "23", "24", "25", "30", "33"], "rt": [7623, 43, 122, 506, 98], "actions": ["left", "left", "left", "down", "left"], "actionTimes": [8669, 9275, 9907, 10923, 11554], "queries": {"click": {"state": {"target": ["29", "33", "32"], "time": [1957, 4278, 6644]}, "edge": {"target": [], "time": []}}, "mouseover": {"state": {"target": ["23", "24", "25", "29", "25", "25", "33", "30", "32"], "time": [1233, 1257, 1336, 1788, 2236, 3254, 3407, 4801, 6468]}, "edge": {"target": [], "time": []}}, "mouseout": {"state": {"target": ["0", "23", "24", "25", "29", "25", "25", "33", "30"], "time": [1229, 1253, 1270, 1544, 2134, 2270, 3302, 4786, 4817]}, "edge": {"target": [], "time": []}}}, "displayed_time": "15.05", "trialTime": 15623, "trial_type": "mouselab-mdp", "trial_index": 20, "time_elapsed": 573871, "internal_node_id": "0.0-4.0-1.0-11.0"}}, {"uniqueid": "w95513092:a17327421", "current_trial": 21, "dateTime": 1691077229752, "trialdata": {"revealed_states": [], "clicked_states": ["31", "22", "20", "17", "16"], "num_clicks_accrued": [0, 0, 0, 0, 0, 0, 0, 0, 0, 0, 0, 0, 0], "stateRewards": ["", -2, 1, -8, 12, -65, -79, 16, 7, -80, -17, -45, -2, 2, -5, -2, -85, 23, -4, -7, 48, 27, -76, 2, 3, 5, 2, 43, 71, -13, 7, -49, 59, -31], "withholdReward": false, "trial_id": "mdp_trial_13", "block": "test", "trialIndex": 14, "score": 29, "costs": -7, "simulationMode": [null, null, null, null, null], "rewards": [-2, 2, -5, -7, 48], "path": ["0", "0", "12", "13", "14", "19", "20"], "rt": [11206, 57, 122, 12, 5], "actions": ["right", "right", "right", "down", "right"], "actionTimes": [12791, 13355, 13988, 14515, 15058], "queries": {"click": {"state": {"target": ["31", "22", "20", "17", "16"], "time": [2673, 4604, 6583, 8549, 10741]}, "edge": {"target": [], "time": []}}, "mouseover": {"state": {"target": ["32", "31", "22", "19", "20", "17", "16"], "time": [2088, 2508, 4006, 5084, 5119, 7168, 10618]}, "edge": {"target": [], "time": []}}, "mouseout": {"state": {"target": ["32", "31", "0", "32", "31", "22", "19", "20", "17", "16"], "time": [857, 905, 1942, 2324, 2685, 5036, 5105, 7002, 9767, 16233]}, "edge": {"target": [], "time": []}}}, "displayed_time": "15.59", "trialTime": 16947, "trial_type": "mouselab-mdp", "trial_index": 21, "time_elapsed": 591181, "internal_node_id": "0.0-4.0-1.0-12.0"}}, {"uniqueid": "w95513092:a17327421", "current_trial": 22, "dateTime": 1691077246216, "trialdata": {"revealed_states": [], "clicked_states": ["7", "10"], "num_clicks_accrued": [0, 0, 0, 0, 0, 0, 0, 0, 0, 0, 0, 0, 0], "stateRewards": ["", -1, 1, 6, -6, 70, 66, 67, -16, -75, -35, 37, -1, 4, 4, -6, 47, -9, 63, 15, 21, -63, 13, 1, 3, -6, 10, 79, -29, 18, -15, 9, -67, -19], "withholdReward": false, "trial_id": "mdp_trial_14", "block": "test", "trialIndex": 15, "score": 64.2, "costs": -2.8, "simulationMode": [null, null, null, null, null], "rewards": [-1, 1, 6, -6, 67], "path": ["0", "0", "1", "2", "3", "4", "7"], "rt": [5282, 4, 20, 589, 82], "actions": ["up", "up", "up", "right", "down"], "actionTimes": [6424, 6955, 7503, 8617, 9210], "queries": {"click": {"state": {"target": ["7", "10"], "time": [2454, 4492]}, "edge": {"target": [], "time": []}}, "mouseover": {"state": {"target": ["1", "2", "4", "4", "7", "2", "10", "10"], "time": [1419, 1484, 1826, 2185, 2264, 3063, 3096, 3429]}, "edge": {"target": [], "time": []}}, "mouseout": {"state": {"target": ["1", "2", "4", "4", "7", "2", "10"], "time": [1448, 1498, 1913, 2234, 3031, 3079, 3145]}, "edge": {"target": [], "time": []}}}, "displayed_time": "15.15", "trialTime": 15998, "trial_type": "mouselab-mdp", "trial_index": 22, "time_elapsed": 607646, "internal_node_id": "0.0-4.0-1.0-13.0"}}, {"uniqueid": "w95513092:a17327421", "current_trial": 23, "dateTime": 1691077266187, "trialdata": {"revealed_states": [], "clicked_states": ["5", "10", "27", "32", "31"], "num_clicks_accrued": [0, 0, 0, 0, 0, 0, 0, 0, 0, 0, 0, 0, 0], "stateRewards": ["", 2, 3, -3, 12, -43, 81, -82, -15, 58, -7, -75, -1, -1, 3, -5, 50, -25, -8, 4, 66, 65, -66, 2, -4, 2, -1, -10, 10, 37, 11, 88, -37, 8], "withholdReward": false, "trial_id": "mdp_trial_15", "block": "test", "trialIndex": 16, "score": 92, "costs": -7, "simulationMode": [null, null, null, null, null], "rewards": [2, -4, 2, 11, 88], "path": ["0", "0", "23", "24", "25", "30", "31"], "rt": [14029, 19, 26, 579, 17], "actions": ["left", "left", "left", "down", "right"], "actionTimes": [15353, 15887, 16440, 17548, 18085], "queries": {"click": {"state": {"target": ["5", "10", "27", "32", "31"], "time": [2158, 4036, 6288, 9464, 12507]}, "edge": {"target": [], "time": []}}, "mouseover": {"state": {"target": ["1", "5", "3", "8", "10", "27", "28", "23", "24", "25", "25", "30", "32", "31", "31", "20", "21"], "time": [1473, 1857, 2710, 2743, 3079, 6125, 6720, 8572, 8620, 8669, 8989, 9070, 9354, 12086, 12384, 12985, 13282]}, "edge": {"target": [], "time": []}}, "mouseout": {"state": {"target": ["10", "0", "1", "5", "3", "8", "10", "27", "28", "23", "24", "25", "25", "30", "32", "31", "31", "20", "21"], "time": [659, 910, 1492, 2678, 2722, 2772, 5604, 6705, 6756, 8590, 8654, 8840, 9020, 9085, 9481, 12134, 12518, 13150, 14851]}, "edge": {"target": [], "time": []}}}, "displayed_time": "18.64", "trialTime": 19624, "trial_type": "mouselab-mdp", "trial_index": 23, "time_elapsed": 627616, "internal_node_id": "0.0-4.0-1.0-14.0"}}, {"uniqueid": "w95513092:a17327421", "current_trial": 24, "dateTime": 1691077287958, "trialdata": {"revealed_states": [], "clicked_states": ["17", "6", "5", "7", "21", "20"], "num_clicks_accrued": [0, 0, 0, 0, 0, 0, 0, 0, 0, 0, 0, 0, 0], "stateRewards": ["", 1, 2, -6, -13, -51, 22, -4, -12, -44, -12, 6, -2, -2, -2, -14, -46, -4, -77, -2, 36, -79, 41, 2, -4, 2, -6, -55, 59, 70, -5, 39, -19, 24], "withholdReward": false, "trial_id": "mdp_trial_16", "block": "test", "trialIndex": 17, "score": 24.6, "costs": -8.4, "simulationMode": [null, null, null, null, null], "rewards": [-2, -2, -2, -2, 41], "path": ["0", "0", "12", "13", "14", "19", "22"], "rt": [15523, 143, 145, 14, 50], "actions": ["right", "right", "right", "down", "left"], "actionTimes": [17142, 17800, 18467, 19003, 19586], "queries": {"click": {"state": {"target": ["17", "6", "5", "7", "21", "20"], "time": [2298, 4327, 7682, 9704, 12670, 15252]}, "edge": {"target": [], "time": []}}, "mouseover": {"state": {"target": ["12", "13", "14", "17", "17", "16", "18", "6", "5", "7", "2", "3", "4", "5", "4", "7", "15", "21", "20"], "time": [1829, 1881, 1914, 2015, 2063, 2696, 3063, 4097, 4793, 6780, 6886, 7143, 7211, 7579, 7876, 9042, 11908, 12624, 15059]}, "edge": {"target": [], "time": []}}, "mouseout": {"state": {"target": ["0", "12", "13", "14", "17", "17", "16", "18", "6", "5", "6", "7", "2", "3", "4", "5", "4", "7", "15", "21"], "time": [1797, 1864, 1897, 1930, 2029, 2359, 2996, 3778, 4335, 6259, 6321, 6827, 6908, 7180, 7259, 7842, 7910, 11542, 12145, 12680]}, "edge": {"target": [], "time": []}}}, "displayed_time": "20.12", "trialTime": 21298, "trial_type": "mouselab-mdp", "trial_index": 24, "time_elapsed": 649388, "internal_node_id": "0.0-4.0-1.0-15.0"}}, {"uniqueid": "w95513092:a17327421", "current_trial": 25, "dateTime": 1691077304965, "trialdata": {"revealed_states": [], "clicked_states": ["5"], "num_clicks_accrued": [0, 0, 0, 0, 0, 0, 0, 0, 0, 0, 0, 0, 0], "stateRewards": ["", 2, 4, -5, 7, 81, 35, 6, 11, 14, -72, 42, -1, 2, 3, -7, -77, -44, -40, -15, -85, 51, -32, -2, -1, -5, 7, -74, 47, 52, 16, -49, 48, -46], "withholdReward": false, "trial_id": "mdp_trial_17", "block": "test", "trialIndex": 18, "score": 87.6, "costs": -1.4, "simulationMode": [null, null, null, null, null], "rewards": [2, 4, -5, 7, 81], "path": ["0", "0", "1", "2", "3", "4", "5"], "rt": [4391, 432, 52, 434, 11], "actions": ["up", "up", "up", "right", "up"], "actionTimes": [6085, 7029, 7598, 8549, 9073], "queries": {"click": {"state": {"target": ["5"], "time": [2565]}, "edge": {"target": [], "time": []}}, "mouseover": {"state": {"target": ["1", "5", "25", "33", "32"], "time": [1981, 2432, 3014, 3048, 3381]}, "edge": {"target": [], "time": []}}, "mouseout": {"state": {"target": ["20", "13", "0", "1", "5", "25", "33", "32", "22"], "time": [532, 580, 1950, 1998, 2932, 3030, 3331, 4866, 11809]}, "edge": {"target": [], "time": []}}}, "displayed_time": "15.70", "trialTime": 16554, "trial_type": "mouselab-mdp", "trial_index": 25, "time_elapsed": 666394, "internal_node_id": "0.0-4.0-1.0-16.0"}}, {"uniqueid": "w95513092:a17327421", "current_trial": 26, "dateTime": 1691077321605, "trialdata": {"revealed_states": [], "clicked_states": ["9", "29", "32"], "num_clicks_accrued": [0, 0, 0, 0, 0, 0, 0, 0, 0, 0, 0, 0, 0], "stateRewards": ["", -2, 1, -7, -8, -37, -76, -87, 11, 30, -63, 80, -1, 4, 2, -1, 42, 17, 52, -3, -75, -80, -68, 2, -3, -5, -15, -48, 82, 24, -7, 5, -22, -71], "withholdReward": false, "trial_id": "mdp_trial_18", "block": "test", "trialIndex": 19, "score": 78.8, "costs": -4.199999999999999, "simulationMode": [null, null, null, null, null], "rewards": [-2, 1, -7, 11, 80], "path": ["0", "0", "1", "2", "3", "8", "11"], "rt": [8291, 464, 42, 667, 4], "actions": ["up", "up", "up", "left", "left"], "actionTimes": [9869, 10855, 11417, 12622, 13143], "queries": {"click": {"state": {"target": ["9", "29", "32"], "time": [2575, 4826, 7653]}, "edge": {"target": [], "time": []}}, "mouseover": {"state": {"target": ["10", "8", "9", "29", "26", "28", "23", "30", "32"], "time": [2013, 2290, 2341, 3340, 5307, 5326, 5359, 7342, 7528]}, "edge": {"target": [], "time": []}}, "mouseout": {"state": {"target": ["21", "0", "10", "8", "9", "9", "29", "26", "28", "23", "30"], "time": [677, 1912, 2275, 2324, 2599, 2957, 5289, 5322, 5339, 5372, 7454]}, "edge": {"target": [], "time": []}}}, "displayed_time": "15.58", "trialTime": 16166, "trial_type": "mouselab-mdp", "trial_index": 26, "time_elapsed": 683034, "internal_node_id": "0.0-4.0-1.0-17.0"}}, {"uniqueid": "w95513092:a17327421", "current_trial": 27, "dateTime": 1691077341206, "trialdata": {"revealed_states": [], "clicked_states": ["5", "17"], "num_clicks_accrued": [0, 0, 0, 0, 0, 0, 0, 0, 0, 0, 0, 0, 0], "stateRewards": ["", 1, 2, -3, -5, 66, -50, -47, -5, 1, 28, -27, 1, 1, -1, -6, 37, -25, 56, 1, -82, -66, -40, -1, -4, -7, 15, -61, -23, 26, 10, 14, -56, 29], "withholdReward": false, "trial_id": "mdp_trial_19", "block": "test", "trialIndex": 20, "score": 58.2, "costs": -2.8, "simulationMode": [null, null, null, null, null], "rewards": [1, 2, -3, -5, 66], "path": ["0", "0", "1", "2", "3", "4", "5"], "rt": [5365, 380, 95, 18, 85], "actions": ["up", "up", "up", "right", "up"], "actionTimes": [6810, 7751, 8368, 8928, 9540], "queries": {"click": {"state": {"target": ["5", "17"], "time": [2904, 4936]}, "edge": {"target": [], "time": []}}, "mouseover": {"state": {"target": ["7", "4", "5", "5", "6", "17", "17"], "time": [2008, 2040, 2306, 2672, 3288, 3620, 3906]}, "edge": {"target": [], "time": []}}, "mouseout": {"state": {"target": ["32", "12", "0", "7", "4", "5", "5", "6", "17", "17"], "time": [244, 639, 1623, 2023, 2292, 2372, 3259, 3309, 3685, 5009]}, "edge": {"target": [], "time": []}}}, "displayed_time": "15.45", "trialTime": 19074, "trial_type": "mouselab-mdp", "trial_index": 27, "time_elapsed": 702635, "internal_node_id": "0.0-4.0-1.0-18.0"}}, {"uniqueid": "w95513092:a17327421", "current_trial": 28, "dateTime": 1691077359153, "trialdata": {"revealed_states": [], "clicked_states": ["21", "17", "22"], "num_clicks_accrued": [0, 0, 0, 0, 0, 0, 0, 0, 0, 0, 0, 0, 0], "stateRewards": ["", -1, 2, 5, -6, 13, -64, -47, 8, -79, -80, -33, 1, 2, -2, -16, 56, -71, -10, 3, 29, 44, 85, -1, 4, 5, 4, -36, -56, 19, 8, 52, -13, -2], "withholdReward": false, "trial_id": "mdp_trial_20", "block": "test", "trialIndex": 21, "score": 84.8, "costs": -4.199999999999999, "simulationMode": [null, null, null, null, null], "rewards": [1, 2, -2, 3, 85], "path": ["0", "0", "12", "13", "14", "19", "22"], "rt": [8686, 406, 138, 60, 3], "actions": ["right", "right", "right", "down", "left"], "actionTimes": [11897, 12847, 13502, 14082, 14598], "queries": {"click": {"state": {"target": ["21", "17", "22"], "time": [4530, 6677, 9204]}, "edge": {"target": [], "time": []}}, "mouseover": {"state": {"target": ["12", "13", "19", "21", "17", "22", "13", "18", "16", "17"], "time": [3829, 3882, 3915, 4218, 5399, 8780, 9946, 9995, 11195, 11227]}, "edge": {"target": [], "time": []}}, "mouseout": {"state": {"target": ["13", "12", "0", "12", "13", "19", "21", "17", "22", "13", "18", "16", "17"], "time": [1397, 1431, 3816, 3867, 3899, 3966, 4965, 8580, 9911, 9961, 11081, 11215, 11245]}, "edge": {"target": [], "time": []}}}, "displayed_time": "17.21", "trialTime": 17495, "trial_type": "mouselab-mdp", "trial_index": 28, "time_elapsed": 720582, "internal_node_id": "0.0-4.0-1.0-19.0"}}, {"uniqueid": "w95513092:a17327421", "current_trial": 29, "dateTime": 1691077376250, "trialdata": {"revealed_states": [], "clicked_states": ["5", "10", "17"], "num_clicks_accrued": [0, 0, 0, 0, 0, 0, 0, 0, 0, 0, 0, 0, 0], "stateRewards": ["", -2, 2, -1, -6, 22, 6, 6, -5, 70, -42, 65, 1, 3, 5, -6, -67, -9, 3, 14, 7, -62, -13, -2, 4, 1, 16, 42, -21, -52, -8, 32, 53, 81], "withholdReward": false, "trial_id": "mdp_trial_21", "block": "test", "trialIndex": 22, "score": -5.199999999999999, "costs": -4.199999999999999, "simulationMode": [null, null, null, null, null], "rewards": [-2, 2, -1, -6, 6], "path": ["0", "0", "1", "2", "3", "4", "6"], "rt": [7910, 3, 39, 98, 499], "actions": ["up", "up", "up", "right", "right"], "actionTimes": [9730, 10253, 10824, 11431, 12448], "queries": {"click": {"state": {"target": ["5", "10", "17"], "time": [2697, 4857, 7468]}, "edge": {"target": [], "time": []}}, "mouseover": {"state": {"target": ["1", "2", "5", "8", "10", "15", "17"], "time": [2157, 2174, 2506, 3115, 3435, 7037, 7334]}, "edge": {"target": [], "time": []}}, "mouseout": {"state": {"target": ["13", "12", "0", "1", "2", "5", "8", "10", "15"], "time": [988, 1001, 2108, 2171, 2187, 2745, 3385, 6950, 7281]}, "edge": {"target": [], "time": []}}}, "displayed_time": "15.83", "trialTime": 16542, "trial_type": "mouselab-mdp", "trial_index": 29, "time_elapsed": 737680, "internal_node_id": "0.0-4.0-1.0-20.0"}}, {"uniqueid": "w95513092:a17327421", "current_trial": 30, "dateTime": 1691077392690, "trialdata": {"revealed_states": [], "clicked_states": ["5", "32"], "num_clicks_accrued": [0, 0, 0, 0, 0, 0, 0, 0, 0, 0, 0, 0, 0], "stateRewards": ["", 1, 2, -5, 14, 54, -14, -25, 16, -5, -87, 78, -1, 1, 3, -3, 52, 53, 53, -10, 73, -69, -48, 2, 3, 1, 8, -62, -7, 85, 7, 82, 52, -28], "withholdReward": false, "trial_id": "mdp_trial_22", "block": "test", "trialIndex": 23, "score": 63.2, "costs": -2.8, "simulationMode": [null, null, null, null, null], "rewards": [1, 2, -5, 14, 54], "path": ["0", "0", "1", "2", "3", "4", "5"], "rt": [5256, 329, 111, 29, 622], "actions": ["up", "up", "up", "right", "up"], "actionTimes": [6752, 7628, 8255, 8837, 9982], "queries": {"click": {"state": {"target": ["5", "32"], "time": [2390, 4659]}, "edge": {"target": [], "time": []}}, "mouseover": {"state": {"target": ["3", "5", "5", "30", "32"], "time": [1880, 1928, 2246, 2793, 3095]}, "edge": {"target": [], "time": []}}, "mouseout": {"state": {"target": ["17", "15", "18", "0", "3", "5", "5", "5", "30", "32"], "time": [514, 546, 579, 1546, 1892, 2046, 2402, 2693, 3029, 5075]}, "edge": {"target": [], "time": []}}}, "displayed_time": "15.50", "trialTime": 15984, "trial_type": "mouselab-mdp", "trial_index": 30, "time_elapsed": 754119, "internal_node_id": "0.0-4.0-1.0-21.0"}}, {"uniqueid": "w95513092:a17327421", "current_trial": 31, "dateTime": 1691077411001, "trialdata": {"revealed_states": [], "clicked_states": ["6", "22", "32"], "num_clicks_accrued": [0, 0, 0, 0, 0, 0, 0, 0, 0, 0, 0, 0, 0], "stateRewards": ["", -1, -3, -6, 14, 41, 18, 63, -14, 80, 21, 17, -2, -4, -2, -5, 13, 70, 8, -4, -64, -10, -20, 2, -1, 4, -1, -17, -55, 42, -7, 47, 54, 15], "withholdReward": false, "trial_id": "mdp_trial_23", "block": "test", "trialIndex": 24, "score": 47.8, "costs": -4.199999999999999, "simulationMode": [null, null, null, null, null], "rewards": [2, -1, 4, -7, 54], "path": ["0", "0", "23", "24", "25", "30", "32"], "rt": [7783, 4, 57, 22, 116], "actions": ["left", "left", "left", "down", "down"], "actionTimes": [9161, 9693, 10273, 10832, 11464], "queries": {"click": {"state": {"target": ["6", "22", "32"], "time": [2188, 4263, 6870]}, "edge": {"target": [], "time": []}}, "mouseover": {"state": {"target": ["7", "6", "16", "17", "19", "22", "21", "32"], "time": [1601, 1934, 2547, 2617, 2983, 3248, 4701, 6679]}, "edge": {"target": [], "time": []}}, "mouseout": {"state": {"target": ["0", "7", "6", "16", "17", "19", "22", "21", "32", "22", "4", "7", "1"], "time": [1535, 1634, 2531, 2580, 2632, 3182, 4668, 4746, 7467, 14827, 17106, 17139, 17459]}, "edge": {"target": [], "time": []}}}, "displayed_time": "15.39", "trialTime": 17762, "trial_type": "mouselab-mdp", "trial_index": 31, "time_elapsed": 772430, "internal_node_id": "0.0-4.0-1.0-22.0"}}, {"uniqueid": "w95513092:a17327421", "current_trial": 32, "dateTime": 1691077430639, "trialdata": {"revealed_states": [], "clicked_states": ["9", "7", "10", "27"], "num_clicks_accrued": [0, 0, 0, 0, 0, 0, 0, 0, 0, 0, 0, 0, 0], "stateRewards": ["", 1, -1, 8, -3, 38, 85, -20, -4, 8, 23, 73, 2, -4, 6, -13, 44, 7, -28, -11, -77, 45, -69, 1, -1, -7, -11, 75, -51, -87, 7, 36, -53, -26], "withholdReward": false, "trial_id": "mdp_trial_24", "block": "test", "trialIndex": 25, "score": 51.4, "costs": -5.6, "simulationMode": [null, null, null, null, null], "rewards": [1, -1, -7, -11, 75], "path": ["0", "0", "23", "24", "25", "26", "27"], "rt": [11203, 24, 62, 91, 58], "actions": ["left", "left", "left", "up", "up"], "actionTimes": [13048, 13589, 14164, 14774, 15359], "queries": {"click": {"state": {"target": ["9", "7", "10", "27"], "time": [2805, 5264, 8173, 10350]}, "edge": {"target": [], "time": []}}, "mouseover": {"state": {"target": ["1", "9", "3", "4", "7", "18", "14", "3", "2", "10", "11", "11", "27"], "time": [2190, 2473, 4837, 4891, 4973, 5786, 5819, 7671, 7921, 8020, 8702, 8933, 10252]}, "edge": {"target": [], "time": []}}, "mouseout": {"state": {"target": ["0", "1", "9", "3", "4", "7", "18", "14", "3", "2", "10", "11", "11", "27"], "time": [1317, 2258, 4788, 4852, 4902, 5754, 5802, 5837, 7702, 7969, 8670, 8717, 9920, 10817]}, "edge": {"target": [], "time": []}}}, "displayed_time": "15.88", "trialTime": 19151, "trial_type": "mouselab-mdp", "trial_index": 32, "time_elapsed": 792068, "internal_node_id": "0.0-4.0-1.0-23.0"}}, {"uniqueid": "w95513092:a17327421", "current_trial": 33, "dateTime": 1691077452219, "trialdata": {"revealed_states": [], "clicked_states": ["21", "16", "5", "11", "10"], "num_clicks_accrued": [0, 0, 0, 0, 0, 0, 0, 0, 0, 0, 0, 0, 0], "stateRewards": ["", -2, 3, -1, 2, -72, 63, 20, -1, 62, -66, 39, -2, 3, -6, 14, 22, 47, 1, 8, -49, -1, -41, 2, 2, -6, -16, -64, -60, -34, 16, 54, 22, -7], "withholdReward": false, "trial_id": "mdp_trial_25", "block": "test", "trialIndex": 26, "score": 31, "costs": -7, "simulationMode": [null, null, null, null, null], "rewards": [-2, 3, -1, -1, 39], "path": ["0", "0", "1", "2", "3", "8", "11"], "rt": [15150, 487, 108, 351, 15], "actions": ["up", "up", "up", "left", "left"], "actionTimes": [16632, 17642, 18264, 19173, 19705], "queries": {"click": {"state": {"target": ["21", "16", "5", "11", "10"], "time": [4360, 7503, 10031, 12577, 14760]}, "edge": {"target": [], "time": []}}, "mouseover": {"state": {"target": ["1", "2", "3", "1", "0", "22", "19", "14", "14", "19", "21", "16", "16", "16", "6", "5", "3", "11", "10"], "time": [1848, 1912, 2198, 2448, 2581, 2801, 3116, 3145, 3446, 3893, 4095, 6511, 6743, 7363, 9577, 9895, 12055, 12473, 14541]}, "edge": {"target": [], "time": []}}, "mouseout": {"state": {"target": ["10", "0", "1", "2", "3", "1", "0", "22", "19", "14", "14", "19", "21", "16", "16", "16", "6", "5", "3", "11", "10", "23"], "time": [583, 1798, 1880, 2114, 2317, 2500, 2630, 2814, 3127, 3184, 3844, 4005, 5112, 6525, 6812, 9310, 9677, 12030, 12072, 14455, 20671, 20834]}, "edge": {"target": [], "time": []}}}, "displayed_time": "20.24", "trialTime": 21153, "trial_type": "mouselab-mdp", "trial_index": 33, "time_elapsed": 813649, "internal_node_id": "0.0-4.0-1.0-24.0"}}, {"uniqueid": "w95513092:a17327421", "current_trial": 34, "dateTime": 1691077468460, "trialdata": {"revealed_states": [], "clicked_states": ["32", "28"], "num_clicks_accrued": [0, 0, 0, 0, 0, 0, 0, 0, 0, 0, 0, 0, 0], "stateRewards": ["", 2, -1, 5, 6, 10, 86, 55, 10, -45, 63, -71, 1, -2, 5, -8, -50, -72, 36, 15, 61, 12, 33, -1, -4, 6, 5, 79, -56, -21, -16, -87, 60, -81], "withholdReward": false, "trial_id": "mdp_trial_26", "block": "test", "trialIndex": 27, "score": 42.2, "costs": -2.8, "simulationMode": [null, null, null, null, null], "rewards": [-1, -4, 6, -16, 60], "path": ["0", "0", "23", "24", "25", "30", "32"], "rt": [7018, 15, 48, 43, 22], "actions": ["left", "left", "left", "down", "down"], "actionTimes": [8164, 8705, 9284, 9848, 10390], "queries": {"click": {"state": {"target": ["32", "28"], "time": [2709, 5554]}, "edge": {"target": [], "time": []}}, "mouseover": {"state": {"target": ["1", "2", "3", "9", "8", "28", "24", "30", "32", "31", "31", "24", "28", "28"], "time": [1456, 1476, 1493, 1891, 2009, 2057, 2090, 2397, 2471, 3107, 3840, 4401, 4871, 5424]}, "edge": {"target": [], "time": []}}, "mouseout": {"state": {"target": ["0", "0", "1", "2", "3", "9", "8", "28", "24", "30", "32", "31", "31", "24", "28", "28"], "time": [607, 1426, 1472, 1488, 1508, 1975, 2024, 2074, 2108, 2430, 2993, 3124, 3987, 4500, 4959, 7207]}, "edge": {"target": [], "time": []}}}, "displayed_time": "15.15", "trialTime": 15834, "trial_type": "mouselab-mdp", "trial_index": 34, "time_elapsed": 829889, "internal_node_id": "0.0-4.0-1.0-25.0"}}, {"uniqueid": "w95513092:a17327421", "current_trial": 35, "dateTime": 1691077485532, "trialdata": {"revealed_states": [], "clicked_states": ["11", "29", "32"], "num_clicks_accrued": [0, 0, 0, 0, 0, 0, 0, 0, 0, 0, 0, 0, 0], "stateRewards": ["", -2, -1, -4, -15, -14, -67, 32, -3, -59, 63, 31, 2, -1, -7, -15, 71, -66, -27, -3, -54, -39, 72, 2, 1, 1, -13, 77, -40, 35, -9, 35, 75, 57], "withholdReward": false, "trial_id": "mdp_trial_27", "block": "test", "trialIndex": 28, "score": 65.8, "costs": -4.199999999999999, "simulationMode": [null, null, null, null, null], "rewards": [2, 1, 1, -9, 75], "path": ["0", "0", "23", "24", "25", "30", "32"], "rt": [7832, 495, 88, 3, 432], "actions": ["left", "left", "left", "down", "down"], "actionTimes": [9305, 10317, 10920, 11434, 12393], "queries": {"click": {"state": {"target": ["11", "29", "32"], "time": [2349, 4619, 7418]}, "edge": {"target": [], "time": []}}, "mouseover": {"state": {"target": ["1", "2", "8", "11", "27", "29", "27", "29", "24", "24", "31", "32"], "time": [1719, 1767, 1951, 2153, 2768, 3269, 3451, 4451, 5066, 6665, 6980, 7315]}, "edge": {"target": [], "time": []}}, "mouseout": {"state": {"target": ["0", "0", "1", "2", "8", "11", "27", "29", "27", "29", "24", "24", "31", "32"], "time": [652, 1618, 1752, 1784, 2020, 2718, 2851, 3349, 4401, 4963, 5099, 6950, 7164, 7646]}, "edge": {"target": [], "time": []}}}, "displayed_time": "15.48", "trialTime": 16660, "trial_type": "mouselab-mdp", "trial_index": 35, "time_elapsed": 846961, "internal_node_id": "0.0-4.0-1.0-26.0"}}, {"uniqueid": "w95513092:a17327421", "current_trial": 36, "dateTime": 1691077501739, "trialdata": {"revealed_states": [], "clicked_states": ["9", "21"], "num_clicks_accrued": [0, 0, 0, 0, 0, 0, 0, 0, 0, 0, 0, 0, 0], "stateRewards": ["", 2, -1, -1, 7, 11, -40, -22, -2, 69, 37, 8, -2, 4, -8, -12, -2, -72, -3, -12, 17, 63, 12, 1, 3, -7, 6, 25, 61, 61, -9, 28, -17, 27], "withholdReward": false, "trial_id": "mdp_trial_28", "block": "test", "trialIndex": 29, "score": 61.2, "costs": -2.8, "simulationMode": [null, null, null, null, null], "rewards": [1, 3, -7, 6, 61], "path": ["0", "0", "23", "24", "25", "26", "28"], "rt": [4930, 1187, 368, 436, 39], "actions": ["left", "left", "left", "up", "right"], "actionTimes": [5875, 7603, 8488, 9441, 9994], "queries": {"click": {"state": {"target": ["9", "21"], "time": [1684, 3654]}, "edge": {"target": [], "time": []}}, "mouseover": {"state": {"target": ["1", "2", "3", "9", "3", "7", "19", "21", "20"], "time": [1112, 1128, 1177, 1511, 1857, 1945, 2324, 2426, 4040]}, "edge": {"target": [], "time": []}}, "mouseout": {"state": {"target": ["1", "2", "3", "9", "9", "3", "7", "19", "21", "20"], "time": [1125, 1160, 1227, 1734, 1808, 1874, 2030, 2373, 4006, 4056]}, "edge": {"target": [], "time": []}}}, "displayed_time": "14.95", "trialTime": 15670, "trial_type": "mouselab-mdp", "trial_index": 36, "time_elapsed": 863168, "internal_node_id": "0.0-4.0-1.0-27.0"}}, {"uniqueid": "w95513092:a17327421", "current_trial": 37, "dateTime": 1691077518797, "trialdata": {"revealed_states": [], "clicked_states": ["9", "32"], "num_clicks_accrued": [0, 0, 0, 0, 0, 0, 0, 0, 0, 0, 0, 0, 0], "stateRewards": ["", 1, -1, 1, -14, -10, 67, -28, -11, 72, 40, -65, -1, 1, 1, -2, 8, -55, 34, -10, 61, 33, -15, 2, -4, 7, 4, -75, 63, -21, -16, 61, 19, 21], "withholdReward": false, "trial_id": "mdp_trial_29", "block": "test", "trialIndex": 30, "score": 59.2, "costs": -2.8, "simulationMode": [null, null, null, null, null], "rewards": [1, -1, 1, -11, 72], "path": ["0", "0", "1", "2", "3", "8", "9"], "rt": [5344, 428, 169, 66, 39], "actions": ["up", "up", "up", "left", "up"], "actionTimes": [6980, 7921, 8614, 9192, 9747], "queries": {"click": {"state": {"target": ["9", "32"], "time": [2297, 4691]}, "edge": {"target": [], "time": []}}, "mouseover": {"state": {"target": ["1", "9", "3", "7", "32"], "time": [1816, 2128, 2514, 2608, 4360]}, "edge": {"target": [], "time": []}}, "mouseout": {"state": {"target": ["12", "0", "1", "9", "3", "7", "32"], "time": [1032, 1765, 1829, 2480, 2546, 3444, 4992]}, "edge": {"target": [], "time": []}}}, "displayed_time": "15.64", "trialTime": 16377, "trial_type": "mouselab-mdp", "trial_index": 37, "time_elapsed": 880226, "internal_node_id": "0.0-4.0-1.0-28.0"}}, {"uniqueid": "w95513092:a17327421", "current_trial": 38, "dateTime": 1691077535909, "trialdata": {"revealed_states": [], "clicked_states": ["7", "33"], "num_clicks_accrued": [0, 0, 0, 0, 0, 0, 0, 0, 0, 0, 0, 0, 0], "stateRewards": ["", 2, 3, 8, 14, 69, -27, 17, 2, -71, -65, -10, 2, -3, 7, 8, 65, -10, 65, -12, 73, -12, 13, -2, -2, 6, 10, -79, -69, -18, 10, -85, 67, 74], "withholdReward": false, "trial_id": "mdp_trial_30", "block": "test", "trialIndex": 31, "score": 83.2, "costs": -2.8, "simulationMode": [null, null, null, null, null], "rewards": [-2, -2, 6, 10, 74], "path": ["0", "0", "23", "24", "25", "30", "33"], "rt": [6258, 66, 82, 64, 77], "actions": ["left", "left", "left", "down", "left"], "actionTimes": [8227, 8811, 9417, 9992, 10588], "queries": {"click": {"state": {"target": ["7", "33"], "time": [3571, 5564]}, "edge": {"target": [], "time": []}}, "mouseover": {"state": {"target": ["1", "9", "4", "7", "1", "23", "30", "33", "30"], "time": [2132, 2563, 3102, 3267, 3948, 3997, 4597, 4699, 5878]}, "edge": {"target": [], "time": []}}, "mouseout": {"state": {"target": ["22", "0", "0", "1", "9", "4", "7", "7", "1", "23", "30", "33", "30"], "time": [1051, 1115, 2099, 2149, 3053, 3130, 3584, 3913, 3964, 4301, 4658, 5847, 5895]}, "edge": {"target": [], "time": []}}}, "displayed_time": "15.97", "trialTime": 16438, "trial_type": "mouselab-mdp", "trial_index": 38, "time_elapsed": 897339, "internal_node_id": "0.0-4.0-1.0-29.0"}}, {"uniqueid": "w95513092:a17327421", "current_trial": 39, "dateTime": 1691077553201, "trialdata": {"revealed_states": [], "clicked_states": ["17", "27"], "num_clicks_accrued": [0, 0, 0, 0, 0, 0, 0, 0, 0, 0, 0, 0, 0], "stateRewards": ["", 2, 3, 8, 11, 25, -80, 6, -4, -56, 84, -23, -2, -4, -3, 4, -51, -9, -61, -15, -64, 67, -35, 1, -1, -7, -6, 83, 59, -15, 12, -79, 56, 41], "withholdReward": false, "trial_id": "mdp_trial_31", "block": "test", "trialIndex": 32, "score": 67.2, "costs": -2.8, "simulationMode": [null, null, null, null, null], "rewards": [1, -1, -7, -6, 83], "path": ["0", "0", "23", "24", "25", "26", "27"], "rt": [5725, 442, 43, 416, 63], "actions": ["left", "left", "left", "up", "up"], "actionTimes": [7484, 8466, 9023, 9959, 10555], "queries": {"click": {"state": {"target": ["17", "27"], "time": [2693, 4660]}, "edge": {"target": [], "time": []}}, "mouseover": {"state": {"target": ["12", "17", "17", "14", "27", "11", "8", "26"], "time": [1948, 2327, 2565, 3161, 4112, 5142, 6644, 6710]}, "edge": {"target": [], "time": []}}, "mouseout": {"state": {"target": ["0", "12", "17", "17", "17", "14", "27", "11", "8", "26"], "time": [1932, 1964, 2345, 2706, 3146, 3179, 4672, 5161, 6659, 6744]}, "edge": {"target": [], "time": []}}}, "displayed_time": "15.77", "trialTime": 16572, "trial_type": "mouselab-mdp", "trial_index": 39, "time_elapsed": 914630, "internal_node_id": "0.0-4.0-1.0-30.0"}}, {"uniqueid": "w95513092:a17327421", "current_trial": 40, "dateTime": 1691077569518, "trialdata": {"revealed_states": [], "clicked_states": ["5", "32", "27"], "num_clicks_accrued": [0, 0, 0, 0, 0, 0, 0, 0, 0, 0, 0, 0, 0], "stateRewards": ["", 2, -4, 1, -12, -59, -53, -74, 16, -88, -66, 66, 1, -2, 8, -9, -14, 22, 25, -1, -39, 47, -14, -1, -1, -2, 1, -4, 52, -26, 15, -7, 46, 43], "withholdReward": false, "trial_id": "mdp_trial_32", "block": "test", "trialIndex": 33, "score": 52.8, "costs": -4.199999999999999, "simulationMode": [null, null, null, null, null], "rewards": [-1, -1, -2, 15, 46], "path": ["0", "0", "23", "24", "25", "30", "32"], "rt": [8481, 45, 49, 38, 36], "actions": ["left", "left", "left", "down", "down"], "actionTimes": [9866, 10425, 10997, 11567, 12115], "queries": {"click": {"state": {"target": ["5", "32", "27"], "time": [2399, 4292, 7396]}, "edge": {"target": [], "time": []}}, "mouseover": {"state": {"target": ["1", "2", "3", "5", "2", "24", "31", "32", "24", "26", "27", "27", "28", "23"], "time": [1503, 1535, 1585, 2153, 2783, 2850, 3183, 3484, 7014, 7083, 7112, 7280, 7663, 7681]}, "edge": {"target": [], "time": []}}, "mouseout": {"state": {"target": ["26", "10", "0", "0", "1", "2", "3", "5", "5", "2", "24", "31", "32", "24", "26", "27", "27", "27", "28", "23"], "time": [134, 502, 551, 885, 1516, 1550, 1902, 2406, 2749, 2799, 2892, 3263, 4671, 7030, 7095, 7164, 7408, 7630, 7679, 7697]}, "edge": {"target": [], "time": []}}}, "displayed_time": "15.39", "trialTime": 15755, "trial_type": "mouselab-mdp", "trial_index": 40, "time_elapsed": 930947, "internal_node_id": "0.0-4.0-1.0-31.0"}}, {"uniqueid": "w95513092:a17327421", "current_trial": 41, "dateTime": 1691077585790, "trialdata": {"revealed_states": [], "clicked_states": ["28", "7", "17"], "num_clicks_accrued": [0, 0, 0, 0, 0, 0, 0, 0, 0, 0, 0, 0, 0], "stateRewards": ["", -2, 2, 3, -7, -31, -33, 29, -8, -57, 50, -83, -1, -1, 5, 13, -23, -62, 25, 5, -66, -85, 14, 1, -2, -1, 16, 71, 33, -19, -14, 5, -43, 79], "withholdReward": false, "trial_id": "mdp_trial_33", "block": "test", "trialIndex": 34, "score": 42.8, "costs": -4.199999999999999, "simulationMode": [null, null, null, null, null], "rewards": [1, -2, -1, 16, 33], "path": ["0", "0", "23", "24", "25", "26", "28"], "rt": [7737, 47, 15, 495, 453], "actions": ["left", "left", "left", "up", "right"], "actionTimes": [8870, 9437, 9988, 11014, 11988], "queries": {"click": {"state": {"target": ["28", "7", "17"], "time": [2083, 4289, 6660]}, "edge": {"target": [], "time": []}}, "mouseover": {"state": {"target": ["10", "28", "10", "8", "3", "2", "7", "16", "17"], "time": [1543, 1909, 2408, 2425, 2812, 3157, 3572, 6172, 6456]}, "edge": {"target": [], "time": []}}, "mouseout": {"state": {"target": ["0", "10", "28", "10", "8", "3", "2", "7", "16", "17"], "time": [891, 1591, 2372, 2423, 2482, 2888, 3205, 4940, 6238, 7052]}, "edge": {"target": [], "time": []}}}, "displayed_time": "15.14", "trialTime": 15528, "trial_type": "mouselab-mdp", "trial_index": 41, "time_elapsed": 947219, "internal_node_id": "0.0-4.0-1.0-32.0"}}, {"uniqueid": "w95513092:a17327421", "current_trial": 42, "dateTime": 1691077603325, "trialdata": {"revealed_states": [], "clicked_states": ["21", "16"], "num_clicks_accrued": [0, 0, 0, 0, 0, 0, 0, 0, 0, 0, 0, 0, 0], "stateRewards": ["", 2, -4, -8, -15, 71, -43, -41, 7, -17, 20, 67, -1, -1, -4, 6, 37, -24, -47, 9, 34, 57, 45, 1, 2, -4, -5, -23, 88, -5, 13, -40, 43, 44], "withholdReward": false, "trial_id": "mdp_trial_34", "block": "test", "trialIndex": 35, "score": 57.2, "costs": -2.8, "simulationMode": [null, null, null, null, null], "rewards": [-1, -1, -4, 9, 57], "path": ["0", "0", "12", "13", "14", "19", "21"], "rt": [6157, 139, 16, 422, 4], "actions": ["right", "right", "right", "down", "down"], "actionTimes": [8869, 9526, 10055, 11011, 11538], "queries": {"click": {"state": {"target": ["21", "16"], "time": [3935, 6528]}, "edge": {"target": [], "time": []}}, "mouseover": {"state": {"target": ["21", "21", "19", "15", "16"], "time": [3475, 3840, 4272, 4356, 4587]}, "edge": {"target": [], "time": []}}, "mouseout": {"state": {"target": ["14", "0", "21", "21", "19", "15", "16"], "time": [924, 2729, 3489, 4237, 4287, 4536, 7070]}, "edge": {"target": [], "time": []}}}, "displayed_time": "16.72", "trialTime": 17038, "trial_type": "mouselab-mdp", "trial_index": 42, "time_elapsed": 964754, "internal_node_id": "0.0-4.0-1.0-33.0"}}, {"uniqueid": "w95513092:a17327421", "current_trial": 43, "dateTime": 1691077622396, "trialdata": {"revealed_states": [], "clicked_states": ["9", "29", "32", "21"], "num_clicks_accrued": [0, 0, 0, 0, 0, 0, 0, 0, 0, 0, 0, 0, 0], "stateRewards": ["", 1, 3, 3, -10, 52, 68, 59, 12, 7, 49, 21, -2, -3, -4, -2, -2, 63, 63, -4, 44, 43, -76, -2, -3, -6, 13, 48, 36, 12, -5, -36, -33, -11], "withholdReward": false, "trial_id": "mdp_trial_35", "block": "test", "trialIndex": 36, "score": 24.4, "costs": -5.6, "simulationMode": [null, null, null, null, null], "rewards": [-2, -3, -4, -4, 43], "path": ["0", "0", "12", "13", "14", "19", "21"], "rt": [8787, 367, 429, 966, 25], "actions": ["right", "right", "right", "down", "down"], "actionTimes": [10360, 11266, 12207, 13693, 14325], "queries": {"click": {"state": {"target": ["9", "29", "32", "21"], "time": [2088, 4009, 5957, 7961]}, "edge": {"target": [], "time": []}}, "mouseover": {"state": {"target": ["8", "9", "29", "30", "32", "21", "20"], "time": [1586, 1901, 2763, 4514, 4747, 6397, 9778]}, "edge": {"target": [], "time": []}}, "mouseout": {"state": {"target": ["18", "8", "9", "29", "30", "32", "21", "20"], "time": [651, 1593, 2133, 4380, 4543, 6298, 8727, 9994]}, "edge": {"target": [], "time": []}}}, "displayed_time": "15.58", "trialTime": 18565, "trial_type": "mouselab-mdp", "trial_index": 43, "time_elapsed": 983825, "internal_node_id": "0.0-4.0-1.0-34.0"}}, {"uniqueid": "w95513092:a17327421", "current_trial": 44, "dateTime": 1691077640664, "trialdata": {"revealed_states": [], "clicked_states": ["5", "10", "20", "16"], "num_clicks_accrued": [0, 0, 0, 0, 0, 0, 0, 0, 0, 0, 0, 0, 0], "stateRewards": ["", 1, 1, -7, -9, -44, 24, -83, -15, 44, -24, 72, -2, -3, 4, -5, 57, 55, 29, -11, 22, 12, -25, -1, 2, 7, 12, 33, -8, 47, -4, 8, 50, -4], "withholdReward": false, "trial_id": "mdp_trial_36", "block": "test", "trialIndex": 37, "score": 45.4, "costs": -5.6, "simulationMode": [null, null, null, null, null], "rewards": [-2, -3, 4, -5, 57], "path": ["0", "0", "12", "13", "14", "15", "16"], "rt": [9605, 35, 69, 448, 51], "actions": ["right", "right", "right", "up", "up"], "actionTimes": [12616, 13170, 13769, 14736, 15300], "queries": {"click": {"state": {"target": ["5", "10", "20", "16"], "time": [3825, 5738, 7674, 10292]}, "edge": {"target": [], "time": []}}, "mouseover": {"state": {"target": ["1", "2", "3", "5", "4", "7", "10", "18", "14", "20", "19", "22", "13", "15", "16", "17"], "time": [3341, 3360, 3389, 3723, 4186, 4323, 5130, 6720, 6769, 7087, 8336, 9670, 9853, 9935, 10169, 10501]}, "edge": {"target": [], "time": []}}, "mouseout": {"state": {"target": ["14", "13", "12", "0", "0", "1", "2", "3", "5", "4", "7", "10", "18", "14", "20", "19", "22", "13", "15", "16", "17"], "time": [694, 907, 988, 1021, 2374, 3355, 3372, 3408, 4156, 4281, 4906, 6391, 6736, 6789, 8204, 8390, 9770, 9904, 9977, 10468, 10552]}, "edge": {"target": [], "time": []}}}, "displayed_time": "17.02", "trialTime": 17638, "trial_type": "mouselab-mdp", "trial_index": 44, "time_elapsed": 1002093, "internal_node_id": "0.0-4.0-1.0-35.0"}}, {"uniqueid": "w95513092:a17327421", "current_trial": 45, "dateTime": 1691077656971, "trialdata": {"revealed_states": [], "clicked_states": ["32", "28", "27"], "num_clicks_accrued": [0, 0, 0, 0, 0, 0, 0, 0, 0, 0, 0, 0, 0], "stateRewards": ["", -2, 1, 6, -2, -10, -78, -69, 14, -15, 7, -1, 1, -1, -2, 13, 77, 32, 87, 5, -74, 30, -26, 1, 3, 4, 12, 39, 54, -43, 2, 10, 23, 13], "withholdReward": false, "trial_id": "mdp_trial_37", "block": "test", "trialIndex": 38, "score": 69.8, "costs": -4.199999999999999, "simulationMode": [null, null, null, null, null], "rewards": [1, 3, 4, 12, 54], "path": ["0", "0", "23", "24", "25", "26", "28"], "rt": [6695, 22, 15, 11, 4], "actions": ["left", "left", "left", "up", "right"], "actionTimes": [7868, 8426, 8963, 9494, 10021], "queries": {"click": {"state": {"target": ["32", "28", "27"], "time": [1936, 3861, 5964]}, "edge": {"target": [], "time": []}}, "mouseover": {"state": {"target": ["32", "31", "23", "28", "27"], "time": [1668, 2237, 2303, 2821, 4319]}, "edge": {"target": [], "time": []}}, "mouseout": {"state": {"target": ["15", "7", "1", "0", "32", "31", "23", "28", "27", "27"], "time": [220, 292, 570, 1262, 2189, 2252, 2435, 4253, 6027, 11032]}, "edge": {"target": [], "time": []}}}, "displayed_time": "15.18", "trialTime": 15720, "trial_type": "mouselab-mdp", "trial_index": 45, "time_elapsed": 1018400, "internal_node_id": "0.0-4.0-1.0-36.0"}}, {"uniqueid": "w95513092:a17327421", "current_trial": 46, "dateTime": 1691077673002, "trialdata": {"revealed_states": [], "clicked_states": ["9", "32", "21", "16"], "num_clicks_accrued": [0, 0, 0, 0, 0, 0, 0, 0, 0, 0, 0, 0, 0], "stateRewards": ["", -2, 4, -7, -3, -76, 39, -28, 10, 14, 12, 60, 2, -3, 6, -10, 88, -34, -41, -3, 72, -13, -56, 1, 3, 2, 8, -51, 23, -57, 1, 14, -46, -16], "withholdReward": false, "trial_id": "mdp_trial_38", "block": "test", "trialIndex": 39, "score": 77.4, "costs": -5.6, "simulationMode": [null, null, null, null, null], "rewards": [2, -3, 6, -10, 88], "path": ["0", "0", "12", "13", "14", "15", "16"], "rt": [9183, 363, 105, 332, 96], "actions": ["right", "right", "right", "up", "up"], "actionTimes": [10059, 10936, 11562, 12406, 13017], "queries": {"click": {"state": {"target": ["9", "32", "21", "16"], "time": [1783, 3763, 5702, 8138]}, "edge": {"target": [], "time": []}}, "mouseover": {"state": {"target": ["9", "8", "32", "21", "21", "20", "17", "16"], "time": [1659, 2127, 2849, 4193, 4511, 7442, 7808, 7855]}, "edge": {"target": [], "time": []}}, "mouseout": {"state": {"target": ["0", "9", "8", "32", "21", "21", "20", "17", "16"], "time": [1082, 2109, 2142, 4094, 4208, 7342, 7476, 7853, 8152]}, "edge": {"target": [], "time": []}}}, "displayed_time": "14.89", "trialTime": 15521, "trial_type": "mouselab-mdp", "trial_index": 46, "time_elapsed": 1034432, "internal_node_id": "0.0-4.0-1.0-37.0"}}, {"uniqueid": "w95513092:a17327421", "current_trial": 47, "dateTime": 1691077699750, "trialdata": {"revealed_states": [], "clicked_states": ["10", "32", "16", "21", "22", "6", "5", "11", "29"], "num_clicks_accrued": [0, 0, 0, 0, 0, 0, 0, 0, 0, 0, 0, 0, 0], "stateRewards": ["", 2, -1, -3, 16, -3, -16, -62, -1, 13, -26, 43, -1, 4, 3, -9, -54, -37, -3, -12, -71, -68, -57, 1, -3, 2, -9, 2, -2, -9, -11, 84, -52, 55], "withholdReward": false, "trial_id": "mdp_trial_39", "block": "test", "trialIndex": 40, "score": 31.4, "costs": -12.600000000000001, "simulationMode": [null, null, null, null, null], "rewards": [1, -3, 2, -11, 55], "path": ["0", "0", "23", "24", "25", "30", "33"], "rt": [20586, 425, 31, 501, 4], "actions": ["left", "left", "left", "down", "left"], "actionTimes": [21596, 22557, 23110, 24145, 24667], "queries": {"click": {"state": {"target": ["10", "32", "16", "21", "22", "6", "5", "11", "29"], "time": [2571, 4452, 6428, 8444, 10422, 12358, 14910, 16954, 19054]}, "edge": {"target": [], "time": []}}, "mouseover": {"state": {"target": ["1", "2", "3", "4", "10", "28", "30", "32", "19", "14", "16", "17", "20", "21", "22", "13", "7", "4", "5", "6", "5", "9", "5", "8", "11", "27", "29", "26", "1"], "time": [1127, 1176, 1208, 1694, 2326, 2977, 3274, 3635, 5106, 5144, 5570, 6854, 7304, 7671, 9138, 10855, 10885, 10906, 10921, 11581, 14234, 14502, 14718, 15347, 15864, 17348, 17425, 20262, 20864]}, "edge": {"target": [], "time": []}}, "mouseout": {"state": {"target": ["1", "2", "1", "0", "1", "2", "3", "4", "10", "28", "30", "32", "19", "14", "16", "17", "20", "21", "22", "13", "7", "4", "5", "6", "5", "9", "5", "8", "11", "27", "29", "26"], "time": [26, 446, 494, 1079, 1158, 1192, 1278, 1760, 2925, 3174, 3633, 4756, 5141, 5174, 6807, 6905, 7321, 8837, 10820, 10871, 10904, 10917, 10937, 12869, 14300, 14617, 15264, 15469, 17329, 17407, 20178, 20364]}, "edge": {"target": [], "time": []}}}, "displayed_time": "25.20", "trialTime": 26143, "trial_type": "mouselab-mdp", "trial_index": 47, "time_elapsed": 1061179, "internal_node_id": "0.0-4.0-1.0-38.0"}}, {"uniqueid": "w95513092:a17327421", "current_trial": 48, "dateTime": 1691077719287, "trialdata": {"revealed_states": [], "clicked_states": ["9", "7", "21", "16", "29"], "num_clicks_accrued": [0, 0, 0, 0, 0, 0, 0, 0, 0, 0, 0, 0, 0], "stateRewards": ["", -1, 3, 1, -11, -22, -36, 19, -5, -70, -52, 50, -2, -4, 4, -2, -41, -83, 29, -2, 22, 10, -6, -2, 3, -2, 14, 54, 44, 77, -9, -65, -37, -40], "withholdReward": false, "trial_id": "mdp_trial_40", "block": "test", "trialIndex": 41, "score": 83, "costs": -7, "simulationMode": [null, null, null, null, null], "rewards": [-2, 3, -2, 14, 77], "path": ["0", "0", "23", "24", "25", "26", "29"], "rt": [13544, 127, 113, 110, 85], "actions": ["left", "left", "left", "up", "left"], "actionTimes": [14921, 15563, 16211, 16843, 17448], "queries": {"click": {"state": {"target": ["9", "7", "21", "16", "29"], "time": [3035, 4917, 7001, 9386, 12149]}, "edge": {"target": [], "time": []}}, "mouseover": {"state": {"target": ["9", "3", "9", "3", "2", "7", "14", "19", "21", "21", "20", "17", "16", "7", "25", "29", "30", "32"], "time": [2155, 2574, 2924, 3389, 3455, 3570, 5357, 5621, 5687, 6003, 8686, 8920, 9257, 10968, 11750, 12019, 14114, 14184]}, "edge": {"target": [], "time": []}}, "mouseout": {"state": {"target": ["1", "0", "9", "3", "9", "3", "2", "7", "14", "19", "21", "21", "20", "17", "16", "7", "25", "29", "30", "32"], "time": [573, 1020, 2184, 2589, 3339, 3406, 3488, 5270, 5404, 5673, 5756, 8303, 8720, 8971, 10540, 11334, 11786, 13800, 14130, 14234]}, "edge": {"target": [], "time": []}}}, "displayed_time": "17.97", "trialTime": 18846, "trial_type": "mouselab-mdp", "trial_index": 48, "time_elapsed": 1080716, "internal_node_id": "0.0-4.0-1.0-39.0"}}, {"uniqueid": "w95513092:a17327421", "current_trial": 49, "dateTime": 1691077757968, "trialdata": {"rt": 38673, "response": {"Q0": "$-2 to $2", "Q1": "$-32 to $32", "Q2": "$-16 to $16", "Q3": "The cost was always $1.4.", "Q4": "Very motivated"}, "question_order": [0, 1, 2, 3, 4], "trial_id": "final_quiz_control", "trial_type": "survey-multi-choice", "trial_index": 49, "time_elapsed": 1119398, "internal_node_id": "0.0-4.0-2.0"}}, {"uniqueid": "w95513092:a17327421", "current_trial": 50, "dateTime": 1691077840273, "trialdata": {"rt": 82296, "response": {"Q0": "i tried to limit my revealing of the final nodes to about 2, if and picked the highest one. if they were all minus i kept going until i found a positive number. ", "Q1": "i mostly randomly clicked but tried to reveal opposing nodes. ", "Q2": "very. i found no patterns that i could rely on. "}, "trial_id": "self_report_control", "trial_type": "survey-text", "trial_index": 50, "time_elapsed": 1201703, "internal_node_id": "0.0-4.0-3.0"}}, {"uniqueid": "w95513092:a17327421", "current_trial": 51, "dateTime": 1691077853144, "trialdata": {"rt": 12864, "response": {"gender": "female", "age": "28", "colorblind": "0", "effort": "0"}, "trial_type": "survey-html-form", "trial_index": 51, "time_elapsed": 1214574, "internal_node_id": "0.0-4.0-4.0"}}, {"uniqueid": "w95513092:a17327421", "current_trial": 52, "dateTime": 1691077880771, "trialdata": {"rt": 27619, "response": {"Q0": "No. ", "Q1": "No. ", "Q2": "Sometimes i clicked the wrong direction as i was looking at the screen and not the keyboard. "}, "trial_type": "survey-text", "trial_index": 52, "time_elapsed": 1242201, "internal_node_id": "0.0-4.0-5.0"}}, {"uniqueid": "w95513092:a17327421", "current_trial": 53, "dateTime": 1691077883384, "trialdata": {"rt": 2605, "stimulus": "Press 'Finish HIT' in order to reach the completion code. Once the data has been saved, you will receive the code either in this window or in the original browser window where you started the experiment.\n", "response": 0, "trial_type": "html-button-response", "trial_index": 53, "time_elapsed": 1244814, "internal_node_id": "0.0-5.0"}}, {"uniqueid": "w95513092:a17327421", "current_trial": 54, "dateTime": 1691077884394, "trialdata": {"success": true, "trial_type": "fullscreen", "trial_index": 54, "time_elapsed": 1245824, "internal_node_id": "0.0-6.0"}}], "questiondata": {"params": {"CODE": "C6DMOQA6", "MIN_TIME": 14, "inspectCost": 1, "startTime": "Thu Aug 03 2023 16:30:37 GMT+0100 (British Summer Time)", "bonusRate": 0.002, "variance": "1_2_4_8_44", "branching": "31123"}, "final_score": 2029.4}, "eventdata": [{"eventtype": "initialized", "value": null, "timestamp": 1691076637492, "interval": 0}, {"eventtype": "window_resize", "value": [1440, 815], "timestamp": 1691076637492, "interval": 0}, {"eventtype": "window_resize", "value": [1440, 815], "timestamp": 1691076637818, "interval": 326}, {"eventtype": "window_resize", "value": [1440, 900], "timestamp": 1691076782366, "interval": 144548}, {"eventtype": "window_resize", "value": [1440, 815], "timestamp": 1691077883611, "interval": 1101245}], "useragent": "Mozilla/5.0 (Macintosh; Intel Mac OS X 10_15_7) AppleWebKit/537.36 (KHTML, like Gecko) Chrome/115.0.0.0 Safari/537.36", "mode": "live", "id": "w95513092:a17327421", "status": "user data saved", "Beginhit": "2023-08-03 15:30:36.495588", "Beginexp": "2023-08-03 15:33:03.502451", "Endhit": "2023-08-03 15:51:24.86738", "psiturkStatus": 3, "browser": "<redacted>", "platform": "macos", "language": "en-GB"}