{"condition": 0, "counterbalance": 0, "assignmentId": "a30448159", "workerId": "w77166227", "hitId": "h37877477", "currenttrial": 55, "bonus": 0, "data": [{"uniqueid": "w77166227:a30448159", "current_trial": 0, "dateTime": 1691142303533, "trialdata": {"success": true, "trial_type": "fullscreen", "trial_index": 0, "time_elapsed": 12926, "internal_node_id": "0.0-0.0"}}, {"uniqueid": "w77166227:a30448159", "current_trial": 1, "dateTime": 1691142331554, "trialdata": {"view_history": [{"page_index": 0, "viewing_time": 28015}], "rt": 28015, "trial_id": "exp_instructions_control", "trial_type": "instructions", "trial_index": 1, "time_elapsed": 40947, "internal_node_id": "0.0-1.0"}}, {"uniqueid": "w77166227:a30448159", "current_trial": 2, "dateTime": 1691142337580, "trialdata": {"success": true, "trial_type": "fullscreen", "trial_index": 2, "time_elapsed": 46973, "internal_node_id": "0.0-2.0-0.0"}}, {"uniqueid": "w77166227:a30448159", "current_trial": 3, "dateTime": 1691142713462, "trialdata": {"view_history": [{"page_index": 0, "viewing_time": 127823}, {"page_index": 1, "viewing_time": 171062}, {"page_index": 2, "viewing_time": 25534}, {"page_index": 3, "viewing_time": 51459}], "rt": 375879, "trial_id": "mouselab_instructions_1_control", "trial_type": "instructions", "trial_index": 3, "time_elapsed": 422855, "internal_node_id": "0.0-2.0-1.0"}}, {"uniqueid": "w77166227:a30448159", "current_trial": 4, "dateTime": 1691142796184, "trialdata": {"revealed_states": [], "clicked_states": ["1", "2", "7", "4", "5", "3", "8", "10"], "num_clicks_accrued": [0, 0, 0, 0, 0, 0, 0, 0, 0, 0, 0, 0, 0], "stateRewards": ["", -10, -10, -10, -10, 10, 10, 10, -10, 10, 10, -10, 10, 10, 10, -10, -10, -10, -10, -10, -10, -10, -10, 10, -10, -10, -10, 10, -10, -10, 10, -10, 10, -10], "withholdReward": false, "trial_id": "practice_1", "block": "test", "trialIndex": 0, "score": -30.5, "costs": -4, "simulationMode": [null, null, null, null, null], "rewards": [-10, -10, -10, -10, 10], "path": ["0", "0", "1", "2", "3", "4", "5"], "rt": [53036, 1906, 12586, 331, 520], "actions": ["up", "up", "up", "right", "up"], "actionTimes": [55664, 58080, 71176, 72049, 73126], "queries": {"click": {"state": {"target": ["1", "2", "7", "4", "5", "3", "8", "10"], "time": [11906, 19049, 22072, 23826, 26176, 27922, 30610, 33088]}, "edge": {"target": [], "time": []}}, "mouseover": {"state": {"target": ["1", "2", "7", "7", "4", "5", "3", "4", "8", "10", "2", "1", "1", "2", "3", "3", "2", "1"], "time": [11522, 17737, 21220, 21505, 23370, 25719, 27602, 29453, 30286, 31636, 35352, 36552, 41337, 44450, 45200, 49935, 50084, 50534]}, "edge": {"target": [], "time": []}}, "mouseout": {"state": {"target": ["0", "1", "2", "7", "7", "4", "5", "3", "4", "8", "10", "2", "1", "1", "2", "3", "3", "2"], "time": [10722, 17571, 20386, 21336, 22286, 25403, 27388, 29421, 29703, 31469, 33311, 36435, 36633, 41636, 44634, 45735, 49984, 50169]}, "edge": {"target": [], "time": []}}}, "displayed_time": "73.66", "trialTime": 80822, "trial_type": "mouselab-mdp", "trial_index": 4, "time_elapsed": 505576, "internal_node_id": "0.0-2.0-2.0-0.0"}}, {"uniqueid": "w77166227:a30448159", "current_trial": 5, "dateTime": 1691142842795, "trialdata": {"revealed_states": [], "clicked_states": ["1", "10", "2", "8", "9", "3", "4", "5", "6", "11", "7", "12", "23", "24", "28", "27", "26"], "num_clicks_accrued": [0, 0, 0, 0, 0, 0, 0, 0, 0, 0, 0, 0, 0], "stateRewards": ["", -10, -10, 10, -10, -10, 10, 10, 10, -10, -10, 10, 10, -10, 10, -10, -10, -10, 10, -10, -10, -10, 10, 10, -10, 10, -10, -10, -10, 10, 10, -10, 10, 10], "withholdReward": false, "trial_id": "practice_2", "block": "test", "trialIndex": 1, "score": -15, "costs": -8.5, "simulationMode": [null, null, null, null, null], "rewards": [10, -10, 10, -10, -10], "path": ["0", "0", "23", "24", "25", "26", "27"], "rt": [34390, 463, 2373, 1428, 1], "actions": ["left", "left", "left", "up", "up"], "actionTimes": [38117, 39119, 42028, 43985, 44539], "queries": {"click": {"state": {"target": ["1", "10", "2", "8", "9", "3", "4", "5", "6", "11", "7", "12", "23", "24", "28", "27", "26"], "time": [5987, 7309, 8397, 9805, 10915, 12371, 13600, 14813, 16903, 18981, 20624, 25792, 27204, 28459, 29632, 31815, 33077]}, "edge": {"target": [], "time": []}}, "mouseover": {"state": {"target": ["1", "10", "2", "8", "9", "3", "4", "5", "6", "8", "11", "11", "8", "2", "7", "1", "0", "12", "0", "23", "24", "28", "26", "27", "26", "23"], "time": [5324, 6955, 8086, 9337, 10557, 12020, 13206, 14470, 16555, 18171, 18224, 18536, 19721, 19892, 20169, 22004, 22536, 25333, 26434, 26518, 28153, 29136, 30256, 31469, 32588, 34283]}, "edge": {"target": [], "time": []}}, "mouseout": {"state": {"target": ["1", "0", "1", "10", "2", "8", "9", "3", "4", "5", "6", "8", "11", "11", "8", "2", "7", "1", "0", "12", "0", "23", "24", "28", "26", "27", "26", "23"], "time": [2654, 5056, 6589, 7902, 9087, 10372, 11669, 13038, 14205, 16273, 17112, 18223, 18251, 19689, 19753, 19972, 21837, 22119, 25236, 26385, 26468, 27802, 28919, 30121, 31235, 32557, 34202, 34316]}, "edge": {"target": [], "time": []}}}, "displayed_time": "45.10", "trialTime": 46411, "trial_type": "mouselab-mdp", "trial_index": 5, "time_elapsed": 552187, "internal_node_id": "0.0-2.0-2.0-1.0"}}, {"uniqueid": "w77166227:a30448159", "current_trial": 6, "dateTime": 1691142964604, "trialdata": {"view_history": [{"page_index": 0, "viewing_time": 72583}, {"page_index": 1, "viewing_time": 49218}], "rt": 121802, "trial_id": "mouselab_instructions_2_control", "trial_type": "instructions", "trial_index": 6, "time_elapsed": 673997, "internal_node_id": "0.0-2.0-3.0"}}, {"uniqueid": "w77166227:a30448159", "current_trial": 7, "dateTime": 1691143023837, "trialdata": {"rt": 59221, "response": {"Q0": "The cost for clicking on nodes may vary between nodes.", "Q1": "The better I perform the higher my bonus will be.", "Q2": "No, the amount of cash at each node of the web may be different each time.", "Q3": "To get the highest total score.", "Q4": "Only before moving the spider.", "Q5": "3 seconds"}, "question_order": [0, 1, 2, 3, 4, 5], "correct": {"Q0": "The cost for clicking on nodes may vary between nodes.", "Q1": "The better I perform the higher my bonus will be.", "Q2": "No, the amount of cash at each node of the web may be different each time.", "Q3": "To get the highest total score.", "Q4": "Only before moving the spider.", "Q5": "3 seconds"}, "trial_id": "mouselab_quiz_control", "trial_type": "survey-multi-choice", "trial_index": 7, "time_elapsed": 733230, "internal_node_id": "0.0-2.0-4.0"}}, {"uniqueid": "w77166227:a30448159", "current_trial": 8, "dateTime": 1691143048907, "trialdata": {"rt": 25061, "stimulus": "\n<h1> Get ready to start the game! </h1>\n\nThank you for reading the instructions. Get ready start with the 40 rounds of this game.\n<br><br>\nIf you need to take a break, feel free to take one after the end of a round, before continuing to the next one.\n<br><br>\nRemember, the more money the spider gets, the bigger your bonus will be!\n<br><br>\n<div style='text-align: center;'>Press <code>space</code> to begin.</div>\n\n<br><br>\n(If, at any point, the <code>space</code> key does not take you to the next page, click once on the text and try again.)", "response": " ", "trial_id": "mdp_ready", "trial_type": "html-keyboard-response", "trial_index": 8, "time_elapsed": 758300, "internal_node_id": "0.0-4.0-0.0"}}, {"uniqueid": "w77166227:a30448159", "current_trial": 9, "dateTime": 1691143081556, "trialdata": {"revealed_states": [], "clicked_states": ["1", "2", "3", "8", "4", "5"], "num_clicks_accrued": [0, 0, 0, 0, 0, 0, 0, 0, 0, 0, 0, 0, 0], "stateRewards": ["", 1, -3, -2, 14, 49, -40, -39, 2, 26, -61, 73, 1, -4, -8, 12, 79, 29, -65, -13, 55, -26, 27, -1, 3, 3, 9, -17, -60, -18, -8, 35, -88, 69], "withholdReward": false, "trial_id": "mdp_trial_1", "block": "test", "trialIndex": 2, "score": 50.6, "costs": -8.4, "simulationMode": [null, null, null, null, null], "rewards": [1, -3, -2, 14, 49], "path": ["0", "0", "1", "2", "3", "4", "5"], "rt": [22361, 323, 69, 1007, 286], "actions": ["up", "up", "up", "right", "up"], "actionTimes": [26811, 27663, 28252, 29809, 30608], "queries": {"click": {"state": {"target": ["1", "2", "3", "8", "4", "5"], "time": [5827, 8416, 11371, 13436, 15486, 17406]}, "edge": {"target": [], "time": []}}, "mouseover": {"state": {"target": ["1", "2", "3", "7", "3", "8", "4", "5", "2", "1", "1", "8", "9", "3"], "time": [5520, 6436, 9685, 10152, 10869, 12204, 14519, 16403, 20918, 21401, 22117, 22266, 22600, 25049]}, "edge": {"target": [], "time": []}}, "mouseout": {"state": {"target": ["1", "12", "0", "1", "2", "3", "7", "3", "8", "3", "4", "5", "2", "1", "1", "8", "9", "3"], "time": [3133, 3383, 5387, 6320, 8633, 9920, 10749, 12069, 14170, 14372, 16151, 20683, 21082, 21548, 22150, 22368, 24965, 25100]}, "edge": {"target": [], "time": []}}}, "displayed_time": "31.15", "trialTime": 32419, "trial_type": "mouselab-mdp", "trial_index": 9, "time_elapsed": 790948, "internal_node_id": "0.0-4.0-1.0-0.0"}}, {"uniqueid": "w77166227:a30448159", "current_trial": 10, "dateTime": 1691143103684, "trialdata": {"revealed_states": [], "clicked_states": [], "num_clicks_accrued": [0, 0, 0, 0, 0, 0, 0, 0, 0, 0, 0, 0, 0], "stateRewards": ["", 1, 1, -3, 2, 22, -25, -11, -5, 50, 49, 3, 1, -1, 8, 14, -85, -30, 57, -6, -39, -16, 59, -2, -1, 5, 5, 59, -16, 8, 4, 67, 56, -9], "withholdReward": false, "trial_id": "mdp_trial_2", "block": "test", "trialIndex": 3, "score": 44, "costs": 0, "simulationMode": [null, null, null, null, null], "rewards": [1, 1, -3, -5, 50], "path": ["0", "0", "1", "2", "3", "8", "9"], "rt": [9769, 444, 359, 764, 132], "actions": ["up", "up", "up", "left", "up"], "actionTimes": [16974, 17932, 18830, 20103, 20771], "queries": {"click": {"state": {"target": [], "time": []}, "edge": {"target": [], "time": []}}, "mouseover": {"state": {"target": ["23", "1", "1"], "time": [8217, 10519, 14550]}, "edge": {"target": [], "time": []}}, "mouseout": {"state": {"target": ["0", "23", "1", "1"], "time": [6766, 10301, 12686, 15049]}, "edge": {"target": [], "time": []}}}, "displayed_time": "21.29", "trialTime": 21934, "trial_type": "mouselab-mdp", "trial_index": 10, "time_elapsed": 813076, "internal_node_id": "0.0-4.0-1.0-1.0"}}, {"uniqueid": "w77166227:a30448159", "current_trial": 11, "dateTime": 1691143128437, "trialdata": {"revealed_states": [], "clicked_states": ["1", "2", "3", "8", "9", "4", "5"], "num_clicks_accrued": [0, 0, 0, 0, 0, 0, 0, 0, 0, 0, 0, 0, 0], "stateRewards": ["", 1, -1, 4, 5, -32, 18, 20, 6, -88, -74, 9, -2, 1, -2, -14, 34, -77, -38, -1, 80, -36, 73, 2, 3, -8, 10, -48, -73, -71, -11, -22, 20, 54], "withholdReward": false, "trial_id": "mdp_trial_3", "block": "test", "trialIndex": 4, "score": -32.8, "costs": -9.8, "simulationMode": [null, null, null, null, null], "rewards": [1, -1, 4, 5, -32], "path": ["0", "0", "1", "2", "3", "4", "5"], "rt": [16004, 201, 1, 456, 1169], "actions": ["up", "up", "up", "right", "up"], "actionTimes": [19350, 20063, 20617, 21650, 23329], "queries": {"click": {"state": {"target": ["1", "2", "3", "8", "9", "4", "5"], "time": [4846, 7465, 9134, 10935, 12999, 14949, 16593]}, "edge": {"target": [], "time": []}}, "mouseover": {"state": {"target": ["1", "2", "3", "8", "9", "4", "5", "3"], "time": [4516, 6182, 8666, 9762, 11814, 13689, 16208, 17956]}, "edge": {"target": [], "time": []}}, "mouseout": {"state": {"target": ["1", "0", "1", "2", "3", "8", "9", "4", "5", "3"], "time": [2381, 4326, 5931, 8315, 9711, 11497, 13554, 15806, 17756, 18021]}, "edge": {"target": [], "time": []}}}, "displayed_time": "23.87", "trialTime": 24536, "trial_type": "mouselab-mdp", "trial_index": 11, "time_elapsed": 837829, "internal_node_id": "0.0-4.0-1.0-2.0"}}, {"uniqueid": "w77166227:a30448159", "current_trial": 12, "dateTime": 1691143146641, "trialdata": {"revealed_states": [], "clicked_states": [], "num_clicks_accrued": [0, 0, 0, 0, 0, 0, 0, 0, 0, 0, 0, 0, 0], "stateRewards": ["", 2, 1, -3, 7, 46, 11, -36, 16, 71, 5, 1, 2, -2, -8, -3, -4, 6, 55, 7, 68, -54, 2, 1, 1, 6, -6, 42, -4, -84, -11, -65, 63, 25], "withholdReward": false, "trial_id": "mdp_trial_4", "block": "test", "trialIndex": 5, "score": 87, "costs": 0, "simulationMode": [null, null, null, null, null], "rewards": [2, 1, -3, 16, 71], "path": ["0", "0", "1", "2", "3", "8", "9"], "rt": [3289, 315, 68, 113, 4], "actions": ["up", "up", "up", "left", "up"], "actionTimes": [5903, 6716, 7319, 7978, 8522], "queries": {"click": {"state": {"target": [], "time": []}, "edge": {"target": [], "time": []}}, "mouseover": {"state": {"target": [], "time": []}, "edge": {"target": [], "time": []}}, "mouseout": {"state": {"target": [], "time": []}, "edge": {"target": [], "time": []}}}, "displayed_time": "16.92", "trialTime": 17969, "trial_type": "mouselab-mdp", "trial_index": 12, "time_elapsed": 856034, "internal_node_id": "0.0-4.0-1.0-3.0"}}, {"uniqueid": "w77166227:a30448159", "current_trial": 13, "dateTime": 1691143184946, "trialdata": {"revealed_states": [], "clicked_states": ["1", "2", "3", "4", "5", "8", "9", "23", "24", "25", "26", "27"], "num_clicks_accrued": [0, 0, 0, 0, 0, 0, 0, 0, 0, 0, 0, 0, 0], "stateRewards": ["", 1, 1, 1, 15, -76, 52, -32, 14, -57, 37, 49, 1, -4, -3, 6, 83, -76, 25, 9, 36, -1, -17, -1, 4, 4, -2, -22, -21, 58, -15, -57, 49, -24], "withholdReward": false, "trial_id": "mdp_trial_5", "block": "test", "trialIndex": 6, "score": -33.8, "costs": -16.8, "simulationMode": [null, null, null, null, null], "rewards": [-1, 4, 4, -2, -22], "path": ["0", "0", "23", "24", "25", "26", "27"], "rt": [30926, 138, 55, 602, 46], "actions": ["left", "left", "left", "up", "up"], "actionTimes": [33908, 34596, 35210, 36307, 36888], "queries": {"click": {"state": {"target": ["1", "2", "3", "4", "5", "8", "9", "23", "24", "25", "26", "27"], "time": [4362, 6300, 8162, 10207, 11821, 13361, 15493, 17640, 19857, 21815, 23660, 25573]}, "edge": {"target": [], "time": []}}, "mouseover": {"state": {"target": ["1", "2", "3", "4", "5", "8", "9", "10", "23", "24", "25", "26", "27", "0"], "time": [3898, 5150, 7115, 9249, 11381, 13011, 14112, 16201, 16747, 18761, 20762, 22743, 24578, 30033]}, "edge": {"target": [], "time": []}}, "mouseout": {"state": {"target": ["0", "12", "0", "1", "2", "3", "4", "5", "8", "9", "8", "10", "23", "24", "25", "26", "27", "0"], "time": [1379, 1481, 3566, 4852, 6866, 9148, 11197, 12579, 13579, 16149, 16197, 16247, 18613, 20647, 22426, 24328, 29649, 30102]}, "edge": {"target": [], "time": []}}}, "displayed_time": "37.44", "trialTime": 38074, "trial_type": "mouselab-mdp", "trial_index": 13, "time_elapsed": 894338, "internal_node_id": "0.0-4.0-1.0-4.0"}}, {"uniqueid": "w77166227:a30448159", "current_trial": 14, "dateTime": 1691143227068, "trialdata": {"revealed_states": [], "clicked_states": [], "num_clicks_accrued": [0, 0, 0, 0, 0, 0, 0, 0, 0, 0, 0, 0, 0], "stateRewards": ["", -2, -3, 1, -7, 39, -67, 16, 5, -20, 73, 66, -1, 4, 5, -3, 23, -68, -87, -8, 3, -3, 17, 1, -4, -2, -13, -32, 34, 61, -5, -11, -18, 12], "withholdReward": false, "trial_id": "mdp_trial_6", "block": "test", "trialIndex": 7, "score": -50, "costs": 0, "simulationMode": [null, null, null, null, null], "rewards": [1, -4, -2, -13, -32], "path": ["0", "0", "23", "24", "25", "26", "27"], "rt": [2454, 369, 107, 564, 116], "actions": ["left", "left", "left", "up", "up"], "actionTimes": [4715, 5602, 6242, 7359, 8028], "queries": {"click": {"state": {"target": [], "time": []}, "edge": {"target": [], "time": []}}, "mouseover": {"state": {"target": [], "time": []}, "edge": {"target": [], "time": []}}, "mouseout": {"state": {"target": [], "time": []}, "edge": {"target": [], "time": []}}}, "displayed_time": "16.41", "trialTime": 41890, "trial_type": "mouselab-mdp", "trial_index": 14, "time_elapsed": 936460, "internal_node_id": "0.0-4.0-1.0-5.0"}}, {"uniqueid": "w77166227:a30448159", "current_trial": 15, "dateTime": 1691143281889, "trialdata": {"revealed_states": [], "clicked_states": ["12", "13", "14", "15", "16", "1", "2", "3", "8", "9", "23", "24", "25", "26", "27", "4", "5", "17"], "num_clicks_accrued": [0, 0, 0, 0, 0, 0, 0, 0, 0, 0, 0, 0, 0], "stateRewards": ["", 1, -3, 4, 13, -72, 52, 5, 5, -58, 5, 14, 2, 1, 3, -14, -86, -4, 73, 6, -58, -50, 49, 2, -3, -4, 2, 33, -41, 42, -11, 81, 45, 53], "withholdReward": false, "trial_id": "mdp_trial_7", "block": "test", "trialIndex": 8, "score": -76.19999999999999, "costs": -25.199999999999992, "simulationMode": [null, null, null, null, null], "rewards": [1, -3, 4, 5, -58], "path": ["0", "0", "1", "2", "3", "8", "9"], "rt": [47824, 146, 353, 478, 1469], "actions": ["up", "up", "up", "left", "up"], "actionTimes": [49094, 49762, 50670, 51698, 53700], "queries": {"click": {"state": {"target": ["12", "13", "14", "15", "16", "1", "2", "3", "8", "9", "23", "24", "25", "26", "27", "4", "5", "17"], "time": [3979, 6042, 7720, 9592, 11167, 13252, 14924, 16652, 18243, 20300, 22423, 24647, 26424, 27969, 30323, 33181, 34878, 40071]}, "edge": {"target": [], "time": []}}, "mouseover": {"state": {"target": ["1", "12", "13", "14", "15", "16", "1", "1", "2", "3", "8", "9", "23", "24", "25", "26", "27", "10", "7", "7", "4", "5", "3", "2", "1", "17", "15", "12"], "time": [2418, 3467, 4952, 6750, 8468, 10217, 11699, 12049, 14037, 15652, 17218, 18984, 21565, 23381, 25449, 27183, 28834, 32047, 32130, 32530, 32930, 34016, 36865, 36998, 37115, 38566, 43265, 43630]}, "edge": {"target": [], "time": []}}, "mouseout": {"state": {"target": ["0", "1", "12", "13", "14", "15", "16", "1", "1", "2", "3", "8", "9", "23", "24", "24", "25", "26", "27", "10", "7", "7", "4", "5", "3", "2", "1", "17", "15", "12"], "time": [2267, 3267, 4752, 6566, 8235, 10035, 11633, 11733, 13739, 15450, 17184, 18797, 20917, 22630, 24870, 25235, 26966, 28497, 31971, 32079, 32265, 32729, 33849, 36779, 36913, 37029, 37165, 40296, 43330, 43713]}, "edge": {"target": [], "time": []}}}, "displayed_time": "54.20", "trialTime": 54558, "trial_type": "mouselab-mdp", "trial_index": 15, "time_elapsed": 991281, "internal_node_id": "0.0-4.0-1.0-6.0"}}, {"uniqueid": "w77166227:a30448159", "current_trial": 16, "dateTime": 1691143308061, "trialdata": {"revealed_states": [], "clicked_states": [], "num_clicks_accrued": [0, 0, 0, 0, 0, 0, 0, 0, 0, 0, 0, 0, 0], "stateRewards": ["", 1, 2, 2, -15, -84, 28, -26, 13, 31, 86, 30, -2, 1, -1, -8, 66, -40, -1, -10, -32, 57, -17, 1, 2, -2, 9, -23, 77, 85, 12, -32, -62, -35], "withholdReward": false, "trial_id": "mdp_trial_8", "block": "test", "trialIndex": 9, "score": -13, "costs": 0, "simulationMode": [null, null, null, null, null], "rewards": [1, 2, -2, 9, -23], "path": ["0", "0", "23", "24", "25", "26", "27"], "rt": [1874, 429, 96, 790, 104], "actions": ["left", "left", "left", "up", "up"], "actionTimes": [7624, 8567, 9210, 10523, 11137], "queries": {"click": {"state": {"target": [], "time": []}, "edge": {"target": [], "time": []}}, "mouseover": {"state": {"target": [], "time": []}, "edge": {"target": [], "time": []}}, "mouseout": {"state": {"target": [], "time": []}, "edge": {"target": [], "time": []}}}, "displayed_time": "20.45", "trialTime": 25915, "trial_type": "mouselab-mdp", "trial_index": 16, "time_elapsed": 1017454, "internal_node_id": "0.0-4.0-1.0-7.0"}}, {"uniqueid": "w77166227:a30448159", "current_trial": 17, "dateTime": 1691143390051, "trialdata": {"revealed_states": [], "clicked_states": ["1", "2", "3", "4", "5", "8", "9", "12", "13"], "num_clicks_accrued": [0, 0, 0, 0, 0, 0, 0, 0, 0, 0, 0, 0, 0], "stateRewards": ["", 2, -2, -8, 9, -20, 55, -58, 14, 42, 2, 36, 1, -3, -5, 5, -58, 57, 60, 16, 57, 30, -70, -2, 1, 3, 10, 59, 23, 77, -13, -26, 88, -72], "withholdReward": false, "trial_id": "mdp_trial_9", "block": "test", "trialIndex": 10, "score": -31.6, "costs": -12.600000000000001, "simulationMode": [null, null, null, null, null], "rewards": [2, -2, -8, 9, -20], "path": ["0", "0", "1", "2", "3", "4", "5"], "rt": [30461, 306, 81, 727, 170], "actions": ["up", "up", "up", "right", "up"], "actionTimes": [77226, 78039, 78662, 79924, 80602], "queries": {"click": {"state": {"target": ["1", "2", "3", "4", "5", "8", "9", "12", "13"], "time": [48601, 50448, 53315, 55317, 57500, 59419, 60937, 62608, 64506]}, "edge": {"target": [], "time": []}}, "mouseover": {"state": {"target": ["1", "2", "3", "3", "4", "5", "8", "9", "1", "12", "13", "14", "14", "13"], "time": [48282, 49583, 51232, 52997, 53879, 55945, 58396, 60180, 61847, 62147, 63348, 65029, 66647, 74142]}, "edge": {"target": [], "time": []}}, "mouseout": {"state": {"target": ["0", "0", "1", "2", "3", "3", "4", "5", "8", "9", "1", "12", "13", "14", "14", "13"], "time": [44838, 47879, 49298, 51033, 52764, 53795, 55795, 58181, 59637, 61580, 61913, 62818, 64721, 66293, 74111, 74228]}, "edge": {"target": [], "time": []}}}, "displayed_time": "81.12", "trialTime": 81722, "trial_type": "mouselab-mdp", "trial_index": 17, "time_elapsed": 1099443, "internal_node_id": "0.0-4.0-1.0-8.0"}}, {"uniqueid": "w77166227:a30448159", "current_trial": 18, "dateTime": 1691143473128, "trialdata": {"revealed_states": [], "clicked_states": ["23", "24", "26", "25", "27", "1", "2", "3", "4", "5", "8", "9", "12", "13", "14", "15", "16", "30", "33", "19", "20", "6", "11", "28", "29", "31", "7", "10", "18", "22", "21", "17"], "num_clicks_accrued": [0, 0, 0, 0, 0, 0, 0, 0, 0, 0, 0, 0, 0], "stateRewards": ["", -2, 3, -1, -9, 44, 48, -37, -3, 71, -39, 87, -1, 3, -4, 4, -21, 59, -15, -8, -1, 28, -38, 2, 4, 4, 8, -85, -72, -63, 14, 58, 63, -46], "withholdReward": false, "trial_id": "mdp_trial_10", "block": "test", "trialIndex": 11, "score": -9.799999999999976, "costs": -44.799999999999976, "simulationMode": [null, null, null, null, null], "rewards": [-2, 3, -1, -9, 44], "path": ["0", "0", "1", "2", "3", "4", "5"], "rt": [74345, 371, 408, 984, 1268], "actions": ["up", "up", "up", "right", "up"], "actionTimes": [76479, 77375, 78298, 79816, 81622], "queries": {"click": {"state": {"target": ["23", "24", "26", "25", "27", "1", "2", "3", "4", "5", "8", "9", "12", "13", "14", "15", "16", "30", "33", "19", "20", "6", "11", "28", "29", "31", "7", "10", "18", "22", "21", "17"], "time": [3142, 4877, 7320, 9132, 11098, 12822, 14468, 16796, 18377, 21929, 23816, 25901, 27600, 29257, 31980, 34145, 35685, 38515, 40266, 42209, 43879, 46388, 47955, 50428, 52398, 54202, 55771, 60447, 62484, 65298, 66905, 68571]}, "edge": {"target": [], "time": []}}, "mouseover": {"state": {"target": ["23", "24", "25", "26", "25", "27", "1", "2", "3", "4", "3", "4", "5", "8", "8", "5", "8", "9", "7", "18", "12", "13", "14", "15", "14", "15", "16", "1", "24", "31", "30", "33", "0", "14", "19", "20", "14", "18", "4", "6", "8", "11", "28", "26", "29", "25", "31", "2", "7", "2", "10", "18", "18", "17", "14", "22", "21", "17"], "time": [2799, 3767, 5385, 6933, 7782, 10149, 11782, 13614, 14982, 16363, 16480, 17533, 18932, 20448, 20765, 21179, 22580, 24487, 26637, 26772, 27253, 28471, 29787, 31422, 31621, 32706, 34922, 37405, 37553, 37803, 38087, 39504, 41154, 41254, 41871, 43044, 44625, 44655, 44774, 45352, 46971, 47253, 50151, 51368, 51620, 53104, 53523, 54959, 55069, 59902, 60202, 61702, 62101, 63155, 64701, 64915, 66183, 67848]}, "edge": {"target": [], "time": []}}, "mouseout": {"state": {"target": ["0", "23", "24", "25", "26", "25", "26", "27", "1", "2", "3", "4", "3", "4", "5", "8", "8", "5", "8", "9", "7", "18", "12", "13", "14", "15", "14", "15", "16", "1", "24", "31", "30", "33", "0", "14", "19", "20", "14", "18", "4", "6", "8", "11", "28", "26", "29", "25", "31", "2", "7", "7", "2", "10", "18", "18", "17", "14", "22", "21"], "time": [2714, 3585, 5315, 6733, 7698, 9699, 9886, 11584, 13367, 14868, 16230, 16432, 17317, 18833, 20364, 20480, 21098, 22328, 24298, 26457, 26688, 26837, 27814, 29654, 31071, 31573, 32199, 34688, 37225, 37436, 37672, 37835, 39237, 41071, 41205, 41770, 42871, 44623, 44653, 44687, 45207, 46836, 47085, 49819, 50644, 51503, 52968, 53154, 54414, 55018, 55786, 59818, 60117, 61252, 61753, 62691, 64466, 64782, 65987, 67447]}, "edge": {"target": [], "time": []}}}, "displayed_time": "82.15", "trialTime": 82825, "trial_type": "mouselab-mdp", "trial_index": 18, "time_elapsed": 1182520, "internal_node_id": "0.0-4.0-1.0-9.0"}}, {"uniqueid": "w77166227:a30448159", "current_trial": 19, "dateTime": 1691143547669, "trialdata": {"revealed_states": [], "clicked_states": ["1", "3", "2", "8", "9", "11", "12", "13", "14", "15", "16", "4", "6", "5", "23", "24", "25", "26", "27", "30", "19", "20", "32", "28", "31", "33", "18", "7"], "num_clicks_accrued": [0, 0, 0, 0, 0, 0, 0, 0, 0, 0, 0, 0, 0], "stateRewards": ["", 2, -1, 4, -9, -43, 7, 54, -13, 38, -40, -83, -1, 2, -8, -10, 34, -33, 11, -14, -79, 65, 26, 1, 2, 4, 10, 21, 1, 86, 4, -53, 28, -29], "withholdReward": false, "trial_id": "mdp_trial_11", "block": "test", "trialIndex": 12, "score": 10.800000000000018, "costs": -39.19999999999998, "simulationMode": [null, null, null, null, null], "rewards": [2, -1, 4, -9, 54], "path": ["0", "0", "1", "2", "3", "4", "7"], "rt": [64507, 203, 16, 502, 134], "actions": ["up", "up", "up", "right", "down"], "actionTimes": [70559, 71297, 71826, 72879, 73523], "queries": {"click": {"state": {"target": ["1", "3", "2", "8", "9", "11", "12", "13", "14", "15", "16", "4", "6", "5", "23", "24", "25", "26", "27", "30", "19", "20", "32", "28", "31", "33", "18", "7"], "time": [7217, 9516, 11323, 13447, 16087, 18243, 20224, 21760, 23376, 26189, 28806, 30341, 31942, 34026, 36969, 38622, 41205, 43052, 45106, 46921, 48846, 51923, 53556, 56065, 57996, 59890, 62340, 64006]}, "edge": {"target": [], "time": []}}, "mouseover": {"state": {"target": ["1", "2", "3", "2", "8", "9", "9", "11", "19", "12", "13", "14", "15", "15", "16", "4", "6", "5", "3", "2", "10", "28", "24", "23", "24", "25", "25", "26", "27", "32", "30", "31", "22", "19", "19", "21", "20", "22", "32", "32", "31", "24", "28", "24", "31", "30", "33", "1", "18", "7", "6"], "time": [6845, 7827, 9230, 10127, 12049, 14147, 15726, 16529, 18862, 19330, 21095, 22595, 24095, 25910, 26978, 29443, 31279, 32641, 34661, 34859, 35393, 35825, 36208, 36641, 37892, 39325, 40959, 41779, 43759, 45859, 46561, 47729, 47824, 47861, 48573, 49575, 51556, 52413, 52658, 53072, 54307, 55421, 55671, 56806, 57089, 59205, 59607, 61190, 61973, 63358, 65806]}, "edge": {"target": [], "time": []}}, "mouseout": {"state": {"target": ["17", "13", "12", "0", "1", "2", "3", "2", "8", "9", "9", "11", "19", "12", "13", "14", "15", "15", "16", "4", "6", "5", "3", "2", "10", "28", "24", "23", "24", "25", "25", "26", "27", "32", "30", "31", "22", "19", "19", "21", "19", "20", "22", "32", "32", "31", "24", "28", "24", "31", "30", "33", "1", "18", "7"], "time": [4582, 5047, 5095, 6735, 7660, 8996, 9977, 11834, 13660, 15679, 16480, 18716, 19096, 20899, 22445, 23929, 25478, 26411, 29244, 31092, 32474, 34559, 34709, 34911, 35659, 35961, 36442, 37186, 39190, 40676, 41432, 43508, 45710, 46423, 47725, 47774, 47858, 48275, 49424, 50775, 51456, 52410, 52457, 52708, 53990, 55389, 55455, 56708, 56907, 58939, 59320, 60940, 61241, 63092, 65206]}, "edge": {"target": [], "time": []}}}, "displayed_time": "74.04", "trialTime": 74282, "trial_type": "mouselab-mdp", "trial_index": 19, "time_elapsed": 1257060, "internal_node_id": "0.0-4.0-1.0-10.0"}}, {"uniqueid": "w77166227:a30448159", "current_trial": 20, "dateTime": 1691143598963, "trialdata": {"revealed_states": [], "clicked_states": ["1", "2", "3", "8", "11", "9", "5", "4", "6", "7", "12", "13", "14", "15", "16", "23", "24", "25", "26", "27"], "num_clicks_accrued": [0, 0, 0, 0, 0, 0, 0, 0, 0, 0, 0, 0, 0], "stateRewards": ["", -1, 2, -6, 6, -82, -19, -39, -16, -83, 11, -33, -2, -2, 4, -6, -82, -1, -19, -6, -10, -67, -41, -2, 1, -7, 16, -23, -78, -52, 14, 31, -71, 74], "withholdReward": false, "trial_id": "mdp_trial_12", "block": "test", "trialIndex": 13, "score": -45.999999999999986, "costs": -27.99999999999999, "simulationMode": [null, null, null, null, null], "rewards": [-1, 2, -6, 6, -19], "path": ["0", "0", "1", "2", "3", "4", "6"], "rt": [40327, 267, 499, 392, 194], "actions": ["up", "up", "up", "right", "right"], "actionTimes": [42724, 43512, 44545, 45473, 46211], "queries": {"click": {"state": {"target": ["1", "2", "3", "8", "11", "9", "5", "4", "6", "7", "12", "13", "14", "15", "16", "23", "24", "25", "26", "27"], "time": [4245, 6282, 8694, 10332, 12489, 14563, 16557, 18523, 20419, 22285, 24071, 25605, 27142, 29054, 30957, 32581, 34502, 36271, 37957, 39830]}, "edge": {"target": [], "time": []}}, "mouseover": {"state": {"target": ["1", "2", "3", "8", "11", "9", "5", "4", "6", "7", "12", "13", "14", "15", "16", "23", "23", "24", "25", "26", "27", "0"], "time": [3951, 5067, 7000, 9515, 11097, 13083, 15198, 17230, 19165, 21197, 23397, 24995, 26496, 27780, 29796, 31780, 32296, 34031, 35413, 36911, 38610, 40760]}, "edge": {"target": [], "time": []}}, "mouseout": {"state": {"target": ["6", "7", "1", "2", "3", "8", "11", "9", "5", "4", "6", "6", "7", "12", "13", "14", "15", "16", "23", "23", "24", "25", "26", "27", "0"], "time": [1465, 1548, 4864, 6849, 9465, 10996, 12950, 15098, 17114, 19081, 20638, 21013, 22932, 24289, 26312, 27731, 29679, 31170, 31913, 33478, 35382, 36732, 38414, 40629, 40843]}, "edge": {"target": [], "time": []}}}, "displayed_time": "46.74", "trialTime": 51039, "trial_type": "mouselab-mdp", "trial_index": 20, "time_elapsed": 1308355, "internal_node_id": "0.0-4.0-1.0-11.0"}}, {"uniqueid": "w77166227:a30448159", "current_trial": 21, "dateTime": 1691143770835, "trialdata": {"revealed_states": [], "clicked_states": ["1", "2", "3", "8", "9", "4", "5", "6", "12", "13", "14", "15", "16"], "num_clicks_accrued": [0, 0, 0, 0, 0, 0, 0, 0, 0, 0, 0, 0, 0], "stateRewards": ["", -2, -2, -3, -6, -15, -11, 41, -12, -63, -76, 2, -2, -3, 8, 9, -36, -2, -18, -16, -32, -85, -17, -2, 1, 5, -16, 82, 35, -88, -1, 80, -82, -20], "withholdReward": false, "trial_id": "mdp_trial_13", "block": "test", "trialIndex": 14, "score": -42.2, "costs": -18.2, "simulationMode": [null, null, null, null, null], "rewards": [-2, -2, -3, -6, -11], "path": ["0", "0", "1", "2", "3", "4", "6"], "rt": [162874, 229, 321, 472, 24], "actions": ["up", "up", "up", "right", "right"], "actionTimes": [167224, 167948, 168771, 169739, 170258], "queries": {"click": {"state": {"target": ["1", "2", "3", "8", "9", "4", "5", "6", "12", "13", "14", "15", "16"], "time": [5574, 7473, 9306, 12113, 13627, 15398, 18440, 21267, 23004, 26401, 27996, 30425, 32792]}, "edge": {"target": [], "time": []}}, "mouseover": {"state": {"target": ["1", "2", "3", "8", "9", "4", "5", "6", "5", "6", "6", "7", "12", "13", "14", "15", "16", "17", "14", "13", "13", "14", "14", "13", "12", "12", "12", "1"], "time": [5306, 6254, 8053, 9954, 12704, 14602, 16055, 17488, 18053, 19051, 20903, 21802, 22153, 23850, 27337, 28833, 31186, 155100, 156216, 156650, 156985, 157132, 157235, 157315, 157498, 158415, 165748, 165831]}, "edge": {"target": [], "time": []}}, "mouseout": {"state": {"target": ["0", "1", "2", "3", "8", "9", "4", "5", "6", "5", "6", "6", "7", "12", "13", "14", "15", "16", "17", "14", "13", "13", "14", "14", "13", "12", "12", "12", "1"], "time": [3835, 6071, 7953, 9804, 12588, 13850, 15887, 17355, 17804, 19002, 20551, 21479, 21853, 23649, 27202, 28549, 30935, 120132, 155117, 156299, 156931, 157032, 157182, 157283, 157482, 157515, 165564, 165764, 166098]}, "edge": {"target": [], "time": []}}}, "displayed_time": "170.78", "trialTime": 171606, "trial_type": "mouselab-mdp", "trial_index": 21, "time_elapsed": 1480228, "internal_node_id": "0.0-4.0-1.0-12.0"}}, {"uniqueid": "w77166227:a30448159", "current_trial": 22, "dateTime": 1691143826351, "trialdata": {"revealed_states": [], "clicked_states": ["1", "2", "3", "8", "9", "23", "24", "25", "26", "27", "12", "13", "15", "17", "14", "19", "20", "16", "4", "5", "6", "11"], "num_clicks_accrued": [0, 0, 0, 0, 0, 0, 0, 0, 0, 0, 0, 0, 0], "stateRewards": ["", 1, 2, 3, 16, 63, -25, 16, -4, -14, 82, -66, -1, -3, -3, -11, -14, 19, 46, 3, -34, -82, 66, -2, -3, 4, -5, -63, 77, -37, -1, -45, -41, 84], "withholdReward": false, "trial_id": "mdp_trial_14", "block": "test", "trialIndex": 15, "score": 54.20000000000002, "costs": -30.799999999999986, "simulationMode": [null, null, null, null, null], "rewards": [1, 2, 3, 16, 63], "path": ["0", "0", "1", "2", "3", "4", "5"], "rt": [49918, 191, 226, 217, 120], "actions": ["up", "up", "up", "right", "up"], "actionTimes": [51602, 52305, 53024, 53747, 54367], "queries": {"click": {"state": {"target": ["1", "2", "3", "8", "9", "23", "24", "25", "26", "27", "12", "13", "15", "17", "14", "19", "20", "16", "4", "5", "6", "11"], "time": [2893, 4950, 7010, 8525, 10677, 12223, 14845, 16360, 18518, 20960, 23169, 25003, 27238, 29072, 30920, 33899, 35871, 37661, 39742, 41590, 43794, 45726]}, "edge": {"target": [], "time": []}}, "mouseover": {"state": {"target": ["1", "2", "3", "3", "8", "9", "23", "24", "24", "25", "26", "27", "1", "13", "12", "13", "13", "14", "15", "17", "14", "19", "20", "19", "20", "15", "16", "4", "5", "6", "11", "8", "10", "24", "30", "23"], "time": [2552, 3371, 5318, 6670, 7453, 9086, 11302, 12900, 14566, 16068, 16938, 19001, 21451, 21537, 22035, 23982, 24700, 25618, 26832, 28151, 29551, 31597, 33196, 33513, 34565, 36599, 36932, 38670, 40300, 42299, 45430, 46548, 46697, 47728, 47961, 49078]}, "edge": {"target": [], "time": []}}, "mouseout": {"state": {"target": ["0", "1", "2", "3", "3", "8", "9", "8", "23", "24", "24", "25", "26", "27", "1", "13", "12", "13", "13", "14", "15", "17", "14", "19", "20", "19", "20", "15", "16", "4", "5", "6", "11", "8", "10", "24", "30", "23"], "time": [1191, 3258, 5269, 6384, 7388, 8907, 11097, 11108, 12685, 14151, 15269, 16784, 18883, 21386, 21469, 21818, 23933, 24183, 25467, 26715, 27868, 29485, 31464, 33030, 33448, 34398, 36383, 36700, 37873, 40183, 42166, 44865, 45953, 46582, 46881, 47794, 48978, 49094]}, "edge": {"target": [], "time": []}}}, "displayed_time": "54.86", "trialTime": 55294, "trial_type": "mouselab-mdp", "trial_index": 22, "time_elapsed": 1535744, "internal_node_id": "0.0-4.0-1.0-13.0"}}, {"uniqueid": "w77166227:a30448159", "current_trial": 23, "dateTime": 1691143885929, "trialdata": {"revealed_states": [], "clicked_states": ["23", "24", "25", "26", "27", "1", "2", "3", "8", "9", "4", "5", "6", "11", "12", "13", "14", "15", "16", "17", "18"], "num_clicks_accrued": [0, 0, 0, 0, 0, 0, 0, 0, 0, 0, 0, 0, 0], "stateRewards": ["", 2, 3, -6, -5, -3, 55, 40, 11, 61, 11, 51, 2, -4, -6, 9, -25, 29, -15, -6, 7, -77, -2, -2, -4, 1, 14, -43, -1, 56, -12, -54, 41, -74], "withholdReward": false, "trial_id": "mdp_trial_15", "block": "test", "trialIndex": 16, "score": 41.60000000000001, "costs": -29.399999999999988, "simulationMode": [null, null, null, null, null], "rewards": [2, 3, -6, 11, 61], "path": ["0", "0", "1", "2", "3", "8", "9"], "rt": [51771, 322, 152, 140, 156], "actions": ["up", "up", "up", "left", "up"], "actionTimes": [55509, 56330, 56976, 57616, 58264], "queries": {"click": {"state": {"target": ["23", "24", "25", "26", "27", "1", "2", "3", "8", "9", "4", "5", "6", "11", "12", "13", "14", "15", "16", "17", "18"], "time": [6515, 8118, 12270, 14243, 15956, 17541, 19067, 21758, 23646, 25875, 27388, 28931, 30746, 32518, 34378, 36393, 38790, 40370, 42312, 43886, 48209]}, "edge": {"target": [], "time": []}}, "mouseover": {"state": {"target": ["1", "12", "0", "23", "24", "25", "26", "27", "1", "2", "3", "3", "8", "9", "4", "5", "6", "11", "10", "2", "12", "13", "14", "15", "16", "17", "15", "18", "13", "19", "22"], "time": [4543, 5460, 5926, 6210, 7078, 8645, 13212, 15079, 16678, 18127, 19726, 21308, 22311, 24226, 26527, 28010, 29743, 31759, 33228, 33293, 34030, 35408, 37090, 39342, 40974, 42991, 47471, 47805, 51937, 52305, 53770]}, "edge": {"target": [], "time": []}}, "mouseout": {"state": {"target": ["0", "1", "12", "0", "23", "24", "25", "26", "27", "1", "2", "3", "3", "8", "9", "4", "5", "5", "6", "11", "11", "10", "2", "12", "13", "14", "15", "16", "17", "15", "18", "13", "19", "22"], "time": [4444, 5326, 5876, 6027, 6976, 8580, 13012, 14762, 16429, 18011, 19509, 20891, 22194, 23862, 26099, 27615, 29152, 29525, 31158, 32742, 33176, 33261, 33309, 35211, 36973, 39157, 40824, 42873, 47421, 47671, 51871, 51953, 53754, 53803]}, "edge": {"target": [], "time": []}}}, "displayed_time": "58.76", "trialTime": 59338, "trial_type": "mouselab-mdp", "trial_index": 23, "time_elapsed": 1595321, "internal_node_id": "0.0-4.0-1.0-14.0"}}, {"uniqueid": "w77166227:a30448159", "current_trial": 24, "dateTime": 1691143922579, "trialdata": {"revealed_states": [], "clicked_states": ["1", "2", "3", "4", "5", "6", "8", "11", "9", "12"], "num_clicks_accrued": [0, 0, 0, 0, 0, 0, 0, 0, 0, 0, 0, 0, 0], "stateRewards": ["", 1, 1, 1, -3, -7, -1, -41, -10, 20, -72, -63, 1, -4, -2, 2, -66, 30, -84, -2, 49, 23, 71, -1, -4, 4, -12, 67, 5, 18, -16, 88, 56, -5], "withholdReward": false, "trial_id": "mdp_trial_16", "block": "test", "trialIndex": 17, "score": -21, "costs": -14.000000000000002, "simulationMode": [null, null, null, null, null], "rewards": [1, 1, 1, -3, -7], "path": ["0", "0", "1", "2", "3", "4", "5"], "rt": [28619, 343, 98, 162, 1332], "actions": ["up", "up", "up", "right", "up"], "actionTimes": [31883, 32731, 33335, 33998, 35835], "queries": {"click": {"state": {"target": ["1", "2", "3", "4", "5", "6", "8", "11", "9", "12"], "time": [5293, 7291, 9250, 10842, 12873, 14408, 16123, 17853, 19957, 21833]}, "edge": {"target": [], "time": []}}, "mouseover": {"state": {"target": ["1", "2", "3", "4", "5", "6", "3", "8", "11", "9", "3", "12", "13", "13", "12", "13"], "time": [4971, 5758, 8090, 9839, 11407, 13338, 14938, 15087, 16641, 18422, 20537, 20804, 20938, 21020, 21519, 22445]}, "edge": {"target": [], "time": []}}, "mouseout": {"state": {"target": ["0", "1", "2", "3", "4", "5", "6", "4", "3", "8", "11", "9", "3", "12", "13", "13", "12"], "time": [4848, 5659, 7823, 9690, 11307, 13271, 14854, 14887, 15021, 16338, 18063, 20520, 20554, 20904, 20959, 21287, 22338]}, "edge": {"target": [], "time": []}}}, "displayed_time": "36.34", "trialTime": 36423, "trial_type": "mouselab-mdp", "trial_index": 24, "time_elapsed": 1631972, "internal_node_id": "0.0-4.0-1.0-15.0"}}, {"uniqueid": "w77166227:a30448159", "current_trial": 25, "dateTime": 1691143953562, "trialdata": {"revealed_states": [], "clicked_states": ["1", "2", "3", "4", "5", "6"], "num_clicks_accrued": [0, 0, 0, 0, 0, 0, 0, 0, 0, 0, 0, 0, 0], "stateRewards": ["", -2, 2, 5, -14, -56, 64, 84, -5, 52, 39, 85, -2, 1, 7, 8, 21, 29, -78, -9, -10, -69, 10, -2, -1, -7, 15, 72, 20, 41, -2, 52, 80, 22], "withholdReward": false, "trial_id": "mdp_trial_17", "block": "test", "trialIndex": 18, "score": -73.4, "costs": -8.4, "simulationMode": [null, null, null, null, null], "rewards": [-2, 2, 5, -14, -56], "path": ["0", "0", "1", "2", "3", "4", "5"], "rt": [23099, 102, 231, 276, 2251], "actions": ["up", "up", "up", "right", "up"], "actionTimes": [25255, 25862, 26591, 27369, 30115], "queries": {"click": {"state": {"target": ["1", "2", "3", "4", "5", "6"], "time": [4374, 6141, 7848, 11724, 13778, 16555]}, "edge": {"target": [], "time": []}}, "mouseover": {"state": {"target": ["24", "24", "23", "1", "2", "3", "4", "5", "6", "4", "3", "8", "11", "11", "8"], "time": [3094, 3345, 3411, 3894, 5214, 7401, 8665, 12431, 14545, 17013, 17079, 17462, 19409, 21309, 21659]}, "edge": {"target": [], "time": []}}, "mouseout": {"state": {"target": ["13", "0", "24", "24", "23", "1", "2", "3", "4", "5", "6", "4", "3", "8", "11", "11"], "time": [1344, 1677, 3110, 3377, 3561, 4999, 7364, 8565, 12229, 14312, 16979, 17048, 17263, 19293, 20908, 21442]}, "edge": {"target": [], "time": []}}}, "displayed_time": "30.63", "trialTime": 30734, "trial_type": "mouselab-mdp", "trial_index": 25, "time_elapsed": 1662954, "internal_node_id": "0.0-4.0-1.0-16.0"}}, {"uniqueid": "w77166227:a30448159", "current_trial": 26, "dateTime": 1691144028748, "trialdata": {"revealed_states": [], "clicked_states": ["1", "2", "3", "8", "9", "11", "4", "5", "6", "7", "10", "23", "24", "25", "26", "27", "12", "13", "14", "15", "16", "17", "19", "20", "30", "32", "31", "28", "29", "18", "22", "21", "33"], "num_clicks_accrued": [0, 0, 0, 0, 0, 0, 0, 0, 0, 0, 0, 0, 0], "stateRewards": ["", -1, 2, 7, 8, 75, 67, -11, 6, 52, -17, 38, -1, 4, -8, 14, 74, -37, -17, -12, 52, 55, 71, -2, -1, -5, 2, 21, 6, -88, -14, 64, -61, -47], "withholdReward": false, "trial_id": "mdp_trial_18", "block": "test", "trialIndex": 19, "score": 36.800000000000026, "costs": -46.199999999999974, "simulationMode": [null, null, null, null, null], "rewards": [-1, 2, 7, 8, 67], "path": ["0", "0", "1", "2", "3", "4", "6"], "rt": [69424, 256, 140, 122, 7], "actions": ["up", "up", "up", "right", "right"], "actionTimes": [71528, 72300, 72934, 73549, 74051], "queries": {"click": {"state": {"target": ["1", "2", "3", "8", "9", "11", "4", "5", "6", "7", "10", "23", "24", "25", "26", "27", "12", "13", "14", "15", "16", "17", "19", "20", "30", "32", "31", "28", "29", "18", "22", "21", "33"], "time": [3073, 4872, 6481, 8455, 10286, 11991, 13554, 15732, 17271, 19819, 21627, 23341, 26138, 27935, 29527, 32594, 34237, 36065, 38190, 40333, 42639, 44484, 46267, 48157, 49940, 52533, 54118, 56186, 57779, 59644, 61371, 63344, 65292]}, "edge": {"target": [], "time": []}}, "mouseover": {"state": {"target": ["1", "2", "3", "8", "9", "11", "3", "4", "5", "6", "7", "7", "2", "10", "23", "24", "25", "24", "25", "26", "27", "27", "1", "12", "13", "13", "14", "15", "16", "16", "17", "14", "19", "19", "20", "22", "31", "30", "31", "32", "31", "28", "26", "29", "26", "1", "18", "13", "22", "21", "31", "30", "33"], "time": [2717, 3635, 5403, 7053, 9102, 10884, 12603, 12869, 14201, 16402, 17967, 19515, 20283, 20452, 22468, 24020, 25414, 25730, 27100, 28515, 30134, 32230, 33183, 33483, 34741, 35299, 36681, 38666, 40663, 42279, 43198, 45046, 45229, 45796, 47732, 48898, 49197, 49564, 50697, 52212, 53294, 55230, 56730, 56879, 58196, 58330, 58479, 60630, 60962, 62147, 63926, 63992, 64410]}, "edge": {"target": [], "time": []}}, "mouseout": {"state": {"target": ["8", "10", "1", "1", "2", "3", "8", "9", "11", "8", "3", "4", "5", "6", "7", "7", "2", "10", "23", "23", "24", "25", "24", "25", "26", "27", "27", "1", "12", "13", "13", "14", "15", "16", "16", "17", "14", "19", "19", "20", "19", "22", "31", "30", "31", "32", "31", "28", "26", "29", "26", "28", "1", "18", "13", "22", "21", "31", "30", "33"], "time": [1118, 1183, 1383, 3435, 5320, 6937, 8902, 10767, 12470, 12570, 12736, 13984, 16236, 17817, 19199, 20233, 20380, 22170, 23573, 23851, 25315, 25681, 26965, 28315, 30101, 31513, 32984, 33199, 34456, 34949, 36547, 38484, 40614, 42031, 43032, 44895, 45102, 45496, 47565, 48864, 48883, 48932, 49348, 50597, 51911, 52755, 54746, 56696, 56830, 58181, 58246, 58280, 58363, 60496, 60796, 61895, 63555, 63960, 64127, 66279]}, "edge": {"target": [], "time": []}}}, "displayed_time": "74.58", "trialTime": 74949, "trial_type": "mouselab-mdp", "trial_index": 26, "time_elapsed": 1738141, "internal_node_id": "0.0-4.0-1.0-17.0"}}, {"uniqueid": "w77166227:a30448159", "current_trial": 27, "dateTime": 1691144105336, "trialdata": {"revealed_states": [], "clicked_states": ["12", "13", "14", "15", "16", "1", "3", "2", "4", "5", "8", "9", "11", "10", "7", "6", "23", "24", "25", "26", "27", "28", "30", "32", "31", "19", "20", "17", "22"], "num_clicks_accrued": [0, 0, 0, 0, 0, 0, 0, 0, 0, 0, 0, 0, 0], "stateRewards": ["", 1, 4, -8, -5, -15, -7, 21, 13, -30, 40, -65, 1, 1, 5, -14, 35, 27, -38, -11, 36, -58, -47, -2, 4, -3, 13, -16, -49, 22, 15, -56, -44, -10], "withholdReward": false, "trial_id": "mdp_trial_19", "block": "test", "trialIndex": 20, "score": -60.59999999999998, "costs": -40.59999999999998, "simulationMode": [null, null, null, null, null], "rewards": [1, 4, -8, 13, -30], "path": ["0", "0", "1", "2", "3", "8", "9"], "rt": [68784, 33, 251, 360, 1820], "actions": ["up", "up", "up", "left", "up"], "actionTimes": [71097, 71640, 72404, 73263, 75589], "queries": {"click": {"state": {"target": ["12", "13", "14", "15", "16", "1", "3", "2", "4", "5", "8", "9", "11", "10", "7", "6", "23", "24", "25", "26", "27", "28", "30", "32", "31", "19", "20", "17", "22"], "time": [3876, 5527, 7836, 10051, 11878, 13446, 15941, 17528, 19408, 21628, 23149, 25109, 27297, 29351, 30938, 32708, 34543, 36410, 38926, 40517, 42548, 44062, 46056, 47870, 49480, 51028, 54646, 57164, 61015]}, "edge": {"target": [], "time": []}}, "mouseover": {"state": {"target": ["12", "13", "14", "15", "16", "1", "2", "3", "2", "4", "5", "8", "8", "9", "11", "10", "2", "7", "6", "2", "23", "24", "25", "25", "26", "27", "28", "25", "30", "32", "31", "19", "20", "20", "17", "16", "12", "22", "22"], "time": [3109, 4829, 6312, 8462, 10677, 12711, 14128, 15643, 16545, 18178, 20200, 22092, 22376, 23957, 25641, 28243, 29875, 30226, 31774, 33424, 33892, 35158, 37140, 38639, 39541, 41272, 43275, 44625, 44845, 46638, 48623, 50689, 51507, 54369, 55589, 57790, 60152, 60219, 60552]}, "edge": {"target": [], "time": []}}, "mouseout": {"state": {"target": ["0", "12", "13", "14", "15", "16", "1", "2", "3", "2", "4", "5", "8", "8", "9", "11", "10", "2", "7", "6", "2", "23", "24", "24", "25", "25", "26", "27", "28", "25", "30", "32", "31", "19", "20", "20", "17", "16", "12", "22", "22"], "time": [3044, 4612, 6162, 8330, 10444, 12295, 13944, 15378, 16378, 17746, 19859, 22025, 22327, 23367, 25558, 28059, 29842, 30026, 31658, 32930, 33467, 34767, 36634, 36873, 38456, 39147, 41052, 43008, 44541, 44690, 46539, 48341, 49973, 51489, 54019, 54879, 57723, 57890, 60168, 60302, 62505]}, "edge": {"target": [], "time": []}}}, "displayed_time": "76.10", "trialTime": 76372, "trial_type": "mouselab-mdp", "trial_index": 27, "time_elapsed": 1814728, "internal_node_id": "0.0-4.0-1.0-18.0"}}, {"uniqueid": "w77166227:a30448159", "current_trial": 28, "dateTime": 1691144209092, "trialdata": {"revealed_states": [], "clicked_states": ["1", "2", "3", "4", "5", "8", "9", "6", "11", "10", "7", "12", "13", "14", "15", "16", "17", "19", "20", "21", "22", "23", "24", "25", "26", "27"], "num_clicks_accrued": [0, 0, 0, 0, 0, 0, 0, 0, 0, 0, 0, 0, 0], "stateRewards": ["", 1, 1, 4, 11, 83, -66, 18, -16, -23, 5, 25, 1, -3, 1, -12, 18, 24, -86, -11, -64, 36, 40, 2, 1, -6, 13, 55, 29, 72, -2, 81, -72, -41], "withholdReward": false, "trial_id": "mdp_trial_20", "block": "test", "trialIndex": 21, "score": 28.600000000000016, "costs": -36.399999999999984, "simulationMode": [null, null, null, null, null], "rewards": [2, 1, -6, 13, 55], "path": ["0", "0", "23", "24", "25", "26", "27"], "rt": [51990, 69, 124, 560, 234], "actions": ["left", "left", "left", "up", "up"], "actionTimes": [99169, 99740, 100378, 101430, 102170], "queries": {"click": {"state": {"target": ["1", "2", "3", "4", "5", "8", "9", "6", "11", "10", "7", "12", "13", "14", "15", "16", "17", "19", "20", "21", "22", "23", "24", "25", "26", "27"], "time": [48495, 50526, 52133, 53943, 55466, 57113, 58775, 60322, 62471, 64255, 66257, 67782, 69737, 71439, 73543, 75264, 76906, 78762, 80735, 83322, 85156, 87491, 89443, 91569, 93538, 95222]}, "edge": {"target": [], "time": []}}, "mouseover": {"state": {"target": ["1", "2", "3", "4", "4", "5", "8", "9", "6", "4", "3", "11", "10", "7", "12", "13", "14", "15", "16", "17", "19", "20", "21", "22", "0", "23", "24", "25", "26", "27", "28", "23"], "time": [48057, 49326, 51474, 52894, 53228, 54758, 56259, 57960, 59460, 60826, 60860, 61160, 63092, 65191, 67074, 68558, 70442, 72391, 74673, 76393, 78439, 79815, 82869, 84438, 86786, 86921, 88686, 90472, 92555, 94519, 96436, 96536]}, "edge": {"target": [], "time": []}}, "mouseout": {"state": {"target": ["0", "1", "2", "3", "4", "4", "5", "8", "9", "6", "4", "3", "8", "11", "10", "7", "7", "12", "13", "14", "15", "16", "17", "19", "20", "21", "22", "0", "23", "24", "24", "25", "26", "27", "28"], "time": [47875, 48976, 51174, 52861, 53110, 54475, 56110, 57843, 59310, 60793, 60843, 60893, 61059, 62909, 64467, 66480, 66806, 68341, 70276, 72132, 74408, 76224, 77807, 79539, 82040, 84171, 86620, 86821, 87711, 89662, 90239, 92290, 94186, 96371, 96453]}, "edge": {"target": [], "time": []}}}, "displayed_time": "102.67", "trialTime": 103491, "trial_type": "mouselab-mdp", "trial_index": 28, "time_elapsed": 1918484, "internal_node_id": "0.0-4.0-1.0-19.0"}}, {"uniqueid": "w77166227:a30448159", "current_trial": 29, "dateTime": 1691144250603, "trialdata": {"revealed_states": [], "clicked_states": ["1", "2", "3", "8", "9", "4", "5", "6", "23", "24", "25", "30", "32"], "num_clicks_accrued": [0, 0, 0, 0, 0, 0, 0, 0, 0, 0, 0, 0, 0], "stateRewards": ["", -1, 1, 6, -6, 70, 66, 67, -16, -75, -35, 37, -1, 4, 4, -6, 47, -9, 63, 15, 21, -63, 13, 1, 3, -6, 10, 79, -29, 18, -15, 9, -67, -19], "withholdReward": false, "trial_id": "mdp_trial_21", "block": "test", "trialIndex": 22, "score": 51.8, "costs": -18.2, "simulationMode": [null, null, null, null, null], "rewards": [-1, 1, 6, -6, 70], "path": ["0", "0", "1", "2", "3", "4", "5"], "rt": [28226, 242, 141, 605, 1673], "actions": ["up", "up", "up", "right", "up"], "actionTimes": [33850, 34632, 35265, 36363, 38530], "queries": {"click": {"state": {"target": ["1", "2", "3", "8", "9", "4", "5", "6", "23", "24", "25", "30", "32"], "time": [6562, 8856, 10512, 12726, 14864, 17296, 19465, 21452, 24913, 27045, 28683, 30557, 32204]}, "edge": {"target": [], "time": []}}, "mouseover": {"state": {"target": ["1", "2", "3", "8", "9", "4", "5", "6", "7", "23", "24", "25", "30", "32"], "time": [6291, 7358, 9410, 11025, 13524, 16972, 18391, 20542, 24188, 24488, 25992, 27824, 29457, 31422]}, "edge": {"target": [], "time": []}}, "mouseout": {"state": {"target": ["23", "0", "0", "1", "2", "3", "8", "9", "4", "5", "6", "7", "23", "24", "25", "30", "30"], "time": [4524, 4740, 6092, 7207, 9277, 10958, 13391, 16506, 18057, 20375, 24106, 24238, 25725, 27641, 29241, 30780, 31272]}, "edge": {"target": [], "time": []}}}, "displayed_time": "39.04", "trialTime": 41244, "trial_type": "mouselab-mdp", "trial_index": 29, "time_elapsed": 1959996, "internal_node_id": "0.0-4.0-1.0-20.0"}}, {"uniqueid": "w77166227:a30448159", "current_trial": 30, "dateTime": 1691144296190, "trialdata": {"revealed_states": [], "clicked_states": ["12", "13", "14", "15", "16", "23", "24", "25", "30", "32", "26", "27", "2", "3", "4", "5"], "num_clicks_accrued": [0, 0, 0, 0, 0, 0, 0, 0, 0, 0, 0, 0, 0], "stateRewards": ["", -1, 3, 1, -7, 56, 76, 57, 3, 11, -9, 14, 1, -2, 2, 8, -77, -3, 79, -5, 88, 24, -66, -2, -1, 7, -7, -30, 14, -76, 11, -36, 28, -6], "withholdReward": false, "trial_id": "mdp_trial_22", "block": "test", "trialIndex": 23, "score": 29.600000000000005, "costs": -22.399999999999995, "simulationMode": [null, null, null, null, null], "rewards": [-1, 3, 1, -7, 56], "path": ["0", "0", "1", "2", "3", "4", "5"], "rt": [36564, 213, 83, 300, 158], "actions": ["up", "up", "up", "right", "up"], "actionTimes": [40744, 41452, 42040, 42839, 43498], "queries": {"click": {"state": {"target": ["12", "13", "14", "15", "16", "23", "24", "25", "30", "32", "26", "27", "2", "3", "4", "5"], "time": [5137, 7441, 9634, 11666, 13759, 16484, 18691, 20567, 22312, 24290, 26992, 29189, 31696, 33735, 35436, 37358]}, "edge": {"target": [], "time": []}}, "mouseover": {"state": {"target": ["12", "13", "14", "15", "16", "18", "0", "23", "24", "25", "30", "32", "25", "26", "27", "10", "2", "3", "4", "5", "7"], "time": [4790, 5709, 8577, 10543, 12559, 15357, 16023, 16175, 18208, 19540, 21493, 23474, 26256, 26604, 28788, 31137, 31254, 33287, 34925, 36606, 38638]}, "edge": {"target": [], "time": []}}, "mouseout": {"state": {"target": ["32", "0", "12", "13", "14", "15", "16", "18", "0", "23", "24", "24", "25", "30", "32", "30", "25", "26", "27", "10", "2", "3", "4", "5", "4"], "time": [2724, 4706, 5611, 7665, 9848, 12309, 15158, 15492, 16055, 17909, 18912, 19290, 21375, 23325, 26054, 26173, 26338, 28457, 31055, 31186, 32872, 34741, 36108, 38421, 38538]}, "edge": {"target": [], "time": []}}}, "displayed_time": "43.99", "trialTime": 45335, "trial_type": "mouselab-mdp", "trial_index": 30, "time_elapsed": 2005582, "internal_node_id": "0.0-4.0-1.0-21.0"}}, {"uniqueid": "w77166227:a30448159", "current_trial": 31, "dateTime": 1691144332447, "trialdata": {"revealed_states": [], "clicked_states": ["12", "21", "32", "27", "5", "9", "17", "16", "29", "33"], "num_clicks_accrued": [0, 0, 0, 0, 0, 0, 0, 0, 0, 0, 0, 0, 0], "stateRewards": ["", -2, -1, -1, 5, -54, -87, 35, 2, -8, 20, -22, 1, 3, 6, 13, -75, -32, -55, -3, 56, 62, -22, -1, -4, -1, -7, -51, 84, 70, 7, -15, 5, 55], "withholdReward": false, "trial_id": "mdp_trial_23", "block": "test", "trialIndex": 24, "score": 43, "costs": -14.000000000000002, "simulationMode": [null, null, null, null, null], "rewards": [-1, -4, -1, -7, 70], "path": ["0", "0", "23", "24", "25", "26", "29"], "rt": [25059, 375, 145, 1830, 163], "actions": ["left", "left", "left", "up", "left"], "actionTimes": [29520, 30392, 31041, 33377, 34042], "queries": {"click": {"state": {"target": ["12", "21", "32", "27", "5", "9", "17", "16", "29", "33"], "time": [5425, 7024, 10086, 13008, 15695, 17772, 20200, 22147, 24078, 25933]}, "edge": {"target": [], "time": []}}, "mouseover": {"state": {"target": ["12", "13", "19", "21", "32", "30", "25", "26", "27", "11", "9", "5", "9", "4", "16", "17", "16", "7", "25", "29", "33"], "time": [5047, 6118, 6302, 6601, 9716, 12064, 12196, 12431, 12679, 14864, 14929, 15296, 17347, 18648, 19448, 19880, 21298, 22731, 23064, 23397, 25348]}, "edge": {"target": [], "time": []}}, "mouseout": {"state": {"target": ["7", "12", "13", "19", "21", "32", "30", "25", "26", "27", "11", "9", "5", "5", "9", "4", "16", "17", "16", "7", "25", "29", "33"], "time": [3663, 5639, 6234, 6500, 9097, 12019, 12130, 12313, 12564, 14815, 14897, 14962, 15922, 16350, 18549, 18699, 19598, 20422, 22363, 22747, 23130, 25048, 26949]}, "edge": {"target": [], "time": []}}}, "displayed_time": "34.55", "trialTime": 36022, "trial_type": "mouselab-mdp", "trial_index": 31, "time_elapsed": 2041839, "internal_node_id": "0.0-4.0-1.0-22.0"}}, {"uniqueid": "w77166227:a30448159", "current_trial": 32, "dateTime": 1691144395134, "trialdata": {"revealed_states": [], "clicked_states": ["27", "29", "33", "32", "21", "20", "17", "16", "6", "5", "9", "11"], "num_clicks_accrued": [0, 0, 0, 0, 0, 0, 0, 0, 0, 0, 0, 0, 0], "stateRewards": ["", -1, 1, -1, 2, 19, 85, -18, 2, -3, -26, 36, 2, 4, 7, -9, -18, 70, 72, -5, 35, -20, -28, 1, -2, -4, -3, -59, -11, -63, -2, -72, 59, -69], "withholdReward": false, "trial_id": "mdp_trial_24", "block": "test", "trialIndex": 25, "score": 69.2, "costs": -16.8, "simulationMode": [null, null, null, null, null], "rewards": [-1, 1, -1, 2, 85], "path": ["0", "0", "1", "2", "3", "4", "6"], "rt": [33104, 357, 181, 454, 151], "actions": ["up", "up", "up", "right", "right"], "actionTimes": [56673, 57541, 58215, 59168, 59816], "queries": {"click": {"state": {"target": ["27", "29", "33", "32", "21", "20", "17", "16", "6", "5", "9", "11"], "time": [26049, 28074, 30801, 33615, 36753, 39236, 41728, 44465, 47016, 49317, 51723, 54664]}, "edge": {"target": [], "time": []}}, "mouseover": {"state": {"target": ["23", "24", "26", "27", "29", "33", "32", "21", "20", "17", "16", "6", "5", "9", "11"], "time": [24599, 24816, 25133, 25550, 27369, 30516, 33198, 36399, 38681, 41348, 44013, 46614, 48880, 51329, 54324]}, "edge": {"target": [], "time": []}}, "mouseout": {"state": {"target": ["0", "23", "24", "26", "27", "29", "33", "33", "32", "21", "20", "17", "16", "6", "5", "9", "11"], "time": [22733, 24750, 24900, 25499, 27135, 29419, 31019, 32932, 35299, 38548, 39459, 43797, 46381, 48597, 51032, 53250, 54888]}, "edge": {"target": [], "time": []}}}, "displayed_time": "60.32", "trialTime": 62452, "trial_type": "mouselab-mdp", "trial_index": 32, "time_elapsed": 2104526, "internal_node_id": "0.0-4.0-1.0-23.0"}}, {"uniqueid": "w77166227:a30448159", "current_trial": 33, "dateTime": 1691144441266, "trialdata": {"revealed_states": [], "clicked_states": ["9", "5", "6", "16", "17", "20", "21", "22", "31", "32", "33", "29", "27", "11"], "num_clicks_accrued": [0, 0, 0, 0, 0, 0, 0, 0, 0, 0, 0, 0, 0], "stateRewards": ["", -1, 4, -5, 9, 29, -75, -42, -16, 24, -28, -41, 2, -3, 1, 10, 60, 47, 55, -1, -53, 22, -40, 2, -3, -6, 4, -26, 44, 54, 15, -76, 42, 14], "withholdReward": false, "trial_id": "mdp_trial_25", "block": "test", "trialIndex": 26, "score": 50.400000000000006, "costs": -19.599999999999998, "simulationMode": [null, null, null, null, null], "rewards": [2, -3, 1, 10, 60], "path": ["0", "0", "12", "13", "14", "15", "16"], "rt": [38303, 138, 163, 528, 226], "actions": ["right", "right", "right", "up", "up"], "actionTimes": [40916, 41564, 42222, 43251, 43985], "queries": {"click": {"state": {"target": ["9", "5", "6", "16", "17", "20", "21", "22", "31", "32", "33", "29", "27", "11"], "time": [5449, 7945, 10234, 12640, 15194, 17713, 20167, 22659, 25496, 27840, 30264, 32690, 34777, 37611]}, "edge": {"target": [], "time": []}}, "mouseover": {"state": {"target": ["12", "18", "9", "5", "6", "16", "17", "20", "21", "22", "31", "32", "33", "29", "27", "11"], "time": [3676, 4326, 5076, 7576, 9660, 12242, 14791, 17308, 19791, 22207, 25040, 27506, 29774, 32340, 34255, 37272]}, "edge": {"target": [], "time": []}}, "mouseout": {"state": {"target": ["11", "12", "18", "9", "5", "6", "16", "17", "17", "20", "21", "22", "31", "32", "33", "29", "27", "11"], "time": [1526, 4209, 4359, 7260, 9363, 12043, 14509, 15413, 16941, 19608, 21460, 24524, 27274, 29407, 31692, 33909, 36656, 39440]}, "edge": {"target": [], "time": []}}}, "displayed_time": "44.49", "trialTime": 45866, "trial_type": "mouselab-mdp", "trial_index": 33, "time_elapsed": 2150658, "internal_node_id": "0.0-4.0-1.0-24.0"}}, {"uniqueid": "w77166227:a30448159", "current_trial": 34, "dateTime": 1691144496292, "trialdata": {"revealed_states": [], "clicked_states": ["9", "11", "27", "29", "28", "33", "32", "31", "22", "21", "20", "17", "16", "18", "6", "5", "7", "10"], "num_clicks_accrued": [0, 0, 0, 0, 0, 0, 0, 0, 0, 0, 0, 0, 0], "stateRewards": ["", -2, -4, -2, 10, -8, -15, -47, 7, -84, 53, 5, -1, 2, -7, 3, 83, 31, 47, -1, 30, -8, 69, 2, -4, -1, 8, -7, 12, -8, -8, -13, 30, -84], "withholdReward": false, "trial_id": "mdp_trial_26", "block": "test", "trialIndex": 27, "score": 54.80000000000001, "costs": -25.199999999999992, "simulationMode": [null, null, null, null, null], "rewards": [-1, 2, -7, 3, 83], "path": ["0", "0", "12", "13", "14", "15", "16"], "rt": [46783, 159, 96, 704, 108], "actions": ["right", "right", "right", "up", "up"], "actionTimes": [50166, 50840, 51439, 52646, 53250], "queries": {"click": {"state": {"target": ["9", "11", "27", "29", "28", "33", "32", "31", "22", "21", "20", "17", "16", "18", "6", "5", "7", "10"], "time": [5239, 7583, 9840, 12182, 14622, 17122, 19348, 21829, 24954, 27023, 29388, 32633, 35184, 37687, 40244, 42595, 44575, 46785]}, "edge": {"target": [], "time": []}}, "mouseover": {"state": {"target": ["1", "2", "8", "9", "11", "27", "29", "26", "28", "26", "33", "32", "31", "22", "21", "20", "17", "16", "18", "6", "5", "4", "7", "2", "10"], "time": [4413, 4480, 4680, 4896, 7180, 9449, 11812, 13946, 14295, 16114, 16761, 18896, 21211, 24627, 26130, 28811, 32043, 34843, 37277, 39876, 42258, 43876, 44193, 46093, 46425]}, "edge": {"target": [], "time": []}}, "mouseout": {"state": {"target": ["1", "1", "2", "8", "9", "11", "27", "27", "29", "26", "28", "28", "26", "33", "33", "32", "31", "22", "21", "20", "17", "16", "18", "6", "5", "4", "7", "7", "2"], "time": [2613, 4446, 4497, 4763, 7097, 9016, 10059, 11581, 13879, 14162, 14841, 16030, 16134, 17354, 18663, 20962, 22054, 25764, 27896, 30961, 34593, 36942, 39642, 41910, 43827, 44010, 44791, 45977, 46311]}, "edge": {"target": [], "time": []}}}, "displayed_time": "53.74", "trialTime": 54752, "trial_type": "mouselab-mdp", "trial_index": 34, "time_elapsed": 2205684, "internal_node_id": "0.0-4.0-1.0-25.0"}}, {"uniqueid": "w77166227:a30448159", "current_trial": 35, "dateTime": 1691144533301, "trialdata": {"revealed_states": [], "clicked_states": [], "num_clicks_accrued": [0, 0, 0, 0, 0, 0, 0, 0, 0, 0, 0, 0, 0], "stateRewards": ["", -2, -1, -2, -15, 87, 57, 29, -10, 77, -80, -7, 1, -3, 6, 14, -11, 87, -59, 4, -71, 16, -11, 2, 2, -7, 2, -47, 61, 50, 14, -20, 17, 81], "withholdReward": false, "trial_id": "mdp_trial_27", "block": "test", "trialIndex": 28, "score": 24, "costs": 0, "simulationMode": [null, null, null, null, null], "rewards": [1, -3, 6, 4, 16], "path": ["0", "0", "12", "13", "14", "19", "21"], "rt": [9047, 157, 316, 1342, 77], "actions": ["right", "right", "right", "down", "down"], "actionTimes": [30327, 31000, 31809, 33650, 34233], "queries": {"click": {"state": {"target": [], "time": []}, "edge": {"target": [], "time": []}}, "mouseover": {"state": {"target": ["1", "2", "9", "26", "25", "30", "32", "32", "31"], "time": [22207, 22457, 22923, 23406, 23441, 23506, 23589, 23890, 24073]}, "edge": {"target": [], "time": []}}, "mouseout": {"state": {"target": ["10", "1", "2", "9", "26", "25", "30", "32", "32", "31"], "time": [20391, 22356, 22506, 23307, 23424, 23474, 23556, 23623, 23908, 27872]}, "edge": {"target": [], "time": []}}}, "displayed_time": "35.28", "trialTime": 36765, "trial_type": "mouselab-mdp", "trial_index": 35, "time_elapsed": 2242694, "internal_node_id": "0.0-4.0-1.0-26.0"}}, {"uniqueid": "w77166227:a30448159", "current_trial": 36, "dateTime": 1691144582856, "trialdata": {"revealed_states": [], "clicked_states": ["10", "11", "9", "5", "6", "7", "16", "17", "20", "21", "22", "31", "32", "33", "29", "27", "28"], "num_clicks_accrued": [0, 0, 0, 0, 0, 0, 0, 0, 0, 0, 0, 0, 0], "stateRewards": ["", 1, 2, 8, -2, 23, -69, -18, -16, 54, -21, 71, -1, -4, 7, 11, 43, -6, 88, 6, -55, 72, 43, 1, -3, -2, -1, 68, -31, -54, 4, -8, 25, -2], "withholdReward": false, "trial_id": "mdp_trial_28", "block": "test", "trialIndex": 29, "score": 56.2, "costs": -23.799999999999994, "simulationMode": [null, null, null, null, null], "rewards": [-1, -4, 7, 6, 72], "path": ["0", "0", "12", "13", "14", "19", "21"], "rt": [42386, 173, 110, 1411, 210], "actions": ["right", "right", "right", "down", "down"], "actionTimes": [43696, 44373, 44977, 46878, 47591], "queries": {"click": {"state": {"target": ["10", "11", "9", "5", "6", "7", "16", "17", "20", "21", "22", "31", "32", "33", "29", "27", "28"], "time": [3635, 5938, 7540, 10180, 12697, 15021, 17089, 19224, 21632, 23740, 25903, 29424, 31696, 33442, 35972, 38101, 40243]}, "edge": {"target": [], "time": []}}, "mouseover": {"state": {"target": ["1", "2", "10", "10", "11", "9", "5", "6", "7", "16", "17", "20", "21", "22", "13", "12", "0", "31", "32", "33", "29", "27", "28"], "time": [1904, 2169, 2386, 3303, 4239, 6754, 9885, 12317, 14734, 16786, 18819, 21300, 23416, 25486, 28183, 28666, 28766, 28999, 31399, 32935, 35566, 37600, 39664]}, "edge": {"target": [], "time": []}}, "mouseout": {"state": {"target": ["0", "1", "2", "10", "10", "11", "9", "5", "6", "7", "16", "17", "20", "20", "21", "22", "13", "12", "0", "31", "32", "33", "29", "27"], "time": [919, 2136, 2236, 2469, 4040, 6504, 8538, 12096, 14384, 16136, 18470, 20883, 21847, 23097, 25069, 28016, 28632, 28749, 28784, 31116, 31924, 35298, 37218, 39399]}, "edge": {"target": [], "time": []}}}, "displayed_time": "48.09", "trialTime": 49284, "trial_type": "mouselab-mdp", "trial_index": 36, "time_elapsed": 2292248, "internal_node_id": "0.0-4.0-1.0-27.0"}}, {"uniqueid": "w77166227:a30448159", "current_trial": 37, "dateTime": 1691144631452, "trialdata": {"revealed_states": [], "clicked_states": ["31", "32", "33", "29", "27", "28", "10", "11", "9", "5", "6", "7", "16", "18", "17", "20", "21", "22"], "num_clicks_accrued": [0, 0, 0, 0, 0, 0, 0, 0, 0, 0, 0, 0, 0], "stateRewards": ["", -1, -2, -8, 8, -27, -82, 19, -14, -62, 4, 1, -2, 2, 6, 10, 73, -51, -2, 2, 73, -48, 54, -1, 2, -4, 11, -25, 47, 86, 15, 33, 43, -42], "withholdReward": false, "trial_id": "mdp_trial_29", "block": "test", "trialIndex": 30, "score": 68.80000000000001, "costs": -25.199999999999992, "simulationMode": [null, null, null, null, null], "rewards": [-1, 2, -4, 11, 86], "path": ["0", "0", "23", "24", "25", "26", "29"], "rt": [41091, 121, 139, 959, 31], "actions": ["left", "left", "left", "up", "left"], "actionTimes": [43369, 43991, 44625, 46082, 46615], "queries": {"click": {"state": {"target": ["31", "32", "33", "29", "27", "28", "10", "11", "9", "5", "6", "7", "16", "18", "17", "20", "21", "22"], "time": [4388, 6351, 9090, 11675, 14030, 16512, 18431, 20434, 22338, 24523, 26426, 28336, 30223, 32279, 34573, 36620, 38261, 39895]}, "edge": {"target": [], "time": []}}, "mouseover": {"state": {"target": ["23", "24", "30", "32", "31", "32", "33", "29", "27", "28", "10", "11", "9", "5", "6", "7", "16", "18", "15", "17", "20", "21", "22"], "time": [3155, 3219, 3436, 3669, 3970, 5371, 8670, 11302, 13319, 16085, 17655, 19669, 21755, 23854, 25434, 27686, 29784, 31302, 33795, 34100, 36149, 37685, 39137]}, "edge": {"target": [], "time": []}}, "mouseout": {"state": {"target": ["28", "0", "23", "24", "30", "32", "31", "32", "33", "29", "27", "28", "10", "11", "9", "5", "6", "7", "16", "18", "15", "17", "20", "21", "22"], "time": [1270, 3137, 3186, 3269, 3570, 3753, 5220, 8404, 10835, 13055, 15935, 17370, 18643, 21503, 23618, 25151, 27169, 29036, 30869, 32508, 33934, 35835, 37453, 38970, 42049]}, "edge": {"target": [], "time": []}}}, "displayed_time": "47.13", "trialTime": 48288, "trial_type": "mouselab-mdp", "trial_index": 37, "time_elapsed": 2340844, "internal_node_id": "0.0-4.0-1.0-28.0"}}, {"uniqueid": "w77166227:a30448159", "current_trial": 38, "dateTime": 1691144679003, "trialdata": {"revealed_states": [], "clicked_states": ["5", "6", "7", "10", "11", "9", "27", "29", "28", "33", "32", "31", "21", "22", "20", "17", "16", "18"], "num_clicks_accrued": [0, 0, 0, 0, 0, 0, 0, 0, 0, 0, 0, 0, 0], "stateRewards": ["", -1, -3, -5, -14, -13, -47, 79, 8, -60, -64, 41, -1, 2, 3, 13, -46, 61, -79, -11, -64, -65, 23, 1, -2, 6, -14, 46, 32, 21, 7, 75, -66, 15], "withholdReward": false, "trial_id": "mdp_trial_30", "block": "test", "trialIndex": 31, "score": 61.80000000000001, "costs": -25.199999999999992, "simulationMode": [null, null, null, null, null], "rewards": [1, -2, 6, 7, 75], "path": ["0", "0", "23", "24", "25", "30", "31"], "rt": [40727, 28, 116, 250, 78], "actions": ["left", "left", "left", "down", "right"], "actionTimes": [43193, 43716, 44340, 45088, 45672], "queries": {"click": {"state": {"target": ["5", "6", "7", "10", "11", "9", "27", "29", "28", "33", "32", "31", "21", "22", "20", "17", "16", "18"], "time": [4870, 6961, 9113, 11154, 13131, 15092, 17071, 18592, 20517, 22147, 24858, 26822, 28814, 30720, 33380, 36115, 38092, 40136]}, "edge": {"target": [], "time": []}}, "mouseover": {"state": {"target": ["1", "2", "4", "5", "6", "7", "2", "10", "11", "9", "27", "29", "26", "28", "25", "33", "32", "31", "21", "22", "19", "20", "17", "16", "18", "13", "12"], "time": [3558, 3809, 3941, 4424, 5794, 8277, 9642, 9894, 12247, 13959, 16373, 18176, 19772, 20023, 21225, 21708, 24539, 25623, 28056, 29524, 32737, 33054, 35773, 36856, 38921, 41006, 42005]}, "edge": {"target": [], "time": []}}, "mouseout": {"state": {"target": ["0", "1", "2", "4", "5", "6", "7", "2", "10", "11", "9", "9", "11", "27", "29", "26", "28", "28", "25", "33", "33", "32", "31", "21", "22", "19", "20", "17", "16", "16", "18", "18", "13", "12"], "time": [3208, 3792, 3841, 4307, 5678, 8078, 9576, 9759, 11824, 13701, 15316, 15824, 15991, 17911, 19756, 19872, 20732, 21141, 21409, 22364, 23225, 25307, 27036, 29308, 32654, 32937, 33939, 36642, 38313, 38571, 40349, 40789, 41870, 42053]}, "edge": {"target": [], "time": []}}}, "displayed_time": "46.17", "trialTime": 47300, "trial_type": "mouselab-mdp", "trial_index": 38, "time_elapsed": 2388395, "internal_node_id": "0.0-4.0-1.0-29.0"}}, {"uniqueid": "w77166227:a30448159", "current_trial": 39, "dateTime": 1691144716449, "trialdata": {"revealed_states": [], "clicked_states": ["31", "32", "33", "29", "27", "28", "11", "9", "5", "6", "7", "10"], "num_clicks_accrued": [0, 0, 0, 0, 0, 0, 0, 0, 0, 0, 0, 0, 0], "stateRewards": ["", 1, 2, -5, 14, 54, -14, -25, 16, -5, -87, 78, -1, 1, 3, -3, 52, 53, 53, -10, 73, -69, -48, 2, 3, 1, 8, -62, -7, 85, 7, 82, 52, -28], "withholdReward": false, "trial_id": "mdp_trial_31", "block": "test", "trialIndex": 32, "score": 82.2, "costs": -16.8, "simulationMode": [null, null, null, null, null], "rewards": [2, 3, 1, 8, 85], "path": ["0", "0", "23", "24", "25", "26", "29"], "rt": [29388, 88, 137, 596, 634], "actions": ["left", "left", "left", "up", "left"], "actionTimes": [32269, 32867, 33501, 34593, 35727], "queries": {"click": {"state": {"target": ["31", "32", "33", "29", "27", "28", "11", "9", "5", "6", "7", "10"], "time": [5220, 7546, 9587, 12171, 14495, 16833, 19144, 21087, 24246, 25968, 27842, 30148]}, "edge": {"target": [], "time": []}}, "mouseover": {"state": {"target": ["1", "2", "3", "10", "24", "31", "32", "33", "29", "27", "28", "11", "9", "5", "5", "6", "7", "2", "10"], "time": [3894, 3961, 4094, 4577, 4712, 4779, 7212, 8729, 11710, 14043, 16492, 18775, 20693, 22942, 23908, 25113, 26894, 28378, 28578]}, "edge": {"target": [], "time": []}}, "mouseout": {"state": {"target": ["0", "1", "2", "3", "10", "24", "31", "32", "33", "29", "27", "28", "11", "9", "5", "5", "6", "6", "7", "2", "10"], "time": [3855, 3927, 4028, 4544, 4595, 4731, 6827, 8212, 11276, 13545, 16210, 17051, 20495, 22529, 23108, 24777, 26183, 26627, 28067, 28477, 30843]}, "edge": {"target": [], "time": []}}}, "displayed_time": "36.23", "trialTime": 37171, "trial_type": "mouselab-mdp", "trial_index": 39, "time_elapsed": 2425841, "internal_node_id": "0.0-4.0-1.0-30.0"}}, {"uniqueid": "w77166227:a30448159", "current_trial": 40, "dateTime": 1691144739959, "trialdata": {"revealed_states": [], "clicked_states": ["17", "16", "18", "20", "21", "22"], "num_clicks_accrued": [0, 0, 0, 0, 0, 0, 0, 0, 0, 0, 0, 0, 0], "stateRewards": ["", 1, 1, 5, 6, -29, -7, 3, -16, 9, -46, 65, -1, 4, -1, -16, -63, -77, -87, 8, 80, -50, 43, -1, -1, -5, 5, -38, -71, -62, 9, 81, -50, -52], "withholdReward": false, "trial_id": "mdp_trial_32", "block": "test", "trialIndex": 33, "score": 81.6, "costs": -8.4, "simulationMode": [null, null, null, null, null], "rewards": [-1, 4, -1, 8, 80], "path": ["0", "0", "12", "13", "14", "19", "20"], "rt": [14609, 29, 37, 793, 6], "actions": ["right", "right", "right", "down", "right"], "actionTimes": [18641, 19168, 19722, 21045, 21558], "queries": {"click": {"state": {"target": ["17", "16", "18", "20", "21", "22"], "time": [5904, 7915, 9674, 11610, 13440, 15171]}, "edge": {"target": [], "time": []}}, "mouseover": {"state": {"target": ["12", "13", "14", "17", "16", "18", "14", "20", "21", "22"], "time": [4868, 4969, 5118, 5602, 7038, 8473, 10456, 10570, 12787, 14547]}, "edge": {"target": [], "time": []}}, "mouseout": {"state": {"target": ["13", "0", "12", "13", "14", "17", "16", "18", "14", "20", "21", "22"], "time": [3085, 4835, 4952, 5035, 5335, 6703, 8321, 10405, 10509, 12430, 14253, 16152]}, "edge": {"target": [], "time": []}}}, "displayed_time": "22.09", "trialTime": 23227, "trial_type": "mouselab-mdp", "trial_index": 40, "time_elapsed": 2449351, "internal_node_id": "0.0-4.0-1.0-31.0"}}, {"uniqueid": "w77166227:a30448159", "current_trial": 41, "dateTime": 1691144779803, "trialdata": {"revealed_states": [], "clicked_states": ["9", "11", "10", "27", "29", "28", "33", "32", "31", "21", "22", "20"], "num_clicks_accrued": [0, 0, 0, 0, 0, 0, 0, 0, 0, 0, 0, 0, 0], "stateRewards": ["", 1, -3, -1, 9, -34, -40, 22, -7, 45, 53, -11, 2, 4, 5, 15, 21, 37, -49, -3, 80, -28, -34, 1, -3, 1, 1, -40, -6, -5, -16, -85, -86, 59], "withholdReward": false, "trial_id": "mdp_trial_33", "block": "test", "trialIndex": 34, "score": 25.200000000000003, "costs": -16.8, "simulationMode": [null, null, null, null, null], "rewards": [1, -3, 1, -16, 59], "path": ["0", "0", "23", "24", "25", "30", "33"], "rt": [26234, 4463, 199, 507, 78], "actions": ["left", "left", "left", "down", "left"], "actionTimes": [30562, 35522, 36237, 37244, 37817], "queries": {"click": {"state": {"target": ["9", "11", "10", "27", "29", "28", "33", "32", "31", "21", "22", "20"], "time": [6678, 8555, 10467, 12124, 13704, 16171, 18059, 20004, 21817, 24356, 26365, 28479]}, "edge": {"target": [], "time": []}}, "mouseover": {"state": {"target": ["1", "2", "3", "8", "9", "11", "10", "27", "29", "26", "28", "24", "30", "33", "32", "31", "22", "21", "22", "19", "20"], "time": [4789, 5006, 5572, 5756, 6289, 7275, 9758, 11674, 13375, 15438, 15754, 17092, 17491, 17640, 19323, 20792, 23273, 23953, 25622, 26922, 27106]}, "edge": {"target": [], "time": []}}, "mouseout": {"state": {"target": ["0", "1", "2", "3", "8", "9", "11", "10", "27", "27", "29", "26", "28", "24", "30", "33", "33", "32", "31", "22", "21", "22", "19"], "time": [3972, 4856, 5373, 5672, 6207, 7143, 9461, 11425, 12345, 13074, 13915, 15621, 16992, 17191, 17507, 18278, 18889, 20230, 22047, 23323, 25172, 26873, 27023]}, "edge": {"target": [], "time": []}}}, "displayed_time": "38.32", "trialTime": 39545, "trial_type": "mouselab-mdp", "trial_index": 41, "time_elapsed": 2489195, "internal_node_id": "0.0-4.0-1.0-32.0"}}, {"uniqueid": "w77166227:a30448159", "current_trial": 42, "dateTime": 1691144822124, "trialdata": {"revealed_states": [], "clicked_states": ["20", "21", "22", "17", "16", "18", "31", "32", "33", "29", "27", "28", "11", "9", "5", "6"], "num_clicks_accrued": [0, 0, 0, 0, 0, 0, 0, 0, 0, 0, 0, 0, 0], "stateRewards": ["", -2, 2, 2, -6, 9, 37, 50, -13, -7, -18, -75, -2, -4, 4, 7, 23, -57, -66, -7, -81, -48, -76, 1, 1, -8, 1, 51, -2, 70, 14, 59, 71, -37], "withholdReward": false, "trial_id": "mdp_trial_34", "block": "test", "trialIndex": 35, "score": 56.60000000000001, "costs": -22.399999999999995, "simulationMode": [null, null, null, null, null], "rewards": [1, 1, -8, 14, 71], "path": ["0", "0", "23", "24", "25", "30", "32"], "rt": [36039, 147, 115, 65, 119], "actions": ["left", "left", "left", "down", "down"], "actionTimes": [38232, 38890, 39504, 40073, 40692], "queries": {"click": {"state": {"target": ["20", "21", "22", "17", "16", "18", "31", "32", "33", "29", "27", "28", "11", "9", "5", "6"], "time": [4295, 6256, 8260, 10208, 12167, 14074, 17082, 19139, 21078, 23213, 25645, 27802, 30018, 32312, 34411, 36239]}, "edge": {"target": [], "time": []}}, "mouseover": {"state": {"target": ["12", "13", "14", "20", "21", "22", "14", "15", "17", "16", "18", "12", "0", "31", "32", "33", "29", "27", "28", "11", "9", "5", "6"], "time": [2941, 3241, 3458, 3842, 5375, 6990, 8942, 9076, 9308, 11461, 13059, 15017, 16256, 16723, 18806, 20375, 22774, 25323, 27439, 29689, 31921, 33987, 35724]}, "edge": {"target": [], "time": []}}, "mouseout": {"state": {"target": ["20", "19", "13", "12", "0", "12", "13", "14", "20", "21", "22", "14", "15", "17", "16", "18", "12", "0", "31", "32", "33", "29", "27", "28", "11", "9", "5", "6"], "time": [1142, 1174, 1342, 1574, 2875, 3191, 3325, 3658, 5009, 6761, 8842, 8959, 9108, 10427, 12877, 14709, 16168, 16290, 18426, 19809, 22307, 24941, 27108, 28031, 31693, 33539, 35508, 36938]}, "edge": {"target": [], "time": []}}}, "displayed_time": "41.19", "trialTime": 42041, "trial_type": "mouselab-mdp", "trial_index": 42, "time_elapsed": 2531516, "internal_node_id": "0.0-4.0-1.0-33.0"}}, {"uniqueid": "w77166227:a30448159", "current_trial": 43, "dateTime": 1691144875459, "trialdata": {"revealed_states": [], "clicked_states": ["9", "11", "10", "7", "6", "5", "29", "27", "28", "33", "32", "31", "21", "22", "20", "17", "16", "18"], "num_clicks_accrued": [0, 0, 0, 0, 0, 0, 0, 0, 0, 0, 0, 0, 0], "stateRewards": ["", 2, -3, 5, 11, -79, 54, 11, -9, -78, 33, 22, -2, -1, 2, 14, 43, 34, 1, 10, 49, -65, 39, -1, 1, -1, 3, -16, -2, 11, 2, 12, 48, -65], "withholdReward": false, "trial_id": "mdp_trial_35", "block": "test", "trialIndex": 36, "score": 43.80000000000001, "costs": -25.199999999999992, "simulationMode": [null, null, null, null, null], "rewards": [2, -3, 5, 11, 54], "path": ["0", "0", "1", "2", "3", "4", "6"], "rt": [39505, 5, 68, 68, 48], "actions": ["up", "up", "up", "right", "right"], "actionTimes": [49198, 49715, 50300, 50883, 51432], "queries": {"click": {"state": {"target": ["9", "11", "10", "7", "6", "5", "29", "27", "28", "33", "32", "31", "21", "22", "20", "17", "16", "18"], "time": [11092, 13098, 15036, 16937, 18946, 20953, 24042, 26003, 27967, 29918, 31832, 33717, 35445, 37534, 39570, 41188, 43553, 45507]}, "edge": {"target": [], "time": []}}, "mouseover": {"state": {"target": ["1", "2", "3", "9", "11", "8", "10", "7", "6", "5", "3", "8", "27", "29", "27", "28", "25", "33", "32", "31", "21", "22", "19", "20", "17", "16", "18"], "time": [10169, 10219, 10318, 10669, 12489, 13823, 14105, 16136, 17971, 20287, 23033, 23101, 23433, 23667, 25104, 27234, 28601, 28752, 30903, 32636, 35034, 37016, 38102, 38352, 40702, 43131, 44685]}, "edge": {"target": [], "time": []}}, "mouseout": {"state": {"target": ["0", "1", "2", "3", "9", "9", "11", "8", "10", "7", "6", "5", "3", "8", "27", "29", "27", "28", "28", "25", "33", "32", "31", "21", "22", "19", "20", "17", "16", "18"], "time": [10118, 10202, 10285, 10452, 11314, 11923, 13688, 13872, 15636, 17488, 19178, 23001, 23067, 23119, 23484, 24704, 26817, 28185, 28535, 28651, 30604, 32045, 34251, 36287, 38070, 38185, 40201, 42964, 44418, 47764]}, "edge": {"target": [], "time": []}}}, "displayed_time": "51.97", "trialTime": 53044, "trial_type": "mouselab-mdp", "trial_index": 43, "time_elapsed": 2584851, "internal_node_id": "0.0-4.0-1.0-34.0"}}, {"uniqueid": "w77166227:a30448159", "current_trial": 44, "dateTime": 1691144923194, "trialdata": {"revealed_states": [], "clicked_states": ["20", "17", "16", "18", "22", "21", "32", "31", "33", "29", "27", "28", "11", "9", "10", "5", "6", "7"], "num_clicks_accrued": [0, 0, 0, 0, 0, 0, 0, 0, 0, 0, 0, 0, 0], "stateRewards": ["", 1, 1, -6, -2, 7, 77, 3, 16, -16, 66, 31, -1, 3, -8, -6, 33, -50, -48, 7, -60, -66, 36, 2, -3, 3, -7, -12, -61, -79, -4, 8, 74, -70], "withholdReward": false, "trial_id": "mdp_trial_36", "block": "test", "trialIndex": 37, "score": 46.80000000000001, "costs": -25.199999999999992, "simulationMode": [null, null, null, null, null], "rewards": [2, -3, 3, -4, 74], "path": ["0", "0", "23", "24", "25", "30", "32"], "rt": [39321, 147, 167, 83, 130], "actions": ["left", "left", "left", "down", "down"], "actionTimes": [43337, 43998, 44663, 45246, 45876], "queries": {"click": {"state": {"target": ["20", "17", "16", "18", "22", "21", "32", "31", "33", "29", "27", "28", "11", "9", "10", "5", "6", "7"], "time": [5979, 7932, 9893, 11590, 13544, 15522, 18493, 20495, 22436, 24374, 26338, 28189, 30129, 32164, 34081, 36143, 38058, 40034]}, "edge": {"target": [], "time": []}}, "mouseover": {"state": {"target": ["12", "13", "14", "20", "20", "17", "16", "18", "13", "22", "21", "32", "31", "30", "33", "29", "27", "28", "11", "9", "8", "10", "3", "5", "6", "7"], "time": [4582, 4633, 4732, 5166, 5665, 7168, 8668, 10668, 12518, 12768, 14250, 18147, 19866, 21217, 21583, 23566, 25666, 27765, 29249, 31032, 32898, 33213, 34864, 35113, 37198, 38964]}, "edge": {"target": [], "time": []}}, "mouseout": {"state": {"target": ["0", "12", "13", "14", "20", "20", "17", "16", "18", "13", "22", "22", "21", "22", "32", "31", "30", "33", "29", "27", "28", "11", "9", "8", "10", "3", "5", "6", "6"], "time": [4545, 4616, 4682, 5000, 5232, 6584, 8402, 10452, 12485, 12618, 13774, 14001, 15740, 16767, 18709, 21083, 21366, 23016, 25250, 27550, 28412, 30600, 32831, 33030, 34296, 34914, 36848, 38283, 38731]}, "edge": {"target": [], "time": []}}}, "displayed_time": "46.38", "trialTime": 47398, "trial_type": "mouselab-mdp", "trial_index": 44, "time_elapsed": 2632586, "internal_node_id": "0.0-4.0-1.0-35.0"}}, {"uniqueid": "w77166227:a30448159", "current_trial": 45, "dateTime": 1691144955517, "trialdata": {"revealed_states": [], "clicked_states": ["5", "9", "11", "6", "7", "10", "27", "29", "28", "31", "32", "33"], "num_clicks_accrued": [0, 0, 0, 0, 0, 0, 0, 0, 0, 0, 0, 0, 0], "stateRewards": ["", 1, 2, -8, 9, 18, -83, -11, 6, -64, -48, 17, -2, -2, -5, -3, -24, -3, -86, -2, 48, -41, -22, -2, 4, 7, 8, 81, 13, -48, 10, 61, 19, 57], "withholdReward": false, "trial_id": "mdp_trial_37", "block": "test", "trialIndex": 38, "score": 81.2, "costs": -16.8, "simulationMode": [null, null, null, null, null], "rewards": [-2, 4, 7, 8, 81], "path": ["0", "0", "23", "24", "25", "26", "27"], "rt": [25018, 307, 130, 592, 67], "actions": ["left", "left", "left", "up", "up"], "actionTimes": [27184, 27990, 28614, 29707, 30286], "queries": {"click": {"state": {"target": ["5", "9", "11", "6", "7", "10", "27", "29", "28", "31", "32", "33"], "time": [3576, 5606, 7520, 9688, 11489, 13434, 15305, 16978, 18542, 20062, 22125, 23785]}, "edge": {"target": [], "time": []}}, "mouseover": {"state": {"target": ["1", "2", "3", "5", "9", "11", "8", "3", "4", "6", "7", "2", "10", "27", "29", "26", "28", "24", "31", "32", "33", "30", "31"], "time": [2767, 2818, 2917, 3250, 4537, 6353, 7985, 8035, 8068, 8202, 10649, 12254, 12384, 14067, 16284, 17834, 18069, 19434, 19651, 21051, 22868, 24632, 24681]}, "edge": {"target": [], "time": []}}, "mouseout": {"state": {"target": ["7", "0", "1", "2", "3", "5", "9", "11", "8", "3", "4", "6", "6", "7", "2", "10", "27", "29", "26", "28", "28", "24", "31", "31", "32", "33", "30", "31"], "time": [1100, 2600, 2800, 2866, 2949, 4272, 6202, 7968, 8002, 8052, 8135, 9909, 10351, 12185, 12319, 13884, 15969, 17191, 17935, 18768, 19418, 19551, 20275, 20785, 22340, 24616, 24665, 24733]}, "edge": {"target": [], "time": []}}}, "displayed_time": "30.80", "trialTime": 32028, "trial_type": "mouselab-mdp", "trial_index": 45, "time_elapsed": 2664910, "internal_node_id": "0.0-4.0-1.0-36.0"}}, {"uniqueid": "w77166227:a30448159", "current_trial": 46, "dateTime": 1691144991095, "trialdata": {"revealed_states": [], "clicked_states": ["21", "22", "20", "17", "16", "18", "6", "7", "5", "9"], "num_clicks_accrued": [0, 0, 0, 0, 0, 0, 0, 0, 0, 0, 0, 0, 0], "stateRewards": ["", -2, 1, -5, 2, -68, 80, 33, 10, 67, -59, 20, -1, -3, 3, 14, 74, -2, 24, -16, 63, 80, 46, -1, 4, 6, 12, 83, -38, -43, -4, 43, 14, -79], "withholdReward": false, "trial_id": "mdp_trial_38", "block": "test", "trialIndex": 39, "score": 49, "costs": -14.000000000000002, "simulationMode": [null, null, null, null, null], "rewards": [-1, -3, 3, -16, 80], "path": ["0", "0", "12", "13", "14", "19", "21"], "rt": [27369, 211, 155, 458, 28], "actions": ["right", "right", "right", "down", "down"], "actionTimes": [29354, 30063, 30721, 31674, 32198], "queries": {"click": {"state": {"target": ["21", "22", "20", "17", "16", "18", "6", "7", "5", "9"], "time": [4736, 7763, 10919, 14107, 16993, 19398, 21665, 23296, 25016, 27377]}, "edge": {"target": [], "time": []}}, "mouseover": {"state": {"target": ["0", "12", "13", "14", "19", "21", "22", "19", "20", "20", "17", "16", "18", "6", "7", "4", "5", "3", "9"], "time": [2668, 2818, 3068, 3286, 4101, 4368, 7434, 10100, 10233, 10550, 13700, 16633, 18982, 21199, 22718, 24117, 24417, 26484, 26998]}, "edge": {"target": [], "time": []}}, "mouseout": {"state": {"target": ["0", "0", "12", "13", "14", "19", "21", "22", "19", "20", "20", "17", "16", "18", "6", "7", "4", "5", "3", "9"], "time": [1634, 2701, 3018, 3167, 4051, 4268, 7134, 10079, 10183, 10502, 13250, 16365, 18649, 20619, 22452, 24001, 24269, 26216, 26731, 33915]}, "edge": {"target": [], "time": []}}}, "displayed_time": "32.72", "trialTime": 35278, "trial_type": "mouselab-mdp", "trial_index": 46, "time_elapsed": 2700487, "internal_node_id": "0.0-4.0-1.0-37.0"}}, {"uniqueid": "w77166227:a30448159", "current_trial": 47, "dateTime": 1691145039541, "trialdata": {"revealed_states": [], "clicked_states": ["29", "27", "28", "33", "32", "31", "11", "9", "5", "6", "7", "10", "18", "16", "17", "20", "21", "22"], "num_clicks_accrued": [0, 0, 0, 0, 0, 0, 0, 0, 0, 0, 0, 0, 0], "stateRewards": ["", 1, 3, 1, -13, 52, -28, 67, -14, 3, 63, -70, -1, -4, 7, -11, -10, 47, -18, 6, 69, -9, -61, 2, 3, -6, 10, 63, -34, 40, -6, -79, -35, -32], "withholdReward": false, "trial_id": "mdp_trial_39", "block": "test", "trialIndex": 40, "score": 46.80000000000001, "costs": -25.199999999999992, "simulationMode": [null, null, null, null, null], "rewards": [2, 3, -6, 10, 63], "path": ["0", "0", "23", "24", "25", "26", "27"], "rt": [41628, 96, 106, 148, 104], "actions": ["left", "left", "left", "up", "up"], "actionTimes": [44353, 44944, 45554, 46197, 46801], "queries": {"click": {"state": {"target": ["29", "27", "28", "33", "32", "31", "11", "9", "5", "6", "7", "10", "18", "16", "17", "20", "21", "22"], "time": [4124, 6414, 9123, 11921, 14632, 16797, 19593, 21625, 23843, 25750, 27717, 29478, 32048, 34034, 36355, 38085, 40021, 41961]}, "edge": {"target": [], "time": []}}, "mouseover": {"state": {"target": ["23", "24", "25", "29", "27", "28", "25", "33", "32", "31", "24", "10", "8", "11", "9", "5", "6", "7", "2", "10", "2", "18", "16", "17", "20", "21", "22"], "time": [3266, 3333, 3483, 3750, 4803, 8784, 11199, 11565, 14232, 16365, 18647, 18765, 18882, 19198, 21119, 23581, 25084, 26631, 28248, 28704, 30317, 31346, 33098, 35929, 37582, 39331, 41398]}, "edge": {"target": [], "time": []}}, "mouseout": {"state": {"target": ["26", "28", "23", "24", "25", "29", "27", "28", "28", "25", "33", "32", "31", "24", "10", "8", "11", "9", "5", "6", "7", "2", "10", "2", "18", "16", "17", "17", "20", "20", "21", "22"], "time": [1717, 1800, 3300, 3400, 3550, 4619, 8516, 9343, 11150, 11349, 14049, 16101, 18618, 18665, 18797, 19115, 19807, 22968, 24074, 26332, 28233, 28466, 30234, 30449, 32648, 35629, 36588, 37082, 38309, 38865, 40242, 42731]}, "edge": {"target": [], "time": []}}}, "displayed_time": "47.30", "trialTime": 48129, "trial_type": "mouselab-mdp", "trial_index": 47, "time_elapsed": 2748934, "internal_node_id": "0.0-4.0-1.0-38.0"}}, {"uniqueid": "w77166227:a30448159", "current_trial": 48, "dateTime": 1691145083228, "trialdata": {"revealed_states": [], "clicked_states": ["27", "29", "28", "33", "32", "31", "10", "11", "9", "5", "6", "7", "16", "17", "18", "20", "21", "22"], "num_clicks_accrued": [0, 0, 0, 0, 0, 0, 0, 0, 0, 0, 0, 0, 0], "stateRewards": ["", -2, -4, 4, -11, -63, -60, -7, 2, -14, 81, -43, -1, -1, -5, 7, 10, 69, 40, 8, -83, 52, 60, 1, 2, 5, -5, 16, 64, 14, -3, 29, 7, -51], "withholdReward": false, "trial_id": "mdp_trial_40", "block": "test", "trialIndex": 41, "score": 55.80000000000001, "costs": -25.199999999999992, "simulationMode": [null, null, null, null, null], "rewards": [-2, -4, 4, 2, 81], "path": ["0", "0", "1", "2", "3", "8", "10"], "rt": [37212, 15, 115, 252, 62], "actions": ["up", "up", "up", "left", "down"], "actionTimes": [39308, 39828, 40445, 41198, 41758], "queries": {"click": {"state": {"target": ["27", "29", "28", "33", "32", "31", "10", "11", "9", "5", "6", "7", "16", "17", "18", "20", "21", "22"], "time": [3717, 5859, 7808, 9327, 11485, 13475, 15469, 17494, 19426, 21152, 22939, 25267, 26864, 28751, 30343, 32245, 33821, 35742]}, "edge": {"target": [], "time": []}}, "mouseover": {"state": {"target": ["23", "24", "26", "27", "29", "26", "28", "25", "30", "33", "30", "32", "31", "23", "10", "11", "9", "5", "6", "7", "16", "17", "15", "18", "14", "20", "21", "22"], "time": [2965, 3034, 3232, 3383, 5515, 6434, 6601, 8534, 8618, 8901, 10619, 11070, 12200, 14285, 14867, 17047, 18584, 20516, 21981, 24002, 26130, 27814, 29215, 29416, 31348, 31864, 33382, 34780]}, "edge": {"target": [], "time": []}}, "mouseout": {"state": {"target": ["0", "23", "24", "26", "27", "29", "26", "28", "25", "30", "33", "30", "32", "31", "23", "10", "11", "9", "5", "6", "6", "7", "16", "17", "15", "18", "14", "20", "20", "21"], "time": [1703, 3016, 3099, 3298, 5269, 6405, 6501, 8384, 8552, 8702, 10484, 10767, 11704, 14151, 14368, 16782, 18433, 19987, 21815, 23156, 23634, 25492, 27514, 28972, 29283, 31197, 31447, 32457, 32904, 34034]}, "edge": {"target": [], "time": []}}}, "displayed_time": "42.26", "trialTime": 43370, "trial_type": "mouselab-mdp", "trial_index": 48, "time_elapsed": 2792620, "internal_node_id": "0.0-4.0-1.0-39.0"}}, {"uniqueid": "w77166227:a30448159", "current_trial": 49, "dateTime": 1691145213403, "trialdata": {"rt": 130169, "response": {"Q0": "$-2 to $2", "Q1": "$-16 to $16", "Q2": "$-88 to $88", "Q3": "The cost for clicking on nodes varied between nodes.", "Q4": "Slightly motivated"}, "question_order": [0, 1, 2, 3, 4], "trial_id": "final_quiz_control", "trial_type": "survey-multi-choice", "trial_index": 49, "time_elapsed": 2922795, "internal_node_id": "0.0-4.0-2.0"}}, {"uniqueid": "w77166227:a30448159", "current_trial": 50, "dateTime": 1691145476296, "trialdata": {"rt": 262884, "response": {"Q0": "The strategy I used was checking all the last nodes so I can choose the one with the highest score.\n\nI then selected the ones with the highest score.", "Q1": "I did, at first I checked all the nodes then I started only checking the last ones.", "Q2": "It was not difficult"}, "trial_id": "self_report_control", "trial_type": "survey-text", "trial_index": 50, "time_elapsed": 3185688, "internal_node_id": "0.0-4.0-3.0"}}, {"uniqueid": "w77166227:a30448159", "current_trial": 51, "dateTime": 1691145509045, "trialdata": {"rt": 32742, "response": {"gender": "female", "age": "29", "colorblind": "0", "effort": "0"}, "trial_type": "survey-html-form", "trial_index": 51, "time_elapsed": 3218437, "internal_node_id": "0.0-4.0-4.0"}}, {"uniqueid": "w77166227:a30448159", "current_trial": 52, "dateTime": 1691145657151, "trialdata": {"rt": 148099, "response": {"Q0": "No", "Q1": "I have never participated ", "Q2": "No"}, "trial_type": "survey-text", "trial_index": 52, "time_elapsed": 3366544, "internal_node_id": "0.0-4.0-5.0"}}, {"uniqueid": "w77166227:a30448159", "current_trial": 53, "dateTime": 1691145660012, "trialdata": {"rt": 2853, "stimulus": "Press 'Finish HIT' in order to reach the completion code. Once the data has been saved, you will receive the code either in this window or in the original browser window where you started the experiment.\n", "response": 0, "trial_type": "html-button-response", "trial_index": 53, "time_elapsed": 3369405, "internal_node_id": "0.0-5.0"}}, {"uniqueid": "w77166227:a30448159", "current_trial": 54, "dateTime": 1691145661019, "trialdata": {"success": true, "trial_type": "fullscreen", "trial_index": 54, "time_elapsed": 3370412, "internal_node_id": "0.0-6.0"}}], "questiondata": {"params": {"CODE": "C6DMOQA6", "MIN_TIME": 14, "inspectCost": 1, "startTime": "Fri Aug 04 2023 11:44:44 GMT+0200 (South Africa Standard Time)", "bonusRate": 0.002, "variance": "1_2_4_8_44", "branching": "31123"}, "final_score": 941.8}, "eventdata": [{"eventtype": "initialized", "value": null, "timestamp": 1691142284017, "interval": 0}, {"eventtype": "window_resize", "value": [1024, 748], "timestamp": 1691142284017, "interval": 0}, {"eventtype": "window_resize", "value": [1024, 748], "timestamp": 1691142284496, "interval": 479}, {"eventtype": "window_resize", "value": [1536, 864], "timestamp": 1691142302766, "interval": 18270}, {"eventtype": "focus", "value": "off", "timestamp": 1691143632819, "interval": 1330053}, {"eventtype": "focus", "value": "on", "timestamp": 1691143765881, "interval": 133062}, {"eventtype": "window_resize", "value": [1024, 748], "timestamp": 1691145660273, "interval": 1894392}], "useragent": "Mozilla/5.0 (Windows NT 10.0; Win64; x64) AppleWebKit/537.36 (KHTML, like Gecko) Chrome/115.0.0.0 Safari/537.36 Edg/115.0.1901.188", "mode": "live", "id": "w77166227:a30448159", "status": "user data saved", "Beginhit": "2023-08-04 09:44:40.041919", "Beginexp": "2023-08-04 09:45:05.920636", "Endhit": "2023-08-04 10:41:07.162153", "psiturkStatus": 3, "browser": "<redacted>", "platform": "windows", "language": "en-US"}