{"condition": 1, "counterbalance": 0, "assignmentId": "a44519727", "workerId": "w55809553", "hitId": "h55943508", "currenttrial": 56, "bonus": 0, "data": [{"uniqueid": "w55809553:a44519727", "current_trial": 0, "dateTime": 1693565091095, "trialdata": {"success": true, "trial_type": "fullscreen", "trial_index": 0, "time_elapsed": 182499, "internal_node_id": "0.0-0.0"}}, {"uniqueid": "w55809553:a44519727", "current_trial": 1, "dateTime": 1693565125717, "trialdata": {"view_history": [{"page_index": 0, "viewing_time": 34616}], "rt": 34617, "trial_id": "exp_instructions_misaligned", "trial_type": "instructions", "trial_index": 1, "time_elapsed": 217122, "internal_node_id": "0.0-1.0"}}, {"uniqueid": "w55809553:a44519727", "current_trial": 2, "dateTime": 1693565403334, "trialdata": {"view_history": [{"page_index": 0, "viewing_time": 112412}, {"page_index": 1, "viewing_time": 98360}, {"page_index": 2, "viewing_time": 29480}, {"page_index": 3, "viewing_time": 37360}], "rt": 277613, "trial_id": "mouselab_instructions_1_misaligned", "trial_type": "instructions", "trial_index": 2, "time_elapsed": 494739, "internal_node_id": "0.0-2.0-1.0"}}, {"uniqueid": "w55809553:a44519727", "current_trial": 3, "dateTime": 1693565530160, "trialdata": {"revealed_states": [], "clicked_states": ["12", "13", "14", "19", "20", "21", "15", "17", "16", "23", "24", "25", "26", "29", "1", "2", "3", "4", "5"], "num_clicks_accrued": [0, 0, 0, 0, 0, 0, 0, 0, 0, 0, 0, 0, 0], "stateRewards": ["", -10, 10, -10, 10, 10, -10, -10, 10, -10, 10, -10, -10, -10, -10, -10, -10, 10, -10, 10, 10, -10, 10, -10, -10, 10, -10, -10, 10, -10, -10, 10, 10, -10], "withholdReward": false, "trial_id": "practice_1", "block": "test", "trialIndex": 0, "score": -36, "costs": -9.5, "simulationMode": [null, null, null, null, null], "rewards": [-10, -10, -10, -10, 10], "path": ["0", "0", "12", "13", "14", "15", "17"], "rt": [110242, 1705, 368, 233, 587], "actions": ["right", "right", "right", "up", "right"], "actionTimes": [116454, 118693, 119597, 120357, 121477], "queries": {"click": {"state": {"target": ["12", "13", "14", "19", "20", "21", "15", "17", "16", "23", "24", "25", "26", "29", "1", "2", "3", "4", "5"], "time": [13211, 18407, 20615, 22734, 24920, 29678, 34150, 40446, 42455, 53375, 62245, 68941, 73509, 75934, 83325, 86597, 89261, 92005, 94325]}, "edge": {"target": [], "time": []}}, "mouseover": {"state": {"target": ["12", "12", "13", "13", "14", "15", "19", "20", "21", "22", "23", "0", "12", "18", "15", "17", "17", "16", "18", "12", "31", "31", "32", "30", "24", "23", "0", "23", "24", "25", "31", "23", "24", "25", "30", "30", "26", "29", "32", "1", "2", "2", "3", "4", "5", "3", "2", "1", "23", "23"], "time": [12471, 12970, 17419, 17969, 19868, 21400, 22350, 24617, 29272, 32164, 32547, 33061, 33097, 33413, 33813, 36829, 40244, 41911, 44243, 44305, 44523, 44735, 52534, 52803, 52957, 53056, 57606, 61203, 61619, 62767, 64151, 66668, 68268, 68399, 70546, 72631, 73181, 75332, 79130, 82929, 84012, 85961, 88427, 91209, 93892, 98789, 108887, 109170, 110120, 110500]}, "edge": {"target": [], "time": []}}, "mouseout": {"state": {"target": ["0", "12", "12", "13", "13", "14", "15", "14", "19", "20", "21", "22", "23", "0", "12", "18", "15", "17", "17", "16", "18", "12", "31", "31", "32", "30", "24", "23", "0", "23", "24", "25", "24", "31", "24", "23", "24", "25", "30", "30", "25", "26", "29", "32", "1", "2", "1", "2", "2", "3", "4", "4", "5", "3", "2", "1", "23"], "time": [5139, 12687, 17302, 17502, 19800, 21204, 22166, 22217, 24566, 29231, 32079, 32194, 33031, 33093, 33128, 33443, 36662, 40062, 41563, 44142, 44273, 44337, 44555, 45727, 52772, 52835, 53006, 57437, 57672, 61369, 62731, 63569, 63901, 65502, 66385, 67635, 68334, 70516, 70700, 72699, 72866, 75198, 78665, 79197, 83939, 84828, 85327, 87009, 88327, 89442, 92159, 93708, 98640, 98819, 109087, 109220, 110151]}, "edge": {"target": [], "time": []}}}, "displayed_time": "122.02", "trialTime": 125405, "trial_type": "mouselab-mdp", "trial_index": 3, "time_elapsed": 621564, "internal_node_id": "0.0-2.0-2.0-0.0"}}, {"uniqueid": "w55809553:a44519727", "current_trial": 4, "dateTime": 1693565569975, "trialdata": {"revealed_states": [], "clicked_states": ["1", "2", "3", "8"], "num_clicks_accrued": [0, 0, 0, 0, 0, 0, 0, 0, 0, 0, 0, 0, 0], "stateRewards": ["", 10, 10, 10, -10, 10, -10, -10, 10, -10, -10, 10, -10, -10, 10, -10, 10, 10, -10, -10, -10, 10, 10, -10, 10, -10, 10, 10, -10, 10, -10, 10, -10, 10], "withholdReward": false, "trial_id": "practice_2", "block": "test", "trialIndex": 1, "score": 51.5, "costs": -2, "simulationMode": [null, null, null, null, null], "rewards": [10, 10, 10, 10, 10], "path": ["0", "0", "1", "2", "3", "8", "11"], "rt": [17712, 553, 233, 36, 10265], "actions": ["up", "up", "up", "left", "left"], "actionTimes": [21869, 22972, 23732, 24324, 35148], "queries": {"click": {"state": {"target": ["1", "2", "3", "8"], "time": [5452, 11316, 15268, 18124]}, "edge": {"target": [], "time": []}}, "mouseover": {"state": {"target": ["1", "2", "1", "3", "8", "2", "1"], "time": [5130, 9062, 12877, 13577, 17659, 20658, 20775]}, "edge": {"target": [], "time": []}}, "mouseout": {"state": {"target": ["23", "0", "1", "2", "1", "2", "3", "8", "2", "1", "8", "9", "11", "11", "8"], "time": [2097, 5012, 7647, 12827, 13429, 13510, 16062, 20557, 20690, 24873, 25256, 26256, 32070, 33420, 37552]}, "edge": {"target": [], "time": []}}}, "displayed_time": "35.68", "trialTime": 39171, "trial_type": "mouselab-mdp", "trial_index": 4, "time_elapsed": 661380, "internal_node_id": "0.0-2.0-2.0-1.0"}}, {"uniqueid": "w55809553:a44519727", "current_trial": 5, "dateTime": 1693565635612, "trialdata": {"view_history": [{"page_index": 0, "viewing_time": 57688}, {"page_index": 1, "viewing_time": 7944}], "rt": 65632, "trial_id": "mouselab_instructions_2_misaligned", "trial_type": "instructions", "trial_index": 5, "time_elapsed": 727017, "internal_node_id": "0.0-2.0-3.0"}}, {"uniqueid": "w55809553:a44519727", "current_trial": 6, "dateTime": 1693565703614, "trialdata": {"rt": 67995, "response": {"Q0": "The cost for clicking on nodes may vary between nodes.", "Q1": "The better I perform the higher my bonus will be.", "Q2": "No, the amount of cash at each node of the web may be different each time.", "Q3": "To get the highest total score.", "Q4": "Only before moving the spider.", "Q5": "3 seconds"}, "question_order": [0, 1, 2, 3, 4, 5], "correct": {"Q0": "The cost for clicking on nodes may vary between nodes.", "Q1": "The better I perform the higher my bonus will be.", "Q2": "No, the amount of cash at each node of the web may be different each time.", "Q3": "To get the highest total score.", "Q4": "Only before moving the spider.", "Q5": "3 seconds"}, "trial_id": "mouselab_quiz_misaligned", "trial_type": "survey-multi-choice", "trial_index": 6, "time_elapsed": 795019, "internal_node_id": "0.0-2.0-4.0"}}, {"uniqueid": "w55809553:a44519727", "current_trial": 7, "dateTime": 1693565724661, "trialdata": {"rt": 21037, "response": {"Q0": "No"}, "question_order": [0], "trial_id": "repeat_check", "trial_type": "survey-multi-choice", "trial_index": 7, "time_elapsed": 816066, "internal_node_id": "0.0-4.0-0.0"}}, {"uniqueid": "w55809553:a44519727", "current_trial": 8, "dateTime": 1693565927640, "trialdata": {"rt": 202973, "stimulus": "\n<h1> Get ready to start the game! </h1>\n\nThank you for reading the instructions. Get ready start with the 40 rounds of this game.\n<br><br>\nIf you need to take a break, feel free to take one after the end of a round, before continuing to the next one.\n<br><br>\nRemember, the more money the spider gets, the bigger your bonus will be!\n<br><br>\n<div style='text-align: center;'>Press <code>space</code> to begin.</div>\n\n<br><br>\n(If, at any point, the <code>space</code> key does not take you to the next page, click once on the text and try again.)", "response": " ", "trial_id": "mdp_ready", "trial_type": "html-keyboard-response", "trial_index": 8, "time_elapsed": 1019045, "internal_node_id": "0.0-6.0-0.0"}}, {"uniqueid": "w55809553:a44519727", "current_trial": 9, "dateTime": 1693565962408, "trialdata": {"revealed_states": [], "clicked_states": ["1"], "num_clicks_accrued": [0, 0, 0, 0, 0, 0, 0, 0, 0, 0, 0, 0, 0], "stateRewards": ["", -1, -4, -3, 1, -45, -67, -24, 14, 32, 22, 22, -1, 1, -5, -7, 72, 84, -79, -5, 19, -40, -2, -1, -2, 8, -3, 84, -25, -28, 11, 64, -66, 77], "withholdReward": false, "trial_id": "mdp_trial_1", "block": "test", "trialIndex": 2, "score": -25.75, "costs": 0.25, "simulationMode": [null, null, null, null, null], "rewards": [-1, -2, 8, -3, -28], "path": ["0", "0", "23", "24", "25", "26", "29"], "rt": [18700, 1308, 1271, 2479, 571], "actions": ["left", "left", "left", "up", "left"], "actionTimes": [22841, 24687, 26511, 29527, 30623], "queries": {"click": {"state": {"target": ["1"], "time": [7042]}, "edge": {"target": [], "time": []}}, "mouseover": {"state": {"target": ["0", "1", "1", "0", "23", "0", "12"], "time": [4671, 6470, 6769, 7842, 8969, 15810, 17849]}, "edge": {"target": [], "time": []}}, "mouseout": {"state": {"target": ["26", "29", "26", "25", "0", "1", "0", "1", "1", "0", "23", "0", "12"], "time": [738, 1256, 2336, 2386, 2620, 2836, 4715, 6586, 7675, 8769, 15483, 16549, 18749]}, "edge": {"target": [], "time": []}}}, "displayed_time": "31.17", "trialTime": 34079, "trial_type": "mouselab-mdp", "trial_index": 9, "time_elapsed": 1053812, "internal_node_id": "0.0-6.0-1.0-0.0"}}, {"uniqueid": "w55809553:a44519727", "current_trial": 10, "dateTime": 1693565994144, "trialdata": {"revealed_states": [], "clicked_states": ["1"], "num_clicks_accrued": [0, 0, 0, 0, 0, 0, 0, 0, 0, 0, 0, 0, 0], "stateRewards": ["", 2, -1, 5, 8, 75, -35, -77, 1, -9, -81, -58, 1, 2, -7, 5, 77, -16, 19, 16, -10, -18, 40, -2, 3, 7, -5, 64, 1, -62, 10, 27, 10, 65], "withholdReward": false, "trial_id": "mdp_trial_2", "block": "test", "trialIndex": 3, "score": 89.25, "costs": 0.25, "simulationMode": [null, null, null, null, null], "rewards": [2, -1, 5, 8, 75], "path": ["0", "0", "1", "2", "3", "4", "5"], "rt": [13340, 197, 1267, 1971, 540], "actions": ["up", "up", "up", "right", "up"], "actionTimes": [18644, 19387, 21195, 23715, 24795], "queries": {"click": {"state": {"target": ["1"], "time": [6316]}, "edge": {"target": [], "time": []}}, "mouseover": {"state": {"target": ["1", "2", "3", "3", "2", "1"], "time": [5356, 6813, 10710, 11325, 11411, 11642]}, "edge": {"target": [], "time": []}}, "mouseout": {"state": {"target": ["0", "0", "1", "2", "3", "3", "2", "1", "1", "0"], "time": [894, 5352, 6773, 10676, 10752, 11376, 11525, 12209, 29685, 29770]}, "edge": {"target": [], "time": []}}}, "displayed_time": "25.34", "trialTime": 31035, "trial_type": "mouselab-mdp", "trial_index": 10, "time_elapsed": 1085548, "internal_node_id": "0.0-6.0-1.0-1.0"}}, {"uniqueid": "w55809553:a44519727", "current_trial": 11, "dateTime": 1693566030625, "trialdata": {"revealed_states": [], "clicked_states": [], "num_clicks_accrued": [0, 0, 0, 0, 0, 0, 0, 0, 0, 0, 0, 0, 0], "stateRewards": ["", -2, 4, -3, -13, 63, -36, 62, 11, 78, 34, -51, 2, -2, 8, -6, -40, -18, 31, 9, 64, 39, 79, 1, 4, -4, 15, -12, 76, 73, -10, -77, 86, -4], "withholdReward": false, "trial_id": "mdp_trial_3", "block": "test", "trialIndex": 4, "score": 81, "costs": 0, "simulationMode": [null, null, null, null, null], "rewards": [2, -2, 8, 9, 64], "path": ["0", "0", "12", "13", "14", "19", "20"], "rt": [9747, 79, 199, 33, 111], "actions": ["right", "right", "right", "down", "right"], "actionTimes": [23967, 24590, 25334, 25902, 26566], "queries": {"click": {"state": {"target": [], "time": []}, "edge": {"target": [], "time": []}}, "mouseover": {"state": {"target": ["12"], "time": [19166]}, "edge": {"target": [], "time": []}}, "mouseout": {"state": {"target": ["12", "1", "0"], "time": [12215, 12415, 16100]}, "edge": {"target": [], "time": []}}}, "displayed_time": "28.22", "trialTime": 35734, "trial_type": "mouselab-mdp", "trial_index": 11, "time_elapsed": 1122029, "internal_node_id": "0.0-6.0-1.0-2.0"}}, {"uniqueid": "w55809553:a44519727", "current_trial": 12, "dateTime": 1693566054529, "trialdata": {"revealed_states": [], "clicked_states": [], "num_clicks_accrued": [0, 0, 0, 0, 0, 0, 0, 0, 0, 0, 0, 0, 0], "stateRewards": ["", 1, 1, 7, -11, 80, -20, -53, -14, 3, 31, 27, 2, -1, -8, -10, 33, 41, 86, 9, 78, -37, -13, -1, -2, -6, -8, -80, 75, 4, -16, -49, -74, 24], "withholdReward": false, "trial_id": "mdp_trial_4", "block": "test", "trialIndex": 5, "score": 26, "costs": 0, "simulationMode": [null, null, null, null, null], "rewards": [1, 1, 7, -14, 31], "path": ["0", "0", "1", "2", "3", "8", "10"], "rt": [8768, 156, 180, 840, 503], "actions": ["up", "up", "up", "left", "down"], "actionTimes": [13318, 14021, 14733, 16133, 17197], "queries": {"click": {"state": {"target": [], "time": []}, "edge": {"target": [], "time": []}}, "mouseover": {"state": {"target": ["23", "24", "23", "0", "12", "0", "25", "24"], "time": [6646, 7063, 7463, 7922, 8022, 8645, 9078, 10327]}, "edge": {"target": [], "time": []}}, "mouseout": {"state": {"target": ["12", "30", "31", "23", "0", "23", "24", "23", "0", "12", "0", "25", "24"], "time": [2997, 3296, 3346, 3478, 3779, 6690, 7212, 7879, 7979, 8545, 8712, 9311, 10370]}, "edge": {"target": [], "time": []}}}, "displayed_time": "18.55", "trialTime": 23077, "trial_type": "mouselab-mdp", "trial_index": 12, "time_elapsed": 1145933, "internal_node_id": "0.0-6.0-1.0-3.0"}}, {"uniqueid": "w55809553:a44519727", "current_trial": 13, "dateTime": 1693566083192, "trialdata": {"revealed_states": [], "clicked_states": ["1", "23", "12", "13", "14", "2", "3", "24", "25", "26", "29", "27"], "num_clicks_accrued": [0, 0, 0, 0, 0, 0, 0, 0, 0, 0, 0, 0, 0], "stateRewards": ["", -1, -2, -1, -10, -57, 73, -72, -16, 75, -14, -46, -2, -3, -7, -1, -61, -60, 76, -4, 50, 4, 14, 2, 2, -7, 12, -65, -32, 15, -8, -76, -25, -61], "withholdReward": false, "trial_id": "mdp_trial_5", "block": "test", "trialIndex": 6, "score": 15, "costs": -9, "simulationMode": [null, null, null, null, null], "rewards": [2, 2, -7, 12, 15], "path": ["0", "0", "23", "24", "25", "26", "29"], "rt": [16003, 445, 228, 392, 383], "actions": ["left", "left", "left", "up", "left"], "actionTimes": [18407, 19422, 20174, 21110, 22014], "queries": {"click": {"state": {"target": ["1", "23", "12", "13", "14", "2", "3", "24", "25", "26", "29", "27"], "time": [3160, 3725, 4328, 6032, 6779, 8105, 8571, 9688, 10120, 10852, 11459, 14543]}, "edge": {"target": [], "time": []}}, "mouseover": {"state": {"target": ["0", "1", "23", "12", "13", "13", "14", "1", "2", "3", "10", "28", "24", "25", "26", "29", "23", "0", "26", "27", "26", "25"], "time": [2847, 2997, 3474, 4108, 5346, 5614, 6624, 7620, 7929, 8321, 9197, 9274, 9551, 9924, 10341, 11304, 12015, 13854, 14058, 14342, 15194, 15306]}, "edge": {"target": [], "time": []}}, "mouseout": {"state": {"target": ["0", "1", "23", "12", "12", "13", "13", "14", "13", "1", "2", "3", "10", "28", "24", "25", "26", "29", "23", "0", "26", "27", "26", "25"], "time": [2891, 3365, 3764, 4367, 5306, 5390, 6336, 7299, 7472, 7842, 8249, 9120, 9237, 9312, 9788, 10229, 11266, 11977, 12053, 13891, 14097, 15122, 15266, 15378]}, "edge": {"target": [], "time": []}}}, "displayed_time": "22.55", "trialTime": 27782, "trial_type": "mouselab-mdp", "trial_index": 13, "time_elapsed": 1174596, "internal_node_id": "0.0-6.0-1.0-4.0"}}, {"uniqueid": "w55809553:a44519727", "current_trial": 14, "dateTime": 1693566107864, "trialdata": {"revealed_states": [], "clicked_states": ["9", "6", "21"], "num_clicks_accrued": [0, 0, 0, 0, 0, 0, 0, 0, 0, 0, 0, 0, 0], "stateRewards": ["", -2, -1, -4, -15, -14, -67, 32, -3, -59, 63, 31, 2, -1, -7, -15, 71, -66, -27, -3, -54, -39, 72, 2, 1, 1, -13, 77, -40, 35, -9, 35, 75, 57], "withholdReward": false, "trial_id": "mdp_trial_6", "block": "test", "trialIndex": 7, "score": 63.55, "costs": -6.449999999999999, "simulationMode": [null, null, null, null, null], "rewards": [2, 1, 1, -9, 75], "path": ["0", "0", "23", "24", "25", "30", "32"], "rt": [15156, 195, 1004, 58, 92], "actions": ["left", "left", "left", "down", "down"], "actionTimes": [17310, 18045, 19597, 20197, 20837], "queries": {"click": {"state": {"target": ["9", "6", "21"], "time": [2981, 6039, 9725]}, "edge": {"target": [], "time": []}}, "mouseover": {"state": {"target": ["8", "9", "5", "6", "15", "16", "6", "6", "6", "14", "17", "17", "13", "31", "30", "32", "21", "21"], "time": [2553, 2821, 3308, 3949, 4273, 4352, 4465, 4837, 5843, 6512, 7050, 7512, 7660, 7808, 7941, 8191, 8795, 9467]}, "edge": {"target": [], "time": []}}, "mouseout": {"state": {"target": ["0", "8", "9", "5", "6", "15", "16", "6", "6", "6", "14", "17", "17", "13", "31", "30", "32", "21", "21", "21"], "time": [2204, 2653, 3129, 3910, 3990, 4314, 4390, 4506, 5459, 6339, 6586, 7226, 7622, 7699, 7853, 8118, 8619, 8959, 10080, 10285]}, "edge": {"target": [], "time": []}}}, "displayed_time": "21.37", "trialTime": 23837, "trial_type": "mouselab-mdp", "trial_index": 14, "time_elapsed": 1199268, "internal_node_id": "0.0-6.0-1.0-5.0"}}, {"uniqueid": "w55809553:a44519727", "current_trial": 15, "dateTime": 1693566134273, "trialdata": {"revealed_states": [], "clicked_states": [], "num_clicks_accrued": [0, 0, 0, 0, 0, 0, 0, 0, 0, 0, 0, 0, 0], "stateRewards": ["", -2, -4, -2, -13, -15, 87, -19, -6, -80, 30, 12, 1, 1, -8, 2, 55, 56, 15, 11, -68, -7, 55, -2, 3, -3, -3, 48, 62, 4, 1, -3, 69, -33], "withholdReward": false, "trial_id": "mdp_trial_7", "block": "test", "trialIndex": 8, "score": -2, "costs": 0, "simulationMode": [null, null, null, null, null], "rewards": [-2, -4, -2, -6, 12], "path": ["0", "0", "1", "2", "3", "8", "11"], "rt": [8179, 156, 45, 660, 47], "actions": ["up", "up", "up", "left", "left"], "actionTimes": [15387, 16074, 16650, 17826, 18410], "queries": {"click": {"state": {"target": [], "time": []}, "edge": {"target": [], "time": []}}, "mouseover": {"state": {"target": ["0", "1", "2"], "time": [7562, 8659, 12992]}, "edge": {"target": [], "time": []}}, "mouseout": {"state": {"target": ["12", "12", "0", "1"], "time": [778, 945, 8445, 12891]}, "edge": {"target": [], "time": []}}}, "displayed_time": "21.21", "trialTime": 25547, "trial_type": "mouselab-mdp", "trial_index": 15, "time_elapsed": 1225678, "internal_node_id": "0.0-6.0-1.0-6.0"}}, {"uniqueid": "w55809553:a44519727", "current_trial": 16, "dateTime": 1693566160760, "trialdata": {"revealed_states": [], "clicked_states": ["25", "26", "29", "21", "5"], "num_clicks_accrued": [0, 0, 0, 0, 0, 0, 0, 0, 0, 0, 0, 0, 0], "stateRewards": ["", 1, -3, -1, 9, -34, -40, 22, -7, 45, 53, -11, 2, 4, 5, 15, 21, 37, -49, -3, 80, -28, -34, 1, -3, 1, 1, -40, -6, -5, -16, -85, -86, 59], "withholdReward": false, "trial_id": "mdp_trial_8", "block": "test", "trialIndex": 9, "score": 38.05, "costs": -8.950000000000001, "simulationMode": [null, null, null, null, null], "rewards": [2, 4, 5, 15, 21], "path": ["0", "0", "12", "13", "14", "15", "16"], "rt": [15064, 28, 916, 1019, 172], "actions": ["right", "right", "right", "up", "up"], "actionTimes": [17753, 18336, 19792, 21352, 22072], "queries": {"click": {"state": {"target": ["25", "26", "29", "21", "5"], "time": [5697, 6413, 6901, 10463, 13906]}, "edge": {"target": [], "time": []}}, "mouseover": {"state": {"target": ["23", "24", "25", "26", "29", "30", "32", "31", "17", "22", "21", "20", "19", "13", "10", "8", "9", "5"], "time": [5006, 5224, 5556, 6128, 6718, 7297, 7536, 8435, 8940, 10138, 10238, 10882, 11915, 12143, 12515, 12567, 12879, 13538]}, "edge": {"target": [], "time": []}}, "mouseout": {"state": {"target": ["2", "13", "22", "0", "0", "23", "24", "25", "26", "29", "30", "32", "31", "17", "22", "21", "20", "19", "13", "10", "8", "9", "5", "5"], "time": [32, 173, 907, 1439, 3808, 5089, 5473, 6014, 6634, 7175, 7458, 8195, 8475, 9625, 10181, 10502, 11842, 12026, 12222, 12562, 12615, 13437, 14038, 15564]}, "edge": {"target": [], "time": []}}}, "displayed_time": "22.61", "trialTime": 25488, "trial_type": "mouselab-mdp", "trial_index": 16, "time_elapsed": 1252165, "internal_node_id": "0.0-6.0-1.0-7.0"}}, {"uniqueid": "w55809553:a44519727", "current_trial": 17, "dateTime": 1693566208712, "trialdata": {"revealed_states": [], "clicked_states": ["11", "20", "29", "31", "10"], "num_clicks_accrued": [0, 0, 0, 0, 0, 0, 0, 0, 0, 0, 0, 0, 0], "stateRewards": ["", -2, 2, 5, -14, -56, 64, 84, -5, 52, 39, 85, -2, 1, 7, 8, 21, 29, -78, -9, -10, -69, 10, -2, -1, -7, 15, 72, 20, 41, -2, 52, 80, 22], "withholdReward": false, "trial_id": "mdp_trial_9", "block": "test", "trialIndex": 10, "score": -82.75, "costs": -10.75, "simulationMode": [null, null, null, null, null], "rewards": [-2, 1, 7, -9, -69], "path": ["0", "0", "12", "13", "14", "19", "21"], "rt": [35668, 502, 143, 404, 405], "actions": ["right", "right", "right", "down", "down"], "actionTimes": [38583, 39622, 40334, 41262, 42222], "queries": {"click": {"state": {"target": ["11", "20", "29", "31", "10"], "time": [4168, 7247, 10126, 12976, 18119]}, "edge": {"target": [], "time": []}}, "mouseover": {"state": {"target": ["2", "8", "11", "9", "5", "6", "16", "17", "20", "21", "32", "33", "29", "26", "28", "1", "16", "18", "23", "31", "31", "32", "25", "26", "27", "10", "10", "2", "7", "18", "12", "22"], "time": [2959, 3081, 3998, 4687, 5253, 5886, 5930, 6251, 6892, 7605, 8610, 9174, 9917, 10438, 10913, 11029, 11385, 12288, 12405, 12522, 12780, 13438, 15142, 15193, 15329, 17241, 17509, 35985, 36152, 36751, 36851, 37286]}, "edge": {"target": [], "time": []}}, "mouseout": {"state": {"target": ["13", "12", "2", "8", "11", "9", "5", "6", "16", "17", "20", "20", "21", "32", "33", "29", "26", "28", "1", "16", "18", "23", "31", "31", "32", "25", "26", "27", "10", "10", "2", "7", "18", "12", "22"], "time": [913, 1212, 2999, 3531, 4238, 5137, 5845, 5926, 5969, 6650, 7348, 7452, 8186, 9005, 9767, 10393, 10566, 10952, 11068, 12248, 12329, 12446, 12561, 13256, 14962, 15185, 15239, 16258, 17278, 18282, 36053, 36502, 36786, 36918, 37469]}, "edge": {"target": [], "time": []}}}, "displayed_time": "42.77", "trialTime": 47038, "trial_type": "mouselab-mdp", "trial_index": 17, "time_elapsed": 1300116, "internal_node_id": "0.0-6.0-1.0-8.0"}}, {"uniqueid": "w55809553:a44519727", "current_trial": 18, "dateTime": 1693566228320, "trialdata": {"revealed_states": [], "clicked_states": ["1", "4", "5"], "num_clicks_accrued": [0, 0, 0, 0, 0, 0, 0, 0, 0, 0, 0, 0, 0], "stateRewards": ["", -1, 4, 3, 12, -27, 34, -33, 3, -63, 1, 6, 2, 2, -6, -11, -77, -85, 68, -6, 51, 81, -60, -2, -2, 1, 15, 20, 15, 68, -10, -14, 6, -4], "withholdReward": false, "trial_id": "mdp_trial_10", "block": "test", "trialIndex": 11, "score": 48.55, "costs": -3.45, "simulationMode": [null, null, null, null, null, null], "rewards": [-1, 4, 3, 12, 34], "path": ["0", "0", "1", "2", "3", "4", "6"], "rt": [6863, 440, 560, 191, 33, 84], "actions": ["up", "up", "up", "up", "right", "right"], "actionTimes": [9178, 9624, 10712, 11440, 11992, 12648], "queries": {"click": {"state": {"target": ["1", "4", "5"], "time": [4585, 5976, 6652]}, "edge": {"target": [], "time": []}}, "mouseover": {"state": {"target": ["1", "2", "3", "2", "7", "4", "5", "6"], "time": [4457, 4800, 5233, 5483, 5637, 5774, 6503, 7793]}, "edge": {"target": [], "time": []}}, "mouseout": {"state": {"target": ["12", "0", "0", "1", "2", "3", "2", "7", "4", "4", "5", "6"], "time": [841, 925, 2365, 4692, 4879, 5428, 5522, 5678, 6217, 6390, 7631, 8480]}, "edge": {"target": [], "time": []}}}, "displayed_time": "16.32", "trialTime": 18608, "trial_type": "mouselab-mdp", "trial_index": 18, "time_elapsed": 1319724, "internal_node_id": "0.0-6.0-1.0-9.0"}}, {"uniqueid": "w55809553:a44519727", "current_trial": 19, "dateTime": 1693566248080, "trialdata": {"revealed_states": [], "clicked_states": [], "num_clicks_accrued": [0, 0, 0, 0, 0, 0, 0, 0, 0, 0, 0, 0, 0], "stateRewards": ["", -2, 4, -5, -12, 85, -24, -18, -15, -78, -22, 26, -1, -1, 2, 14, -45, 52, -23, 7, -33, 24, -6, -2, -4, 5, -7, -16, 36, -39, 5, 71, -87, -23], "withholdReward": false, "trial_id": "mdp_trial_11", "block": "test", "trialIndex": 12, "score": -19, "costs": 0, "simulationMode": [null, null, null, null, null], "rewards": [-2, -4, 5, 5, -23], "path": ["0", "0", "23", "24", "25", "30", "33"], "rt": [10763, 124, 630, 26, 90], "actions": ["left", "left", "left", "down", "left"], "actionTimes": [12833, 13504, 14664, 15225, 15872], "queries": {"click": {"state": {"target": [], "time": []}, "edge": {"target": [], "time": []}}, "mouseover": {"state": {"target": ["23"], "time": [3294]}, "edge": {"target": [], "time": []}}, "mouseout": {"state": {"target": ["18", "13", "0", "23"], "time": [776, 808, 2112, 18572]}, "edge": {"target": [], "time": []}}}, "displayed_time": "16.41", "trialTime": 18760, "trial_type": "mouselab-mdp", "trial_index": 19, "time_elapsed": 1339484, "internal_node_id": "0.0-6.0-1.0-10.0"}}, {"uniqueid": "w55809553:a44519727", "current_trial": 20, "dateTime": 1693566276552, "trialdata": {"revealed_states": [], "clicked_states": ["32", "5", "9"], "num_clicks_accrued": [0, 0, 0, 0, 0, 0, 0, 0, 0, 0, 0, 0, 0], "stateRewards": ["", -1, -2, 4, 9, 10, -75, 39, 16, -43, 88, -19, -1, 1, 2, 4, -31, 10, 73, 12, 41, -64, -81, -2, 2, -6, 1, -81, -1, -26, 3, -59, -3, -20], "withholdReward": false, "trial_id": "mdp_trial_12", "block": "test", "trialIndex": 13, "score": 13.55, "costs": -6.449999999999999, "simulationMode": [null, null, null, null, null], "rewards": [-1, -2, 4, 9, 10], "path": ["0", "0", "1", "2", "3", "4", "5"], "rt": [13704, 411, 69, 552, 525], "actions": ["up", "up", "up", "right", "up"], "actionTimes": [16173, 17127, 17707, 18795, 19859], "queries": {"click": {"state": {"target": ["32", "5", "9"], "time": [3555, 8067, 11283]}, "edge": {"target": [], "time": []}}, "mouseover": {"state": {"target": ["32", "21", "21", "19", "18", "16", "6", "5", "9", "11", "27", "29", "24", "23", "0", "12"], "time": [3339, 3984, 4568, 6594, 6669, 7306, 7539, 7756, 8784, 12070, 12176, 12409, 14886, 14996, 15037, 15084]}, "edge": {"target": [], "time": []}}, "mouseout": {"state": {"target": ["0", "32", "21", "21", "19", "18", "16", "6", "5", "9", "11", "27", "29", "24", "23", "0"], "time": [2515, 3943, 4026, 6590, 6632, 6739, 7341, 7582, 8563, 12023, 12124, 12224, 14719, 14954, 15033, 15079]}, "edge": {"target": [], "time": []}}}, "displayed_time": "20.39", "trialTime": 27435, "trial_type": "mouselab-mdp", "trial_index": 20, "time_elapsed": 1367957, "internal_node_id": "0.0-6.0-1.0-11.0"}}, {"uniqueid": "w55809553:a44519727", "current_trial": 21, "dateTime": 1693566296280, "trialdata": {"revealed_states": [], "clicked_states": ["27"], "num_clicks_accrued": [0, 0, 0, 0, 0, 0, 0, 0, 0, 0, 0, 0, 0], "stateRewards": ["", -1, -3, -6, -2, -7, 80, -45, -3, -38, -72, 76, 2, 1, 7, 4, -62, 14, -74, 14, -87, -21, -88, -2, 1, -7, -10, 66, 56, -76, 10, -29, -72, -70], "withholdReward": false, "trial_id": "mdp_trial_13", "block": "test", "trialIndex": 14, "score": 45.85, "costs": -2.15, "simulationMode": [null, null, null, null, null], "rewards": [-2, 1, -7, -10, 66], "path": ["0", "0", "23", "24", "25", "26", "27"], "rt": [10883, 439, 113, 92, 29], "actions": ["left", "left", "left", "up", "up"], "actionTimes": [13025, 13993, 14649, 15289, 15843], "queries": {"click": {"state": {"target": ["27"], "time": [3783]}, "edge": {"target": [], "time": []}}, "mouseover": {"state": {"target": ["28", "26", "27", "28", "0", "0"], "time": [2860, 2907, 3228, 4339, 7825, 8193]}, "edge": {"target": [], "time": []}}, "mouseout": {"state": {"target": ["0", "0", "0", "28", "26", "27", "28", "0"], "time": [678, 859, 1409, 2903, 3161, 4227, 7743, 7860]}, "edge": {"target": [], "time": []}}}, "displayed_time": "16.40", "trialTime": 18577, "trial_type": "mouselab-mdp", "trial_index": 21, "time_elapsed": 1387668, "internal_node_id": "0.0-6.0-1.0-12.0"}}, {"uniqueid": "w55809553:a44519727", "current_trial": 22, "dateTime": 1693566317391, "trialdata": {"revealed_states": [], "clicked_states": ["32", "33"], "num_clicks_accrued": [0, 0, 0, 0, 0, 0, 0, 0, 0, 0, 0, 0, 0], "stateRewards": ["", 2, -1, -2, -5, -47, -57, -33, -11, 31, -18, -72, -2, 1, -4, -8, -46, -53, -50, 15, -85, -9, 39, -2, -2, 1, 14, -1, -8, 53, -12, -41, -74, 62], "withholdReward": false, "trial_id": "mdp_trial_14", "block": "test", "trialIndex": 15, "score": 42.7, "costs": -4.3, "simulationMode": [null, null, null, null, null], "rewards": [-2, -2, 1, -12, 62], "path": ["0", "0", "23", "24", "25", "30", "33"], "rt": [11658, 636, 100, 648, 75], "actions": ["left", "left", "left", "down", "left"], "actionTimes": [13442, 14629, 15261, 16453, 17077], "queries": {"click": {"state": {"target": ["32", "33"], "time": [3006, 6286]}, "edge": {"target": [], "time": []}}, "mouseover": {"state": {"target": ["32", "31", "33", "32", "33", "29", "26", "25", "24"], "time": [1824, 2333, 2499, 2766, 3494, 6722, 10048, 10135, 11180]}, "edge": {"target": [], "time": []}}, "mouseout": {"state": {"target": ["0", "32", "31", "33", "32", "33", "29", "26", "25", "24"], "time": [1820, 1903, 2376, 2544, 3376, 6358, 10013, 10088, 10172, 11879]}, "edge": {"target": [], "time": []}}}, "displayed_time": "17.63", "trialTime": 19917, "trial_type": "mouselab-mdp", "trial_index": 22, "time_elapsed": 1408796, "internal_node_id": "0.0-6.0-1.0-13.0"}}, {"uniqueid": "w55809553:a44519727", "current_trial": 23, "dateTime": 1693566352056, "trialdata": {"revealed_states": [], "clicked_states": ["17", "16", "5", "9"], "num_clicks_accrued": [0, 0, 0, 0, 0, 0, 0, 0, 0, 0, 0, 0, 0], "stateRewards": ["", -2, -3, -3, 9, 79, 67, 22, -15, -56, 27, -85, -2, 4, -4, -15, -20, -32, 60, 15, 71, 57, 17, 1, 2, -8, 15, -37, -81, 82, 15, 21, -3, 2], "withholdReward": false, "trial_id": "mdp_trial_15", "block": "test", "trialIndex": 16, "score": 71.4, "costs": -8.6, "simulationMode": [null, null, null, null, null, null], "rewards": [-2, -3, -3, 9, 79], "path": ["0", "0", "1", "2", "3", "4", "5"], "rt": [13933, 2560, 436, 63, 1330, 39], "actions": ["up", "up", "up", "up", "right", "up"], "actionTimes": [24316, 26882, 27866, 28490, 30386, 30962], "queries": {"click": {"state": {"target": ["17", "16", "5", "9"], "time": [11732, 15738, 18962, 22187]}, "edge": {"target": [], "time": []}}, "mouseover": {"state": {"target": ["0", "21", "21", "19", "17", "17", "16", "6", "5", "9", "1", "12"], "time": [10851, 10984, 11065, 11116, 11194, 11484, 12589, 17431, 17808, 20216, 23502, 23623]}, "edge": {"target": [], "time": []}}, "mouseout": {"state": {"target": ["31", "0", "0", "21", "21", "19", "17", "17", "16", "6", "5", "9", "1", "12"], "time": [2201, 9482, 10892, 11026, 11111, 11154, 11267, 12420, 17388, 17477, 20026, 22763, 23545, 32443]}, "edge": {"target": [], "time": []}}}, "displayed_time": "31.49", "trialTime": 33642, "trial_type": "mouselab-mdp", "trial_index": 23, "time_elapsed": 1443460, "internal_node_id": "0.0-6.0-1.0-14.0"}}, {"uniqueid": "w55809553:a44519727", "current_trial": 24, "dateTime": 1693566381904, "trialdata": {"revealed_states": [], "clicked_states": ["27", "29", "33", "32", "21"], "num_clicks_accrued": [0, 0, 0, 0, 0, 0, 0, 0, 0, 0, 0, 0, 0], "stateRewards": ["", -2, 2, -5, 1, 42, -63, -58, -6, 2, 16, 81, -2, 4, 7, -10, 33, 3, -33, -2, -52, -84, -27, 2, -3, -3, 15, -74, -14, -5, -5, -84, 79, -31], "withholdReward": false, "trial_id": "mdp_trial_16", "block": "test", "trialIndex": 17, "score": 59.25, "costs": -10.75, "simulationMode": [null, null, null, null, null], "rewards": [2, -3, -3, -5, 79], "path": ["0", "0", "23", "24", "25", "30", "32"], "rt": [17389, 276, 963, 343, 564], "actions": ["left", "left", "left", "down", "down"], "actionTimes": [20927, 21734, 23246, 24142, 25262], "queries": {"click": {"state": {"target": ["27", "29", "33", "32", "21"], "time": [4310, 8014, 11272, 14463, 18094]}, "edge": {"target": [], "time": []}}, "mouseover": {"state": {"target": ["27", "29", "33", "33", "32", "19", "21"], "time": [4111, 5106, 8702, 9016, 12036, 14920, 15499]}, "edge": {"target": [], "time": []}}, "mouseout": {"state": {"target": ["23", "0", "27", "29", "33", "33", "32", "19", "21"], "time": [2576, 3590, 5007, 8622, 8781, 11710, 14806, 14962, 19505]}, "edge": {"target": [], "time": []}}}, "displayed_time": "25.82", "trialTime": 28710, "trial_type": "mouselab-mdp", "trial_index": 24, "time_elapsed": 1473308, "internal_node_id": "0.0-6.0-1.0-15.0"}}, {"uniqueid": "w55809553:a44519727", "current_trial": 25, "dateTime": 1693566407279, "trialdata": {"revealed_states": [], "clicked_states": ["9", "5", "17", "20"], "num_clicks_accrued": [0, 0, 0, 0, 0, 0, 0, 0, 0, 0, 0, 0, 0], "stateRewards": ["", -2, 1, -8, 12, -65, -79, 16, 7, -80, -17, -45, -2, 2, -5, -2, -85, 23, -4, -7, 48, 27, -76, 2, 3, 5, 2, 43, 71, -13, 7, -49, 59, -31], "withholdReward": false, "trial_id": "mdp_trial_17", "block": "test", "trialIndex": 18, "score": 27.4, "costs": -8.6, "simulationMode": [null, null, null, null, null], "rewards": [-2, 2, -5, -7, 48], "path": ["0", "0", "12", "13", "14", "19", "20"], "rt": [17454, 504, 93, 65, 31], "actions": ["right", "right", "right", "down", "right"], "actionTimes": [19396, 20427, 21067, 21659, 22242], "queries": {"click": {"state": {"target": ["9", "5", "17", "20"], "time": [3851, 7134, 10396, 13837]}, "edge": {"target": [], "time": []}}, "mouseover": {"state": {"target": ["1", "3", "9", "5", "6", "16", "17", "20", "16", "15", "14", "19"], "time": [2556, 2673, 3351, 4501, 7975, 8371, 8491, 11773, 15381, 17451, 17618, 18451]}, "edge": {"target": [], "time": []}}, "mouseout": {"state": {"target": ["0", "1", "3", "9", "5", "6", "16", "17", "20", "16", "15", "14", "19"], "time": [1155, 2593, 2839, 4418, 7906, 8052, 8413, 11134, 14316, 17358, 17551, 18134, 18494]}, "edge": {"target": [], "time": []}}}, "displayed_time": "22.78", "trialTime": 24290, "trial_type": "mouselab-mdp", "trial_index": 25, "time_elapsed": 1498684, "internal_node_id": "0.0-6.0-1.0-16.0"}}, {"uniqueid": "w55809553:a44519727", "current_trial": 26, "dateTime": 1693566425888, "trialdata": {"revealed_states": [], "clicked_states": ["9"], "num_clicks_accrued": [0, 0, 0, 0, 0, 0, 0, 0, 0, 0, 0, 0, 0], "stateRewards": ["", 1, 1, -3, 7, 49, 78, 26, -5, 26, 48, -43, -1, -3, 2, -5, 4, -1, -60, 10, -35, 51, 81, -2, 1, -7, -5, -39, -86, -54, 4, -3, 74, 77], "withholdReward": false, "trial_id": "mdp_trial_18", "block": "test", "trialIndex": 19, "score": 17.85, "costs": -2.15, "simulationMode": [null, null, null, null, null], "rewards": [1, 1, -3, -5, 26], "path": ["0", "0", "1", "2", "3", "8", "9"], "rt": [6923, 631, 856, 34, 1130], "actions": ["up", "up", "up", "left", "up"], "actionTimes": [8832, 10023, 11431, 11999, 13695], "queries": {"click": {"state": {"target": ["9"], "time": [3824]}, "edge": {"target": [], "time": []}}, "mouseover": {"state": {"target": ["1", "1", "2", "3", "8", "9", "11", "27", "29", "29"], "time": [2793, 3275, 3323, 3374, 3508, 3658, 6128, 7549, 7593, 7905]}, "edge": {"target": [], "time": []}}, "mouseout": {"state": {"target": ["19", "12", "1", "1", "2", "3", "8", "9", "11", "27", "29", "29"], "time": [858, 1024, 2961, 3318, 3369, 3418, 3551, 5970, 7506, 7588, 7634, 7944]}, "edge": {"target": [], "time": []}}}, "displayed_time": "15.91", "trialTime": 17543, "trial_type": "mouselab-mdp", "trial_index": 26, "time_elapsed": 1517292, "internal_node_id": "0.0-6.0-1.0-17.0"}}, {"uniqueid": "w55809553:a44519727", "current_trial": 27, "dateTime": 1693566449120, "trialdata": {"revealed_states": [], "clicked_states": [], "num_clicks_accrued": [0, 0, 0, 0, 0, 0, 0, 0, 0, 0, 0, 0, 0], "stateRewards": ["", 2, -4, 1, -12, -59, -53, -74, 16, -88, -66, 66, 1, -2, 8, -9, -14, 22, 25, -1, -39, 47, -14, -1, -1, -2, 1, -4, 52, -26, 15, -7, 46, 43], "withholdReward": false, "trial_id": "mdp_trial_19", "block": "test", "trialIndex": 20, "score": -8, "costs": 0, "simulationMode": [null, null, null, null, null], "rewards": [1, -2, 8, -1, -14], "path": ["0", "0", "12", "13", "14", "19", "22"], "rt": [9988, 371, 637, 29, 36], "actions": ["right", "right", "right", "down", "left"], "actionTimes": [15933, 16844, 18012, 18600, 19188], "queries": {"click": {"state": {"target": [], "time": []}, "edge": {"target": [], "time": []}}, "mouseover": {"state": {"target": ["12", "12", "12", "1", "23", "0", "12", "12", "0", "12", "13", "17", "16", "16"], "time": [6762, 7279, 8128, 8344, 9044, 9710, 9978, 10594, 11126, 11325, 11734, 12043, 12653, 12910]}, "edge": {"target": [], "time": []}}, "mouseout": {"state": {"target": ["10", "1", "12", "0", "12", "12", "12", "1", "23", "0", "12", "12", "0", "12", "13", "17", "16", "16"], "time": [4228, 4327, 4381, 6446, 6861, 7712, 8211, 8411, 9460, 9860, 10378, 10636, 11169, 11692, 11774, 12610, 12726, 15142]}, "edge": {"target": [], "time": []}}}, "displayed_time": "19.94", "trialTime": 22036, "trial_type": "mouselab-mdp", "trial_index": 27, "time_elapsed": 1540524, "internal_node_id": "0.0-6.0-1.0-18.0"}}, {"uniqueid": "w55809553:a44519727", "current_trial": 28, "dateTime": 1693566477259, "trialdata": {"revealed_states": [], "clicked_states": ["9", "11", "5"], "num_clicks_accrued": [0, 0, 0, 0, 0, 0, 0, 0, 0, 0, 0, 0, 0], "stateRewards": ["", 2, 3, 8, 14, 69, -27, 17, 2, -71, -65, -10, 2, -3, 7, 8, 65, -10, 65, -12, 73, -12, 13, -2, -2, 6, 10, -79, -69, -18, 10, -85, 67, 74], "withholdReward": false, "trial_id": "mdp_trial_20", "block": "test", "trialIndex": 21, "score": 89.55, "costs": -6.449999999999999, "simulationMode": [null, null, null, null, null], "rewards": [2, 3, 8, 14, 69], "path": ["0", "0", "1", "2", "3", "4", "5"], "rt": [14035, 112, 1614, 1036, 533], "actions": ["up", "up", "up", "right", "up"], "actionTimes": [17194, 17841, 19977, 21553, 22617], "queries": {"click": {"state": {"target": ["9", "11", "5"], "time": [5428, 8699, 12313]}, "edge": {"target": [], "time": []}}, "mouseover": {"state": {"target": ["23", "24", "23", "1", "3", "9", "11", "5", "6"], "time": [3842, 3935, 4220, 4725, 4902, 5258, 6500, 9760, 12794]}, "edge": {"target": [], "time": []}}, "mouseout": {"state": {"target": ["15", "18", "12", "23", "24", "23", "1", "3", "9", "9", "11", "5", "6"], "time": [1574, 1625, 1707, 3891, 4175, 4268, 4858, 4941, 5570, 6113, 8811, 12674, 15855]}, "edge": {"target": [], "time": []}}}, "displayed_time": "23.16", "trialTime": 26971, "trial_type": "mouselab-mdp", "trial_index": 28, "time_elapsed": 1568638, "internal_node_id": "0.0-6.0-1.0-19.0"}}, {"uniqueid": "w55809553:a44519727", "current_trial": 29, "dateTime": 1693566503360, "trialdata": {"revealed_states": [], "clicked_states": [], "num_clicks_accrued": [0, 0, 0, 0, 0, 0, 0, 0, 0, 0, 0, 0, 0], "stateRewards": ["", -1, -4, -1, -11, 43, 69, 39, 4, 17, -20, -82, -2, -1, 4, 8, -79, 24, -79, 11, 36, 64, 41, 2, 4, -1, 11, -79, -47, 75, -3, 63, -36, -19], "withholdReward": false, "trial_id": "mdp_trial_21", "block": "test", "trialIndex": 22, "score": -70, "costs": 0, "simulationMode": [null, null, null, null, null], "rewards": [-2, -1, 4, 8, -79], "path": ["0", "0", "12", "13", "14", "15", "18"], "rt": [1723, 728, 552, 1020, 750], "actions": ["right", "right", "right", "up", "left"], "actionTimes": [9793, 11081, 12185, 13753, 15058], "queries": {"click": {"state": {"target": [], "time": []}, "edge": {"target": [], "time": []}}, "mouseover": {"state": {"target": [], "time": []}, "edge": {"target": [], "time": []}}, "mouseout": {"state": {"target": ["7", "0", "0", "0", "0", "15"], "time": [762, 801, 1111, 8214, 10443, 10809]}, "edge": {"target": [], "time": []}}}, "displayed_time": "22.07", "trialTime": 24593, "trial_type": "mouselab-mdp", "trial_index": 29, "time_elapsed": 1594764, "internal_node_id": "0.0-6.0-1.0-20.0"}}, {"uniqueid": "w55809553:a44519727", "current_trial": 30, "dateTime": 1693566522417, "trialdata": {"revealed_states": [], "clicked_states": ["29", "27"], "num_clicks_accrued": [0, 0, 0, 0, 0, 0, 0, 0, 0, 0, 0, 0, 0], "stateRewards": ["", 2, 3, -3, 12, -43, 81, -82, -15, 58, -7, -75, -1, -1, 3, -5, 50, -25, -8, 4, 66, 65, -66, 2, -4, 2, -1, -10, 10, 37, 11, 88, -37, 8], "withholdReward": false, "trial_id": "mdp_trial_22", "block": "test", "trialIndex": 23, "score": 31.7, "costs": -4.3, "simulationMode": [null, null, null, null, null], "rewards": [2, -4, 2, -1, 37], "path": ["0", "0", "23", "24", "25", "26", "29"], "rt": [7695, 31, 30, 640, 725], "actions": ["left", "left", "left", "up", "left"], "actionTimes": [9762, 10331, 10918, 12097, 13362], "queries": {"click": {"state": {"target": ["29", "27"], "time": [3297, 6539]}, "edge": {"target": [], "time": []}}, "mouseover": {"state": {"target": ["27", "29", "27", "26", "25"], "time": [2666, 3066, 4139, 7231, 7330]}, "edge": {"target": [], "time": []}}, "mouseout": {"state": {"target": ["13", "0", "27", "29", "29", "27", "26", "25", "31"], "time": [715, 981, 2711, 3440, 3786, 7226, 7281, 14578, 14645]}, "edge": {"target": [], "time": []}}}, "displayed_time": "16.07", "trialTime": 17762, "trial_type": "mouselab-mdp", "trial_index": 30, "time_elapsed": 1613822, "internal_node_id": "0.0-6.0-1.0-21.0"}}, {"uniqueid": "w55809553:a44519727", "current_trial": 31, "dateTime": 1693566561120, "trialdata": {"revealed_states": [], "clicked_states": ["9", "5", "6", "7", "16", "17"], "num_clicks_accrued": [0, 0, 0, 0, 0, 0, 0, 0, 0, 0, 0, 0, 0], "stateRewards": ["", 2, -3, -4, -1, 25, -16, 16, 10, -71, -20, -55, 1, 3, -4, -9, 1, 32, 11, -6, 32, -50, -41, -1, 4, 4, -8, 7, -81, 70, 2, -52, 45, -10], "withholdReward": false, "trial_id": "mdp_trial_23", "block": "test", "trialIndex": 24, "score": 10.100000000000001, "costs": -12.9, "simulationMode": [null, null, null, null, null], "rewards": [1, 3, -4, -9, 32], "path": ["0", "0", "12", "13", "14", "15", "17"], "rt": [25631, 286, 612, 1201, 32], "actions": ["right", "right", "right", "up", "right"], "actionTimes": [28687, 29510, 30654, 32390, 32959], "queries": {"click": {"state": {"target": ["9", "5", "6", "7", "16", "17"], "time": [5047, 8247, 11695, 14998, 19239, 22663]}, "edge": {"target": [], "time": []}}, "mouseover": {"state": {"target": ["0", "30", "32", "23", "3", "9", "5", "6", "16", "7", "16", "17", "18", "13"], "time": [3340, 3688, 3940, 4189, 4472, 4889, 5956, 8624, 12251, 13951, 16103, 19988, 23601, 27582]}, "edge": {"target": [], "time": []}}, "mouseout": {"state": {"target": ["0", "0", "30", "32", "23", "3", "9", "5", "6", "16", "7", "7", "16", "16", "17", "18", "13"], "time": [2237, 3382, 3734, 3978, 4272, 4515, 5674, 8465, 12050, 13592, 15138, 15785, 19315, 19823, 22771, 27447, 36579]}, "edge": {"target": [], "time": []}}}, "displayed_time": "33.49", "trialTime": 37462, "trial_type": "mouselab-mdp", "trial_index": 31, "time_elapsed": 1652524, "internal_node_id": "0.0-6.0-1.0-22.0"}}, {"uniqueid": "w55809553:a44519727", "current_trial": 32, "dateTime": 1693566641456, "trialdata": {"revealed_states": [], "clicked_states": [], "num_clicks_accrued": [0, 0, 0, 0, 0, 0, 0, 0, 0, 0, 0, 0, 0], "stateRewards": ["", 1, 1, -3, 2, 22, -25, -11, -5, 50, 49, 3, 1, -1, 8, 14, -85, -30, 57, -6, -39, -16, 59, -2, -1, 5, 5, 59, -16, 8, 4, 67, 56, -9], "withholdReward": false, "trial_id": "mdp_trial_24", "block": "test", "trialIndex": 25, "score": -14, "costs": 0, "simulationMode": [null, null, null, null, null], "rewards": [1, -1, 8, -6, -16], "path": ["0", "0", "12", "13", "14", "19", "21"], "rt": [20155, 285, 926, 753, 171], "actions": ["right", "right", "right", "down", "down"], "actionTimes": [28061, 28940, 30419, 31708, 32404], "queries": {"click": {"state": {"target": [], "time": []}, "edge": {"target": [], "time": []}}, "mouseover": {"state": {"target": ["0", "23", "23", "0", "12", "13"], "time": [8918, 9010, 9651, 25512, 25728, 26588]}, "edge": {"target": [], "time": []}}, "mouseout": {"state": {"target": ["12", "0", "23", "23", "0", "12", "13", "13", "19", "19", "22"], "time": [1051, 8962, 9335, 25313, 25628, 26545, 77612, 78161, 78228, 78311, 78377]}, "edge": {"target": [], "time": []}}}, "displayed_time": "32.96", "trialTime": 79108, "trial_type": "mouselab-mdp", "trial_index": 32, "time_elapsed": 1732860, "internal_node_id": "0.0-6.0-1.0-23.0"}}, {"uniqueid": "w55809553:a44519727", "current_trial": 33, "dateTime": 1693566670239, "trialdata": {"revealed_states": [], "clicked_states": ["32", "33", "31", "29", "27"], "num_clicks_accrued": [0, 0, 0, 0, 0, 0, 0, 0, 0, 0, 0, 0, 0], "stateRewards": ["", 2, 2, 3, -15, 23, -14, 73, -7, -32, -20, -6, 1, 1, -5, -12, 73, 6, -84, 11, -81, -57, 13, -2, -1, -4, -8, -52, -58, 49, 13, 5, -41, -41], "withholdReward": false, "trial_id": "mdp_trial_25", "block": "test", "trialIndex": 26, "score": 23.25, "costs": -10.75, "simulationMode": [null, null, null, null, null], "rewards": [-2, -1, -4, -8, 49], "path": ["0", "0", "23", "24", "25", "26", "29"], "rt": [19049, 239, 36, 386, 662], "actions": ["left", "left", "left", "up", "left"], "actionTimes": [21131, 21930, 22513, 23458, 24658], "queries": {"click": {"state": {"target": ["32", "33", "31", "29", "27"], "time": [2770, 6107, 9356, 12754, 16203]}, "edge": {"target": [], "time": []}}, "mouseover": {"state": {"target": ["32", "33", "30", "31", "25", "29", "27", "24", "23"], "time": [2578, 3692, 6444, 6769, 10085, 10439, 13232, 19684, 19988]}, "edge": {"target": [], "time": []}}, "mouseout": {"state": {"target": ["0", "32", "33", "30", "31", "25", "29", "27", "24", "23"], "time": [1027, 3372, 6400, 6568, 9803, 10395, 13069, 19639, 19732, 20305]}, "edge": {"target": [], "time": []}}}, "displayed_time": "25.22", "trialTime": 27394, "trial_type": "mouselab-mdp", "trial_index": 33, "time_elapsed": 1761644, "internal_node_id": "0.0-6.0-1.0-24.0"}}, {"uniqueid": "w55809553:a44519727", "current_trial": 34, "dateTime": 1693566709704, "trialdata": {"revealed_states": [], "clicked_states": ["5", "22", "7"], "num_clicks_accrued": [0, 0, 0, 0, 0, 0, 0, 0, 0, 0, 0, 0, 0], "stateRewards": ["", -2, -4, 2, 10, -17, 18, 73, 11, -32, 23, -13, -2, -4, 7, 12, -25, 66, -23, 15, 40, -76, -9, 1, 2, -7, -5, -20, 24, 3, -5, 16, -73, 70], "withholdReward": false, "trial_id": "mdp_trial_26", "block": "test", "trialIndex": 27, "score": 72.55, "costs": -6.449999999999999, "simulationMode": [null, null, null, null, null], "rewards": [-2, -4, 2, 10, 73], "path": ["0", "0", "1", "2", "3", "4", "7"], "rt": [14177, 33, 74, 454, 36], "actions": ["up", "up", "up", "right", "down"], "actionTimes": [16296, 16887, 17511, 18511, 19103], "queries": {"click": {"state": {"target": ["5", "22", "7"], "time": [2880, 7304, 11136]}, "edge": {"target": [], "time": []}}, "mouseover": {"state": {"target": ["0", "5", "6", "15", "22", "7", "2", "10"], "time": [2163, 2656, 4830, 6182, 6823, 10637, 13795, 14053]}, "edge": {"target": [], "time": []}}, "mouseout": {"state": {"target": ["23", "0", "0", "5", "6", "15", "22", "7", "2", "10"], "time": [172, 955, 2174, 4663, 6139, 6225, 10520, 13709, 13919, 15036]}, "edge": {"target": [], "time": []}}}, "displayed_time": "19.65", "trialTime": 38247, "trial_type": "mouselab-mdp", "trial_index": 34, "time_elapsed": 1801108, "internal_node_id": "0.0-6.0-1.0-25.0"}}, {"uniqueid": "w55809553:a44519727", "current_trial": 35, "dateTime": 1693566739064, "trialdata": {"revealed_states": [], "clicked_states": [], "num_clicks_accrued": [0, 0, 0, 0, 0, 0, 0, 0, 0, 0, 0, 0, 0], "stateRewards": ["", -1, -3, 1, -4, -48, -63, -49, -2, -84, -19, 65, 2, -2, -2, -12, -4, 59, 9, 6, 75, 69, -13, -1, -3, -3, -2, -37, -68, -36, 13, 32, 18, -14], "withholdReward": false, "trial_id": "mdp_trial_27", "block": "test", "trialIndex": 28, "score": -5, "costs": 0, "simulationMode": [null, null, null, null, null], "rewards": [2, -2, -2, -12, 9], "path": ["0", "0", "12", "13", "14", "15", "18"], "rt": [19480, 205, 180, 149, 880], "actions": ["right", "right", "right", "up", "left"], "actionTimes": [21240, 21981, 22725, 23421, 24853], "queries": {"click": {"state": {"target": [], "time": []}, "edge": {"target": [], "time": []}}, "mouseover": {"state": {"target": ["12", "13", "13"], "time": [4999, 20837, 21126]}, "edge": {"target": [], "time": []}}, "mouseout": {"state": {"target": ["12", "0", "12", "13"], "time": [650, 948, 20794, 20878]}, "edge": {"target": [], "time": []}}}, "displayed_time": "25.41", "trialTime": 28013, "trial_type": "mouselab-mdp", "trial_index": 35, "time_elapsed": 1830468, "internal_node_id": "0.0-6.0-1.0-26.0"}}, {"uniqueid": "w55809553:a44519727", "current_trial": 36, "dateTime": 1693566759856, "trialdata": {"revealed_states": [], "clicked_states": [], "num_clicks_accrued": [0, 0, 0, 0, 0, 0, 0, 0, 0, 0, 0, 0, 0], "stateRewards": ["", 1, -4, 6, -3, 40, 76, -51, 5, -24, -63, 44, -2, -2, 8, 1, 76, -85, -58, 10, 59, 20, 11, -2, 3, -3, 3, -82, -10, 54, -7, -57, -6, -32], "withholdReward": false, "trial_id": "mdp_trial_28", "block": "test", "trialIndex": 29, "score": -16, "costs": 0, "simulationMode": [null, null, null, null, null], "rewards": [1, -4, 6, 5, -24], "path": ["0", "0", "1", "2", "3", "8", "9"], "rt": [6403, 66, 961, 1513, 33], "actions": ["up", "up", "up", "left", "up"], "actionTimes": [9301, 9893, 11413, 13469, 14037], "queries": {"click": {"state": {"target": [], "time": []}, "edge": {"target": [], "time": []}}, "mouseover": {"state": {"target": ["1", "2", "2"], "time": [3668, 8224, 8566]}, "edge": {"target": [], "time": []}}, "mouseout": {"state": {"target": ["13", "12", "1", "2", "2", "0"], "time": [1616, 1716, 8183, 8384, 16148, 16212]}, "edge": {"target": [], "time": []}}}, "displayed_time": "16.90", "trialTime": 19517, "trial_type": "mouselab-mdp", "trial_index": 36, "time_elapsed": 1851260, "internal_node_id": "0.0-6.0-1.0-27.0"}}, {"uniqueid": "w55809553:a44519727", "current_trial": 37, "dateTime": 1693566788279, "trialdata": {"revealed_states": [], "clicked_states": ["32", "33", "31", "29"], "num_clicks_accrued": [0, 0, 0, 0, 0, 0, 0, 0, 0, 0, 0, 0, 0], "stateRewards": ["", 1, 3, 1, -13, 52, -28, 67, -14, 3, 63, -70, -1, -4, 7, -11, -10, 47, -18, 6, 69, -9, -61, 2, 3, -6, 10, 63, -34, 40, -6, -79, -35, -32], "withholdReward": false, "trial_id": "mdp_trial_29", "block": "test", "trialIndex": 30, "score": 40.4, "costs": -8.6, "simulationMode": [null, null, null, null, null], "rewards": [2, 3, -6, 10, 40], "path": ["0", "0", "23", "24", "25", "26", "29"], "rt": [16835, 772, 76, 600, 1765], "actions": ["left", "left", "left", "up", "left"], "actionTimes": [18802, 20122, 20754, 21930, 24250], "queries": {"click": {"state": {"target": ["32", "33", "31", "29"], "time": [2763, 6386, 9699, 13675]}, "edge": {"target": [], "time": []}}, "mouseover": {"state": {"target": ["32", "33", "30", "31", "25", "29", "29", "26", "28", "23"], "time": [2448, 6013, 8524, 9042, 13005, 13051, 13477, 17060, 17419, 17693]}, "edge": {"target": [], "time": []}}, "mouseout": {"state": {"target": ["0", "32", "33", "30", "31", "25", "29", "29", "26", "28"], "time": [2020, 3514, 8440, 8804, 12963, 13046, 13093, 13822, 17377, 17461]}, "edge": {"target": [], "time": []}}}, "displayed_time": "24.82", "trialTime": 26962, "trial_type": "mouselab-mdp", "trial_index": 37, "time_elapsed": 1879684, "internal_node_id": "0.0-6.0-1.0-28.0"}}, {"uniqueid": "w55809553:a44519727", "current_trial": 38, "dateTime": 1693566814607, "trialdata": {"revealed_states": [], "clicked_states": ["9", "10", "7", "6"], "num_clicks_accrued": [0, 0, 0, 0, 0, 0, 0, 0, 0, 0, 0, 0, 0], "stateRewards": ["", 1, -3, -4, -11, -56, 61, -47, -16, -28, -9, 69, -2, -3, -4, -8, 40, -86, 59, -4, 80, 27, 54, -1, 3, -1, 8, 67, 23, 50, 6, 83, -43, -29], "withholdReward": false, "trial_id": "mdp_trial_30", "block": "test", "trialIndex": 31, "score": 35.4, "costs": -8.6, "simulationMode": [null, null, null, null, null], "rewards": [1, -3, -4, -11, 61], "path": ["0", "0", "1", "2", "3", "4", "6"], "rt": [17532, 312, 321, 649, 69], "actions": ["up", "up", "up", "right", "right"], "actionTimes": [19411, 20251, 21107, 22291, 22923], "queries": {"click": {"state": {"target": ["9", "10", "7", "6"], "time": [3140, 6541, 9876, 13204]}, "edge": {"target": [], "time": []}}, "mouseover": {"state": {"target": ["1", "9", "5", "3", "10", "7", "6", "7"], "time": [2009, 2816, 4265, 5851, 6183, 9036, 12400, 17828]}, "edge": {"target": [], "time": []}}, "mouseout": {"state": {"target": ["23", "0", "1", "9", "5", "3", "10", "7", "6", "7"], "time": [649, 1957, 2117, 3691, 5759, 6018, 8664, 12144, 17046, 17872]}, "edge": {"target": [], "time": []}}}, "displayed_time": "23.49", "trialTime": 25051, "trial_type": "mouselab-mdp", "trial_index": 38, "time_elapsed": 1906012, "internal_node_id": "0.0-6.0-1.0-29.0"}}, {"uniqueid": "w55809553:a44519727", "current_trial": 39, "dateTime": 1693566844400, "trialdata": {"revealed_states": [], "clicked_states": ["24", "32", "33", "29", "27"], "num_clicks_accrued": [0, 0, 0, 0, 0, 0, 0, 0, 0, 0, 0, 0, 0], "stateRewards": ["", -2, -2, -3, -6, -15, -11, 41, -12, -63, -76, 2, -2, -3, 8, 9, -36, -2, -18, -16, -32, -85, -17, -2, 1, 5, -16, 82, 35, -88, -1, 80, -82, -20], "withholdReward": false, "trial_id": "mdp_trial_31", "block": "test", "trialIndex": 32, "score": 61.05, "costs": -8.950000000000001, "simulationMode": [null, null, null, null, null], "rewards": [-2, 1, 5, -16, 82], "path": ["0", "0", "23", "24", "25", "26", "27"], "rt": [19509, 282, 30, 374, 490], "actions": ["left", "left", "left", "up", "up"], "actionTimes": [22222, 23079, 23663, 24583, 25623], "queries": {"click": {"state": {"target": ["24", "32", "33", "29", "27"], "time": [5122, 6977, 10552, 13928, 17128]}, "edge": {"target": [], "time": []}}, "mouseover": {"state": {"target": ["0", "23", "24", "32", "33", "29", "29", "27", "27", "11", "28", "24"], "time": [3089, 4682, 5037, 6383, 8762, 11148, 11578, 14591, 14958, 17641, 21270, 21409]}, "edge": {"target": [], "time": []}}, "mouseout": {"state": {"target": ["0", "0", "23", "24", "32", "33", "29", "29", "27", "27", "11", "28", "24"], "time": [800, 3209, 4783, 6200, 8554, 11019, 11194, 14545, 14678, 17458, 21127, 21318, 21454]}, "edge": {"target": [], "time": []}}}, "displayed_time": "26.18", "trialTime": 28285, "trial_type": "mouselab-mdp", "trial_index": 39, "time_elapsed": 1935787, "internal_node_id": "0.0-6.0-1.0-30.0"}}, {"uniqueid": "w55809553:a44519727", "current_trial": 40, "dateTime": 1693566868049, "trialdata": {"revealed_states": [], "clicked_states": [], "num_clicks_accrued": [0, 0, 0, 0, 0, 0, 0, 0, 0, 0, 0, 0, 0], "stateRewards": ["", 2, -3, 5, 11, -79, 54, 11, -9, -78, 33, 22, -2, -1, 2, 14, 43, 34, 1, 10, 49, -65, 39, -1, 1, -1, 3, -16, -2, 11, 2, 12, 48, -65], "withholdReward": false, "trial_id": "mdp_trial_32", "block": "test", "trialIndex": 33, "score": 48, "costs": 0, "simulationMode": [null, null, null, null, null], "rewards": [-2, -1, 2, 10, 39], "path": ["0", "0", "12", "13", "14", "19", "22"], "rt": [4599, 369, 185, 31, 297], "actions": ["right", "right", "right", "down", "left"], "actionTimes": [8404, 9332, 10052, 10631, 11484], "queries": {"click": {"state": {"target": [], "time": []}, "edge": {"target": [], "time": []}}, "mouseover": {"state": {"target": ["0", "12", "13", "12"], "time": [4792, 4984, 5325, 5558]}, "edge": {"target": [], "time": []}}, "mouseout": {"state": {"target": ["23", "0", "12", "13", "12"], "time": [2079, 4941, 5258, 5476, 19986]}, "edge": {"target": [], "time": []}}}, "displayed_time": "17.83", "trialTime": 22003, "trial_type": "mouselab-mdp", "trial_index": 40, "time_elapsed": 1959440, "internal_node_id": "0.0-6.0-1.0-31.0"}}, {"uniqueid": "w55809553:a44519727", "current_trial": 41, "dateTime": 1693566887080, "trialdata": {"revealed_states": [], "clicked_states": ["32"], "num_clicks_accrued": [0, 0, 0, 0, 0, 0, 0, 0, 0, 0, 0, 0, 0], "stateRewards": ["", -2, -3, 7, -13, 60, 9, 37, -6, 37, 20, 1, 2, -2, -8, 6, -80, -31, -10, -7, 70, -65, -44, -1, 1, 7, 6, -11, 73, -85, 16, -21, 47, 34], "withholdReward": false, "trial_id": "mdp_trial_33", "block": "test", "trialIndex": 34, "score": 67.85, "costs": -2.15, "simulationMode": [null, null, null, null, null], "rewards": [-1, 1, 7, 16, 47], "path": ["0", "0", "23", "24", "25", "30", "32"], "rt": [6056, 462, 252, 847, 33], "actions": ["left", "left", "left", "down", "down"], "actionTimes": [8278, 9326, 10118, 11510, 12108], "queries": {"click": {"state": {"target": ["32"], "time": [3277]}, "edge": {"target": [], "time": []}}, "mouseover": {"state": {"target": ["30", "32", "31", "23"], "time": [2736, 2941, 4679, 7355]}, "edge": {"target": [], "time": []}}, "mouseout": {"state": {"target": ["21", "30", "33", "31", "0", "30", "32", "31"], "time": [206, 505, 555, 757, 2282, 2806, 3392, 7156]}, "edge": {"target": [], "time": []}}}, "displayed_time": "16.22", "trialTime": 17173, "trial_type": "mouselab-mdp", "trial_index": 41, "time_elapsed": 1978484, "internal_node_id": "0.0-6.0-1.0-32.0"}}, {"uniqueid": "w55809553:a44519727", "current_trial": 42, "dateTime": 1693566917186, "trialdata": {"revealed_states": [], "clicked_states": ["17"], "num_clicks_accrued": [0, 0, 0, 0, 0, 0, 0, 0, 0, 0, 0, 0, 0], "stateRewards": ["", 1, -2, 4, 7, -43, -83, -60, -5, -86, -80, 83, -1, -2, 6, 11, -15, 21, 13, 9, 29, -49, 11, -1, 4, -6, -11, 87, 40, 63, -8, -39, -11, 62], "withholdReward": false, "trial_id": "mdp_trial_34", "block": "test", "trialIndex": 35, "score": 32.85, "costs": -2.15, "simulationMode": [null, null, null, null, null], "rewards": [-1, -2, 6, 11, 21], "path": ["0", "0", "12", "13", "14", "15", "17"], "rt": [5723, 423, 102, 435, 774], "actions": ["right", "right", "right", "up", "right"], "actionTimes": [9885, 10837, 11525, 12485, 13821], "queries": {"click": {"state": {"target": ["17"], "time": [5062]}, "edge": {"target": [], "time": []}}, "mouseover": {"state": {"target": ["17", "16"], "time": [4891, 5829]}, "edge": {"target": [], "time": []}}, "mouseout": {"state": {"target": ["23", "0", "17", "16", "15", "14", "19", "22", "12", "13", "19"], "time": [2658, 4241, 5735, 19303, 19436, 19503, 19570, 24419, 24701, 24818, 28032]}, "edge": {"target": [], "time": []}}}, "displayed_time": "18.18", "trialTime": 28653, "trial_type": "mouselab-mdp", "trial_index": 42, "time_elapsed": 2008590, "internal_node_id": "0.0-6.0-1.0-33.0"}}, {"uniqueid": "w55809553:a44519727", "current_trial": 43, "dateTime": 1693566942528, "trialdata": {"revealed_states": [], "clicked_states": ["7", "10"], "num_clicks_accrued": [0, 0, 0, 0, 0, 0, 0, 0, 0, 0, 0, 0, 0], "stateRewards": ["", 2, -2, 7, -11, -76, -65, -23, 16, -58, 30, 81, 1, 2, 7, 14, 9, 55, -2, 6, 11, -15, 31, -1, -1, -3, 2, 15, 2, 46, 15, 18, 45, -34], "withholdReward": false, "trial_id": "mdp_trial_35", "block": "test", "trialIndex": 36, "score": 48.7, "costs": -4.3, "simulationMode": [null, null, null, null, null], "rewards": [2, -2, 7, 16, 30], "path": ["0", "0", "1", "2", "3", "8", "10"], "rt": [9998, 283, 32, 479, 352], "actions": ["up", "up", "up", "left", "down"], "actionTimes": [14079, 14946, 15560, 16602, 17490], "queries": {"click": {"state": {"target": ["7", "10"], "time": [5502, 8836]}, "edge": {"target": [], "time": []}}, "mouseover": {"state": {"target": ["4", "7", "2", "10", "28"], "time": [4942, 5209, 6202, 6253, 9393]}, "edge": {"target": [], "time": []}}, "mouseout": {"state": {"target": ["0", "4", "7", "2", "10", "10", "28"], "time": [4407, 5140, 5586, 6249, 8950, 9303, 12290]}, "edge": {"target": [], "time": []}}}, "displayed_time": "18.08", "trialTime": 20956, "trial_type": "mouselab-mdp", "trial_index": 43, "time_elapsed": 2033919, "internal_node_id": "0.0-6.0-1.0-34.0"}}, {"uniqueid": "w55809553:a44519727", "current_trial": 44, "dateTime": 1693566964224, "trialdata": {"revealed_states": [], "clicked_states": ["27", "10"], "num_clicks_accrued": [0, 0, 0, 0, 0, 0, 0, 0, 0, 0, 0, 0, 0], "stateRewards": ["", 1, 1, 1, 15, -76, 52, -32, 14, -57, 37, 49, 1, -4, -3, 6, 83, -76, 25, 9, 36, -1, -17, -1, 4, 4, -2, -22, -21, 58, -15, -57, 49, -24], "withholdReward": false, "trial_id": "mdp_trial_36", "block": "test", "trialIndex": 37, "score": 49.7, "costs": -4.3, "simulationMode": [null, null, null, null, null], "rewards": [1, 1, 1, 14, 37], "path": ["0", "0", "1", "2", "3", "8", "10"], "rt": [9215, 618, 199, 377, 79], "actions": ["up", "up", "up", "left", "down"], "actionTimes": [11989, 13157, 13917, 14838, 15469], "queries": {"click": {"state": {"target": ["27", "10"], "time": [3974, 7247]}, "edge": {"target": [], "time": []}}, "mouseover": {"state": {"target": ["28", "27", "10", "8", "9", "8"], "time": [3555, 3855, 6179, 8226, 8364, 10879]}, "edge": {"target": [], "time": []}}, "mouseout": {"state": {"target": ["10", "12", "12", "28", "27", "10", "8", "9", "8"], "time": [1021, 1087, 1321, 3602, 5873, 8176, 8274, 10835, 10925]}, "edge": {"target": [], "time": []}}}, "displayed_time": "16.77", "trialTime": 19741, "trial_type": "mouselab-mdp", "trial_index": 44, "time_elapsed": 2055628, "internal_node_id": "0.0-6.0-1.0-35.0"}}, {"uniqueid": "w55809553:a44519727", "current_trial": 45, "dateTime": 1693566994424, "trialdata": {"revealed_states": [], "clicked_states": ["21", "9", "5", "32"], "num_clicks_accrued": [0, 0, 0, 0, 0, 0, 0, 0, 0, 0, 0, 0, 0], "stateRewards": ["", -2, 1, -3, -16, -39, -52, 30, -7, -41, -59, 11, 2, 1, 8, 2, -11, -26, -42, -13, 87, -59, -48, -1, -1, -1, 16, -79, 31, 50, -1, -84, 34, -82], "withholdReward": false, "trial_id": "mdp_trial_37", "block": "test", "trialIndex": 38, "score": 21.4, "costs": -8.6, "simulationMode": [null, null, null, null, null], "rewards": [-1, -1, -1, -1, 34], "path": ["0", "0", "23", "24", "25", "30", "32"], "rt": [17196, 323, 262, 548, 56], "actions": ["left", "left", "left", "down", "down"], "actionTimes": [22260, 23124, 23916, 24996, 25588], "queries": {"click": {"state": {"target": ["21", "9", "5", "32"], "time": [6022, 9398, 12989, 16959]}, "edge": {"target": [], "time": []}}, "mouseover": {"state": {"target": ["21", "22", "9", "5", "24", "30", "32", "33", "30", "28"], "time": [5811, 6657, 7343, 12743, 16425, 16606, 16692, 19653, 20805, 21005]}, "edge": {"target": [], "time": []}}, "mouseout": {"state": {"target": ["0", "21", "22", "9", "5", "24", "30", "32", "33", "30", "28", "23"], "time": [3893, 6567, 6703, 11816, 16291, 16467, 16650, 19523, 20589, 20850, 21173, 28237]}, "edge": {"target": [], "time": []}}}, "displayed_time": "26.16", "trialTime": 28756, "trial_type": "mouselab-mdp", "trial_index": 45, "time_elapsed": 2085828, "internal_node_id": "0.0-6.0-1.0-36.0"}}, {"uniqueid": "w55809553:a44519727", "current_trial": 46, "dateTime": 1693567013888, "trialdata": {"revealed_states": [], "clicked_states": [], "num_clicks_accrued": [0, 0, 0, 0, 0, 0, 0, 0, 0, 0, 0, 0, 0], "stateRewards": ["", 1, -2, -3, 14, -42, -87, -37, -11, -50, 33, -44, -2, 4, -7, 13, 48, -75, -66, 12, 23, -2, 82, 1, -4, 3, 12, 51, -15, -26, -11, -52, -29, 82], "withholdReward": false, "trial_id": "mdp_trial_38", "block": "test", "trialIndex": 39, "score": -3, "costs": 0, "simulationMode": [null, null, null, null, null], "rewards": [1, -4, 3, 12, -15], "path": ["0", "0", "23", "24", "25", "26", "28"], "rt": [6456, 42, 184, 220, 344], "actions": ["left", "left", "left", "up", "right"], "actionTimes": [8475, 9075, 9811, 10579, 11483], "queries": {"click": {"state": {"target": [], "time": []}, "edge": {"target": [], "time": []}}, "mouseover": {"state": {"target": ["1", "23"], "time": [4131, 4964]}, "edge": {"target": [], "time": []}}, "mouseout": {"state": {"target": ["0", "1"], "time": [3964, 4864]}, "edge": {"target": [], "time": []}}}, "displayed_time": "16.02", "trialTime": 17883, "trial_type": "mouselab-mdp", "trial_index": 46, "time_elapsed": 2105292, "internal_node_id": "0.0-6.0-1.0-37.0"}}, {"uniqueid": "w55809553:a44519727", "current_trial": 47, "dateTime": 1693567033728, "trialdata": {"revealed_states": [], "clicked_states": ["32"], "num_clicks_accrued": [0, 0, 0, 0, 0, 0, 0, 0, 0, 0, 0, 0, 0], "stateRewards": ["", -2, -1, -5, 10, -36, -70, 68, -9, 86, 71, -10, 2, -4, 7, -7, 66, 44, -66, -13, -69, 43, 15, -2, 2, 6, -13, 62, 57, 50, -10, -69, 42, -72], "withholdReward": false, "trial_id": "mdp_trial_39", "block": "test", "trialIndex": 40, "score": 35.85, "costs": -2.15, "simulationMode": [null, null, null, null, null], "rewards": [-2, 2, 6, -10, 42], "path": ["0", "0", "23", "24", "25", "30", "32"], "rt": [6508, 439, 672, 477, 142], "actions": ["left", "left", "left", "down", "down"], "actionTimes": [8967, 9943, 11167, 12239, 12911], "queries": {"click": {"state": {"target": ["32"], "time": [4368]}, "edge": {"target": [], "time": []}}, "mouseover": {"state": {"target": ["31", "32", "23", "24", "31", "32", "30", "27", "28"], "time": [3180, 3271, 3648, 3847, 3896, 4129, 5141, 5494, 7953]}, "edge": {"target": [], "time": []}}, "mouseout": {"state": {"target": ["23", "0", "31", "32", "23", "24", "31", "32", "30", "27", "28", "23"], "time": [579, 3080, 3224, 3481, 3762, 3891, 3942, 5049, 5190, 7895, 8055, 14160]}, "edge": {"target": [], "time": []}}}, "displayed_time": "16.46", "trialTime": 18295, "trial_type": "mouselab-mdp", "trial_index": 47, "time_elapsed": 2125132, "internal_node_id": "0.0-6.0-1.0-38.0"}}, {"uniqueid": "w55809553:a44519727", "current_trial": 48, "dateTime": 1693567054239, "trialdata": {"revealed_states": [], "clicked_states": ["1", "9"], "num_clicks_accrued": [0, 0, 0, 0, 0, 0, 0, 0, 0, 0, 0, 0, 0], "stateRewards": ["", 2, -1, -1, 7, 11, -40, -22, -2, 69, 37, 8, -2, 4, -8, -12, -2, -72, -3, -12, 17, 63, 12, 1, 3, -7, 6, 25, 61, 61, -9, 28, -17, 27], "withholdReward": false, "trial_id": "mdp_trial_40", "block": "test", "trialIndex": 41, "score": 65.1, "costs": -1.9, "simulationMode": [null, null, null, null, null], "rewards": [2, -1, -1, -2, 69], "path": ["0", "0", "1", "2", "3", "8", "9"], "rt": [8451, 566, 148, 523, 617], "actions": ["up", "up", "up", "left", "up"], "actionTimes": [11278, 12398, 13110, 14158, 15302], "queries": {"click": {"state": {"target": ["1", "9"], "time": [4612, 6839]}, "edge": {"target": [], "time": []}}, "mouseover": {"state": {"target": ["23", "10", "1", "2", "3", "9", "5", "4"], "time": [3526, 3877, 4192, 5532, 6092, 6410, 8916, 10625]}, "edge": {"target": [], "time": []}}, "mouseout": {"state": {"target": ["12", "12", "0", "23", "10", "1", "2", "3", "9", "5", "4", "7", "22"], "time": [943, 1158, 1475, 3570, 3924, 5432, 5642, 6325, 8508, 10491, 16455, 16522, 16622]}, "edge": {"target": [], "time": []}}}, "displayed_time": "16.83", "trialTime": 18910, "trial_type": "mouselab-mdp", "trial_index": 48, "time_elapsed": 2145644, "internal_node_id": "0.0-6.0-1.0-39.0"}}, {"uniqueid": "w55809553:a44519727", "current_trial": 49, "dateTime": 1693567135929, "trialdata": {"rt": 81135, "response": {"Q0": "$-2 to $2", "Q1": "$-4 to $4", "Q2": "$-88 to $88", "Q3": "The cost for clicking on nodes varied between nodes.", "Q4": "Very motivated"}, "question_order": [0, 1, 2, 3, 4], "trial_id": "final_quiz_control", "trial_type": "survey-multi-choice", "trial_index": 49, "time_elapsed": 2227333, "internal_node_id": "0.0-6.0-2.0"}}, {"uniqueid": "w55809553:a44519727", "current_trial": 50, "dateTime": 1693567291044, "trialdata": {"rt": 154708, "response": {"Q0": "I INSPECTED THE LAST NODE ON EAHCH BRANCH AND IF THEY WERE HIGH ENOUGH TO OFFSET THE COST OF THE NODES, THEN THAT IS THE NODE I MOVED THE SPIDER TO.", "Q1": "SLIGHTLY, I THINK BECAUSE EACH GAME WAS DIFFERENT, IT WAS NOT EASY TO DETERMINE WHERE THE HIGH VALUE NODES ARE.", "Q2": "IT WAS RELATIVELY THE SAME THROUGHOUT THE GAME. "}, "trial_id": "self_report_control", "trial_type": "survey-text", "trial_index": 50, "time_elapsed": 2382449, "internal_node_id": "0.0-6.0-3.0"}}, {"uniqueid": "w55809553:a44519727", "current_trial": 51, "dateTime": 1693567362997, "trialdata": {"rt": 71933, "response": {"Q0": "Disagree", "Q1": "Neither disagree nor agree", "Q2": "Agree", "Q3": "Agree", "Q4": "Disagree", "Q5": "Agree", "Q6": "Disagree"}, "question_order": [0, 1, 2, 3, 4, 5, 6], "trial_id": "self_report_2", "trial_type": "survey-multi-choice", "trial_index": 51, "time_elapsed": 2454402, "internal_node_id": "0.0-6.0-4.0"}}, {"uniqueid": "w55809553:a44519727", "current_trial": 52, "dateTime": 1693567392234, "trialdata": {"rt": 29123, "response": {"gender": "male", "age": "27", "colorblind": "0", "effort": "0"}, "trial_type": "survey-html-form", "trial_index": 52, "time_elapsed": 2483639, "internal_node_id": "0.0-6.0-5.0"}}, {"uniqueid": "w55809553:a44519727", "current_trial": 53, "dateTime": 1693567430427, "trialdata": {"rt": 38169, "response": {"Q0": "NO.", "Q1": "NO", "Q2": "NO"}, "trial_type": "survey-text", "trial_index": 53, "time_elapsed": 2521832, "internal_node_id": "0.0-6.0-6.0"}}, {"uniqueid": "w55809553:a44519727", "current_trial": 54, "dateTime": 1693567471361, "trialdata": {"rt": 40831, "stimulus": "<h1>Completion Code Instructions (1/2)</h1>\n<br><br><br><br>\nYou have reached the end of the experiment! The completion code consists of two parts: (1) a code with 2 characters (2) a code with 6 characters. On this page, you will receive the second part of the code. The first part of the completion code will be on the next page.\n<br><br>\nThe second part of your completion code is: <b>EWEK22</b>\n<br><br>\nPlease note this down. Then, press 'Finish HIT' in order to find the first part of your completion code. Once the data has been saved, you will receive this code either in this window or in the original browser window where you started the experiment.\n", "response": 0, "trial_type": "html-button-response", "trial_index": 54, "time_elapsed": 2562765, "internal_node_id": "0.0-6.0-7.0"}}, {"uniqueid": "w55809553:a44519727", "current_trial": 55, "dateTime": 1693567472491, "trialdata": {"success": true, "trial_type": "fullscreen", "trial_index": 55, "time_elapsed": 2563896, "internal_node_id": "0.0-7.0"}}], "questiondata": {"params": {"CODE": "C6DMOQA6", "MIN_TIME": 14, "inspectCost": 1, "startTime": "Fri Sep 01 2023 12:41:46 GMT+0200 (South Africa Standard Time)", "bonusRate": 0.002, "variance": "1_2_4_8_44", "branching": "31123"}}, "eventdata": [{"eventtype": "initialized", "value": null, "timestamp": 1693564905483, "interval": 0}, {"eventtype": "window_resize", "value": [1024, 767], "timestamp": 1693564905483, "interval": 0}, {"eventtype": "window_resize", "value": [1280, 926], "timestamp": 1693564906029, "interval": 546}, {"eventtype": "focus", "value": "off", "timestamp": 1693564917143, "interval": 11114}, {"eventtype": "focus", "value": "on", "timestamp": 1693565089052, "interval": 171909}, {"eventtype": "window_resize", "value": [1280, 1024], "timestamp": 1693565090321, "interval": 1269}], "useragent": "Mozilla/5.0 (Windows NT 10.0; Win64; x64) AppleWebKit/537.36 (KHTML, like Gecko) Chrome/116.0.0.0 Safari/537.36", "mode": "live", "id": "w55809553:a44519727", "status": "user data saved", "Beginhit": "2023-09-01 10:41:41.853947", "Beginexp": "2023-09-01 10:44:52.678148", "Endhit": "2023-09-01 11:24:35.764124", "psiturkStatus": 3, "browser": "<redacted>", "platform": "windows", "language": "en-US"}