{"condition": 1, "counterbalance": 0, "assignmentId": "a26794076", "workerId": "w62617339", "hitId": "h36127868", "currenttrial": 56, "bonus": 0, "data": [{"uniqueid": "w62617339:a26794076", "current_trial": 0, "dateTime": 1693481203451, "trialdata": {"success": true, "trial_type": "fullscreen", "trial_index": 0, "time_elapsed": 8551, "internal_node_id": "0.0-0.0"}}, {"uniqueid": "w62617339:a26794076", "current_trial": 1, "dateTime": 1693481233958, "trialdata": {"view_history": [{"page_index": 0, "viewing_time": 30460}], "rt": 30466, "trial_id": "exp_instructions_misaligned", "trial_type": "instructions", "trial_index": 1, "time_elapsed": 39059, "internal_node_id": "0.0-1.0"}}, {"uniqueid": "w62617339:a26794076", "current_trial": 2, "dateTime": 1693481946264, "trialdata": {"view_history": [{"page_index": 0, "viewing_time": 262964}, {"page_index": 1, "viewing_time": 354104}, {"page_index": 2, "viewing_time": 49552}, {"page_index": 3, "viewing_time": 45664}], "rt": 712288, "trial_id": "mouselab_instructions_1_misaligned", "trial_type": "instructions", "trial_index": 2, "time_elapsed": 751365, "internal_node_id": "0.0-2.0-1.0"}}, {"uniqueid": "w62617339:a26794076", "current_trial": 3, "dateTime": 1693481999010, "trialdata": {"revealed_states": [], "clicked_states": ["5", "1", "2", "7", "4"], "num_clicks_accrued": [0, 0, 0, 0, 0, 0, 0, 0, 0, 0, 0, 0, 0], "stateRewards": ["", -10, 10, -10, -10, 10, -10, -10, -10, -10, -10, 10, -10, 10, 10, 10, 10, 10, 10, 10, -10, 10, 10, -10, 10, 10, -10, -10, -10, -10, 10, -10, 10, -10], "withholdReward": false, "trial_id": "practice_1", "block": "test", "trialIndex": 0, "score": -29, "costs": -2.5, "simulationMode": [null, null, null, null, null], "rewards": [-10, 10, -10, -10, -10], "path": ["0", "0", "1", "2", "3", "8", "9"], "rt": [25998, 516, 611, 1257, 726], "actions": ["up", "up", "up", "left", "up"], "actionTimes": [31914, 32983, 34176, 35939, 37206], "queries": {"click": {"state": {"target": ["5", "1", "2", "7", "4"], "time": [10743, 19480, 21597, 24476, 26062]}, "edge": {"target": [], "time": []}}, "mouseover": {"state": {"target": ["0", "3", "5", "5", "1", "2", "7", "7", "4"], "time": [7601, 9483, 9597, 10276, 19058, 21083, 23191, 24126, 25126]}, "edge": {"target": [], "time": []}}, "mouseout": {"state": {"target": ["0", "0", "3", "5", "5", "1", "2", "7", "7", "4", "17"], "time": [6338, 9367, 9516, 10179, 18858, 19656, 23120, 23925, 24664, 26254, 44258]}, "edge": {"target": [], "time": []}}}, "displayed_time": "37.73", "trialTime": 50854, "trial_type": "mouselab-mdp", "trial_index": 3, "time_elapsed": 804109, "internal_node_id": "0.0-2.0-2.0-0.0"}}, {"uniqueid": "w62617339:a26794076", "current_trial": 4, "dateTime": 1693482032159, "trialdata": {"revealed_states": [], "clicked_states": ["5", "20", "33"], "num_clicks_accrued": [0, 0, 0, 0, 0, 0, 0, 0, 0, 0, 0, 0, 0], "stateRewards": ["", -10, -10, 10, -10, 10, -10, 10, 10, 10, 10, 10, 10, -10, 10, 10, 10, -10, 10, 10, -10, 10, 10, 10, -10, -10, 10, -10, -10, -10, 10, 10, 10, 10], "withholdReward": false, "trial_id": "practice_2", "block": "test", "trialIndex": 1, "score": -8, "costs": -1.5, "simulationMode": [null, null, null, null, null], "rewards": [-10, -10, 10, -10, 10], "path": ["0", "0", "1", "2", "3", "4", "5"], "rt": [14035, 41, 650, 1268, 613], "actions": ["up", "up", "up", "right", "up"], "actionTimes": [24553, 25136, 26362, 28163, 29325], "queries": {"click": {"state": {"target": ["5", "20", "33"], "time": [13830, 16666, 20247]}, "edge": {"target": [], "time": []}}, "mouseover": {"state": {"target": ["4", "5", "6", "16", "15", "14", "20", "22", "0", "28", "25", "33"], "time": [13121, 13322, 15766, 15815, 15889, 15973, 16203, 18492, 18771, 19429, 19536, 19872]}, "edge": {"target": [], "time": []}}, "mouseout": {"state": {"target": ["0", "4", "5", "6", "16", "15", "14", "20", "22", "0", "28", "25", "33"], "time": [12987, 13203, 15748, 15803, 15842, 15939, 16061, 18463, 18539, 18822, 19460, 19706, 20417]}, "edge": {"target": [], "time": []}}}, "displayed_time": "29.90", "trialTime": 31553, "trial_type": "mouselab-mdp", "trial_index": 4, "time_elapsed": 837258, "internal_node_id": "0.0-2.0-2.0-1.0"}}, {"uniqueid": "w62617339:a26794076", "current_trial": 5, "dateTime": 1693482187921, "trialdata": {"view_history": [{"page_index": 0, "viewing_time": 139419}, {"page_index": 1, "viewing_time": 16324}], "rt": 155746, "trial_id": "mouselab_instructions_2_misaligned", "trial_type": "instructions", "trial_index": 5, "time_elapsed": 993023, "internal_node_id": "0.0-2.0-3.0"}}, {"uniqueid": "w62617339:a26794076", "current_trial": 6, "dateTime": 1693482258786, "trialdata": {"rt": 70825, "response": {"Q0": "The cost for clicking on nodes may vary between nodes.", "Q1": "The better I perform the higher my bonus will be.", "Q2": "No, the amount of cash at each node of the web may be different each time.", "Q3": "To get the highest total score.", "Q4": "Only before moving the spider.", "Q5": "3 seconds"}, "question_order": [0, 1, 2, 3, 4, 5], "correct": {"Q0": "The cost for clicking on nodes may vary between nodes.", "Q1": "The better I perform the higher my bonus will be.", "Q2": "No, the amount of cash at each node of the web may be different each time.", "Q3": "To get the highest total score.", "Q4": "Only before moving the spider.", "Q5": "3 seconds"}, "trial_id": "mouselab_quiz_misaligned", "trial_type": "survey-multi-choice", "trial_index": 6, "time_elapsed": 1063888, "internal_node_id": "0.0-2.0-4.0"}}, {"uniqueid": "w62617339:a26794076", "current_trial": 7, "dateTime": 1693482268451, "trialdata": {"rt": 9620, "response": {"Q0": "No"}, "question_order": [0], "trial_id": "repeat_check", "trial_type": "survey-multi-choice", "trial_index": 7, "time_elapsed": 1073550, "internal_node_id": "0.0-4.0-0.0"}}, {"uniqueid": "w62617339:a26794076", "current_trial": 8, "dateTime": 1693482308165, "trialdata": {"rt": 39678, "stimulus": "\n<h1> Get ready to start the game! </h1>\n\nThank you for reading the instructions. Get ready start with the 40 rounds of this game.\n<br><br>\nIf you need to take a break, feel free to take one after the end of a round, before continuing to the next one.\n<br><br>\nRemember, the more money the spider gets, the bigger your bonus will be!\n<br><br>\n<div style='text-align: center;'>Press <code>space</code> to begin.</div>\n\n<br><br>\n(If, at any point, the <code>space</code> key does not take you to the next page, click once on the text and try again.)", "response": " ", "trial_id": "mdp_ready", "trial_type": "html-keyboard-response", "trial_index": 8, "time_elapsed": 1113267, "internal_node_id": "0.0-6.0-0.0"}}, {"uniqueid": "w62617339:a26794076", "current_trial": 9, "dateTime": 1693482350478, "trialdata": {"revealed_states": [], "clicked_states": [], "num_clicks_accrued": [0, 0, 0, 0, 0, 0, 0, 0, 0, 0, 0, 0, 0], "stateRewards": ["", -1, 4, -6, -5, -22, -38, -38, -2, -56, 88, 14, -1, -1, -7, -6, 61, -60, 21, 11, 57, 31, -30, -2, -2, 6, -9, -44, -70, -44, -15, 34, 16, -78], "withholdReward": false, "trial_id": "mdp_trial_1", "block": "test", "trialIndex": 2, "score": -61, "costs": 0, "simulationMode": [null, null, null, null, null], "rewards": [-1, 4, -6, -2, -56], "path": ["0", "0", "1", "2", "3", "8", "9"], "rt": [13289, 418, 4, 923, 488], "actions": ["up", "up", "up", "left", "up"], "actionTimes": [27688, 28691, 29246, 30747, 31746], "queries": {"click": {"state": {"target": [], "time": []}, "edge": {"target": [], "time": []}}, "mouseover": {"state": {"target": ["4", "4", "1", "1", "4", "2", "8", "0", "0", "2", "10"], "time": [17940, 18481, 18701, 19138, 19224, 20533, 21498, 22405, 22732, 23868, 24770]}, "edge": {"target": [], "time": []}}, "mouseout": {"state": {"target": ["10", "1", "4", "4", "1", "1", "4", "2", "8", "0", "0", "2", "10", "5", "18"], "time": [3031, 12929, 18339, 18650, 18780, 19187, 20381, 21426, 22348, 22449, 23799, 24757, 24817, 32827, 35464]}, "edge": {"target": [], "time": []}}}, "displayed_time": "32.29", "trialTime": 40810, "trial_type": "mouselab-mdp", "trial_index": 9, "time_elapsed": 1155575, "internal_node_id": "0.0-6.0-1.0-0.0"}}, {"uniqueid": "w62617339:a26794076", "current_trial": 10, "dateTime": 1693482381965, "trialdata": {"revealed_states": [], "clicked_states": [], "num_clicks_accrued": [0, 0, 0, 0, 0, 0, 0, 0, 0, 0, 0, 0, 0], "stateRewards": ["", -1, -4, -3, 1, -45, -67, -24, 14, 32, 22, 22, -1, 1, -5, -7, 72, 84, -79, -5, 19, -40, -2, -1, -2, 8, -3, 84, -25, -28, 11, 64, -66, 77], "withholdReward": false, "trial_id": "mdp_trial_2", "block": "test", "trialIndex": 3, "score": 28, "costs": 0, "simulationMode": [null, null, null, null, null], "rewards": [-1, -4, -3, 14, 22], "path": ["0", "0", "1", "2", "3", "8", "11"], "rt": [13140, 299, 3490, 820, 76], "actions": ["up", "up", "up", "left", "left"], "actionTimes": [19328, 20219, 24255, 25654, 26261], "queries": {"click": {"state": {"target": [], "time": []}, "edge": {"target": [], "time": []}}, "mouseover": {"state": {"target": ["2", "2", "18", "23", "32", "30", "25"], "time": [8741, 9122, 12855, 14888, 17925, 17983, 18042]}, "edge": {"target": [], "time": []}}, "mouseout": {"state": {"target": ["29", "25", "23", "0", "2", "2", "18", "23", "32", "30", "25", "11"], "time": [3856, 4192, 4354, 4669, 8863, 12407, 12910, 15224, 17965, 18011, 18323, 28455]}, "edge": {"target": [], "time": []}}}, "displayed_time": "26.83", "trialTime": 29857, "trial_type": "mouselab-mdp", "trial_index": 10, "time_elapsed": 1187064, "internal_node_id": "0.0-6.0-1.0-1.0"}}, {"uniqueid": "w62617339:a26794076", "current_trial": 11, "dateTime": 1693482403980, "trialdata": {"revealed_states": [], "clicked_states": ["3"], "num_clicks_accrued": [0, 0, 0, 0, 0, 0, 0, 0, 0, 0, 0, 0, 0], "stateRewards": ["", 1, -1, -7, -7, -22, 15, -13, 13, 26, -32, 38, -1, 1, -7, -4, 16, -62, 86, 12, -54, 56, 64, -2, -1, 6, 14, -57, 37, 62, -6, -25, 50, -70], "withholdReward": false, "trial_id": "mdp_trial_3", "block": "test", "trialIndex": 4, "score": 0.05000000000000071, "costs": -0.95, "simulationMode": [null, null, null, null, null], "rewards": [1, -1, -7, -7, 15], "path": ["0", "0", "1", "2", "3", "4", "6"], "rt": [8282, 256, 1622, 1589, 705], "actions": ["up", "up", "up", "right", "right"], "actionTimes": [10742, 11525, 13687, 15824, 17054], "queries": {"click": {"state": {"target": ["3"], "time": [3892]}, "edge": {"target": [], "time": []}}, "mouseover": {"state": {"target": ["1", "3", "2", "1", "27"], "time": [3284, 3393, 5490, 5634, 6799]}, "edge": {"target": [], "time": []}}, "mouseout": {"state": {"target": ["8", "3", "12", "0", "1", "3", "2", "1", "27"], "time": [77, 624, 741, 1204, 3316, 5433, 5577, 5891, 8124]}, "edge": {"target": [], "time": []}}}, "displayed_time": "17.58", "trialTime": 20196, "trial_type": "mouselab-mdp", "trial_index": 11, "time_elapsed": 1209079, "internal_node_id": "0.0-6.0-1.0-2.0"}}, {"uniqueid": "w62617339:a26794076", "current_trial": 12, "dateTime": 1693482425679, "trialdata": {"revealed_states": [], "clicked_states": ["20"], "num_clicks_accrued": [0, 0, 0, 0, 0, 0, 0, 0, 0, 0, 0, 0, 0], "stateRewards": ["", 1, -1, 4, 5, -32, 18, 20, 6, -88, -74, 9, -2, 1, -2, -14, 34, -77, -38, -1, 80, -36, 73, 2, 3, -8, 10, -48, -73, -71, -11, -22, 20, 54], "withholdReward": false, "trial_id": "mdp_trial_4", "block": "test", "trialIndex": 5, "score": 73.85, "costs": -2.15, "simulationMode": [null, null, null, null, null], "rewards": [-2, 1, -2, -1, 80], "path": ["0", "0", "12", "13", "14", "19", "20"], "rt": [7835, 133, 184, 1273, 598], "actions": ["right", "right", "right", "down", "right"], "actionTimes": [10932, 11599, 12318, 14138, 15285], "queries": {"click": {"state": {"target": ["20"], "time": [5435]}, "edge": {"target": [], "time": []}}, "mouseover": {"state": {"target": ["12", "20", "13", "13", "2", "8", "9"], "time": [4784, 5060, 6769, 6930, 7100, 7159, 7320]}, "edge": {"target": [], "time": []}}, "mouseout": {"state": {"target": ["23", "0", "12", "20", "13", "13", "2", "8", "9", "14", "27"], "time": [1523, 1774, 4846, 5618, 6815, 7062, 7148, 7258, 9800, 19015, 19426]}, "edge": {"target": [], "time": []}}}, "displayed_time": "17.09", "trialTime": 20231, "trial_type": "mouselab-mdp", "trial_index": 12, "time_elapsed": 1230778, "internal_node_id": "0.0-6.0-1.0-3.0"}}, {"uniqueid": "w62617339:a26794076", "current_trial": 13, "dateTime": 1693482449607, "trialdata": {"revealed_states": [], "clicked_states": ["33"], "num_clicks_accrued": [0, 0, 0, 0, 0, 0, 0, 0, 0, 0, 0, 0, 0], "stateRewards": ["", -1, 3, 1, -7, 56, 76, 57, 3, 11, -9, 14, 1, -2, 2, 8, -77, -3, 79, -5, 88, 24, -66, -2, -1, 7, -7, -30, 14, -76, 11, -36, 28, -6], "withholdReward": false, "trial_id": "mdp_trial_5", "block": "test", "trialIndex": 6, "score": -70.15, "costs": -2.15, "simulationMode": [null, null, null, null, null], "rewards": [1, -2, 2, 8, -77], "path": ["0", "0", "12", "13", "14", "15", "16"], "rt": [7628, 427, 955, 644, 7], "actions": ["right", "right", "right", "up", "up"], "actionTimes": [12211, 13188, 14665, 15838, 16370], "queries": {"click": {"state": {"target": ["33"], "time": [6187]}, "edge": {"target": [], "time": []}}, "mouseover": {"state": {"target": ["32", "33"], "time": [5608, 5761]}, "edge": {"target": [], "time": []}}, "mouseout": {"state": {"target": ["9", "0", "32", "33"], "time": [467, 5333, 5692, 7988]}, "edge": {"target": [], "time": []}}}, "displayed_time": "18.60", "trialTime": 22185, "trial_type": "mouselab-mdp", "trial_index": 13, "time_elapsed": 1254707, "internal_node_id": "0.0-6.0-1.0-4.0"}}, {"uniqueid": "w62617339:a26794076", "current_trial": 14, "dateTime": 1693482477446, "trialdata": {"revealed_states": [], "clicked_states": ["27", "5"], "num_clicks_accrued": [0, 0, 0, 0, 0, 0, 0, 0, 0, 0, 0, 0, 0], "stateRewards": ["", 2, 4, -3, 16, -58, 30, -35, 11, -60, 47, 27, -2, -1, -7, -16, 23, -70, 68, -10, -65, -43, -34, -2, 1, 7, 9, -63, 34, -31, -8, -12, -86, 59], "withholdReward": false, "trial_id": "mdp_trial_6", "block": "test", "trialIndex": 7, "score": -67.3, "costs": -4.3, "simulationMode": [null, null, null, null, null], "rewards": [-2, -1, -7, -10, -43], "path": ["0", "0", "12", "13", "14", "19", "21"], "rt": [13247, 834, 206, 967, 133], "actions": ["right", "right", "right", "down", "down"], "actionTimes": [18674, 19968, 20690, 22208, 22867], "queries": {"click": {"state": {"target": ["27", "5"], "time": [7083, 12829]}, "edge": {"target": [], "time": []}}, "mouseover": {"state": {"target": ["27", "1", "12", "12", "18", "2", "6", "5", "3", "3", "12"], "time": [6759, 8396, 8453, 9845, 10444, 10794, 12091, 12393, 14577, 16047, 17502]}, "edge": {"target": [], "time": []}}, "mouseout": {"state": {"target": ["15", "0", "27", "1", "12", "12", "18", "2", "6", "5", "5", "3", "3", "12"], "time": [1709, 3663, 8351, 8441, 8485, 9895, 10650, 10996, 12144, 13013, 14482, 14633, 16100, 17534]}, "edge": {"target": [], "time": []}}}, "displayed_time": "23.42", "trialTime": 26087, "trial_type": "mouselab-mdp", "trial_index": 14, "time_elapsed": 1282546, "internal_node_id": "0.0-6.0-1.0-5.0"}}, {"uniqueid": "w62617339:a26794076", "current_trial": 15, "dateTime": 1693482503197, "trialdata": {"revealed_states": [], "clicked_states": ["17", "29"], "num_clicks_accrued": [0, 0, 0, 0, 0, 0, 0, 0, 0, 0, 0, 0, 0], "stateRewards": ["", -2, 2, -5, 1, 42, -63, -58, -6, 2, 16, 81, -2, 4, 7, -10, 33, 3, -33, -2, -52, -84, -27, 2, -3, -3, 15, -74, -14, -5, -5, -84, 79, -31], "withholdReward": false, "trial_id": "mdp_trial_7", "block": "test", "trialIndex": 8, "score": -13.3, "costs": -4.3, "simulationMode": [null, null, null, null, null], "rewards": [-2, 2, -5, -6, 2], "path": ["0", "0", "1", "2", "3", "8", "9"], "rt": [10365, 67, 506, 742, 562], "actions": ["up", "up", "up", "left", "up"], "actionTimes": [14842, 15435, 16489, 17807, 18914], "queries": {"click": {"state": {"target": ["17", "29"], "time": [6155, 9938]}, "edge": {"target": [], "time": []}}, "mouseover": {"state": {"target": ["12", "17", "17", "28", "26", "29"], "time": [5184, 5496, 5726, 7697, 7790, 8310]}, "edge": {"target": [], "time": []}}, "mouseout": {"state": {"target": ["20", "0", "0", "12", "17", "17", "28", "26", "29", "4", "6", "14", "12"], "time": [2640, 2873, 5152, 5232, 5593, 7418, 7744, 8115, 13917, 20324, 20737, 22629, 22984]}, "edge": {"target": [], "time": []}}}, "displayed_time": "19.49", "trialTime": 23953, "trial_type": "mouselab-mdp", "trial_index": 15, "time_elapsed": 1308295, "internal_node_id": "0.0-6.0-1.0-6.0"}}, {"uniqueid": "w62617339:a26794076", "current_trial": 16, "dateTime": 1693482525643, "trialdata": {"revealed_states": [], "clicked_states": ["14", "33"], "num_clicks_accrued": [0, 0, 0, 0, 0, 0, 0, 0, 0, 0, 0, 0, 0], "stateRewards": ["", 1, 1, -5, 8, -6, 45, 16, -6, -7, -22, -38, -1, -4, 8, -11, -16, 21, -45, -15, -59, -32, 42, -1, 3, 6, 11, -7, 34, -27, -8, 85, 43, -9], "withholdReward": false, "trial_id": "mdp_trial_8", "block": "test", "trialIndex": 9, "score": -47.1, "costs": -3.0999999999999996, "simulationMode": [null, null, null, null, null], "rewards": [-1, -4, 8, -15, -32], "path": ["0", "0", "12", "13", "14", "19", "21"], "rt": [8750, 142, 449, 1614, 517], "actions": ["right", "right", "right", "down", "down"], "actionTimes": [11690, 12370, 13363, 15511, 16567], "queries": {"click": {"state": {"target": ["14", "33"], "time": [4278, 6293]}, "edge": {"target": [], "time": []}}, "mouseover": {"state": {"target": ["12", "14", "30", "30", "33"], "time": [3526, 3880, 5129, 5387, 5975]}, "edge": {"target": [], "time": []}}, "mouseout": {"state": {"target": ["28", "23", "0", "12", "14", "30", "30", "33", "28"], "time": [1196, 1265, 1454, 3562, 5047, 5174, 5806, 10249, 19899]}, "edge": {"target": [], "time": []}}}, "displayed_time": "17.11", "trialTime": 20683, "trial_type": "mouselab-mdp", "trial_index": 16, "time_elapsed": 1330743, "internal_node_id": "0.0-6.0-1.0-7.0"}}, {"uniqueid": "w62617339:a26794076", "current_trial": 17, "dateTime": 1693482550734, "trialdata": {"revealed_states": [], "clicked_states": ["5", "3"], "num_clicks_accrued": [0, 0, 0, 0, 0, 0, 0, 0, 0, 0, 0, 0, 0], "stateRewards": ["", -2, 2, -2, -7, -50, -62, -45, 7, 36, -24, -72, -1, -1, 8, -1, -67, 20, -52, 2, 35, -50, 80, -1, 1, 6, -6, -70, 6, 88, 8, -47, 74, -19], "withholdReward": false, "trial_id": "mdp_trial_9", "block": "test", "trialIndex": 10, "score": -65.1, "costs": -3.0999999999999996, "simulationMode": [null, null, null, null, null], "rewards": [-1, -1, 8, -1, -67], "path": ["0", "0", "12", "13", "14", "15", "16"], "rt": [10494, 60, 503, 932, 79], "actions": ["right", "right", "right", "up", "up"], "actionTimes": [15376, 15980, 17055, 18520, 19134], "queries": {"click": {"state": {"target": ["5", "3"], "time": [6431, 9562]}, "edge": {"target": [], "time": []}}, "mouseover": {"state": {"target": ["1", "5", "8", "8", "10", "3", "2", "1", "1", "13", "13"], "time": [5555, 5939, 7606, 7950, 8112, 8329, 10664, 10749, 13352, 13611, 13946]}, "edge": {"target": [], "time": []}}, "mouseout": {"state": {"target": ["1", "5", "8", "8", "10", "3", "2", "1", "1", "13", "13", "22"], "time": [5612, 7459, 7688, 8067, 8161, 9752, 10713, 10792, 13428, 13646, 14568, 22069]}, "edge": {"target": [], "time": []}}}, "displayed_time": "19.70", "trialTime": 23147, "trial_type": "mouselab-mdp", "trial_index": 17, "time_elapsed": 1355834, "internal_node_id": "0.0-6.0-1.0-8.0"}}, {"uniqueid": "w62617339:a26794076", "current_trial": 18, "dateTime": 1693482584512, "trialdata": {"revealed_states": [], "clicked_states": ["17", "29", "9"], "num_clicks_accrued": [0, 0, 0, 0, 0, 0, 0, 0, 0, 0, 0, 0, 0], "stateRewards": ["", 2, 3, -6, -5, -3, 55, 40, 11, 61, 11, 51, 2, -4, -6, 9, -25, 29, -15, -6, 7, -77, -2, -2, -4, 1, 14, -43, -1, 56, -12, -54, 41, -74], "withholdReward": false, "trial_id": "mdp_trial_10", "block": "test", "trialIndex": 11, "score": 64.55, "costs": -6.449999999999999, "simulationMode": [null, null, null, null, null], "rewards": [2, 3, -6, 11, 61], "path": ["0", "0", "1", "2", "3", "8", "9"], "rt": [16176, 588, 125, 749, 706], "actions": ["up", "up", "up", "left", "up"], "actionTimes": [21571, 22772, 23426, 24698, 25958], "queries": {"click": {"state": {"target": ["17", "29", "9"], "time": [7275, 12468, 15709]}, "edge": {"target": [], "time": []}}, "mouseover": {"state": {"target": ["14", "17", "3", "9", "11", "27", "29", "9", "2", "10"], "time": [6511, 6792, 11165, 11425, 11725, 11906, 12025, 15325, 20277, 20367]}, "edge": {"target": [], "time": []}}, "mouseout": {"state": {"target": ["4", "0", "14", "17", "3", "9", "11", "27", "29", "9", "2", "10", "15"], "time": [1289, 6405, 6590, 11089, 11208, 11658, 11760, 11943, 14977, 19808, 20355, 20399, 29597]}, "edge": {"target": [], "time": []}}}, "displayed_time": "26.48", "trialTime": 31820, "trial_type": "mouselab-mdp", "trial_index": 18, "time_elapsed": 1389607, "internal_node_id": "0.0-6.0-1.0-9.0"}}, {"uniqueid": "w62617339:a26794076", "current_trial": 19, "dateTime": 1693482620457, "trialdata": {"revealed_states": [], "clicked_states": ["5", "25", "19", "2"], "num_clicks_accrued": [0, 0, 0, 0, 0, 0, 0, 0, 0, 0, 0, 0, 0], "stateRewards": ["", 1, 1, -6, -2, 7, 77, 3, 16, -16, 66, 31, -1, 3, -8, -6, 33, -50, -48, 7, -60, -66, 36, 2, -3, 3, -7, -12, -61, -79, -4, 8, 74, -70], "withholdReward": false, "trial_id": "mdp_trial_11", "block": "test", "trialIndex": 12, "score": 16, "costs": -4.999999999999999, "simulationMode": [null, null, null, null, null], "rewards": [-1, 3, -8, -6, 33], "path": ["0", "0", "12", "13", "14", "15", "16"], "rt": [16101, 25, 154, 3319, 2851], "actions": ["right", "right", "right", "up", "up"], "actionTimes": [21333, 21889, 22602, 26435, 29900], "queries": {"click": {"state": {"target": ["5", "25", "19", "2"], "time": [6860, 11241, 13122, 15215]}, "edge": {"target": [], "time": []}}, "mouseover": {"state": {"target": ["4", "5", "4", "28", "25", "19", "22", "2", "7", "18", "18", "15"], "time": [6198, 6283, 8347, 10607, 10723, 12708, 14524, 14841, 17089, 17207, 17849, 17920]}, "edge": {"target": [], "time": []}}, "mouseout": {"state": {"target": ["12", "0", "4", "5", "4", "28", "25", "19", "22", "2", "7", "18", "18", "15"], "time": [3020, 3491, 6273, 8307, 10449, 10646, 12518, 14510, 14592, 15391, 17156, 17292, 17907, 19458]}, "edge": {"target": [], "time": []}}}, "displayed_time": "30.41", "trialTime": 33952, "trial_type": "mouselab-mdp", "trial_index": 19, "time_elapsed": 1425554, "internal_node_id": "0.0-6.0-1.0-10.0"}}, {"uniqueid": "w62617339:a26794076", "current_trial": 20, "dateTime": 1693482658112, "trialdata": {"revealed_states": [], "clicked_states": ["3", "16", "24"], "num_clicks_accrued": [0, 0, 0, 0, 0, 0, 0, 0, 0, 0, 0, 0, 0], "stateRewards": ["", -2, 2, -4, -4, -59, 88, 62, -3, 69, -15, -34, 1, -2, -5, 7, -54, -20, 78, -16, -74, -53, -21, 2, -4, 2, 13, -8, -44, 26, 9, 72, 4, 17], "withholdReward": false, "trial_id": "mdp_trial_12", "block": "test", "trialIndex": 13, "score": 9.55, "costs": -3.4499999999999997, "simulationMode": [null, null, null, null, null], "rewards": [2, -4, 2, 9, 4], "path": ["0", "0", "23", "24", "25", "30", "32"], "rt": [16742, 91, 508, 1417, 7], "actions": ["left", "left", "left", "down", "down"], "actionTimes": [26970, 27604, 28671, 30616, 31155], "queries": {"click": {"state": {"target": ["3", "16", "24"], "time": [12489, 13978, 17107]}, "edge": {"target": [], "time": []}}, "mouseover": {"state": {"target": ["0", "1", "3", "16", "1", "24", "28", "11", "27"], "time": [10275, 11728, 11804, 13607, 15046, 16707, 19311, 19707, 23123]}, "edge": {"target": [], "time": []}}, "mouseout": {"state": {"target": ["0", "1", "3", "16", "1", "24", "28", "11", "27"], "time": [10391, 11791, 13466, 14880, 15241, 19297, 19367, 23039, 23204]}, "edge": {"target": [], "time": []}}}, "displayed_time": "31.70", "trialTime": 35828, "trial_type": "mouselab-mdp", "trial_index": 20, "time_elapsed": 1463212, "internal_node_id": "0.0-6.0-1.0-11.0"}}, {"uniqueid": "w62617339:a26794076", "current_trial": 21, "dateTime": 1693482704667, "trialdata": {"revealed_states": [], "clicked_states": ["5", "15", "18", "30", "29", "8", "21"], "num_clicks_accrued": [0, 0, 0, 0, 0, 0, 0, 0, 0, 0, 0, 0, 0], "stateRewards": ["", 2, 3, 6, -5, -74, -53, 17, -12, 46, 44, 18, -2, 4, 1, -8, 22, -23, -49, 9, -45, 55, 81, 1, -1, -7, -16, -83, -71, -45, 2, 51, 82, 61], "withholdReward": false, "trial_id": "mdp_trial_13", "block": "test", "trialIndex": 14, "score": 53.75, "costs": -13.25, "simulationMode": [null, null, null, null, null], "rewards": [-2, 4, 1, 9, 55], "path": ["0", "0", "12", "13", "14", "19", "21"], "rt": [28024, 7, 661, 1071, 187], "actions": ["right", "right", "right", "down", "down"], "actionTimes": [36443, 37004, 38204, 39780, 40514], "queries": {"click": {"state": {"target": ["5", "15", "18", "30", "29", "8", "21"], "time": [9920, 14275, 19717, 22557, 25078, 28012, 30766]}, "edge": {"target": [], "time": []}}, "mouseover": {"state": {"target": ["7", "4", "5", "15", "18", "30", "25", "29", "8", "2", "19", "21", "1"], "time": [9237, 9370, 9522, 11107, 19689, 19787, 23495, 23787, 27574, 30018, 30210, 30418, 34185]}, "edge": {"target": [], "time": []}}, "mouseout": {"state": {"target": ["0", "0", "7", "4", "5", "15", "18", "30", "25", "29", "8", "2", "19", "21", "1"], "time": [6601, 9179, 9288, 9487, 10679, 19679, 19776, 23447, 23751, 26375, 30004, 30059, 30259, 30937, 34220]}, "edge": {"target": [], "time": []}}}, "displayed_time": "41.05", "trialTime": 44756, "trial_type": "mouselab-mdp", "trial_index": 21, "time_elapsed": 1509768, "internal_node_id": "0.0-6.0-1.0-12.0"}}, {"uniqueid": "w62617339:a26794076", "current_trial": 22, "dateTime": 1693482739391, "trialdata": {"revealed_states": [], "clicked_states": ["5", "30", "19"], "num_clicks_accrued": [0, 0, 0, 0, 0, 0, 0, 0, 0, 0, 0, 0, 0], "stateRewards": ["", -1, -3, -3, 1, -38, 2, -53, -2, -1, -81, 70, -1, 1, -5, -9, 46, 15, 35, -1, -22, 38, 59, -2, 4, -8, 13, 1, -83, -43, 4, 76, 13, 48], "withholdReward": false, "trial_id": "mdp_trial_14", "block": "test", "trialIndex": 15, "score": -15.25, "costs": -5.25, "simulationMode": [null, null, null, null, null], "rewards": [-1, -3, -3, -2, -1], "path": ["0", "0", "1", "2", "3", "8", "9"], "rt": [17397, 177, 518, 550, 1384], "actions": ["up", "up", "up", "left", "up"], "actionTimes": [24642, 25357, 26429, 27512, 29420], "queries": {"click": {"state": {"target": ["5", "30", "19"], "time": [8805, 14248, 16923]}, "edge": {"target": [], "time": []}}, "mouseover": {"state": {"target": ["5", "10", "25", "30", "31", "19", "13", "18", "2", "9", "18", "13", "1", "10", "11"], "time": [8349, 10753, 13272, 13466, 15687, 16617, 18328, 18429, 18782, 19147, 22366, 23016, 23332, 23424, 23533]}, "edge": {"target": [], "time": []}}, "mouseout": {"state": {"target": ["21", "0", "5", "5", "10", "25", "30", "31", "19", "13", "18", "2", "9", "18", "13", "1", "10", "11", "23"], "time": [5045, 8066, 9015, 9806, 12985, 13350, 14410, 15724, 18082, 18415, 18466, 18817, 22297, 22607, 23050, 23388, 23476, 23565, 32095]}, "edge": {"target": [], "time": []}}}, "displayed_time": "29.96", "trialTime": 32842, "trial_type": "mouselab-mdp", "trial_index": 22, "time_elapsed": 1544491, "internal_node_id": "0.0-6.0-1.0-13.0"}}, {"uniqueid": "w62617339:a26794076", "current_trial": 23, "dateTime": 1693482767297, "trialdata": {"revealed_states": [], "clicked_states": ["4", "28", "33"], "num_clicks_accrued": [0, 0, 0, 0, 0, 0, 0, 0, 0, 0, 0, 0, 0], "stateRewards": ["", -1, 2, 6, 11, 21, -21, -21, -6, 48, -71, 88, -1, -3, 3, 7, 64, 2, 9, -4, 37, -67, 72, 2, 2, -8, -8, -10, 71, -40, -3, 73, 80, 47], "withholdReward": false, "trial_id": "mdp_trial_15", "block": "test", "trialIndex": 16, "score": 53.15, "costs": -5.85, "simulationMode": [null, null, null, null, null], "rewards": [2, 2, -8, -8, 71], "path": ["0", "0", "23", "24", "25", "26", "28"], "rt": [12825, 136, 70, 1217, 630], "actions": ["left", "left", "left", "up", "right"], "actionTimes": [17011, 17698, 18297, 20063, 21232], "queries": {"click": {"state": {"target": ["4", "28", "33"], "time": [5865, 7872, 11248]}, "edge": {"target": [], "time": []}}, "mouseover": {"state": {"target": ["4", "10", "28", "24", "30", "33", "32", "24"], "time": [5419, 6613, 7481, 8696, 9045, 9372, 14206, 15506]}, "edge": {"target": [], "time": []}}, "mouseout": {"state": {"target": ["23", "0", "4", "10", "28", "24", "30", "33", "32", "24"], "time": [2753, 5033, 6041, 6663, 8683, 8757, 9131, 13957, 14974, 15588]}, "edge": {"target": [], "time": []}}}, "displayed_time": "21.77", "trialTime": 25805, "trial_type": "mouselab-mdp", "trial_index": 23, "time_elapsed": 1572397, "internal_node_id": "0.0-6.0-1.0-14.0"}}, {"uniqueid": "w62617339:a26794076", "current_trial": 24, "dateTime": 1693482792625, "trialdata": {"revealed_states": [], "clicked_states": ["9"], "num_clicks_accrued": [0, 0, 0, 0, 0, 0, 0, 0, 0, 0, 0, 0, 0], "stateRewards": ["", -2, 4, -3, -13, 63, -36, 62, 11, 78, 34, -51, 2, -2, 8, -6, -40, -18, 31, 9, 64, 39, 79, 1, 4, -4, 15, -12, 76, 73, -10, -77, 86, -4], "withholdReward": false, "trial_id": "mdp_trial_16", "block": "test", "trialIndex": 17, "score": 85.85, "costs": -2.15, "simulationMode": [null, null, null, null, null], "rewards": [-2, 4, -3, 11, 78], "path": ["0", "0", "1", "2", "3", "8", "9"], "rt": [9350, 65, 216, 1224, 470], "actions": ["up", "up", "up", "left", "up"], "actionTimes": [13417, 13994, 14784, 16568, 17572], "queries": {"click": {"state": {"target": ["9"], "time": [6885]}, "edge": {"target": [], "time": []}}, "mouseover": {"state": {"target": ["2", "9", "9", "3", "15", "10"], "time": [6245, 6319, 6545, 8045, 8178, 12281]}, "edge": {"target": [], "time": []}}, "mouseout": {"state": {"target": ["0", "2", "9", "9", "9", "3", "15", "10", "0", "26", "29"], "time": [2634, 6307, 6453, 7091, 8033, 8089, 11583, 12329, 22228, 22253, 22567]}, "edge": {"target": [], "time": []}}}, "displayed_time": "18.14", "trialTime": 23168, "trial_type": "mouselab-mdp", "trial_index": 24, "time_elapsed": 1597725, "internal_node_id": "0.0-6.0-1.0-15.0"}}, {"uniqueid": "w62617339:a26794076", "current_trial": 25, "dateTime": 1693482823029, "trialdata": {"revealed_states": [], "clicked_states": ["17", "11"], "num_clicks_accrued": [0, 0, 0, 0, 0, 0, 0, 0, 0, 0, 0, 0, 0], "stateRewards": ["", -2, -4, -2, -13, -15, 87, -19, -6, -80, 30, 12, 1, 1, -8, 2, 55, 56, 15, 11, -68, -7, 55, -2, 3, -3, -3, 48, 62, 4, 1, -3, 69, -33], "withholdReward": false, "trial_id": "mdp_trial_17", "block": "test", "trialIndex": 18, "score": 47.7, "costs": -4.3, "simulationMode": [null, null, null, null, null], "rewards": [1, 1, -8, 2, 56], "path": ["0", "0", "12", "13", "14", "15", "17"], "rt": [13591, 49, 12, 1120, 656], "actions": ["right", "right", "right", "up", "right"], "actionTimes": [18706, 19303, 19938, 21604, 22808], "queries": {"click": {"state": {"target": ["17", "11"], "time": [6500, 10518]}, "edge": {"target": [], "time": []}}, "mouseover": {"state": {"target": ["12", "17", "13", "10", "8", "11", "29"], "time": [5799, 6021, 7695, 8366, 8511, 8599, 16036]}, "edge": {"target": [], "time": []}}, "mouseout": {"state": {"target": ["10", "1", "0", "12", "17", "13", "10", "8", "11", "11", "29", "9"], "time": [1458, 2007, 5785, 5845, 7422, 7736, 8420, 8556, 10702, 13051, 17606, 25601]}, "edge": {"target": [], "time": []}}}, "displayed_time": "23.33", "trialTime": 28314, "trial_type": "mouselab-mdp", "trial_index": 25, "time_elapsed": 1628129, "internal_node_id": "0.0-6.0-1.0-16.0"}}, {"uniqueid": "w62617339:a26794076", "current_trial": 26, "dateTime": 1693482861771, "trialdata": {"revealed_states": [], "clicked_states": ["9", "15", "25", "32", "4", "8", "14"], "num_clicks_accrued": [0, 0, 0, 0, 0, 0, 0, 0, 0, 0, 0, 0, 0], "stateRewards": ["", -1, -4, -1, -11, 43, 69, 39, 4, 17, -20, -82, -2, -1, 4, 8, -79, 24, -79, 11, 36, 64, 41, 2, 4, -1, 11, -79, -47, 75, -3, 63, -36, -19], "withholdReward": false, "trial_id": "mdp_trial_18", "block": "test", "trialIndex": 19, "score": 22.15, "costs": -10.850000000000001, "simulationMode": [null, null, null, null, null], "rewards": [-2, -1, 4, 8, 24], "path": ["0", "0", "12", "13", "14", "15", "17"], "rt": [22335, 65, 440, 1653, 921], "actions": ["right", "right", "right", "up", "right"], "actionTimes": [26793, 27420, 28409, 30677, 32105], "queries": {"click": {"state": {"target": ["9", "15", "25", "32", "4", "8", "14"], "time": [6092, 9103, 11422, 13162, 17807, 20054, 23008]}, "edge": {"target": [], "time": []}}, "mouseover": {"state": {"target": ["8", "9", "3", "4", "6", "15", "25", "32", "33", "4", "4", "3", "8", "15", "14", "15", "18", "7"], "time": [5413, 5766, 6945, 7008, 7282, 7868, 10512, 12713, 14399, 17140, 17525, 19261, 19680, 21622, 22612, 24345, 24683, 24734]}, "edge": {"target": [], "time": []}}, "mouseout": {"state": {"target": ["0", "8", "9", "3", "4", "6", "15", "25", "32", "33", "4", "4", "3", "8", "15", "14", "15", "18", "7", "12"], "time": [5339, 5612, 6888, 6995, 7048, 7370, 10015, 12547, 14347, 17025, 17386, 19198, 19572, 21085, 22542, 24194, 24668, 24725, 25152, 35778]}, "edge": {"target": [], "time": []}}}, "displayed_time": "32.65", "trialTime": 36560, "trial_type": "mouselab-mdp", "trial_index": 26, "time_elapsed": 1666871, "internal_node_id": "0.0-6.0-1.0-17.0"}}, {"uniqueid": "w62617339:a26794076", "current_trial": 27, "dateTime": 1693482902740, "trialdata": {"revealed_states": [], "clicked_states": ["4", "15", "25", "11", "21", "17", "3"], "num_clicks_accrued": [0, 0, 0, 0, 0, 0, 0, 0, 0, 0, 0, 0, 0], "stateRewards": ["", 2, 4, 4, -8, -36, -33, 38, 16, -51, 57, 57, 1, 3, 4, -6, 45, 68, 87, 1, 63, 24, -55, -2, 2, -6, -13, -63, -50, 8, 2, 80, 6, 60], "withholdReward": false, "trial_id": "mdp_trial_19", "block": "test", "trialIndex": 20, "score": 58.55, "costs": -11.45, "simulationMode": [null, null, null, null, null], "rewards": [1, 3, 4, -6, 68], "path": ["0", "0", "12", "13", "14", "15", "17"], "rt": [24750, 85, 82, 1245, 809], "actions": ["right", "right", "right", "up", "right"], "actionTimes": [29410, 30046, 30725, 32541, 33886], "queries": {"click": {"state": {"target": ["4", "15", "25", "11", "21", "17", "3"], "time": [6365, 8017, 9694, 11098, 15732, 19314, 24664]}, "edge": {"target": [], "time": []}}, "mouseover": {"state": {"target": ["1", "4", "4", "18", "15", "25", "11", "11", "13", "22", "21", "19", "17", "14", "13", "12", "13", "12", "2", "3", "3", "12"], "time": [5490, 5566, 5937, 7322, 7603, 9361, 10465, 10671, 12164, 12296, 12881, 16559, 16944, 22452, 22993, 23184, 23302, 23744, 23971, 24044, 24286, 26235]}, "edge": {"target": [], "time": []}}, "mouseout": {"state": {"target": ["12", "1", "4", "4", "18", "15", "25", "11", "11", "13", "22", "21", "19", "17", "14", "13", "12", "13", "12", "2", "3", "3", "12", "9"], "time": [2784, 5526, 5617, 7194, 7440, 8872, 10421, 10510, 11766, 12211, 12350, 15928, 16603, 22189, 22510, 23052, 23222, 23689, 23892, 24009, 24087, 25943, 26519, 35336]}, "edge": {"target": [], "time": []}}}, "displayed_time": "34.42", "trialTime": 38658, "trial_type": "mouselab-mdp", "trial_index": 27, "time_elapsed": 1707839, "internal_node_id": "0.0-6.0-1.0-18.0"}}, {"uniqueid": "w62617339:a26794076", "current_trial": 28, "dateTime": 1693482948812, "trialdata": {"revealed_states": [], "clicked_states": ["10", "5", "17", "21", "32", "29", "27"], "num_clicks_accrued": [0, 0, 0, 0, 0, 0, 0, 0, 0, 0, 0, 0, 0], "stateRewards": ["", -2, -3, 7, -13, 60, 9, 37, -6, 37, 20, 1, 2, -2, -8, 6, -80, -31, -10, -7, 70, -65, -44, -1, 1, 7, 6, -11, 73, -85, 16, -21, 47, 34], "withholdReward": false, "trial_id": "mdp_trial_20", "block": "test", "trialIndex": 21, "score": 33.95, "costs": -15.05, "simulationMode": [null, null, null, null, null], "rewards": [-2, -3, 7, -13, 60], "path": ["0", "0", "1", "2", "3", "4", "5"], "rt": [30816, 149, 50, 1226, 912], "actions": ["up", "up", "up", "right", "up"], "actionTimes": [35689, 36348, 36949, 38763, 40193], "queries": {"click": {"state": {"target": ["10", "5", "17", "21", "32", "29", "27"], "time": [6290, 10351, 13488, 17328, 21342, 26664, 31214]}, "edge": {"target": [], "time": []}}, "mouseover": {"state": {"target": ["10", "4", "5", "6", "16", "17", "21", "31", "30", "32", "33", "29", "27"], "time": [5798, 7514, 7798, 11577, 11669, 12286, 16039, 19057, 19346, 20786, 23247, 26047, 29999]}, "edge": {"target": [], "time": []}}, "mouseout": {"state": {"target": ["22", "0", "10", "4", "5", "6", "16", "17", "21", "31", "30", "32", "33", "29", "27", "3", "2"], "time": [2815, 3458, 7258, 7680, 11563, 11623, 12205, 14975, 17494, 19115, 20574, 21537, 23305, 29935, 32928, 41388, 43326]}, "edge": {"target": [], "time": []}}}, "displayed_time": "40.74", "trialTime": 43918, "trial_type": "mouselab-mdp", "trial_index": 28, "time_elapsed": 1753910, "internal_node_id": "0.0-6.0-1.0-19.0"}}, {"uniqueid": "w62617339:a26794076", "current_trial": 29, "dateTime": 1693482987646, "trialdata": {"revealed_states": [], "clicked_states": ["13", "3", "9", "21", "29", "32", "23", "24"], "num_clicks_accrued": [0, 0, 0, 0, 0, 0, 0, 0, 0, 0, 0, 0, 0], "stateRewards": ["", 1, 4, 7, -16, -84, -6, -46, -12, -7, -49, -26, -1, 2, -4, 2, 22, 37, -64, 1, 88, -13, -10, 1, -4, -2, 5, 2, -10, -34, 9, 66, 55, 38], "withholdReward": false, "trial_id": "mdp_trial_21", "block": "test", "trialIndex": 22, "score": 49, "costs": -10, "simulationMode": [null, null, null, null, null], "rewards": [1, -4, -2, 9, 55], "path": ["0", "0", "23", "24", "25", "30", "32"], "rt": [24422, 34, 512, 1087, 93], "actions": ["left", "left", "left", "down", "down"], "actionTimes": [28839, 29422, 30507, 32116, 32754], "queries": {"click": {"state": {"target": ["13", "3", "9", "21", "29", "32", "23", "24"], "time": [5890, 7519, 9003, 12547, 16242, 19686, 24652, 26333]}, "edge": {"target": [], "time": []}}, "mouseover": {"state": {"target": ["13", "12", "8", "3", "9", "15", "21", "25", "29", "25", "30", "32", "6", "5", "4", "2", "23", "24"], "time": [5387, 6801, 6946, 7147, 8560, 10056, 11075, 15174, 15540, 17368, 18707, 18857, 21528, 23154, 23372, 23537, 24109, 25989]}, "edge": {"target": [], "time": []}}, "mouseout": {"state": {"target": ["0", "0", "13", "12", "8", "3", "9", "15", "21", "25", "29", "25", "30", "32", "6", "5", "4", "2", "23", "24", "19", "26"], "time": [2869, 5312, 6791, 6847, 6982, 8481, 10008, 10101, 13791, 15490, 17313, 18313, 18761, 20440, 22779, 23288, 23411, 23654, 25916, 27324, 35526, 35881]}, "edge": {"target": [], "time": []}}}, "displayed_time": "33.29", "trialTime": 36756, "trial_type": "mouselab-mdp", "trial_index": 29, "time_elapsed": 1792746, "internal_node_id": "0.0-6.0-1.0-20.0"}}, {"uniqueid": "w62617339:a26794076", "current_trial": 30, "dateTime": 1693483029157, "trialdata": {"revealed_states": [], "clicked_states": ["7", "9", "30", "21", "17"], "num_clicks_accrued": [0, 0, 0, 0, 0, 0, 0, 0, 0, 0, 0, 0, 0], "stateRewards": ["", 1, 2, 8, -2, 23, -69, -18, -16, 54, -21, 71, -1, -4, 7, 11, 43, -6, 88, 6, -55, 72, 43, 1, -3, -2, -1, 68, -31, -54, 4, -8, 25, -2], "withholdReward": false, "trial_id": "mdp_trial_22", "block": "test", "trialIndex": 23, "score": 69.85, "costs": -10.15, "simulationMode": [null, null, null, null, null], "rewards": [-1, -4, 7, 6, 72], "path": ["0", "0", "12", "13", "14", "19", "21"], "rt": [18429, 611, 57, 1393, 709], "actions": ["right", "right", "right", "down", "down"], "actionTimes": [25310, 26450, 27062, 29014, 30263], "queries": {"click": {"state": {"target": ["7", "9", "30", "21", "17"], "time": [8423, 12885, 15856, 17775, 20605]}, "edge": {"target": [], "time": []}}, "mouseover": {"state": {"target": ["7", "3", "8", "9", "2", "24", "30", "21", "19", "14", "17", "15", "2", "1", "10", "1", "12", "1"], "time": [8064, 9322, 9737, 12243, 13822, 14899, 15211, 17279, 18685, 18789, 19697, 22167, 22306, 22943, 23036, 23499, 23639, 23827]}, "edge": {"target": [], "time": []}}, "mouseout": {"state": {"target": ["2", "12", "0", "7", "3", "8", "9", "2", "24", "30", "21", "19", "14", "17", "15", "2", "1", "10", "1", "12", "1", "5", "20"], "time": [2229, 3977, 4128, 9257, 9380, 12231, 13090, 13869, 14946, 17010, 18632, 18749, 19306, 22154, 22223, 22719, 22992, 23464, 23628, 23687, 23912, 31262, 33278]}, "edge": {"target": [], "time": []}}}, "displayed_time": "30.79", "trialTime": 34350, "trial_type": "mouselab-mdp", "trial_index": 30, "time_elapsed": 1834258, "internal_node_id": "0.0-6.0-1.0-21.0"}}, {"uniqueid": "w62617339:a26794076", "current_trial": 31, "dateTime": 1693483079261, "trialdata": {"revealed_states": [], "clicked_states": ["3", "17", "33", "11", "21", "5"], "num_clicks_accrued": [0, 0, 0, 0, 0, 0, 0, 0, 0, 0, 0, 0, 0], "stateRewards": ["", -2, -3, -3, 9, 79, 67, 22, -15, -56, 27, -85, -2, 4, -4, -15, -20, -32, 60, 15, 71, 57, 17, 1, 2, -8, 15, -37, -81, 82, 15, 21, -3, 2], "withholdReward": false, "trial_id": "mdp_trial_23", "block": "test", "trialIndex": 24, "score": 68.3, "costs": -11.700000000000001, "simulationMode": [null, null, null, null, null], "rewards": [-2, -3, -3, 9, 79], "path": ["0", "0", "1", "2", "3", "4", "5"], "rt": [21493, 58, 105, 999, 615], "actions": ["up", "up", "up", "right", "up"], "actionTimes": [38360, 38934, 39597, 41124, 42291], "queries": {"click": {"state": {"target": ["3", "17", "33", "11", "21", "5"], "time": [18457, 20174, 23177, 26717, 30037, 33728]}, "edge": {"target": [], "time": []}}, "mouseover": {"state": {"target": ["1", "3", "3", "15", "17", "18", "33", "27", "11", "11", "2", "13", "19", "21", "22", "12", "5", "9"], "time": [17658, 17746, 18037, 19650, 19819, 21379, 22071, 24292, 24654, 26418, 27510, 28148, 28669, 28945, 30768, 30844, 31505, 35660]}, "edge": {"target": [], "time": []}}, "mouseout": {"state": {"target": ["7", "14", "0", "1", "3", "3", "15", "17", "18", "33", "27", "11", "11", "2", "13", "19", "21", "22", "12", "5", "9"], "time": [2322, 12749, 17625, 17735, 17817, 19494, 19736, 20387, 21777, 24207, 24459, 26316, 26902, 27553, 28573, 28861, 30758, 30828, 30892, 33929, 35702]}, "edge": {"target": [], "time": []}}}, "displayed_time": "42.81", "trialTime": 48063, "trial_type": "mouselab-mdp", "trial_index": 31, "time_elapsed": 1884362, "internal_node_id": "0.0-6.0-1.0-22.0"}}, {"uniqueid": "w62617339:a26794076", "current_trial": 32, "dateTime": 1693483122980, "trialdata": {"revealed_states": [], "clicked_states": ["15", "9", "29", "21", "17"], "num_clicks_accrued": [0, 0, 0, 0, 0, 0, 0, 0, 0, 0, 0, 0, 0], "stateRewards": ["", 2, 4, -5, 7, 81, 35, 6, 11, 14, -72, 42, -1, 2, 3, -7, -77, -44, -40, -15, -85, 51, -32, -2, -1, -5, 7, -74, 47, 52, 16, -49, 48, -46], "withholdReward": false, "trial_id": "mdp_trial_24", "block": "test", "trialIndex": 25, "score": 40.85, "costs": -10.15, "simulationMode": [null, null, null, null, null], "rewards": [-2, -1, -5, 7, 52], "path": ["0", "0", "23", "24", "25", "26", "29"], "rt": [23867, 13, 935, 842, 1766], "actions": ["left", "left", "left", "up", "left"], "actionTimes": [30082, 30825, 32324, 33690, 36020], "queries": {"click": {"state": {"target": ["15", "9", "29", "21", "17"], "time": [8434, 10230, 14773, 20094, 24503]}, "edge": {"target": [], "time": []}}, "mouseover": {"state": {"target": ["15", "8", "9", "8", "26", "29", "29", "30", "32", "21", "24", "24", "4", "24", "18", "15", "17", "18", "27"], "time": [7737, 9434, 9791, 11062, 11889, 12205, 14325, 15427, 15916, 19294, 21898, 22501, 22856, 23248, 23648, 23741, 24047, 26868, 28762]}, "edge": {"target": [], "time": []}}, "mouseout": {"state": {"target": ["17", "25", "24", "0", "15", "8", "9", "9", "8", "26", "29", "29", "30", "32", "21", "24", "24", "4", "24", "18", "15", "17", "18", "27", "0", "28"], "time": [2895, 4129, 4278, 7040, 9322, 9487, 10451, 11050, 11110, 11996, 14183, 15292, 15695, 19224, 21185, 22016, 22553, 22939, 23337, 23702, 23782, 24689, 26913, 29109, 40063, 40563]}, "edge": {"target": [], "time": []}}}, "displayed_time": "36.55", "trialTime": 41547, "trial_type": "mouselab-mdp", "trial_index": 32, "time_elapsed": 1928080, "internal_node_id": "0.0-6.0-1.0-23.0"}}, {"uniqueid": "w62617339:a26794076", "current_trial": 33, "dateTime": 1693483161265, "trialdata": {"revealed_states": [], "clicked_states": ["4", "9", "26", "32", "21", "33", "5"], "num_clicks_accrued": [0, 0, 0, 0, 0, 0, 0, 0, 0, 0, 0, 0, 0], "stateRewards": ["", -2, -1, -3, -1, -78, -6, 2, -1, 22, -88, 32, 2, 2, -7, -8, -51, -17, 54, 2, -44, 54, 75, 2, -2, -8, -15, -29, 12, -67, 15, -1, -47, -47], "withholdReward": false, "trial_id": "mdp_trial_25", "block": "test", "trialIndex": 26, "score": 39.15, "costs": -13.850000000000001, "simulationMode": [null, null, null, null, null], "rewards": [2, 2, -7, 2, 54], "path": ["0", "0", "12", "13", "14", "19", "21"], "rt": [23265, 563, 138, 960, 80], "actions": ["right", "right", "right", "down", "down"], "actionTimes": [27835, 28997, 29683, 31171, 31781], "queries": {"click": {"state": {"target": ["4", "9", "26", "32", "21", "33", "5"], "time": [6585, 8058, 11134, 12945, 15955, 18945, 22351]}, "edge": {"target": [], "time": []}}, "mouseover": {"state": {"target": ["6", "6", "4", "4", "3", "9", "8", "26", "30", "32", "22", "21", "23", "29", "33", "33", "30", "2", "5", "5", "9"], "time": [5391, 5590, 5649, 6148, 7361, 7458, 8719, 8915, 11998, 12304, 14654, 15120, 17018, 17856, 18266, 18600, 20655, 21101, 21547, 21750, 23313]}, "edge": {"target": [], "time": []}}, "mouseout": {"state": {"target": ["0", "6", "6", "4", "4", "3", "9", "8", "26", "30", "32", "22", "21", "23", "29", "33", "33", "30", "2", "5", "5", "5", "9", "11"], "time": [2756, 5438, 5636, 5819, 7349, 7412, 8708, 8766, 11949, 12081, 13955, 14718, 16158, 17074, 18134, 18330, 20560, 20730, 21158, 21618, 22384, 23251, 23373, 32846]}, "edge": {"target": [], "time": []}}}, "displayed_time": "32.41", "trialTime": 35858, "trial_type": "mouselab-mdp", "trial_index": 33, "time_elapsed": 1966365, "internal_node_id": "0.0-6.0-1.0-24.0"}}, {"uniqueid": "w62617339:a26794076", "current_trial": 34, "dateTime": 1693483211775, "trialdata": {"revealed_states": [], "clicked_states": ["5", "32", "17", "27", "9", "21", "11"], "num_clicks_accrued": [0, 0, 0, 0, 0, 0, 0, 0, 0, 0, 0, 0, 0], "stateRewards": ["", 1, 1, -7, -9, -44, 24, -83, -15, 44, -24, 72, -2, -3, 4, -5, 57, 55, 29, -11, 22, 12, -25, -1, 2, 7, 12, 33, -8, 47, -4, 8, 50, -4], "withholdReward": false, "trial_id": "mdp_trial_26", "block": "test", "trialIndex": 27, "score": 36.95, "costs": -15.05, "simulationMode": [null, null, null, null, null], "rewards": [1, 1, -7, -15, 72], "path": ["0", "0", "1", "2", "3", "8", "11"], "rt": [30280, 55, 872, 752, 140], "actions": ["up", "up", "up", "left", "left"], "actionTimes": [38457, 39054, 40645, 41950, 42603], "queries": {"click": {"state": {"target": ["5", "32", "17", "27", "9", "21", "11"], "time": [9890, 13220, 16316, 20047, 22906, 27420, 33143]}, "edge": {"target": [], "time": []}}, "mouseover": {"state": {"target": ["2", "3", "5", "4", "25", "32", "22", "14", "17", "15", "18", "10", "27", "1", "8", "9", "21", "17", "15", "18", "2", "11", "8"], "time": [8961, 9175, 9424, 11422, 12289, 12515, 13965, 14348, 14468, 17672, 17816, 18794, 19301, 21148, 21688, 21882, 27388, 29702, 31952, 32050, 32173, 32490, 37468]}, "edge": {"target": [], "time": []}}, "mouseout": {"state": {"target": ["12", "2", "3", "5", "4", "25", "32", "22", "14", "17", "15", "18", "10", "27", "1", "8", "9", "21", "17", "15", "18", "2", "11", "8", "11"], "time": [6139, 9041, 9215, 10622, 11475, 12347, 13879, 14009, 14390, 17660, 17726, 17909, 18848, 20899, 21475, 21816, 27380, 27443, 31919, 32038, 32094, 32213, 37242, 37508, 37550]}, "edge": {"target": [], "time": []}}}, "displayed_time": "43.13", "trialTime": 48356, "trial_type": "mouselab-mdp", "trial_index": 34, "time_elapsed": 2016875, "internal_node_id": "0.0-6.0-1.0-25.0"}}, {"uniqueid": "w62617339:a26794076", "current_trial": 35, "dateTime": 1693483236776, "trialdata": {"revealed_states": [], "clicked_states": ["20", "9"], "num_clicks_accrued": [0, 0, 0, 0, 0, 0, 0, 0, 0, 0, 0, 0, 0], "stateRewards": ["", 2, 3, 8, 14, 69, -27, 17, 2, -71, -65, -10, 2, -3, 7, 8, 65, -10, 65, -12, 73, -12, 13, -2, -2, 6, 10, -79, -69, -18, 10, -85, 67, 74], "withholdReward": false, "trial_id": "mdp_trial_27", "block": "test", "trialIndex": 28, "score": 62.7, "costs": -4.3, "simulationMode": [null, null, null, null, null], "rewards": [2, -3, 7, -12, 73], "path": ["0", "0", "12", "13", "14", "19", "20"], "rt": [8359, 185, 23, 863, 1107], "actions": ["right", "right", "right", "down", "right"], "actionTimes": [13466, 14189, 14782, 16219, 17873], "queries": {"click": {"state": {"target": ["20", "9"], "time": [6772, 10255]}, "edge": {"target": [], "time": []}}, "mouseover": {"state": {"target": ["13", "20", "27", "11", "9"], "time": [5913, 6364, 8285, 8343, 8482]}, "edge": {"target": [], "time": []}}, "mouseout": {"state": {"target": ["13", "20", "27", "11", "9", "6", "12"], "time": [5997, 8113, 8333, 8391, 11494, 18591, 21291]}, "edge": {"target": [], "time": []}}}, "displayed_time": "19.10", "trialTime": 22642, "trial_type": "mouselab-mdp", "trial_index": 35, "time_elapsed": 2041875, "internal_node_id": "0.0-6.0-1.0-26.0"}}, {"uniqueid": "w62617339:a26794076", "current_trial": 36, "dateTime": 1693483270535, "trialdata": {"revealed_states": [], "clicked_states": ["21", "27", "5", "33"], "num_clicks_accrued": [0, 0, 0, 0, 0, 0, 0, 0, 0, 0, 0, 0, 0], "stateRewards": ["", -2, -1, 3, -3, 71, -58, -21, 7, -10, -75, -37, 2, 4, -1, -12, -79, -29, -48, 3, -41, -10, -30, -1, -2, 1, -15, 13, 66, 22, -1, -42, -86, -55], "withholdReward": false, "trial_id": "mdp_trial_28", "block": "test", "trialIndex": 29, "score": 59.4, "costs": -8.6, "simulationMode": [null, null, null, null, null], "rewards": [-2, -1, 3, -3, 71], "path": ["0", "0", "1", "2", "3", "4", "5"], "rt": [17431, 68, 822, 1016, 600], "actions": ["up", "up", "up", "right", "up"], "actionTimes": [22603, 23234, 24590, 26147, 27266], "queries": {"click": {"state": {"target": ["21", "27", "5", "33"], "time": [6543, 10927, 14863, 18000]}, "edge": {"target": [], "time": []}}, "mouseover": {"state": {"target": ["21", "23", "27", "3", "4", "5", "25", "33", "25", "3", "4", "3", "8"], "time": [5975, 7456, 7891, 11540, 11627, 11797, 15681, 16363, 19177, 19746, 21049, 21245, 21339]}, "edge": {"target": [], "time": []}}, "mouseout": {"state": {"target": ["13", "23", "0", "0", "21", "23", "27", "3", "4", "5", "25", "33", "25", "3", "5", "4", "3", "8", "7"], "time": [2435, 2703, 3270, 5923, 7410, 7526, 11457, 11584, 11718, 15591, 15723, 18189, 19228, 19797, 20983, 21149, 21326, 21379, 30056]}, "edge": {"target": [], "time": []}}}, "displayed_time": "27.80", "trialTime": 31459, "trial_type": "mouselab-mdp", "trial_index": 36, "time_elapsed": 2075636, "internal_node_id": "0.0-6.0-1.0-27.0"}}, {"uniqueid": "w62617339:a26794076", "current_trial": 37, "dateTime": 1693483308117, "trialdata": {"revealed_states": [], "clicked_states": ["3", "17", "32", "29", "33", "9", "21"], "num_clicks_accrued": [0, 0, 0, 0, 0, 0, 0, 0, 0, 0, 0, 0, 0], "stateRewards": ["", -1, 1, 3, -8, -23, -15, -14, -11, -23, 58, 68, 1, 3, 5, 12, -17, -41, -7, -10, -4, 82, 10, 1, 4, -4, 11, 73, 55, -55, -1, -86, -86, 54], "withholdReward": false, "trial_id": "mdp_trial_29", "block": "test", "trialIndex": 30, "score": 67.15, "costs": -13.850000000000001, "simulationMode": [null, null, null, null, null], "rewards": [1, 3, 5, -10, 82], "path": ["0", "0", "12", "13", "14", "19", "21"], "rt": [24921, 182, 76, 969, 121], "actions": ["right", "right", "right", "down", "down"], "actionTimes": [29366, 30064, 30708, 32185, 32874], "queries": {"click": {"state": {"target": ["3", "17", "32", "29", "33", "9", "21"], "time": [6133, 7938, 11007, 13917, 16970, 19942, 23373]}, "edge": {"target": [], "time": []}}, "mouseover": {"state": {"target": ["1", "3", "7", "15", "17", "14", "23", "31", "30", "32", "25", "29", "33", "27", "9", "7", "19", "21", "12", "12", "27"], "time": [5418, 5656, 6965, 7111, 7310, 9654, 9995, 10098, 10352, 10619, 12098, 12348, 15585, 17873, 18288, 21113, 21620, 21879, 27321, 27610, 27775]}, "edge": {"target": [], "time": []}}, "mouseout": {"state": {"target": ["1", "3", "7", "15", "17", "14", "23", "31", "30", "32", "25", "29", "33", "27", "9", "7", "19", "21", "12", "12", "27"], "time": [5493, 6335, 7014, 7177, 8128, 9705, 10044, 10148, 10414, 11253, 12218, 15102, 17150, 17939, 21094, 21185, 21699, 26108, 27523, 27692, 27813]}, "edge": {"target": [], "time": []}}}, "displayed_time": "33.47", "trialTime": 35339, "trial_type": "mouselab-mdp", "trial_index": 37, "time_elapsed": 2113215, "internal_node_id": "0.0-6.0-1.0-28.0"}}, {"uniqueid": "w62617339:a26794076", "current_trial": 38, "dateTime": 1693483351778, "trialdata": {"revealed_states": [], "clicked_states": [], "num_clicks_accrued": [0, 0, 0, 0, 0, 0, 0, 0, 0, 0, 0, 0, 0], "stateRewards": ["", 2, -3, 5, -14, -63, -9, -24, -11, -54, -43, 68, 2, -2, -4, 7, -64, 30, 47, 12, -74, 11, 86, 1, -3, 3, 10, -71, -42, -52, -1, -29, -16, 69], "withholdReward": false, "trial_id": "mdp_trial_30", "block": "test", "trialIndex": 31, "score": -73, "costs": 0, "simulationMode": [null, null, null, null, null], "rewards": [2, -3, 5, -14, -63], "path": ["0", "0", "1", "2", "3", "4", "5"], "rt": [20412, 751, 463, 885, 915], "actions": ["up", "up", "up", "right", "up"], "actionTimes": [29640, 31641, 32639, 34369, 35822], "queries": {"click": {"state": {"target": [], "time": []}, "edge": {"target": [], "time": []}}, "mouseover": {"state": {"target": ["0", "7", "9", "18"], "time": [14082, 15511, 24007, 25793]}, "edge": {"target": [], "time": []}}, "mouseout": {"state": {"target": ["0", "7", "9", "18", "21", "29"], "time": [15502, 23997, 24386, 26640, 39955, 40085]}, "edge": {"target": [], "time": []}}}, "displayed_time": "36.37", "trialTime": 41278, "trial_type": "mouselab-mdp", "trial_index": 38, "time_elapsed": 2156875, "internal_node_id": "0.0-6.0-1.0-29.0"}}, {"uniqueid": "w62617339:a26794076", "current_trial": 39, "dateTime": 1693483378894, "trialdata": {"revealed_states": [], "clicked_states": ["5"], "num_clicks_accrued": [0, 0, 0, 0, 0, 0, 0, 0, 0, 0, 0, 0, 0], "stateRewards": ["", 2, -1, 5, 8, 75, -35, -77, 1, -9, -81, -58, 1, 2, -7, 5, 77, -16, 19, 16, -10, -18, 40, -2, 3, 7, -5, 64, 1, -62, 10, 27, 10, 65], "withholdReward": false, "trial_id": "mdp_trial_31", "block": "test", "trialIndex": 32, "score": 86.85, "costs": -2.15, "simulationMode": [null, null, null, null, null], "rewards": [2, -1, 5, 8, 75], "path": ["0", "0", "1", "2", "3", "4", "5"], "rt": [7600, 94, 651, 754, 560], "actions": ["up", "up", "up", "right", "up"], "actionTimes": [15025, 15670, 16878, 18186, 19277], "queries": {"click": {"state": {"target": ["5"], "time": [9338]}, "edge": {"target": [], "time": []}}, "mouseover": {"state": {"target": ["5", "17", "20", "21"], "time": [8804, 10280, 10946, 11196]}, "edge": {"target": [], "time": []}}, "mouseout": {"state": {"target": ["5", "17", "20", "21"], "time": [10227, 10327, 10994, 13188]}, "edge": {"target": [], "time": []}}}, "displayed_time": "21.43", "trialTime": 24952, "trial_type": "mouselab-mdp", "trial_index": 39, "time_elapsed": 2183994, "internal_node_id": "0.0-6.0-1.0-30.0"}}, {"uniqueid": "w62617339:a26794076", "current_trial": 40, "dateTime": 1693483431889, "trialdata": {"revealed_states": [], "clicked_states": ["32", "5", "20", "11", "29", "6"], "num_clicks_accrued": [0, 0, 0, 0, 0, 0, 0, 0, 0, 0, 0, 0, 0], "stateRewards": ["", 2, -4, -4, 13, -80, 62, 13, -11, 57, -13, -44, 1, 4, 3, -4, -29, -88, 15, 16, -58, 68, -45, -1, -3, -1, -9, -44, -86, -19, -7, -36, 59, 66], "withholdReward": false, "trial_id": "mdp_trial_32", "block": "test", "trialIndex": 33, "score": 56.1, "costs": -12.9, "simulationMode": [null, null, null, null, null], "rewards": [2, -4, -4, 13, 62], "path": ["0", "0", "1", "2", "3", "4", "6"], "rt": [30692, 44, 197, 1437, 72], "actions": ["up", "up", "up", "right", "right"], "actionTimes": [41869, 42430, 43208, 45181, 45819], "queries": {"click": {"state": {"target": ["32", "5", "20", "11", "29", "6"], "time": [14078, 19022, 23696, 27749, 32091, 36209]}, "edge": {"target": [], "time": []}}, "mouseover": {"state": {"target": ["32", "8", "4", "5", "20", "2", "10", "11", "29", "10", "4", "6"], "time": [14044, 15195, 17906, 18985, 22859, 26855, 27115, 27370, 31685, 35527, 35620, 35802]}, "edge": {"target": [], "time": []}}, "mouseout": {"state": {"target": ["0", "32", "8", "4", "5", "20", "20", "2", "10", "11", "29", "10", "4", "6", "21"], "time": [14036, 14819, 17814, 18977, 22850, 24812, 25987, 27000, 27269, 31370, 32308, 35608, 35718, 36387, 49092]}, "edge": {"target": [], "time": []}}}, "displayed_time": "46.42", "trialTime": 50301, "trial_type": "mouselab-mdp", "trial_index": 40, "time_elapsed": 2236989, "internal_node_id": "0.0-6.0-1.0-31.0"}}, {"uniqueid": "w62617339:a26794076", "current_trial": 41, "dateTime": 1693483477420, "trialdata": {"revealed_states": [], "clicked_states": ["17", "29", "5", "32", "21"], "num_clicks_accrued": [0, 0, 0, 0, 0, 0, 0, 0, 0, 0, 0, 0, 0], "stateRewards": ["", -1, 2, 7, 8, 75, 67, -11, 6, 52, -17, 38, -1, 4, -8, 14, 74, -37, -17, -12, 52, 55, 71, -2, -1, -5, 2, 21, 6, -88, -14, 64, -61, -47], "withholdReward": false, "trial_id": "mdp_trial_33", "block": "test", "trialIndex": 34, "score": 80.25, "costs": -10.75, "simulationMode": [null, null, null, null, null], "rewards": [-1, 2, 7, 8, 75], "path": ["0", "0", "1", "2", "3", "4", "5"], "rt": [22647, 49, 511, 4030, 2040], "actions": ["up", "up", "up", "right", "up"], "actionTimes": [28016, 28604, 29661, 34306, 38102], "queries": {"click": {"state": {"target": ["17", "29", "5", "32", "21"], "time": [6933, 11015, 14060, 18773, 22231]}, "edge": {"target": [], "time": []}}, "mouseover": {"state": {"target": ["12", "17", "1", "25", "29", "29", "9", "5", "10", "24", "30", "32", "21", "23"], "time": [6153, 6899, 7976, 8035, 8380, 8725, 12487, 12908, 15373, 15531, 15702, 15885, 19664, 26137]}, "edge": {"target": [], "time": []}}, "mouseout": {"state": {"target": ["0", "23", "0", "12", "17", "1", "25", "29", "29", "9", "5", "10", "24", "30", "32", "21", "23", "20"], "time": [3407, 3652, 6144, 6419, 7092, 8025, 8096, 8621, 12241, 12542, 15278, 15427, 15594, 15762, 18996, 26024, 26177, 41033]}, "edge": {"target": [], "time": []}}}, "displayed_time": "38.64", "trialTime": 42921, "trial_type": "mouselab-mdp", "trial_index": 41, "time_elapsed": 2282520, "internal_node_id": "0.0-6.0-1.0-32.0"}}, {"uniqueid": "w62617339:a26794076", "current_trial": 42, "dateTime": 1693483531942, "trialdata": {"revealed_states": [], "clicked_states": ["5", "20", "33", "11", "16", "21"], "num_clicks_accrued": [0, 0, 0, 0, 0, 0, 0, 0, 0, 0, 0, 0, 0], "stateRewards": ["", -1, 2, -6, 6, 43, 78, 78, -2, 55, -29, -17, -2, -4, 1, -15, 13, 7, -79, 8, -28, -68, 36, -1, -3, 3, -16, 84, -18, 87, 10, 32, 13, -81], "withholdReward": false, "trial_id": "mdp_trial_34", "block": "test", "trialIndex": 35, "score": 31.1, "costs": -12.9, "simulationMode": [null, null, null, null, null], "rewards": [-1, 2, -6, 6, 43], "path": ["0", "0", "1", "2", "3", "4", "5"], "rt": [34608, 403, 842, 827, 910], "actions": ["up", "up", "up", "right", "up"], "actionTimes": [42922, 43838, 45413, 46768, 48212], "queries": {"click": {"state": {"target": ["5", "20", "33", "11", "16", "21"], "time": [10010, 13996, 17986, 21485, 25326, 29668]}, "edge": {"target": [], "time": []}}, "mouseover": {"state": {"target": ["1", "5", "15", "14", "20", "23", "30", "33", "27", "11", "16", "21", "13", "7", "2", "7", "18", "11"], "time": [9200, 9592, 11227, 11329, 11850, 15136, 15410, 15565, 18734, 18933, 24725, 29243, 33238, 33783, 34008, 34157, 34460, 37408]}, "edge": {"target": [], "time": []}}, "mouseout": {"state": {"target": ["12", "0", "1", "5", "15", "14", "20", "23", "30", "33", "27", "11", "16", "21", "13", "7", "2", "7", "18", "11", "0"], "time": [6255, 6507, 9245, 11156, 11282, 11594, 14176, 15184, 15465, 18171, 18784, 23773, 28924, 32631, 33300, 33860, 34060, 34193, 37090, 37808, 50781]}, "edge": {"target": [], "time": []}}}, "displayed_time": "48.76", "trialTime": 52067, "trial_type": "mouselab-mdp", "trial_index": 42, "time_elapsed": 2337041, "internal_node_id": "0.0-6.0-1.0-33.0"}}, {"uniqueid": "w62617339:a26794076", "current_trial": 43, "dateTime": 1693483599477, "trialdata": {"revealed_states": [], "clicked_states": [], "num_clicks_accrued": [0, 0, 0, 0, 0, 0, 0, 0, 0, 0, 0, 0, 0], "stateRewards": ["", 1, -3, 4, 13, -72, 52, 5, 5, -58, 5, 14, 2, 1, 3, -14, -86, -4, 73, 6, -58, -50, 49, 2, -3, -4, 2, 33, -41, 42, -11, 81, 45, 53], "withholdReward": false, "trial_id": "mdp_trial_35", "block": "test", "trialIndex": 36, "score": 21, "costs": 0, "simulationMode": [null, null, null, null, null], "rewards": [1, -3, 4, 5, 14], "path": ["0", "0", "1", "2", "3", "8", "11"], "rt": [25510, 108, 40, 1062, 28], "actions": ["up", "up", "up", "left", "left"], "actionTimes": [57158, 57797, 58364, 59984, 60581], "queries": {"click": {"state": {"target": [], "time": []}, "edge": {"target": [], "time": []}}, "mouseover": {"state": {"target": ["16", "12", "18"], "time": [40563, 50714, 52290]}, "edge": {"target": [], "time": []}}, "mouseout": {"state": {"target": ["15", "16", "12", "18", "22", "23", "24"], "time": [29370, 43425, 50765, 54563, 63151, 63559, 63637]}, "edge": {"target": [], "time": []}}}, "displayed_time": "61.17", "trialTime": 64629, "trial_type": "mouselab-mdp", "trial_index": 43, "time_elapsed": 2404576, "internal_node_id": "0.0-6.0-1.0-34.0"}}, {"uniqueid": "w62617339:a26794076", "current_trial": 44, "dateTime": 1693483624531, "trialdata": {"revealed_states": [], "clicked_states": ["27"], "num_clicks_accrued": [0, 0, 0, 0, 0, 0, 0, 0, 0, 0, 0, 0, 0], "stateRewards": ["", -1, 1, 6, -6, 70, 66, 67, -16, -75, -35, 37, -1, 4, 4, -6, 47, -9, 63, 15, 21, -63, 13, 1, 3, -6, 10, 79, -29, 18, -15, 9, -67, -19], "withholdReward": false, "trial_id": "mdp_trial_36", "block": "test", "trialIndex": 37, "score": 84.85, "costs": -2.15, "simulationMode": [null, null, null, null, null], "rewards": [1, 3, -6, 10, 79], "path": ["0", "0", "23", "24", "25", "26", "27"], "rt": [7872, 134, 507, 531, 133], "actions": ["left", "left", "left", "up", "up"], "actionTimes": [12726, 13408, 14450, 15495, 16145], "queries": {"click": {"state": {"target": ["27"], "time": [6563]}, "edge": {"target": [], "time": []}}, "mouseover": {"state": {"target": ["28", "27", "17", "15", "11"], "time": [5784, 6212, 8051, 10595, 11216]}, "edge": {"target": [], "time": []}}, "mouseout": {"state": {"target": ["0", "28", "27", "17", "15", "11", "10"], "time": [5693, 5825, 7537, 10559, 10639, 11770, 21518]}, "edge": {"target": [], "time": []}}}, "displayed_time": "18.85", "trialTime": 22575, "trial_type": "mouselab-mdp", "trial_index": 44, "time_elapsed": 2429630, "internal_node_id": "0.0-6.0-1.0-35.0"}}, {"uniqueid": "w62617339:a26794076", "current_trial": 45, "dateTime": 1693483648928, "trialdata": {"revealed_states": [], "clicked_states": ["4", "9"], "num_clicks_accrued": [0, 0, 0, 0, 0, 0, 0, 0, 0, 0, 0, 0, 0], "stateRewards": ["", 1, -4, -6, -1, -21, 17, -72, 10, 77, 67, -46, -1, 4, -2, 14, -66, -49, -45, -15, -52, 23, -67, 2, -2, -2, 15, -3, 45, -64, 5, -44, 83, 61], "withholdReward": false, "trial_id": "mdp_trial_37", "block": "test", "trialIndex": 38, "score": 74.3, "costs": -3.7, "simulationMode": [null, null, null, null, null], "rewards": [1, -4, -6, 10, 77], "path": ["0", "0", "1", "2", "3", "8", "9"], "rt": [8993, 92, 575, 718, 704], "actions": ["up", "up", "up", "left", "up"], "actionTimes": [14471, 15104, 16232, 17482, 18732], "queries": {"click": {"state": {"target": ["4", "9"], "time": [6964, 8590]}, "edge": {"target": [], "time": []}}, "mouseover": {"state": {"target": ["1", "4", "9", "28", "30", "32", "30"], "time": [6304, 6395, 8168, 9592, 9888, 10075, 12613]}, "edge": {"target": [], "time": []}}, "mouseout": {"state": {"target": ["20", "0", "1", "4", "9", "28", "30", "32", "30", "14", "26"], "time": [3282, 6267, 6348, 7957, 9400, 9871, 9938, 12601, 12653, 20960, 21366]}, "edge": {"target": [], "time": []}}}, "displayed_time": "19.48", "trialTime": 21993, "trial_type": "mouselab-mdp", "trial_index": 45, "time_elapsed": 2454029, "internal_node_id": "0.0-6.0-1.0-36.0"}}, {"uniqueid": "w62617339:a26794076", "current_trial": 46, "dateTime": 1693483713960, "trialdata": {"revealed_states": [], "clicked_states": ["5", "15", "29", "32", "9", "21", "17", "11", "6", "33", "20", "27"], "num_clicks_accrued": [0, 0, 0, 0, 0, 0, 0, 0, 0, 0, 0, 0, 0], "stateRewards": ["", -1, -2, 4, 9, 10, -75, 39, 16, -43, 88, -19, -1, 1, 2, 4, -31, 10, 73, 12, 41, -64, -81, -2, 2, -6, 1, -81, -1, -26, 3, -59, -3, -20], "withholdReward": false, "trial_id": "mdp_trial_38", "block": "test", "trialIndex": 39, "score": 29.800000000000004, "costs": -25.199999999999996, "simulationMode": [null, null, null, null, null], "rewards": [-1, 1, 2, 12, 41], "path": ["0", "0", "12", "13", "14", "19", "20"], "rt": [49283, 63, 56, 1363, 436], "actions": ["right", "right", "right", "down", "right"], "actionTimes": [54561, 55195, 55837, 57742, 58700], "queries": {"click": {"state": {"target": ["5", "15", "29", "32", "9", "21", "17", "11", "6", "33", "20", "27"], "time": [7444, 11576, 13315, 16181, 20159, 23696, 28106, 31781, 35620, 40573, 44534, 49509]}, "edge": {"target": [], "time": []}}, "mouseover": {"state": {"target": ["1", "5", "17", "15", "18", "1", "26", "29", "30", "32", "9", "21", "19", "17", "11", "7", "4", "6", "28", "25", "33", "30", "20", "12", "27"], "time": [6657, 6990, 8580, 8846, 12275, 12336, 12796, 12869, 14364, 14750, 18126, 21280, 24431, 25061, 29923, 34028, 34973, 35311, 39474, 39840, 40140, 41896, 42771, 48532, 49118]}, "edge": {"target": [], "time": []}}, "mouseout": {"state": {"target": ["13", "12", "1", "5", "17", "15", "18", "1", "26", "29", "30", "32", "9", "21", "19", "17", "11", "7", "4", "6", "28", "25", "33", "30", "20", "12", "27", "24"], "time": [3272, 3506, 6703, 8148, 8786, 11784, 12323, 12391, 12853, 13566, 14691, 17426, 20753, 23879, 24507, 28335, 33914, 34421, 35054, 39397, 39803, 39911, 41880, 41944, 46635, 48704, 53647, 61782]}, "edge": {"target": [], "time": []}}}, "displayed_time": "59.24", "trialTime": 62731, "trial_type": "mouselab-mdp", "trial_index": 46, "time_elapsed": 2519059, "internal_node_id": "0.0-6.0-1.0-37.0"}}, {"uniqueid": "w62617339:a26794076", "current_trial": 47, "dateTime": 1693483888819, "trialdata": {"revealed_states": [], "clicked_states": ["5", "17", "29"], "num_clicks_accrued": [0, 0, 0, 0, 0, 0, 0, 0, 0, 0, 0, 0, 0], "stateRewards": ["", -1, -3, -5, -14, -13, -47, 79, 8, -60, -64, 41, -1, 2, 3, 13, -46, 61, -79, -11, -64, -65, 23, 1, -2, 6, -14, 46, 32, 21, 7, 75, -66, 15], "withholdReward": false, "trial_id": "mdp_trial_39", "block": "test", "trialIndex": 40, "score": 71.55, "costs": -6.449999999999999, "simulationMode": [null, null, null, null, null], "rewards": [-1, 2, 3, 13, 61], "path": ["0", "0", "12", "13", "14", "15", "17"], "rt": [11723, 91, 240, 1119, 1090], "actions": ["right", "right", "right", "up", "right"], "actionTimes": [16407, 17025, 17816, 19501, 21125], "queries": {"click": {"state": {"target": ["5", "17", "29"], "time": [6531, 10007, 12852]}, "edge": {"target": [], "time": []}}, "mouseover": {"state": {"target": ["1", "5", "6", "17", "15", "1", "29"], "time": [5626, 5990, 8525, 8913, 11224, 11819, 12352]}, "edge": {"target": [], "time": []}}, "mouseout": {"state": {"target": ["13", "0", "1", "5", "6", "17", "15", "1", "29", "12", "1"], "time": [2723, 3054, 5675, 8515, 8579, 10181, 11280, 11871, 13996, 170093, 171066]}, "edge": {"target": [], "time": []}}}, "displayed_time": "21.68", "trialTime": 172549, "trial_type": "mouselab-mdp", "trial_index": 47, "time_elapsed": 2693920, "internal_node_id": "0.0-6.0-1.0-38.0"}}, {"uniqueid": "w62617339:a26794076", "current_trial": 48, "dateTime": 1693483932941, "trialdata": {"revealed_states": [], "clicked_states": [], "num_clicks_accrued": [0, 0, 0, 0, 0, 0, 0, 0, 0, 0, 0, 0, 0], "stateRewards": ["", -2, -3, -7, 7, -54, -69, -4, -14, -77, 22, 40, -2, -1, 5, 6, -35, 50, -60, 10, -28, 75, 57, 1, -4, -2, 2, 68, 34, -18, 12, 3, -21, -43], "withholdReward": false, "trial_id": "mdp_trial_40", "block": "test", "trialIndex": 41, "score": 14, "costs": 0, "simulationMode": [null, null, null, null, null], "rewards": [-2, -3, -7, -14, 40], "path": ["0", "0", "1", "2", "3", "8", "11"], "rt": [13370, 49, 525, 576, 143], "actions": ["up", "up", "up", "left", "left"], "actionTimes": [24381, 24975, 26110, 27235, 27940], "queries": {"click": {"state": {"target": [], "time": []}, "edge": {"target": [], "time": []}}, "mouseover": {"state": {"target": ["15", "7", "2"], "time": [20302, 23052, 23116]}, "edge": {"target": [], "time": []}}, "mouseout": {"state": {"target": ["26", "18", "17", "15", "7", "2", "1"], "time": [5500, 6635, 8383, 22147, 23088, 23170, 41044]}, "edge": {"target": [], "time": []}}}, "displayed_time": "29.09", "trialTime": 41065, "trial_type": "mouselab-mdp", "trial_index": 48, "time_elapsed": 2738042, "internal_node_id": "0.0-6.0-1.0-39.0"}}, {"uniqueid": "w62617339:a26794076", "current_trial": 49, "dateTime": 1693484027995, "trialdata": {"rt": 90566, "response": {"Q0": "$-16 to 16", "Q1": "$-4 to $4", "Q2": "$-88 to $88", "Q3": "The cost for clicking on nodes varied between nodes.", "Q4": "Slightly motivated"}, "question_order": [0, 1, 2, 3, 4], "trial_id": "final_quiz_control", "trial_type": "survey-multi-choice", "trial_index": 49, "time_elapsed": 2833097, "internal_node_id": "0.0-6.0-2.0"}}, {"uniqueid": "w62617339:a26794076", "current_trial": 50, "dateTime": 1693485373341, "trialdata": {"rt": 1340437, "response": {"Q0": "I inspected the nodes at the edges most of the times. I stopped when I thought I had discovered one with more money.", "Q1": "No, I just became faster in inspecting nodes.", "Q2": "No, it wasn't difficult. I enjoyed the unpredictability."}, "trial_id": "self_report_control", "trial_type": "survey-text", "trial_index": 50, "time_elapsed": 4178383, "internal_node_id": "0.0-6.0-3.0"}}, {"uniqueid": "w62617339:a26794076", "current_trial": 51, "dateTime": 1693485451640, "trialdata": {"rt": 76485, "response": {"Q0": "Disagree", "Q1": "Neither disagree nor agree", "Q2": "Neither disagree nor agree", "Q3": "Neither disagree nor agree", "Q4": "Neither disagree nor agree", "Q5": "Agree", "Q6": "Disagree"}, "question_order": [0, 1, 2, 3, 4, 5, 6], "trial_id": "self_report_2", "trial_type": "survey-multi-choice", "trial_index": 51, "time_elapsed": 4256742, "internal_node_id": "0.0-6.0-4.0"}}, {"uniqueid": "w62617339:a26794076", "current_trial": 52, "dateTime": 1693485505745, "trialdata": {"rt": 53468, "response": {"gender": "male", "age": "25", "colorblind": "0", "effort": "0"}, "trial_type": "survey-html-form", "trial_index": 52, "time_elapsed": 4310846, "internal_node_id": "0.0-6.0-5.0"}}, {"uniqueid": "w62617339:a26794076", "current_trial": 53, "dateTime": 1693485592128, "trialdata": {"rt": 86068, "response": {"Q0": "No.", "Q1": "No.", "Q2": "The site kept not responding in the final questions."}, "trial_type": "survey-text", "trial_index": 53, "time_elapsed": 4397230, "internal_node_id": "0.0-6.0-6.0"}}, {"uniqueid": "w62617339:a26794076", "current_trial": 54, "dateTime": 1693485677471, "trialdata": {"rt": 85162, "stimulus": "<h1>Completion Code Instructions (1/2)</h1>\n<br><br><br><br>\nYou have reached the end of the experiment! The completion code consists of two parts: (1) a code with 2 characters (2) a code with 6 characters. On this page, you will receive the second part of the code. The first part of the completion code will be on the next page.\n<br><br>\nThe second part of your completion code is: <b>EWEK22</b>\n<br><br>\nPlease note this down. Then, press 'Finish HIT' in order to find the first part of your completion code. Once the data has been saved, you will receive this code either in this window or in the original browser window where you started the experiment.\n", "response": 0, "trial_type": "html-button-response", "trial_index": 54, "time_elapsed": 4482572, "internal_node_id": "0.0-6.0-7.0"}}, {"uniqueid": "w62617339:a26794076", "current_trial": 55, "dateTime": 1693485678482, "trialdata": {"success": true, "trial_type": "fullscreen", "trial_index": 55, "time_elapsed": 4483584, "internal_node_id": "0.0-7.0"}}], "questiondata": {"params": {"CODE": "C6DMOQA6", "MIN_TIME": 14, "inspectCost": 1, "startTime": "Thu Aug 31 2023 13:26:32 GMT+0200 (South Africa Standard Time)", "bonusRate": 0.002, "variance": "1_2_4_8_44", "branching": "31123"}, "final_score": 1178.05}, "eventdata": [{"eventtype": "initialized", "value": null, "timestamp": 1693481191772, "interval": 0}, {"eventtype": "window_resize", "value": [1024, 654], "timestamp": 1693481191772, "interval": 0}, {"eventtype": "window_resize", "value": [1024, 654], "timestamp": 1693481192264, "interval": 492}, {"eventtype": "window_resize", "value": [1366, 768], "timestamp": 1693481202794, "interval": 10530}, {"eventtype": "window_resize", "value": [1024, 654], "timestamp": 1693481562554, "interval": 359760}, {"eventtype": "focus", "value": "off", "timestamp": 1693481563952, "interval": 1398}, {"eventtype": "focus", "value": "on", "timestamp": 1693481567968, "interval": 4016}, {"eventtype": "window_resize", "value": [1366, 670], "timestamp": 1693481569968, "interval": 2000}, {"eventtype": "focus", "value": "off", "timestamp": 1693481573651, "interval": 3683}, {"eventtype": "focus", "value": "on", "timestamp": 1693481575504, "interval": 1853}, {"eventtype": "focus", "value": "off", "timestamp": 1693481855982, "interval": 280478}, {"eventtype": "focus", "value": "on", "timestamp": 1693481856215, "interval": 233}, {"eventtype": "focus", "value": "off", "timestamp": 1693481977764, "interval": 121549}, {"eventtype": "focus", "value": "on", "timestamp": 1693481979228, "interval": 1464}, {"eventtype": "focus", "value": "off", "timestamp": 1693481994163, "interval": 14935}, {"eventtype": "focus", "value": "on", "timestamp": 1693481997418, "interval": 3255}, {"eventtype": "focus", "value": "off", "timestamp": 1693482038537, "interval": 41119}, {"eventtype": "focus", "value": "on", "timestamp": 1693482039654, "interval": 1117}, {"eventtype": "focus", "value": "off", "timestamp": 1693482044212, "interval": 4558}, {"eventtype": "focus", "value": "on", "timestamp": 1693482044766, "interval": 554}, {"eventtype": "focus", "value": "off", "timestamp": 1693482177799, "interval": 133033}, {"eventtype": "focus", "value": "on", "timestamp": 1693482185070, "interval": 7271}, {"eventtype": "focus", "value": "off", "timestamp": 1693482186377, "interval": 1307}, {"eventtype": "focus", "value": "on", "timestamp": 1693482186619, "interval": 242}, {"eventtype": "focus", "value": "off", "timestamp": 1693482295824, "interval": 109205}, {"eventtype": "focus", "value": "on", "timestamp": 1693482300004, "interval": 4180}, {"eventtype": "focus", "value": "off", "timestamp": 1693482321235, "interval": 21231}, {"eventtype": "focus", "value": "on", "timestamp": 1693482322220, "interval": 985}, {"eventtype": "focus", "value": "off", "timestamp": 1693482335893, "interval": 13673}, {"eventtype": "focus", "value": "on", "timestamp": 1693482336332, "interval": 439}, {"eventtype": "focus", "value": "off", "timestamp": 1693482348652, "interval": 12320}, {"eventtype": "focus", "value": "on", "timestamp": 1693482349569, "interval": 917}, {"eventtype": "focus", "value": "off", "timestamp": 1693483544259, "interval": 1194690}, {"eventtype": "focus", "value": "on", "timestamp": 1693483563127, "interval": 18868}, {"eventtype": "focus", "value": "off", "timestamp": 1693483579052, "interval": 15925}, {"eventtype": "focus", "value": "on", "timestamp": 1693483587902, "interval": 8850}, {"eventtype": "focus", "value": "off", "timestamp": 1693483839942, "interval": 252040}, {"eventtype": "focus", "value": "on", "timestamp": 1693483865379, "interval": 25437}, {"eventtype": "focus", "value": "off", "timestamp": 1693483945998, "interval": 80619}, {"eventtype": "focus", "value": "on", "timestamp": 1693483946691, "interval": 693}, {"eventtype": "focus", "value": "off", "timestamp": 1693484200072, "interval": 253381}, {"eventtype": "focus", "value": "on", "timestamp": 1693484210948, "interval": 10876}, {"eventtype": "focus", "value": "off", "timestamp": 1693484236194, "interval": 25246}, {"eventtype": "focus", "value": "on", "timestamp": 1693484333447, "interval": 97253}, {"eventtype": "focus", "value": "off", "timestamp": 1693484333462, "interval": 15}, {"eventtype": "focus", "value": "on", "timestamp": 1693484346709, "interval": 13247}, {"eventtype": "focus", "value": "off", "timestamp": 1693484363561, "interval": 16852}, {"eventtype": "focus", "value": "on", "timestamp": 1693484365059, "interval": 1498}, {"eventtype": "focus", "value": "off", "timestamp": 1693484367618, "interval": 2559}, {"eventtype": "focus", "value": "on", "timestamp": 1693484414882, "interval": 47264}, {"eventtype": "focus", "value": "off", "timestamp": 1693484414892, "interval": 10}, {"eventtype": "focus", "value": "on", "timestamp": 1693484414937, "interval": 45}, {"eventtype": "focus", "value": "off", "timestamp": 1693484414996, "interval": 59}, {"eventtype": "focus", "value": "on", "timestamp": 1693484427095, "interval": 12099}, {"eventtype": "focus", "value": "off", "timestamp": 1693484429821, "interval": 2726}, {"eventtype": "focus", "value": "on", "timestamp": 1693484432039, "interval": 2218}, {"eventtype": "focus", "value": "off", "timestamp": 1693484432862, "interval": 823}, {"eventtype": "focus", "value": "on", "timestamp": 1693484433476, "interval": 614}, {"eventtype": "focus", "value": "off", "timestamp": 1693484434079, "interval": 603}, {"eventtype": "focus", "value": "on", "timestamp": 1693484435776, "interval": 1697}, {"eventtype": "focus", "value": "off", "timestamp": 1693484437287, "interval": 1511}, {"eventtype": "focus", "value": "on", "timestamp": 1693484446722, "interval": 9435}, {"eventtype": "focus", "value": "off", "timestamp": 1693484659234, "interval": 212512}, {"eventtype": "focus", "value": "on", "timestamp": 1693484675624, "interval": 16390}, {"eventtype": "focus", "value": "off", "timestamp": 1693484703851, "interval": 28227}, {"eventtype": "focus", "value": "on", "timestamp": 1693484712691, "interval": 8840}, {"eventtype": "focus", "value": "off", "timestamp": 1693484746764, "interval": 34073}, {"eventtype": "focus", "value": "on", "timestamp": 1693484752635, "interval": 5871}, {"eventtype": "focus", "value": "off", "timestamp": 1693484771298, "interval": 18663}, {"eventtype": "focus", "value": "on", "timestamp": 1693484772759, "interval": 1461}, {"eventtype": "focus", "value": "off", "timestamp": 1693485036330, "interval": 263571}, {"eventtype": "focus", "value": "on", "timestamp": 1693485036330, "interval": 0}, {"eventtype": "focus", "value": "off", "timestamp": 1693485037531, "interval": 1201}, {"eventtype": "focus", "value": "on", "timestamp": 1693485111498, "interval": 73967}, {"eventtype": "focus", "value": "off", "timestamp": 1693485138716, "interval": 27218}, {"eventtype": "focus", "value": "on", "timestamp": 1693485175698, "interval": 36982}, {"eventtype": "focus", "value": "off", "timestamp": 1693485187369, "interval": 11671}, {"eventtype": "focus", "value": "on", "timestamp": 1693485187771, "interval": 402}, {"eventtype": "focus", "value": "off", "timestamp": 1693485203115, "interval": 15344}, {"eventtype": "focus", "value": "on", "timestamp": 1693485204849, "interval": 1734}, {"eventtype": "focus", "value": "off", "timestamp": 1693485207512, "interval": 2663}, {"eventtype": "focus", "value": "on", "timestamp": 1693485209427, "interval": 1915}, {"eventtype": "focus", "value": "off", "timestamp": 1693485210050, "interval": 623}, {"eventtype": "focus", "value": "on", "timestamp": 1693485227076, "interval": 17026}, {"eventtype": "focus", "value": "off", "timestamp": 1693485237617, "interval": 10541}, {"eventtype": "focus", "value": "on", "timestamp": 1693485238339, "interval": 722}, {"eventtype": "focus", "value": "off", "timestamp": 1693485378648, "interval": 140309}, {"eventtype": "focus", "value": "on", "timestamp": 1693485379585, "interval": 937}, {"eventtype": "focus", "value": "off", "timestamp": 1693485380975, "interval": 1390}, {"eventtype": "focus", "value": "on", "timestamp": 1693485381184, "interval": 209}, {"eventtype": "focus", "value": "off", "timestamp": 1693485456828, "interval": 75644}, {"eventtype": "focus", "value": "on", "timestamp": 1693485457731, "interval": 903}, {"eventtype": "focus", "value": "off", "timestamp": 1693485459181, "interval": 1450}, {"eventtype": "focus", "value": "on", "timestamp": 1693485459665, "interval": 484}, {"eventtype": "focus", "value": "off", "timestamp": 1693485470898, "interval": 11233}, {"eventtype": "focus", "value": "on", "timestamp": 1693485471464, "interval": 566}, {"eventtype": "focus", "value": "off", "timestamp": 1693485507802, "interval": 36338}, {"eventtype": "focus", "value": "on", "timestamp": 1693485510241, "interval": 2439}, {"eventtype": "focus", "value": "off", "timestamp": 1693485517754, "interval": 7513}, {"eventtype": "focus", "value": "on", "timestamp": 1693485518240, "interval": 486}, {"eventtype": "focus", "value": "off", "timestamp": 1693485596630, "interval": 78390}, {"eventtype": "focus", "value": "on", "timestamp": 1693485596863, "interval": 233}], "useragent": "Mozilla/5.0 (Windows NT 10.0; Win64; x64) AppleWebKit/537.36 (KHTML, like Gecko) Chrome/116.0.0.0 Safari/537.36", "mode": "live", "id": "w62617339:a26794076", "status": "user data saved", "Beginhit": "2023-08-31 11:26:21.148575", "Beginexp": "2023-08-31 11:26:38.520817", "Endhit": "2023-08-31 12:46:18.627514", "psiturkStatus": 3, "browser": "<redacted>", "platform": "windows", "language": "en-US", "excludeReason": "exceededTime"}