{"condition": 0, "counterbalance": 0, "assignmentId": "a25368530", "workerId": "w99745213", "hitId": "h16940824", "currenttrial": 9, "bonus": 0, "data": [{"uniqueid": "w99745213:a25368530", "current_trial": 0, "dateTime": 1691070791604, "trialdata": {"success": true, "trial_type": "fullscreen", "trial_index": 0, "time_elapsed": 7323, "internal_node_id": "0.0-0.0"}}, {"uniqueid": "w99745213:a25368530", "current_trial": 1, "dateTime": 1691070793314, "trialdata": {"view_history": [{"page_index": 0, "viewing_time": 1701}], "rt": 1701, "trial_id": "exp_instructions_control", "trial_type": "instructions", "trial_index": 1, "time_elapsed": 9034, "internal_node_id": "0.0-1.0"}}, {"uniqueid": "w99745213:a25368530", "current_trial": 2, "dateTime": 1691070795874, "trialdata": {"success": true, "trial_type": "fullscreen", "trial_index": 2, "time_elapsed": 11594, "internal_node_id": "0.0-2.0-0.0"}}, {"uniqueid": "w99745213:a25368530", "current_trial": 3, "dateTime": 1691070832341, "trialdata": {"view_history": [{"page_index": 0, "viewing_time": 30364}, {"page_index": 1, "viewing_time": 525}, {"page_index": 2, "viewing_time": 4833}, {"page_index": 3, "viewing_time": 741}], "rt": 36463, "trial_id": "mouselab_instructions_1_control", "trial_type": "instructions", "trial_index": 3, "time_elapsed": 48061, "internal_node_id": "0.0-2.0-1.0"}}, {"uniqueid": "w99745213:a25368530", "current_trial": 4, "dateTime": 1691070889753, "trialdata": {"revealed_states": [], "clicked_states": ["12", "1", "23", "13", "14", "19", "2", "3", "10", "4", "24", "28", "27", "26", "29"], "num_clicks_accrued": [0, 0, 0, 0, 0, 0, 0, 0, 0, 0, 0, 0, 0], "stateRewards": ["", -10, 10, -10, 10, 10, -10, 10, 10, 10, 10, 10, -10, -10, -10, -10, 10, 10, 10, -10, -10, 10, -10, -10, -10, 10, 10, 10, 10, 10, -10, -10, 10, 10], "withholdReward": false, "trial_id": "practice_1", "block": "test", "trialIndex": 0, "score": 6, "costs": -7.5, "simulationMode": [null, null, null, null, null], "rewards": [-10, -10, 10, 10, 10], "path": ["0", "0", "23", "24", "25", "26", "27"], "rt": [43657, 1112, 433, 377, 495], "actions": ["left", "left", "left", "up", "up"], "actionTimes": [48409, 50062, 51034, 51959, 52993], "queries": {"click": {"state": {"target": ["12", "1", "23", "13", "14", "19", "2", "3", "10", "4", "24", "28", "27", "26", "29"], "time": [7121, 9154, 10605, 18629, 20631, 22118, 25446, 26929, 29656, 32204, 35377, 36556, 37799, 39306, 41460]}, "edge": {"target": [], "time": []}}, "mouseover": {"state": {"target": ["0", "12", "13", "12", "1", "23", "0", "12", "0", "23", "12", "13", "14", "19", "15", "18", "1", "2", "3", "8", "10", "4", "24", "23", "24", "28", "27", "26", "29", "25"], "time": [5726, 5965, 6004, 6391, 8797, 10445, 11356, 11573, 12312, 16008, 17779, 18351, 20425, 21930, 23872, 24169, 24993, 25305, 26788, 29057, 29280, 30971, 33262, 34138, 35188, 36221, 37632, 38261, 40750, 42786]}, "edge": {"target": [], "time": []}}, "mouseout": {"state": {"target": ["32", "31", "0", "0", "12", "13", "12", "1", "23", "23", "0", "12", "0", "23", "23", "12", "13", "14", "19", "14", "15", "18", "1", "2", "3", "8", "10", "4", "10", "24", "23", "24", "28", "27", "26", "29"], "time": [3757, 3779, 4175, 5942, 5988, 6303, 8405, 10056, 10703, 11307, 11491, 12272, 12368, 14686, 16922, 18286, 20329, 21843, 22204, 23840, 24108, 24543, 25080, 26482, 28795, 29224, 30637, 33139, 33191, 34019, 35140, 36108, 37424, 38207, 40510, 42651]}, "edge": {"target": [], "time": []}}}, "displayed_time": "53.53", "trialTime": 56864, "trial_type": "mouselab-mdp", "trial_index": 4, "time_elapsed": 105472, "internal_node_id": "0.0-2.0-2.0-0.0"}}, {"uniqueid": "w99745213:a25368530", "current_trial": 5, "dateTime": 1691070904290, "trialdata": {"revealed_states": [], "clicked_states": [], "num_clicks_accrued": [0, 0, 0, 0, 0, 0, 0, 0, 0, 0, 0, 0, 0], "stateRewards": ["", 10, 10, 10, -10, -10, -10, 10, 10, -10, 10, -10, 10, 10, 10, 10, -10, -10, 10, -10, -10, 10, -10, -10, -10, 10, 10, -10, 10, -10, -10, 10, 10, 10], "withholdReward": false, "trial_id": "practice_2", "block": "test", "trialIndex": 1, "score": 53.5, "costs": 0, "simulationMode": [null, null, null, null, null], "rewards": [10, 10, 10, 10, 10], "path": ["0", "0", "12", "13", "14", "15", "18"], "rt": [2311, 1184, 1271, 302, 492], "actions": ["right", "right", "right", "up", "left"], "actionTimes": [5877, 7593, 9417, 10262, 11286], "queries": {"click": {"state": {"target": [], "time": []}, "edge": {"target": [], "time": []}}, "mouseover": {"state": {"target": ["1", "0", "12"], "time": [5065, 5338, 5488]}, "edge": {"target": [], "time": []}}, "mouseout": {"state": {"target": ["25", "25", "2", "4", "7", "12", "0", "1", "0", "12"], "time": [2537, 2572, 2654, 2790, 2822, 2888, 3142, 5218, 5448, 15029]}, "edge": {"target": [], "time": []}}}, "displayed_time": "11.83", "trialTime": 14230, "trial_type": "mouselab-mdp", "trial_index": 5, "time_elapsed": 120009, "internal_node_id": "0.0-2.0-2.0-1.0"}}, {"uniqueid": "w99745213:a25368530", "current_trial": 6, "dateTime": 1691070911984, "trialdata": {"view_history": [{"page_index": 0, "viewing_time": 4859}, {"page_index": 1, "viewing_time": 2831}], "rt": 7690, "trial_id": "mouselab_instructions_2_control", "trial_type": "instructions", "trial_index": 6, "time_elapsed": 127704, "internal_node_id": "0.0-2.0-3.0"}}, {"uniqueid": "w99745213:a25368530", "current_trial": 7, "dateTime": 1691070936781, "trialdata": {"rt": 24763, "response": {"Q0": "The cost for clicking on nodes may vary between nodes.", "Q1": "The better I perform the higher my bonus will be.", "Q2": "Yes.", "Q3": "To get the highest total score.", "Q4": "Only after moving the spider.", "Q5": "10 seconds"}, "question_order": [0, 1, 2, 3, 4, 5], "correct": {"Q0": "The cost for clicking on nodes may vary between nodes.", "Q1": "The better I perform the higher my bonus will be.", "Q2": "No, the amount of cash at each node of the web may be different each time.", "Q3": "To get the highest total score.", "Q4": "Only before moving the spider.", "Q5": "3 seconds"}, "trial_id": "mouselab_quiz_control", "trial_type": "survey-multi-choice", "trial_index": 7, "time_elapsed": 152501, "internal_node_id": "0.0-2.0-4.0"}}, {"uniqueid": "w99745213:a25368530", "current_trial": 8, "dateTime": 1691070946340, "trialdata": {"success": true, "trial_type": "fullscreen", "trial_index": 8, "time_elapsed": 162060, "internal_node_id": "0.0-2.1-0.1"}}], "questiondata": {"params": {"CODE": "C6DMOQA6", "MIN_TIME": 14, "inspectCost": 1, "startTime": "Thu Aug 03 2023 15:53:01 GMT+0200 (SAST)", "bonusRate": 0.002, "variance": "1_2_4_8_44", "branching": "31123"}}, "eventdata": [{"eventtype": "initialized", "value": null, "timestamp": 1691070780704, "interval": 0}, {"eventtype": "window_resize", "value": [1024, 740], "timestamp": 1691070780704, "interval": 0}, {"eventtype": "window_resize", "value": [1024, 740], "timestamp": 1691070781205, "interval": 501}, {"eventtype": "window_resize", "value": [1440, 900], "timestamp": 1691070790879, "interval": 9674}, {"eventtype": "focus", "value": "off", "timestamp": 1691070943681, "interval": 152802}, {"eventtype": "focus", "value": "on", "timestamp": 1691070943682, "interval": 1}, {"eventtype": "window_resize", "value": [1024, 740], "timestamp": 1691070943883, "interval": 201}, {"eventtype": "focus", "value": "off", "timestamp": 1691070949772, "interval": 5889}], "useragent": "Mozilla/5.0 (Macintosh; Intel Mac OS X 10_15_7) AppleWebKit/605.1.15 (KHTML, like Gecko) Version/15.4 Safari/605.1.15", "mode": "live", "id": "w99745213:a25368530", "status": "user data saved", "Beginhit": "2023-08-03 13:52:57.430552", "Beginexp": "2023-08-03 13:53:12.670153", "Endhit": null, "psiturkStatus": 6, "browser": "<redacted>", "platform": "macos", "language": "en-gb", "excludeReason": "quizfail"}