{"condition": 0, "counterbalance": 0, "assignmentId": "a62543007", "workerId": "w40033915", "hitId": "h16399670", "currenttrial": 3, "bonus": 0, "data": [{"uniqueid": "w40033915:a62543007", "current_trial": 0, "dateTime": 1693566799125, "trialdata": {"success": true, "trial_type": "fullscreen", "trial_index": 0, "time_elapsed": 11161, "internal_node_id": "0.0-0.0"}}, {"uniqueid": "w40033915:a62543007", "current_trial": 1, "dateTime": 1693566842906, "trialdata": {"view_history": [{"page_index": 0, "viewing_time": 43739}], "rt": 43743, "trial_id": "exp_instructions_control", "trial_type": "instructions", "trial_index": 1, "time_elapsed": 54947, "internal_node_id": "0.0-1.0"}}, {"uniqueid": "w40033915:a62543007", "current_trial": 2, "dateTime": 1693566953545, "trialdata": {"view_history": [{"page_index": 0, "viewing_time": 27850}, {"page_index": 1, "viewing_time": 42416}, {"page_index": 2, "viewing_time": 12281}, {"page_index": 3, "viewing_time": 28063}], "rt": 110614, "trial_id": "mouselab_instructions_1_control", "trial_type": "instructions", "trial_index": 2, "time_elapsed": 165586, "internal_node_id": "0.0-2.0-1.0"}}], "questiondata": {"params": {"CODE": "C6DMOQA6", "MIN_TIME": 14, "inspectCost": 1, "startTime": "Fri Sep 01 2023 13:13:05 GMT+0200 (South Africa Standard Time)", "bonusRate": 0.002, "variance": "1_2_4_8_44", "branching": "31123"}}, "eventdata": [{"eventtype": "initialized", "value": null, "timestamp": 1693566785009, "interval": 0}, {"eventtype": "window_resize", "value": [980, 1824], "timestamp": 1693566785052, "interval": 43}, {"eventtype": "window_resize", "value": [980, 1824], "timestamp": 1693566785647, "interval": 595}, {"eventtype": "window_resize", "value": [360, 814], "timestamp": 1693566798560, "interval": 12913}, {"eventtype": "window_resize", "value": [360, 772], "timestamp": 1693566800384, "interval": 1824}, {"eventtype": "window_resize", "value": [360, 772], "timestamp": 1693566805168, "interval": 4784}, {"eventtype": "window_resize", "value": [360, 772], "timestamp": 1693566811232, "interval": 6064}, {"eventtype": "window_resize", "value": [777, 360], "timestamp": 1693566812680, "interval": 1448}, {"eventtype": "window_resize", "value": [360, 772], "timestamp": 1693566821255, "interval": 8575}, {"eventtype": "window_resize", "value": [980, 1824], "timestamp": 1693566833713, "interval": 12458}, {"eventtype": "window_resize", "value": [980, 363], "timestamp": 1693567027017, "interval": 193304}, {"eventtype": "window_resize", "value": [980, 1824], "timestamp": 1693567029232, "interval": 2215}, {"eventtype": "window_resize", "value": [980, 363], "timestamp": 1693567064216, "interval": 34984}, {"eventtype": "window_resize", "value": [980, 1824], "timestamp": 1693567067096, "interval": 2880}], "useragent": "Mozilla/5.0 (X11; Linux x86_64) AppleWebKit/537.36 (KHTML, like Gecko) Chrome/116.0.0.0 Safari/537.36", "mode": "live", "id": "w40033915:a62543007", "status": "user data saved", "Beginhit": "2023-09-01 11:13:02.134156", "Beginexp": "2023-09-01 11:13:19.965393", "Endhit": null, "psiturkStatus": 6, "browser": "<redacted>", "platform": "linux", "language": "en-US", "excludeReason": "dropout"}