{"condition": 1, "counterbalance": 0, "assignmentId": "a54615790", "workerId": "w90521557", "hitId": "h89266754", "currenttrial": 56, "bonus": 0, "data": [{"uniqueid": "w90521557:a54615790", "current_trial": 0, "dateTime": 1693565377099, "trialdata": {"success": true, "trial_type": "fullscreen", "trial_index": 0, "time_elapsed": 12041, "internal_node_id": "0.0-0.0"}}, {"uniqueid": "w90521557:a54615790", "current_trial": 1, "dateTime": 1693565412618, "trialdata": {"view_history": [{"page_index": 0, "viewing_time": 35500}], "rt": 35502, "trial_id": "exp_instructions_misaligned", "trial_type": "instructions", "trial_index": 1, "time_elapsed": 47561, "internal_node_id": "0.0-1.0"}}, {"uniqueid": "w90521557:a54615790", "current_trial": 2, "dateTime": 1693565872428, "trialdata": {"view_history": [{"page_index": 0, "viewing_time": 160728}, {"page_index": 1, "viewing_time": 180296}, {"page_index": 2, "viewing_time": 56536}, {"page_index": 3, "viewing_time": 62240}], "rt": 459803, "trial_id": "mouselab_instructions_1_misaligned", "trial_type": "instructions", "trial_index": 2, "time_elapsed": 507369, "internal_node_id": "0.0-2.0-1.0"}}, {"uniqueid": "w90521557:a54615790", "current_trial": 3, "dateTime": 1693565939798, "trialdata": {"revealed_states": [], "clicked_states": ["1", "2", "7", "3", "4", "10", "8", "9", "11", "12", "13", "14", "23", "24", "25", "30", "26", "32"], "num_clicks_accrued": [0, 0, 0, 0, 0, 0, 0, 0, 0, 0, 0, 0, 0], "stateRewards": ["", 10, -10, -10, 10, 10, -10, -10, 10, -10, 10, -10, -10, -10, -10, -10, -10, 10, -10, 10, -10, -10, -10, 10, 10, -10, -10, 10, -10, -10, 10, -10, 10, -10], "withholdReward": false, "trial_id": "practice_1", "block": "test", "trialIndex": 0, "score": -15.5, "costs": -9, "simulationMode": [null, null, null, null, null], "rewards": [10, -10, -10, 10, -10], "path": ["0", "0", "1", "2", "3", "8", "9"], "rt": [45471, 352, 3557, 172, 1127], "actions": ["up", "up", "up", "left", "up"], "actionTimes": [48583, 49449, 53522, 54202, 55841], "queries": {"click": {"state": {"target": ["1", "2", "7", "3", "4", "10", "8", "9", "11", "12", "13", "14", "23", "24", "25", "30", "26", "32"], "time": [4484, 6095, 8288, 10264, 11743, 13304, 14754, 17534, 19420, 24824, 25958, 27783, 29964, 31510, 33008, 34671, 36074, 45460]}, "edge": {"target": [], "time": []}}, "mouseover": {"state": {"target": ["1", "2", "7", "2", "7", "4", "3", "4", "10", "8", "9", "11", "1", "0", "12", "13", "13", "14", "0", "23", "24", "25", "30", "26", "28", "2", "23", "31", "23", "1", "2", "2", "24", "31", "30", "32", "31", "23", "0", "0"], "time": [4145, 4734, 5234, 5765, 6441, 8896, 10003, 11022, 12971, 14051, 16690, 19059, 20603, 23157, 24512, 25080, 25740, 26493, 28181, 28448, 30390, 31944, 33984, 35205, 37583, 37912, 38949, 39032, 40651, 40889, 41705, 43667, 44101, 44151, 44762, 45254, 46010, 46486, 46709, 47090]}, "edge": {"target": [], "time": []}}, "mouseout": {"state": {"target": ["0", "1", "2", "7", "2", "7", "4", "3", "4", "10", "8", "9", "8", "11", "1", "0", "12", "13", "13", "14", "13", "0", "23", "24", "25", "30", "25", "26", "28", "2", "23", "31", "23", "1", "2", "2", "24", "31", "30", "32", "31", "23", "0", "0", "0", "23", "23"], "time": [1582, 4612, 5172, 5699, 6183, 8374, 9928, 10870, 12442, 13349, 16617, 18338, 18564, 19917, 22823, 23198, 24902, 25521, 26291, 27893, 28113, 28229, 30339, 31853, 33812, 34765, 35121, 36188, 37809, 38904, 38967, 39732, 40705, 41513, 42122, 43766, 44118, 44415, 45007, 45897, 46084, 46502, 46907, 47207, 48869, 52606, 58297]}, "edge": {"target": [], "time": []}}}, "displayed_time": "56.35", "trialTime": 66083, "trial_type": "mouselab-mdp", "trial_index": 3, "time_elapsed": 574738, "internal_node_id": "0.0-2.0-2.0-0.0"}}, {"uniqueid": "w90521557:a54615790", "current_trial": 4, "dateTime": 1693565981390, "trialdata": {"revealed_states": [], "clicked_states": ["23", "24", "25", "12", "13", "14", "15", "1", "2", "7", "3", "4", "6", "5"], "num_clicks_accrued": [0, 0, 0, 0, 0, 0, 0, 0, 0, 0, 0, 0, 0], "stateRewards": ["", -10, 10, 10, 10, 10, -10, -10, -10, 10, 10, -10, 10, 10, -10, -10, 10, 10, 10, -10, -10, 10, -10, -10, -10, -10, 10, -10, -10, -10, -10, 10, 10, 10], "withholdReward": false, "trial_id": "practice_2", "block": "test", "trialIndex": 1, "score": 26.5, "costs": -7, "simulationMode": [null, null, null, null, null], "rewards": [-10, 10, 10, 10, 10], "path": ["0", "0", "1", "2", "3", "4", "5"], "rt": [29217, 115, 113, 21, 95], "actions": ["up", "up", "up", "right", "up"], "actionTimes": [32033, 32662, 33294, 33821, 34430], "queries": {"click": {"state": {"target": ["23", "24", "25", "12", "13", "14", "15", "1", "2", "7", "3", "4", "6", "5"], "time": [4483, 6867, 8466, 11839, 13276, 14688, 16482, 18758, 20186, 21850, 23868, 25306, 27534, 29300]}, "edge": {"target": [], "time": []}}, "mouseover": {"state": {"target": ["23", "24", "25", "24", "24", "25", "31", "12", "13", "14", "15", "1", "1", "2", "7", "4", "3", "4", "8", "8", "6", "5", "4", "7", "12"], "time": [4052, 4775, 5427, 6080, 6357, 7617, 10641, 11491, 12376, 13856, 16061, 18067, 18524, 19442, 21559, 22970, 23593, 24462, 26155, 26896, 27394, 29077, 30858, 31050, 31491]}, "edge": {"target": [], "time": []}}, "mouseout": {"state": {"target": ["0", "23", "24", "25", "24", "24", "25", "31", "12", "12", "13", "14", "15", "14", "1", "1", "2", "7", "4", "3", "4", "3", "8", "8", "3", "4", "6", "5", "5", "4", "7", "12"], "time": [2152, 4633, 5276, 6056, 6142, 7326, 10474, 10890, 11944, 12250, 13604, 15611, 17066, 17797, 18118, 19274, 21527, 22754, 23552, 24346, 25892, 26115, 26415, 26929, 26982, 27032, 29004, 29405, 29779, 30913, 31146, 31559]}, "edge": {"target": [], "time": []}}}, "displayed_time": "34.94", "trialTime": 40782, "trial_type": "mouselab-mdp", "trial_index": 4, "time_elapsed": 616330, "internal_node_id": "0.0-2.0-2.0-1.0"}}, {"uniqueid": "w90521557:a54615790", "current_trial": 5, "dateTime": 1693566074271, "trialdata": {"view_history": [{"page_index": 0, "viewing_time": 69850}, {"page_index": 1, "viewing_time": 23016}], "rt": 92867, "trial_id": "mouselab_instructions_2_misaligned", "trial_type": "instructions", "trial_index": 5, "time_elapsed": 709214, "internal_node_id": "0.0-2.0-3.0"}}, {"uniqueid": "w90521557:a54615790", "current_trial": 6, "dateTime": 1693566137729, "trialdata": {"rt": 63448, "response": {"Q0": "The cost for clicking on nodes may vary between nodes.", "Q1": "The better I perform the higher my bonus will be.", "Q2": "No, the amount of cash at each node of the web may be different each time.", "Q3": "To get the highest total score.", "Q4": "Only before moving the spider.", "Q5": "3 seconds"}, "question_order": [0, 1, 2, 3, 4, 5], "correct": {"Q0": "The cost for clicking on nodes may vary between nodes.", "Q1": "The better I perform the higher my bonus will be.", "Q2": "No, the amount of cash at each node of the web may be different each time.", "Q3": "To get the highest total score.", "Q4": "Only before moving the spider.", "Q5": "3 seconds"}, "trial_id": "mouselab_quiz_misaligned", "trial_type": "survey-multi-choice", "trial_index": 6, "time_elapsed": 772672, "internal_node_id": "0.0-2.0-4.0"}}, {"uniqueid": "w90521557:a54615790", "current_trial": 7, "dateTime": 1693566150416, "trialdata": {"rt": 12666, "response": {"Q0": "No"}, "question_order": [0], "trial_id": "repeat_check", "trial_type": "survey-multi-choice", "trial_index": 7, "time_elapsed": 785358, "internal_node_id": "0.0-4.0-0.0"}}, {"uniqueid": "w90521557:a54615790", "current_trial": 8, "dateTime": 1693566179059, "trialdata": {"rt": 28627, "stimulus": "\n<h1> Get ready to start the game! </h1>\n\nThank you for reading the instructions. Get ready start with the 40 rounds of this game.\n<br><br>\nIf you need to take a break, feel free to take one after the end of a round, before continuing to the next one.\n<br><br>\nRemember, the more money the spider gets, the bigger your bonus will be!\n<br><br>\n<div style='text-align: center;'>Press <code>space</code> to begin.</div>\n\n<br><br>\n(If, at any point, the <code>space</code> key does not take you to the next page, click once on the text and try again.)", "response": " ", "trial_id": "mdp_ready", "trial_type": "html-keyboard-response", "trial_index": 8, "time_elapsed": 814002, "internal_node_id": "0.0-6.0-0.0"}}, {"uniqueid": "w90521557:a54615790", "current_trial": 9, "dateTime": 1693566218293, "trialdata": {"revealed_states": [], "clicked_states": ["1", "2", "7", "3", "4", "5", "6", "8", "11"], "num_clicks_accrued": [0, 0, 0, 0, 0, 0, 0, 0, 0, 0, 0, 0, 0], "stateRewards": ["", -1, 2, -2, 13, -56, -28, 10, 14, 53, -80, -29, 1, -3, -3, -14, 14, 9, -40, -9, 18, 18, 48, 1, 1, 1, -9, 64, -39, -9, 7, -52, -78, 7], "withholdReward": false, "trial_id": "mdp_trial_1", "block": "test", "trialIndex": 2, "score": 9.249999999999998, "costs": -12.750000000000002, "simulationMode": [null, null, null, null, null], "rewards": [-1, 2, -2, 13, 10], "path": ["0", "0", "1", "2", "3", "4", "7"], "rt": [25556, 124, 114, 2, 678], "actions": ["up", "up", "up", "right", "down"], "actionTimes": [28344, 28989, 29613, 30138, 31350], "queries": {"click": {"state": {"target": ["1", "2", "7", "3", "4", "5", "6", "8", "11"], "time": [3854, 4884, 5979, 9437, 10482, 11737, 15613, 20597, 21792]}, "edge": {"target": [], "time": []}}, "mouseover": {"state": {"target": ["1", "2", "7", "4", "3", "4", "5", "6", "7", "2", "10", "8", "11", "10", "2", "3", "4", "7", "0"], "time": [3527, 4244, 5336, 6306, 7298, 10103, 11173, 12650, 16930, 19876, 19917, 20189, 21174, 26291, 26666, 26940, 27247, 27397, 27963]}, "edge": {"target": [], "time": []}}, "mouseout": {"state": {"target": ["7", "1", "1", "2", "7", "4", "3", "4", "5", "6", "7", "2", "10", "8", "11", "11", "10", "2", "3", "4", "7", "0", "0", "10"], "time": [1213, 1391, 4120, 5172, 6176, 7178, 9557, 11043, 12319, 16178, 17615, 19900, 19939, 20995, 21910, 22115, 26360, 26792, 27129, 27330, 27431, 27995, 32616, 34485]}, "edge": {"target": [], "time": []}}}, "displayed_time": "31.86", "trialTime": 38310, "trial_type": "mouselab-mdp", "trial_index": 9, "time_elapsed": 853234, "internal_node_id": "0.0-6.0-1.0-0.0"}}, {"uniqueid": "w90521557:a54615790", "current_trial": 10, "dateTime": 1693566243525, "trialdata": {"revealed_states": [], "clicked_states": ["12", "13", "14", "15", "16", "17", "18"], "num_clicks_accrued": [0, 0, 0, 0, 0, 0, 0, 0, 0, 0, 0, 0, 0], "stateRewards": ["", 2, 3, -6, -5, -3, 55, 40, 11, 61, 11, 51, 2, -4, -6, 9, -25, 29, -15, -6, 7, -77, -2, -2, -4, 1, 14, -43, -1, 56, -12, -54, 41, -74], "withholdReward": false, "trial_id": "mdp_trial_2", "block": "test", "trialIndex": 3, "score": 20.95, "costs": -9.05, "simulationMode": [null, null, null, null, null], "rewards": [2, -4, -6, 9, 29], "path": ["0", "0", "12", "13", "14", "15", "17"], "rt": [14482, 74, 28, 3, 53], "actions": ["right", "right", "right", "up", "right"], "actionTimes": [19212, 19807, 20351, 20880, 21463], "queries": {"click": {"state": {"target": ["12", "13", "14", "15", "16", "17", "18"], "time": [5789, 6458, 7193, 8101, 9400, 12668, 15798]}, "edge": {"target": [], "time": []}}, "mouseover": {"state": {"target": ["0", "12", "13", "14", "15", "18", "16", "17", "15", "18", "18", "13", "22"], "time": [5202, 5260, 6109, 6816, 7537, 8630, 9145, 9857, 12979, 13067, 13342, 16702, 17227]}, "edge": {"target": [], "time": []}}, "mouseout": {"state": {"target": ["0", "0", "12", "13", "14", "15", "15", "18", "16", "17", "15", "18", "18", "13", "22"], "time": [3856, 5226, 6014, 6782, 7437, 8507, 8570, 8926, 9699, 12902, 13042, 13206, 16326, 16980, 17765]}, "edge": {"target": [], "time": []}}}, "displayed_time": "21.98", "trialTime": 24360, "trial_type": "mouselab-mdp", "trial_index": 10, "time_elapsed": 878466, "internal_node_id": "0.0-6.0-1.0-1.0"}}, {"uniqueid": "w90521557:a54615790", "current_trial": 11, "dateTime": 1693566270781, "trialdata": {"revealed_states": [], "clicked_states": ["23", "24", "25", "30", "33", "31", "32"], "num_clicks_accrued": [0, 0, 0, 0, 0, 0, 0, 0, 0, 0, 0, 0, 0], "stateRewards": ["", -2, 4, 3, 5, -61, 4, 30, 1, -47, 83, 10, 1, 4, 7, -14, 19, -74, -83, 6, -2, -2, -65, -1, -2, 4, -11, 12, -1, -68, 11, -38, -28, 66], "withholdReward": false, "trial_id": "mdp_trial_3", "block": "test", "trialIndex": 4, "score": 68.95, "costs": -9.05, "simulationMode": [null, null, null, null, null], "rewards": [-1, -2, 4, 11, 66], "path": ["0", "0", "23", "24", "25", "30", "33"], "rt": [14596, 244, 3, 33, 17], "actions": ["left", "left", "left", "down", "left"], "actionTimes": [21005, 21762, 22295, 22865, 23417], "queries": {"click": {"state": {"target": ["23", "24", "25", "30", "33", "31", "32"], "time": [7142, 7643, 8248, 8967, 9803, 12938, 16072]}, "edge": {"target": [], "time": []}}, "mouseover": {"state": {"target": ["23", "24", "25", "30", "32", "33", "31", "32", "30", "25", "25"], "time": [6825, 7336, 7868, 8589, 9228, 9454, 10070, 13318, 16387, 16586, 20148]}, "edge": {"target": [], "time": []}}, "mouseout": {"state": {"target": ["0", "23", "24", "25", "30", "32", "33", "30", "31", "32", "30", "25", "25"], "time": [6779, 7286, 7805, 8537, 9190, 9390, 9958, 10023, 13255, 16150, 16416, 19673, 20180]}, "edge": {"target": [], "time": []}}}, "displayed_time": "23.94", "trialTime": 26378, "trial_type": "mouselab-mdp", "trial_index": 11, "time_elapsed": 905722, "internal_node_id": "0.0-6.0-1.0-2.0"}}, {"uniqueid": "w90521557:a54615790", "current_trial": 12, "dateTime": 1693566297388, "trialdata": {"revealed_states": [], "clicked_states": ["23", "24", "25", "26", "27", "28", "29"], "num_clicks_accrued": [0, 0, 0, 0, 0, 0, 0, 0, 0, 0, 0, 0, 0], "stateRewards": ["", -2, -2, -7, -13, -10, 49, -68, -1, 84, 70, 88, 1, 4, 4, 12, -57, 25, 30, 8, -1, -77, 57, 2, 3, 2, 3, -18, -80, 23, -15, -41, 70, 11], "withholdReward": false, "trial_id": "mdp_trial_4", "block": "test", "trialIndex": 5, "score": 23.95, "costs": -9.05, "simulationMode": [null, null, null, null, null], "rewards": [2, 3, 2, 3, 23], "path": ["0", "0", "23", "24", "25", "26", "29"], "rt": [14688, 388, 164, 87, 3], "actions": ["left", "left", "left", "up", "left"], "actionTimes": [20070, 20986, 21681, 22314, 22833], "queries": {"click": {"state": {"target": ["23", "24", "25", "26", "27", "28", "29"], "time": [7050, 7557, 8295, 8979, 9820, 12987, 16118]}, "edge": {"target": [], "time": []}}, "mouseover": {"state": {"target": ["23", "24", "25", "26", "27", "28", "26", "29", "24"], "time": [6695, 7308, 7894, 8731, 9573, 10627, 13309, 13579, 17205]}, "edge": {"target": [], "time": []}}, "mouseout": {"state": {"target": ["32", "0", "23", "24", "25", "26", "27", "28", "26", "29", "24"], "time": [459, 4495, 7181, 7628, 8435, 9308, 10205, 13250, 13406, 16667, 17321]}, "edge": {"target": [], "time": []}}}, "displayed_time": "23.37", "trialTime": 25738, "trial_type": "mouselab-mdp", "trial_index": 12, "time_elapsed": 932329, "internal_node_id": "0.0-6.0-1.0-3.0"}}, {"uniqueid": "w90521557:a54615790", "current_trial": 13, "dateTime": 1693566322981, "trialdata": {"revealed_states": [], "clicked_states": ["1", "2", "3", "8", "10", "11", "9"], "num_clicks_accrued": [0, 0, 0, 0, 0, 0, 0, 0, 0, 0, 0, 0, 0], "stateRewards": ["", 2, 4, -3, 16, -58, 30, -35, 11, -60, 47, 27, -2, -1, -7, -16, 23, -70, 68, -10, -65, -43, -34, -2, 1, 7, 9, -63, 34, -31, -8, -12, -86, 59], "withholdReward": false, "trial_id": "mdp_trial_5", "block": "test", "trialIndex": 6, "score": 51.95, "costs": -9.05, "simulationMode": [null, null, null, null, null], "rewards": [2, 4, -3, 11, 47], "path": ["0", "0", "1", "2", "3", "8", "10"], "rt": [13402, 89, 72, 14, 38], "actions": ["up", "up", "up", "left", "down"], "actionTimes": [17902, 18500, 19083, 19611, 20170], "queries": {"click": {"state": {"target": ["1", "2", "3", "8", "10", "11", "9"], "time": [5295, 5931, 6636, 7385, 8129, 11545, 14424]}, "edge": {"target": [], "time": []}}, "mouseover": {"state": {"target": ["1", "2", "3", "8", "10", "11", "9"], "time": [4974, 5541, 6377, 7032, 7867, 8467, 12232]}, "edge": {"target": [], "time": []}}, "mouseout": {"state": {"target": ["0", "1", "2", "3", "8", "10", "11", "9", "23"], "time": [4531, 5397, 6121, 6934, 7785, 8357, 11984, 14958, 21240]}, "edge": {"target": [], "time": []}}}, "displayed_time": "20.70", "trialTime": 24716, "trial_type": "mouselab-mdp", "trial_index": 13, "time_elapsed": 957922, "internal_node_id": "0.0-6.0-1.0-4.0"}}, {"uniqueid": "w90521557:a54615790", "current_trial": 14, "dateTime": 1693566345252, "trialdata": {"revealed_states": [], "clicked_states": ["12", "13", "14", "19", "20", "21", "22"], "num_clicks_accrued": [0, 0, 0, 0, 0, 0, 0, 0, 0, 0, 0, 0, 0], "stateRewards": ["", 1, 1, -5, 8, -6, 45, 16, -6, -7, -22, -38, -1, -4, 8, -11, -16, 21, -45, -15, -59, -32, 42, -1, 3, 6, 11, -7, 34, -27, -8, 85, 43, -9], "withholdReward": false, "trial_id": "mdp_trial_6", "block": "test", "trialIndex": 7, "score": 20.95, "costs": -9.05, "simulationMode": [null, null, null, null, null], "rewards": [-1, -4, 8, -15, 42], "path": ["0", "0", "12", "13", "14", "19", "22"], "rt": [13349, 435, 99, 23, 81], "actions": ["right", "right", "right", "down", "left"], "actionTimes": [15085, 16037, 16669, 17212, 17806], "queries": {"click": {"state": {"target": ["12", "13", "14", "19", "20", "21", "22"], "time": [2907, 3368, 3853, 4395, 4937, 8390, 11194]}, "edge": {"target": [], "time": []}}, "mouseover": {"state": {"target": ["0", "12", "13", "14", "19", "20", "22", "22", "21", "22"], "time": [2106, 2556, 3091, 3611, 4145, 4744, 5263, 5798, 6614, 8784]}, "edge": {"target": [], "time": []}}, "mouseout": {"state": {"target": ["0", "0", "12", "13", "14", "19", "20", "19", "22", "22", "21", "22"], "time": [2069, 2439, 3047, 3547, 4082, 4699, 5131, 5224, 5382, 6336, 8556, 11824]}, "edge": {"target": [], "time": []}}}, "displayed_time": "18.32", "trialTime": 21397, "trial_type": "mouselab-mdp", "trial_index": 14, "time_elapsed": 980193, "internal_node_id": "0.0-6.0-1.0-5.0"}}, {"uniqueid": "w90521557:a54615790", "current_trial": 15, "dateTime": 1693566368644, "trialdata": {"revealed_states": [], "clicked_states": ["1", "2", "3", "8", "11", "9", "10"], "num_clicks_accrued": [0, 0, 0, 0, 0, 0, 0, 0, 0, 0, 0, 0, 0], "stateRewards": ["", 1, -1, -7, -7, -22, 15, -13, 13, 26, -32, 38, -1, 1, -7, -4, 16, -62, 86, 12, -54, 56, 64, -2, -1, 6, 14, -57, 37, 62, -6, -25, 50, -70], "withholdReward": false, "trial_id": "mdp_trial_7", "block": "test", "trialIndex": 8, "score": 34.95, "costs": -9.05, "simulationMode": [null, null, null, null, null], "rewards": [1, -1, -7, 13, 38], "path": ["0", "0", "1", "2", "3", "8", "11"], "rt": [13947, 158, 236, 4, 101], "actions": ["up", "up", "up", "left", "left"], "actionTimes": [15527, 16206, 16950, 17471, 18102], "queries": {"click": {"state": {"target": ["1", "2", "3", "8", "11", "9", "10"], "time": [3244, 3903, 4605, 5240, 5800, 8973, 12102]}, "edge": {"target": [], "time": []}}, "mouseover": {"state": {"target": ["1", "2", "3", "8", "11", "9", "8", "10", "10"], "time": [2805, 3529, 4376, 4882, 5563, 6595, 9380, 9439, 9777]}, "edge": {"target": [], "time": []}}, "mouseout": {"state": {"target": ["0", "1", "2", "3", "8", "11", "9", "8", "10", "10"], "time": [711, 3386, 4153, 4818, 5441, 6298, 9313, 9410, 9487, 12902]}, "edge": {"target": [], "time": []}}}, "displayed_time": "18.62", "trialTime": 22455, "trial_type": "mouselab-mdp", "trial_index": 15, "time_elapsed": 1003585, "internal_node_id": "0.0-6.0-1.0-6.0"}}, {"uniqueid": "w90521557:a54615790", "current_trial": 16, "dateTime": 1693566405779, "trialdata": {"revealed_states": [], "clicked_states": ["1", "2", "3", "4", "7", "6", "5", "23", "24", "25", "30", "32", "31", "33"], "num_clicks_accrued": [0, 0, 0, 0, 0, 0, 0, 0, 0, 0, 0, 0, 0], "stateRewards": ["", -1, -3, 1, 13, -64, -29, 12, -4, -33, 50, 56, 2, -3, 4, 11, -64, -58, -55, 12, 47, 38, -25, -2, 2, 5, -15, 85, 7, 84, 10, 8, 57, 26], "withholdReward": false, "trial_id": "mdp_trial_8", "block": "test", "trialIndex": 9, "score": 53.9, "costs": -18.1, "simulationMode": [null, null, null, null, null], "rewards": [-2, 2, 5, 10, 57], "path": ["0", "0", "23", "24", "25", "30", "32"], "rt": [29078, 77, 407, 195, 261], "actions": ["left", "left", "left", "down", "down"], "actionTimes": [30712, 31312, 32241, 32968, 33768], "queries": {"click": {"state": {"target": ["1", "2", "3", "4", "7", "6", "5", "23", "24", "25", "30", "32", "31", "33"], "time": [2876, 3334, 3831, 4521, 5358, 8176, 11334, 16132, 17015, 18036, 18940, 19664, 22855, 27026]}, "edge": {"target": [], "time": []}}, "mouseover": {"state": {"target": ["1", "2", "3", "4", "7", "6", "6", "5", "4", "7", "23", "23", "24", "25", "30", "32", "31", "30", "33"], "time": [2236, 3107, 3611, 4260, 5148, 5825, 6585, 8890, 11936, 12190, 15537, 15817, 16806, 17751, 18582, 19442, 20259, 23350, 23733]}, "edge": {"target": [], "time": []}}, "mouseout": {"state": {"target": ["0", "1", "2", "3", "4", "7", "4", "6", "6", "5", "4", "7", "23", "23", "24", "25", "30", "32", "31", "30", "33"], "time": [2151, 2992, 3475, 4040, 4860, 5493, 5659, 6201, 8309, 11770, 12046, 12833, 15568, 16496, 17475, 18419, 19245, 19755, 23300, 23379, 27486]}, "edge": {"target": [], "time": []}}}, "displayed_time": "34.28", "trialTime": 36208, "trial_type": "mouselab-mdp", "trial_index": 16, "time_elapsed": 1040720, "internal_node_id": "0.0-6.0-1.0-7.0"}}, {"uniqueid": "w90521557:a54615790", "current_trial": 17, "dateTime": 1693566430336, "trialdata": {"revealed_states": [], "clicked_states": ["23", "24", "25", "26", "28", "29", "27"], "num_clicks_accrued": [0, 0, 0, 0, 0, 0, 0, 0, 0, 0, 0, 0, 0], "stateRewards": ["", 1, 1, 1, 15, -76, 52, -32, 14, -57, 37, 49, 1, -4, -3, 6, 83, -76, 25, 9, 36, -1, -17, -1, 4, 4, -2, -22, -21, 58, -15, -57, 49, -24], "withholdReward": false, "trial_id": "mdp_trial_9", "block": "test", "trialIndex": 10, "score": 53.95, "costs": -9.05, "simulationMode": [null, null, null, null, null], "rewards": [-1, 4, 4, -2, 58], "path": ["0", "0", "23", "24", "25", "26", "29"], "rt": [12863, 90, 384, 194, 4], "actions": ["left", "left", "left", "up", "left"], "actionTimes": [15305, 15935, 16847, 17559, 18074], "queries": {"click": {"state": {"target": ["23", "24", "25", "26", "28", "29", "27"], "time": [3250, 3630, 4168, 4613, 5487, 8868, 11967]}, "edge": {"target": [], "time": []}}, "mouseover": {"state": {"target": ["23", "24", "25", "26", "28", "28", "29", "27", "29", "27", "24", "31"], "time": [2980, 3404, 3874, 4372, 4786, 5264, 6067, 6744, 7260, 9482, 13075, 13137]}, "edge": {"target": [], "time": []}}, "mouseout": {"state": {"target": ["0", "23", "24", "25", "26", "28", "28", "26", "29", "27", "29", "27", "24", "31"], "time": [1666, 3361, 3780, 4277, 4747, 4850, 5723, 5831, 6489, 7161, 8973, 12572, 13106, 13187]}, "edge": {"target": [], "time": []}}}, "displayed_time": "18.60", "trialTime": 23031, "trial_type": "mouselab-mdp", "trial_index": 17, "time_elapsed": 1065278, "internal_node_id": "0.0-6.0-1.0-8.0"}}, {"uniqueid": "w90521557:a54615790", "current_trial": 18, "dateTime": 1693566466627, "trialdata": {"revealed_states": [], "clicked_states": ["12", "13", "14", "15", "18", "16", "17", "23", "24", "25", "30", "31", "32", "33"], "num_clicks_accrued": [0, 0, 0, 0, 0, 0, 0, 0, 0, 0, 0, 0, 0], "stateRewards": ["", -2, 2, 2, -6, 9, 37, 50, -13, -7, -18, -75, -2, -4, 4, 7, 23, -57, -66, -7, -81, -48, -76, 1, 1, -8, 1, 51, -2, 70, 14, 59, 71, -37], "withholdReward": false, "trial_id": "mdp_trial_10", "block": "test", "trialIndex": 11, "score": 60.9, "costs": -18.1, "simulationMode": [null, null, null, null, null], "rewards": [1, 1, -8, 14, 71], "path": ["0", "0", "23", "24", "25", "30", "32"], "rt": [28244, 27, 365, 516, 145], "actions": ["left", "left", "left", "down", "down"], "actionTimes": [30135, 30686, 31558, 32598, 33262], "queries": {"click": {"state": {"target": ["12", "13", "14", "15", "18", "16", "17", "23", "24", "25", "30", "31", "32", "33"], "time": [3302, 4503, 5136, 5905, 6546, 9617, 12827, 17330, 17933, 18640, 19437, 20205, 23627, 26905]}, "edge": {"target": [], "time": []}}, "mouseover": {"state": {"target": ["1", "12", "13", "13", "14", "15", "18", "16", "17", "15", "13", "23", "24", "25", "30", "31", "32", "32", "33"], "time": [2675, 2918, 3927, 4284, 4889, 5559, 6258, 7172, 10302, 13435, 13761, 17054, 17620, 18338, 19225, 19958, 20884, 21831, 24132]}, "edge": {"target": [], "time": []}}, "mouseout": {"state": {"target": ["0", "1", "12", "13", "13", "14", "15", "18", "16", "17", "15", "13", "23", "24", "25", "30", "30", "31", "30", "32", "32", "33", "32"], "time": [2537, 2846, 3425, 3963, 4802, 5246, 6215, 6918, 9959, 12905, 13530, 13892, 17499, 18216, 19005, 19531, 19870, 20468, 20658, 21653, 23724, 27483, 28053]}, "edge": {"target": [], "time": []}}}, "displayed_time": "33.77", "trialTime": 35318, "trial_type": "mouselab-mdp", "trial_index": 18, "time_elapsed": 1101568, "internal_node_id": "0.0-6.0-1.0-9.0"}}, {"uniqueid": "w90521557:a54615790", "current_trial": 19, "dateTime": 1693566492115, "trialdata": {"revealed_states": [], "clicked_states": ["23", "24", "25", "26", "28", "27", "29"], "num_clicks_accrued": [0, 0, 0, 0, 0, 0, 0, 0, 0, 0, 0, 0, 0], "stateRewards": ["", 1, 1, 7, -11, 80, -20, -53, -14, 3, 31, 27, 2, -1, -8, -10, 33, 41, 86, 9, 78, -37, -13, -1, -2, -6, -8, -80, 75, 4, -16, -49, -74, 24], "withholdReward": false, "trial_id": "mdp_trial_11", "block": "test", "trialIndex": 12, "score": 48.95, "costs": -9.05, "simulationMode": [null, null, null, null, null], "rewards": [-1, -2, -6, -8, 75], "path": ["0", "0", "23", "24", "25", "26", "28"], "rt": [13426, 310, 695, 90, 8], "actions": ["left", "left", "left", "up", "right"], "actionTimes": [17886, 18732, 19933, 20541, 21068], "queries": {"click": {"state": {"target": ["23", "24", "25", "26", "28", "27", "29"], "time": [5131, 5574, 6144, 6618, 7179, 11484, 14651]}, "edge": {"target": [], "time": []}}, "mouseover": {"state": {"target": ["23", "24", "25", "26", "28", "27", "29", "27", "29", "31"], "time": [4865, 5357, 5875, 6352, 6835, 7656, 8307, 9299, 11984, 15807]}, "edge": {"target": [], "time": []}}, "mouseout": {"state": {"target": ["0", "23", "24", "25", "26", "28", "27", "29", "27", "29", "31", "31"], "time": [3629, 5292, 5780, 6214, 6799, 7378, 8148, 9061, 11779, 15210, 16114, 22018]}, "edge": {"target": [], "time": []}}}, "displayed_time": "21.60", "trialTime": 24565, "trial_type": "mouselab-mdp", "trial_index": 19, "time_elapsed": 1127056, "internal_node_id": "0.0-6.0-1.0-10.0"}}, {"uniqueid": "w90521557:a54615790", "current_trial": 20, "dateTime": 1693566525314, "trialdata": {"revealed_states": [], "clicked_states": ["1", "2", "3", "4", "6", "7", "5", "8", "11", "9", "10"], "num_clicks_accrued": [0, 0, 0, 0, 0, 0, 0, 0, 0, 0, 0, 0, 0], "stateRewards": ["", -2, -3, 7, -13, 60, 9, 37, -6, 37, 20, 1, 2, -2, -8, 6, -80, -31, -10, -7, 70, -65, -44, -1, 1, 7, 6, -11, 73, -85, 16, -21, 47, 34], "withholdReward": false, "trial_id": "mdp_trial_12", "block": "test", "trialIndex": 13, "score": 31.95, "costs": -17.05, "simulationMode": [null, null, null, null, null], "rewards": [-2, -3, 7, -13, 60], "path": ["0", "0", "1", "2", "3", "4", "5"], "rt": [25016, 175, 75, 579, 75], "actions": ["up", "up", "up", "right", "up"], "actionTimes": [26711, 27406, 28006, 29094, 29677], "queries": {"click": {"state": {"target": ["1", "2", "3", "4", "6", "7", "5", "8", "11", "9", "10"], "time": [3497, 4050, 4741, 5418, 6026, 8844, 12075, 15974, 16758, 20029, 23472]}, "edge": {"target": [], "time": []}}, "mouseover": {"state": {"target": ["1", "2", "3", "4", "6", "7", "4", "5", "8", "11", "9", "8", "10"], "time": [3236, 3745, 4522, 5156, 5865, 6392, 9335, 9499, 12844, 16350, 17281, 20405, 20679]}, "edge": {"target": [], "time": []}}, "mouseout": {"state": {"target": ["0", "1", "2", "3", "4", "6", "7", "4", "5", "5", "8", "11", "9", "8", "10"], "time": [2916, 3620, 4237, 5044, 5746, 6322, 9261, 9365, 12198, 12628, 16261, 17105, 20374, 20496, 23851]}, "edge": {"target": [], "time": []}}}, "displayed_time": "30.19", "trialTime": 32254, "trial_type": "mouselab-mdp", "trial_index": 20, "time_elapsed": 1160255, "internal_node_id": "0.0-6.0-1.0-11.0"}}, {"uniqueid": "w90521557:a54615790", "current_trial": 21, "dateTime": 1693566543716, "trialdata": {"revealed_states": [], "clicked_states": ["23", "24", "25", "30", "31", "33"], "num_clicks_accrued": [0, 0, 0, 0, 0, 0, 0, 0, 0, 0, 0, 0, 0], "stateRewards": ["", 1, -2, -2, 10, -31, -77, 35, 9, -47, 8, 48, -2, 1, -4, -3, -26, -50, 43, -11, 76, -38, 17, 1, -1, 6, 10, 15, -9, 12, -8, 85, 11, -55], "withholdReward": false, "trial_id": "mdp_trial_13", "block": "test", "trialIndex": 14, "score": 76.1, "costs": -6.9, "simulationMode": [null, null, null, null, null, null], "rewards": [1, -1, 6, -8, 85], "path": ["0", "0", "23", "24", "25", "30", "31"], "rt": [8201, 407, 198, 767, 5, 1150], "actions": ["left", "left", "left", "left", "down", "right"], "actionTimes": [10155, 10574, 11326, 12639, 13160, 14838], "queries": {"click": {"state": {"target": ["23", "24", "25", "30", "31", "33"], "time": [2764, 3262, 3824, 4407, 4991, 8522]}, "edge": {"target": [], "time": []}}, "mouseover": {"state": {"target": ["23", "24", "25", "30", "31", "33", "33", "32"], "time": [2476, 2992, 3611, 4241, 4766, 5477, 6783, 9147]}, "edge": {"target": [], "time": []}}, "mouseout": {"state": {"target": ["0", "23", "24", "25", "30", "30", "31", "30", "33", "33", "32"], "time": [887, 2927, 3513, 4142, 4527, 4724, 5217, 5369, 6283, 8882, 9770]}, "edge": {"target": [], "time": []}}}, "displayed_time": "15.96", "trialTime": 17463, "trial_type": "mouselab-mdp", "trial_index": 21, "time_elapsed": 1178657, "internal_node_id": "0.0-6.0-1.0-12.0"}}, {"uniqueid": "w90521557:a54615790", "current_trial": 22, "dateTime": 1693566567205, "trialdata": {"revealed_states": [], "clicked_states": ["23", "24", "25", "26", "28", "29", "27"], "num_clicks_accrued": [0, 0, 0, 0, 0, 0, 0, 0, 0, 0, 0, 0, 0], "stateRewards": ["", 1, -3, -6, -5, 47, 80, -29, 11, -71, 10, -29, -2, 3, -6, 12, 2, -78, -6, 8, 34, -16, -5, -1, 3, 3, -13, 84, -36, -62, -3, -27, 66, 15], "withholdReward": false, "trial_id": "mdp_trial_14", "block": "test", "trialIndex": 15, "score": 66.95, "costs": -9.05, "simulationMode": [null, null, null, null, null], "rewards": [-1, 3, 3, -13, 84], "path": ["0", "0", "23", "24", "25", "26", "27"], "rt": [12823, 285, 658, 566, 103], "actions": ["left", "left", "left", "up", "up"], "actionTimes": [15100, 15892, 17068, 18164, 18788], "queries": {"click": {"state": {"target": ["23", "24", "25", "26", "28", "29", "27"], "time": [2881, 3333, 3917, 4565, 5196, 8350, 11528]}, "edge": {"target": [], "time": []}}, "mouseover": {"state": {"target": ["23", "24", "25", "26", "28", "29", "27", "26", "25", "30", "32", "30"], "time": [2514, 3090, 3635, 4252, 4960, 5658, 8865, 12064, 12208, 12624, 13401, 14828]}, "edge": {"target": [], "time": []}}, "mouseout": {"state": {"target": ["0", "23", "24", "25", "26", "28", "29", "27", "26", "25", "30", "32", "30"], "time": [1286, 3045, 3509, 4066, 4889, 5223, 8561, 12012, 12121, 12298, 12896, 14792, 20222]}, "edge": {"target": [], "time": []}}}, "displayed_time": "19.30", "trialTime": 22564, "trial_type": "mouselab-mdp", "trial_index": 22, "time_elapsed": 1202146, "internal_node_id": "0.0-6.0-1.0-13.0"}}, {"uniqueid": "w90521557:a54615790", "current_trial": 23, "dateTime": 1693566589971, "trialdata": {"revealed_states": [], "clicked_states": ["32", "33", "31"], "num_clicks_accrued": [0, 0, 0, 0, 0, 0, 0, 0, 0, 0, 0, 0, 0], "stateRewards": ["", 2, 3, 8, 11, 25, -80, 6, -4, -56, 84, -23, -2, -4, -3, 4, -51, -9, -61, -15, -64, 67, -35, 1, -1, -7, -6, 83, 59, -15, 12, -79, 56, 41], "withholdReward": false, "trial_id": "mdp_trial_15", "block": "test", "trialIndex": 16, "score": 54.55, "costs": -6.449999999999999, "simulationMode": [null, null, null, null, null], "rewards": [1, -1, -7, 12, 56], "path": ["0", "0", "23", "24", "25", "30", "32"], "rt": [10596, 438, 93, 523, 117], "actions": ["left", "left", "left", "down", "down"], "actionTimes": [17099, 18065, 18673, 19705, 20337], "queries": {"click": {"state": {"target": ["32", "33", "31"], "time": [7375, 10627, 13635]}, "edge": {"target": [], "time": []}}, "mouseover": {"state": {"target": ["31", "32", "33", "30", "31"], "time": [6535, 7110, 7776, 10980, 11111]}, "edge": {"target": [], "time": []}}, "mouseout": {"state": {"target": ["31", "31", "31", "32", "33", "33", "30", "31"], "time": [2872, 5229, 6711, 7724, 10744, 10948, 11036, 14284]}, "edge": {"target": [], "time": []}}}, "displayed_time": "20.86", "trialTime": 21746, "trial_type": "mouselab-mdp", "trial_index": 23, "time_elapsed": 1224912, "internal_node_id": "0.0-6.0-1.0-14.0"}}, {"uniqueid": "w90521557:a54615790", "current_trial": 24, "dateTime": 1693566608876, "trialdata": {"revealed_states": [], "clicked_states": ["28", "27", "29"], "num_clicks_accrued": [0, 0, 0, 0, 0, 0, 0, 0, 0, 0, 0, 0, 0], "stateRewards": ["", -2, -1, 3, -3, 71, -58, -21, 7, -10, -75, -37, 2, 4, -1, -12, -79, -29, -48, 3, -41, -10, -30, -1, -2, 1, -15, 13, 66, 22, -1, -42, -86, -55], "withholdReward": false, "trial_id": "mdp_trial_16", "block": "test", "trialIndex": 17, "score": 42.55, "costs": -6.449999999999999, "simulationMode": [null, null, null, null, null], "rewards": [-1, -2, 1, -15, 66], "path": ["0", "0", "23", "24", "25", "26", "28"], "rt": [10797, 492, 172, 42, 5], "actions": ["left", "left", "left", "up", "right"], "actionTimes": [12614, 13614, 14309, 14869, 15402], "queries": {"click": {"state": {"target": ["28", "27", "29"], "time": [2999, 6264, 9417]}, "edge": {"target": [], "time": []}}, "mouseover": {"state": {"target": ["23", "28", "27", "29", "25", "24"], "time": [2524, 2799, 3392, 6896, 9987, 10092]}, "edge": {"target": [], "time": []}}, "mouseout": {"state": {"target": ["0", "23", "28", "27", "29", "25", "24"], "time": [2494, 2572, 3173, 6625, 9892, 10019, 10145]}, "edge": {"target": [], "time": []}}}, "displayed_time": "15.94", "trialTime": 17845, "trial_type": "mouselab-mdp", "trial_index": 24, "time_elapsed": 1243817, "internal_node_id": "0.0-6.0-1.0-15.0"}}, {"uniqueid": "w90521557:a54615790", "current_trial": 25, "dateTime": 1693566643883, "trialdata": {"revealed_states": [], "clicked_states": ["10", "11", "9", "5", "6", "7", "18", "16", "17"], "num_clicks_accrued": [0, 0, 0, 0, 0, 0, 0, 0, 0, 0, 0, 0, 0], "stateRewards": ["", -1, -2, -8, 8, -27, -82, 19, -14, -62, 4, 1, -2, 2, 6, 10, 73, -51, -2, 2, 73, -48, 54, -1, 2, -4, 11, -25, 47, 86, 15, 33, 43, -42], "withholdReward": false, "trial_id": "mdp_trial_17", "block": "test", "trialIndex": 18, "score": 69.65, "costs": -19.349999999999998, "simulationMode": [null, null, null, null, null, null], "rewards": [-2, 2, 6, 10, 73], "path": ["0", "0", "12", "13", "14", "15", "16"], "rt": [27804, 438, 140, 156, 586, 65], "actions": ["right", "right", "right", "right", "up", "up"], "actionTimes": [29333, 29784, 30474, 31145, 32253, 32828], "queries": {"click": {"state": {"target": ["10", "11", "9", "5", "6", "7", "18", "16", "17"], "time": [2606, 5904, 9178, 12314, 15529, 18806, 22195, 25341, 28518]}, "edge": {"target": [], "time": []}}, "mouseover": {"state": {"target": ["10", "11", "9", "5", "6", "7", "18", "16", "17"], "time": [2433, 3084, 6456, 9538, 13117, 16060, 19507, 22566, 25925]}, "edge": {"target": [], "time": []}}, "mouseout": {"state": {"target": ["0", "10", "11", "9", "5", "6", "7", "7", "18", "16", "17", "17", "14"], "time": [2027, 2904, 6091, 9452, 12803, 15755, 18872, 19349, 22343, 25637, 28612, 29044, 33406]}, "edge": {"target": [], "time": []}}}, "displayed_time": "33.38", "trialTime": 34045, "trial_type": "mouselab-mdp", "trial_index": 25, "time_elapsed": 1278824, "internal_node_id": "0.0-6.0-1.0-16.0"}}, {"uniqueid": "w90521557:a54615790", "current_trial": 26, "dateTime": 1693566663140, "trialdata": {"revealed_states": [], "clicked_states": ["20", "21", "22"], "num_clicks_accrued": [0, 0, 0, 0, 0, 0, 0, 0, 0, 0, 0, 0, 0], "stateRewards": ["", 2, -4, 4, 9, 69, 9, -75, 12, -86, 66, 25, -1, 3, 2, -13, -88, -3, 1, 4, -69, 49, -84, 2, -1, 4, 2, -18, -81, -52, -15, -69, -54, 25], "withholdReward": false, "trial_id": "mdp_trial_18", "block": "test", "trialIndex": 19, "score": 50.55, "costs": -6.449999999999999, "simulationMode": [null, null, null, null, null], "rewards": [-1, 3, 2, 4, 49], "path": ["0", "0", "12", "13", "14", "19", "21"], "rt": [11380, 518, 146, 5, 38], "actions": ["right", "right", "right", "down", "down"], "actionTimes": [13110, 14141, 14805, 15323, 15885], "queries": {"click": {"state": {"target": ["20", "21", "22"], "time": [2859, 6112, 9481]}, "edge": {"target": [], "time": []}}, "mouseover": {"state": {"target": ["12", "20", "21", "22"], "time": [2328, 2669, 3115, 6565]}, "edge": {"target": [], "time": []}}, "mouseout": {"state": {"target": ["0", "12", "20", "21", "22"], "time": [2211, 2355, 3044, 6447, 11963]}, "edge": {"target": [], "time": []}}}, "displayed_time": "16.41", "trialTime": 18254, "trial_type": "mouselab-mdp", "trial_index": 26, "time_elapsed": 1298081, "internal_node_id": "0.0-6.0-1.0-17.0"}}, {"uniqueid": "w90521557:a54615790", "current_trial": 27, "dateTime": 1693566683004, "trialdata": {"revealed_states": [], "clicked_states": ["31", "32", "33"], "num_clicks_accrued": [0, 0, 0, 0, 0, 0, 0, 0, 0, 0, 0, 0, 0], "stateRewards": ["", -2, -3, 1, -14, 48, -49, 67, -1, -35, -48, 3, -2, 1, -4, -5, 86, -84, 39, 1, 48, 41, -42, -1, -4, 2, -7, 18, -86, 17, 7, -9, 57, -69], "withholdReward": false, "trial_id": "mdp_trial_19", "block": "test", "trialIndex": 20, "score": 54.55, "costs": -6.449999999999999, "simulationMode": [null, null, null, null, null], "rewards": [-1, -4, 2, 7, 57], "path": ["0", "0", "23", "24", "25", "30", "32"], "rt": [10775, 397, 134, 497, 164], "actions": ["left", "left", "left", "down", "down"], "actionTimes": [12533, 13453, 14107, 15131, 15827], "queries": {"click": {"state": {"target": ["31", "32", "33"], "time": [2688, 5891, 9289]}, "edge": {"target": [], "time": []}}, "mouseover": {"state": {"target": ["31", "31", "32", "33", "30"], "time": [1799, 2375, 3175, 6397, 9677]}, "edge": {"target": [], "time": []}}, "mouseout": {"state": {"target": ["31", "31", "32", "33", "30"], "time": [1923, 2926, 6065, 9637, 9740]}, "edge": {"target": [], "time": []}}}, "displayed_time": "16.36", "trialTime": 18884, "trial_type": "mouselab-mdp", "trial_index": 27, "time_elapsed": 1317945, "internal_node_id": "0.0-6.0-1.0-18.0"}}, {"uniqueid": "w90521557:a54615790", "current_trial": 28, "dateTime": 1693566701020, "trialdata": {"revealed_states": [], "clicked_states": ["29", "27", "28"], "num_clicks_accrued": [0, 0, 0, 0, 0, 0, 0, 0, 0, 0, 0, 0, 0], "stateRewards": ["", -2, 2, 5, -14, -56, 64, 84, -5, 52, 39, 85, -2, 1, 7, 8, 21, 29, -78, -9, -10, -69, 10, -2, -1, -7, 15, 72, 20, 41, -2, 52, 80, 22], "withholdReward": false, "trial_id": "mdp_trial_20", "block": "test", "trialIndex": 21, "score": 70.55, "costs": -6.449999999999999, "simulationMode": [null, null, null, null, null], "rewards": [-2, -1, -7, 15, 72], "path": ["0", "0", "23", "24", "25", "26", "27"], "rt": [10390, 456, 177, 147, 182], "actions": ["left", "left", "left", "up", "up"], "actionTimes": [12045, 13012, 13701, 14356, 15044], "queries": {"click": {"state": {"target": ["29", "27", "28"], "time": [2358, 5616, 8828]}, "edge": {"target": [], "time": []}}, "mouseover": {"state": {"target": ["25", "29", "27", "28"], "time": [1752, 2123, 2783, 6290]}, "edge": {"target": [], "time": []}}, "mouseout": {"state": {"target": ["0", "25", "29", "27", "28"], "time": [852, 1795, 2623, 5940, 9363]}, "edge": {"target": [], "time": []}}}, "displayed_time": "15.66", "trialTime": 16948, "trial_type": "mouselab-mdp", "trial_index": 28, "time_elapsed": 1335961, "internal_node_id": "0.0-6.0-1.0-19.0"}}, {"uniqueid": "w90521557:a54615790", "current_trial": 29, "dateTime": 1693566738355, "trialdata": {"revealed_states": [], "clicked_states": ["28", "27", "29", "33", "32", "31", "22", "21"], "num_clicks_accrued": [0, 0, 0, 0, 0, 0, 0, 0, 0, 0, 0, 0, 0], "stateRewards": ["", 2, 3, -1, 16, -78, -11, 46, 2, -20, 79, -67, 2, 3, 2, 11, -83, -42, -58, -11, -67, -22, 55, 2, -1, -1, -16, -83, -82, 23, -11, -29, 13, 13], "withholdReward": false, "trial_id": "mdp_trial_21", "block": "test", "trialIndex": 22, "score": 33.8, "costs": -17.2, "simulationMode": [null, null, null, null, null], "rewards": [2, 3, 2, -11, 55], "path": ["0", "0", "12", "13", "14", "19", "22"], "rt": [28578, 468, 139, 709, 161], "actions": ["right", "right", "right", "down", "left"], "actionTimes": [30203, 31194, 31858, 33090, 33762], "queries": {"click": {"state": {"target": ["28", "27", "29", "33", "32", "31", "22", "21"], "time": [3463, 6654, 10031, 13478, 16756, 19990, 23266, 26775]}, "edge": {"target": [], "time": []}}, "mouseover": {"state": {"target": ["28", "26", "27", "28", "27", "26", "29", "25", "30", "33", "32", "31", "22", "21", "20"], "time": [2210, 2513, 2781, 3224, 3882, 7049, 7208, 10517, 10579, 10931, 13792, 17255, 20676, 23691, 27389]}, "edge": {"target": [], "time": []}}, "mouseout": {"state": {"target": ["0", "28", "26", "27", "28", "27", "26", "29", "25", "30", "33", "32", "31", "22", "21", "20", "19"], "time": [794, 2296, 2630, 2810, 3559, 6992, 7081, 10419, 10548, 10612, 13718, 16990, 20370, 23526, 27020, 35224, 35263]}, "edge": {"target": [], "time": []}}}, "displayed_time": "34.28", "trialTime": 36226, "trial_type": "mouselab-mdp", "trial_index": 29, "time_elapsed": 1373296, "internal_node_id": "0.0-6.0-1.0-20.0"}}, {"uniqueid": "w90521557:a54615790", "current_trial": 30, "dateTime": 1693566755877, "trialdata": {"revealed_states": [], "clicked_states": ["11", "9"], "num_clicks_accrued": [0, 0, 0, 0, 0, 0, 0, 0, 0, 0, 0, 0, 0], "stateRewards": ["", -2, -1, -5, 10, -36, -70, 68, -9, 86, 71, -10, 2, -4, 7, -7, 66, 44, -66, -13, -69, 43, 15, -2, 2, 6, -13, 62, 57, 50, -10, -69, 42, -72], "withholdReward": false, "trial_id": "mdp_trial_22", "block": "test", "trialIndex": 23, "score": 64.7, "costs": -4.3, "simulationMode": [null, null, null, null, null], "rewards": [-2, -1, -5, -9, 86], "path": ["0", "0", "1", "2", "3", "8", "9"], "rt": [8611, 99, 128, 6, 27], "actions": ["up", "up", "up", "left", "up"], "actionTimes": [10453, 11060, 11708, 12221, 12779], "queries": {"click": {"state": {"target": ["11", "9"], "time": [2970, 6142]}, "edge": {"target": [], "time": []}}, "mouseover": {"state": {"target": ["10", "11", "11", "9", "8", "10"], "time": [2372, 2433, 2735, 5516, 6551, 6639]}, "edge": {"target": [], "time": []}}, "mouseout": {"state": {"target": ["0", "10", "11", "11", "9", "9", "8", "10"], "time": [950, 2393, 2541, 3407, 6224, 6518, 6583, 15681]}, "edge": {"target": [], "time": []}}}, "displayed_time": "15.84", "trialTime": 16524, "trial_type": "mouselab-mdp", "trial_index": 30, "time_elapsed": 1390818, "internal_node_id": "0.0-6.0-1.0-21.0"}}, {"uniqueid": "w90521557:a54615790", "current_trial": 31, "dateTime": 1693566773959, "trialdata": {"revealed_states": [], "clicked_states": ["5", "6"], "num_clicks_accrued": [0, 0, 0, 0, 0, 0, 0, 0, 0, 0, 0, 0, 0], "stateRewards": ["", 2, 3, -3, 4, 72, -28, 34, -12, 57, -64, -15, 2, 1, -4, -15, 2, 49, 31, -1, -42, -58, 31, -2, 1, -2, -13, -75, -19, -22, -6, 61, 10, -56], "withholdReward": false, "trial_id": "mdp_trial_23", "block": "test", "trialIndex": 24, "score": 73.7, "costs": -4.3, "simulationMode": [null, null, null, null, null, null], "rewards": [2, 3, -3, 4, 72], "path": ["0", "0", "1", "2", "3", "4", "5"], "rt": [5683, 359, 57, 336, 6, 70], "actions": ["up", "up", "up", "up", "right", "up"], "actionTimes": [7439, 7809, 8408, 9264, 9824, 10423], "queries": {"click": {"state": {"target": ["5", "6"], "time": [2717, 6213]}, "edge": {"target": [], "time": []}}, "mouseover": {"state": {"target": ["0", "7", "4", "5", "6"], "time": [1810, 2182, 2244, 2482, 3258]}, "edge": {"target": [], "time": []}}, "mouseout": {"state": {"target": ["0", "0", "0", "7", "4", "5", "6", "12"], "time": [739, 1791, 1953, 2217, 2361, 3081, 6802, 14791]}, "edge": {"target": [], "time": []}}}, "displayed_time": "15.76", "trialTime": 16943, "trial_type": "mouselab-mdp", "trial_index": 31, "time_elapsed": 1408902, "internal_node_id": "0.0-6.0-1.0-22.0"}}, {"uniqueid": "w90521557:a54615790", "current_trial": 32, "dateTime": 1693566806839, "trialdata": {"revealed_states": [], "clicked_states": ["18", "16", "17", "20", "21", "22", "31"], "num_clicks_accrued": [0, 0, 0, 0, 0, 0, 0, 0, 0, 0, 0, 0, 0], "stateRewards": ["", 1, 1, 4, 11, 83, -66, 18, -16, -23, 5, 25, 1, -3, 1, -12, 18, 24, -86, -11, -64, 36, 40, 2, 1, -6, 13, 55, 29, 72, -2, 81, -72, -41], "withholdReward": false, "trial_id": "mdp_trial_24", "block": "test", "trialIndex": 25, "score": 60.95, "costs": -15.05, "simulationMode": [null, null, null, null, null], "rewards": [2, 1, -6, -2, 81], "path": ["0", "0", "23", "24", "25", "30", "31"], "rt": [25209, 15, 169, 575, 155], "actions": ["left", "left", "left", "down", "right"], "actionTimes": [26842, 27369, 28057, 29177, 29849], "queries": {"click": {"state": {"target": ["18", "16", "17", "20", "21", "22", "31"], "time": [2364, 5611, 8893, 12239, 15592, 19017, 23221]}, "edge": {"target": [], "time": []}}, "mouseover": {"state": {"target": ["12", "18", "16", "17", "20", "21", "22", "31", "32"], "time": [1939, 2103, 2842, 6209, 9652, 12613, 15956, 19750, 23813]}, "edge": {"target": [], "time": []}}, "mouseout": {"state": {"target": ["12", "12", "18", "16", "17", "17", "20", "20", "21", "22", "31", "32"], "time": [511, 2037, 2499, 5946, 9012, 9222, 12270, 12516, 15764, 19334, 23555, 30186]}, "edge": {"target": [], "time": []}}}, "displayed_time": "30.37", "trialTime": 31848, "trial_type": "mouselab-mdp", "trial_index": 32, "time_elapsed": 1441781, "internal_node_id": "0.0-6.0-1.0-23.0"}}, {"uniqueid": "w90521557:a54615790", "current_trial": 33, "dateTime": 1693566826739, "trialdata": {"revealed_states": [], "clicked_states": ["31", "32", "33"], "num_clicks_accrued": [0, 0, 0, 0, 0, 0, 0, 0, 0, 0, 0, 0, 0], "stateRewards": ["", -2, 2, -1, -6, 22, 6, 6, -5, 70, -42, 65, 1, 3, 5, -6, -67, -9, 3, 14, 7, -62, -13, -2, 4, 1, 16, 42, -21, -52, -8, 32, 53, 81], "withholdReward": false, "trial_id": "mdp_trial_25", "block": "test", "trialIndex": 26, "score": 69.55, "costs": -6.449999999999999, "simulationMode": [null, null, null, null, null], "rewards": [-2, 4, 1, -8, 81], "path": ["0", "0", "23", "24", "25", "30", "33"], "rt": [11898, 537, 147, 7, 133], "actions": ["left", "left", "left", "down", "left"], "actionTimes": [14137, 15184, 15848, 16381, 17056], "queries": {"click": {"state": {"target": ["31", "32", "33"], "time": [3589, 7037, 10854]}, "edge": {"target": [], "time": []}}, "mouseover": {"state": {"target": ["23", "31", "32", "33"], "time": [2951, 3247, 4658, 7517]}, "edge": {"target": [], "time": []}}, "mouseout": {"state": {"target": ["0", "23", "31", "32", "33", "32"], "time": [2662, 3030, 4239, 7117, 11421, 11619]}, "edge": {"target": [], "time": []}}}, "displayed_time": "17.57", "trialTime": 18903, "trial_type": "mouselab-mdp", "trial_index": 33, "time_elapsed": 1461680, "internal_node_id": "0.0-6.0-1.0-24.0"}}, {"uniqueid": "w90521557:a54615790", "current_trial": 34, "dateTime": 1693566849819, "trialdata": {"revealed_states": [], "clicked_states": ["29", "27", "28"], "num_clicks_accrued": [0, 0, 0, 0, 0, 0, 0, 0, 0, 0, 0, 0, 0], "stateRewards": ["", 2, -1, 5, 8, 75, -35, -77, 1, -9, -81, -58, 1, 2, -7, 5, 77, -16, 19, 16, -10, -18, 40, -2, 3, 7, -5, 64, 1, -62, 10, 27, 10, 65], "withholdReward": false, "trial_id": "mdp_trial_26", "block": "test", "trialIndex": 27, "score": 60.55, "costs": -6.449999999999999, "simulationMode": [null, null, null, null, null], "rewards": [-2, 3, 7, -5, 64], "path": ["0", "0", "23", "24", "25", "26", "27"], "rt": [11448, 467, 59, 53, 60], "actions": ["left", "left", "left", "up", "up"], "actionTimes": [15513, 16537, 17113, 17689, 18289], "queries": {"click": {"state": {"target": ["29", "27", "28"], "time": [5747, 8981, 12319]}, "edge": {"target": [], "time": []}}, "mouseover": {"state": {"target": ["23", "24", "29", "27", "28", "24"], "time": [4379, 4629, 5503, 6228, 9390, 14327]}, "edge": {"target": [], "time": []}}, "mouseout": {"state": {"target": ["0", "23", "24", "29", "27", "28", "28", "24"], "time": [3239, 4562, 4650, 5872, 9261, 12425, 14143, 14390]}, "edge": {"target": [], "time": []}}}, "displayed_time": "18.81", "trialTime": 22041, "trial_type": "mouselab-mdp", "trial_index": 34, "time_elapsed": 1484760, "internal_node_id": "0.0-6.0-1.0-25.0"}}, {"uniqueid": "w90521557:a54615790", "current_trial": 35, "dateTime": 1693566880699, "trialdata": {"revealed_states": [], "clicked_states": ["29", "27", "28", "33", "32", "31"], "num_clicks_accrued": [0, 0, 0, 0, 0, 0, 0, 0, 0, 0, 0, 0, 0], "stateRewards": ["", -2, 2, 8, -6, -25, 3, 87, 2, -62, -2, 74, -2, -1, 2, -1, 79, 49, -37, -14, 5, 67, -9, -1, 2, -2, 5, 15, 38, 32, -14, -38, -38, 30], "withholdReward": false, "trial_id": "mdp_trial_27", "block": "test", "trialIndex": 28, "score": 6.1, "costs": -12.9, "simulationMode": [null, null, null, null, null], "rewards": [-1, 2, -2, 5, 15], "path": ["0", "0", "23", "24", "25", "26", "27"], "rt": [22056, 233, 276, 6, 87], "actions": ["left", "left", "left", "up", "up"], "actionTimes": [24734, 25493, 26301, 26822, 27445], "queries": {"click": {"state": {"target": ["29", "27", "28", "33", "32", "31"], "time": [4901, 8199, 11503, 14924, 18138, 21461]}, "edge": {"target": [], "time": []}}, "mouseover": {"state": {"target": ["23", "24", "30", "33", "29", "27", "28", "25", "30", "33", "32", "31"], "time": [3120, 3188, 3338, 3615, 4581, 5334, 8642, 11871, 11937, 12172, 15345, 18515]}, "edge": {"target": [], "time": []}}, "mouseout": {"state": {"target": ["0", "23", "24", "30", "33", "29", "27", "28", "25", "30", "33", "32", "31"], "time": [1916, 3154, 3238, 3458, 4017, 5154, 8513, 11814, 11905, 11971, 15237, 18363, 22320]}, "edge": {"target": [], "time": []}}}, "displayed_time": "27.95", "trialTime": 29853, "trial_type": "mouselab-mdp", "trial_index": 35, "time_elapsed": 1515640, "internal_node_id": "0.0-6.0-1.0-26.0"}}, {"uniqueid": "w90521557:a54615790", "current_trial": 36, "dateTime": 1693566899056, "trialdata": {"revealed_states": [], "clicked_states": ["9", "11", "10"], "num_clicks_accrued": [0, 0, 0, 0, 0, 0, 0, 0, 0, 0, 0, 0, 0], "stateRewards": ["", 2, 3, -3, 12, -43, 81, -82, -15, 58, -7, -75, -1, -1, 3, -5, 50, -25, -8, 4, 66, 65, -66, 2, -4, 2, -1, -10, 10, 37, 11, 88, -37, 8], "withholdReward": false, "trial_id": "mdp_trial_28", "block": "test", "trialIndex": 29, "score": 38.55, "costs": -6.449999999999999, "simulationMode": [null, null, null, null, null], "rewards": [2, 3, -3, -15, 58], "path": ["0", "0", "1", "2", "3", "8", "9"], "rt": [11490, 375, 55, 7, 2], "actions": ["up", "up", "up", "left", "up"], "actionTimes": [13060, 13955, 14530, 15070, 15643], "queries": {"click": {"state": {"target": ["9", "11", "10"], "time": [3001, 6543, 9812]}, "edge": {"target": [], "time": []}}, "mouseover": {"state": {"target": ["10", "11", "9", "11", "10"], "time": [1997, 2203, 2538, 3611, 7231]}, "edge": {"target": [], "time": []}}, "mouseout": {"state": {"target": ["0", "10", "11", "9", "11", "11", "10"], "time": [1616, 2024, 2487, 3259, 6645, 6934, 10154]}, "edge": {"target": [], "time": []}}}, "displayed_time": "16.16", "trialTime": 17275, "trial_type": "mouselab-mdp", "trial_index": 36, "time_elapsed": 1533998, "internal_node_id": "0.0-6.0-1.0-27.0"}}, {"uniqueid": "w90521557:a54615790", "current_trial": 37, "dateTime": 1693566918149, "trialdata": {"revealed_states": [], "clicked_states": ["5"], "num_clicks_accrued": [0, 0, 0, 0, 0, 0, 0, 0, 0, 0, 0, 0, 0], "stateRewards": ["", 1, 2, 7, 13, 88, -71, 27, 3, 60, 5, -53, -2, 2, -6, -1, -30, 79, 47, -4, -14, 46, 68, 1, 1, 8, 10, -14, 86, 48, -11, -67, -44, 5], "withholdReward": false, "trial_id": "mdp_trial_29", "block": "test", "trialIndex": 30, "score": 108.85, "costs": -2.15, "simulationMode": [null, null, null, null, null], "rewards": [1, 2, 7, 13, 88], "path": ["0", "0", "1", "2", "3", "4", "5"], "rt": [4829, 7, 68, 524, 62], "actions": ["up", "up", "up", "right", "up"], "actionTimes": [6498, 7019, 7616, 8656, 9231], "queries": {"click": {"state": {"target": ["5"], "time": [2711]}, "edge": {"target": [], "time": []}}, "mouseover": {"state": {"target": ["0", "0", "7", "4", "5", "6"], "time": [1702, 1857, 2212, 2257, 2546, 3171]}, "edge": {"target": [], "time": []}}, "mouseout": {"state": {"target": ["0", "0", "0", "7", "4", "5", "6", "18", "0"], "time": [708, 1732, 2150, 2233, 2362, 2994, 9741, 10173, 16926]}, "edge": {"target": [], "time": []}}}, "displayed_time": "15.67", "trialTime": 18041, "trial_type": "mouselab-mdp", "trial_index": 37, "time_elapsed": 1553090, "internal_node_id": "0.0-6.0-1.0-28.0"}}, {"uniqueid": "w90521557:a54615790", "current_trial": 38, "dateTime": 1693566936721, "trialdata": {"revealed_states": [], "clicked_states": ["7", "6", "5"], "num_clicks_accrued": [0, 0, 0, 0, 0, 0, 0, 0, 0, 0, 0, 0, 0], "stateRewards": ["", -2, -3, -3, 9, 79, 67, 22, -15, -56, 27, -85, -2, 4, -4, -15, -20, -32, 60, 15, 71, 57, 17, 1, 2, -8, 15, -37, -81, 82, 15, 21, -3, 2], "withholdReward": false, "trial_id": "mdp_trial_30", "block": "test", "trialIndex": 31, "score": 73.55, "costs": -6.449999999999999, "simulationMode": [null, null, null, null, null], "rewards": [-2, -3, -3, 9, 79], "path": ["0", "0", "1", "2", "3", "4", "5"], "rt": [11183, 378, 123, 8, 15], "actions": ["up", "up", "up", "right", "up"], "actionTimes": [12721, 13624, 14280, 14820, 15368], "queries": {"click": {"state": {"target": ["7", "6", "5"], "time": [2636, 6020, 9430]}, "edge": {"target": [], "time": []}}, "mouseover": {"state": {"target": ["12", "7", "6", "5", "6", "5", "4"], "time": [2129, 2360, 3004, 3896, 5487, 6605, 10108]}, "edge": {"target": [], "time": []}}, "mouseout": {"state": {"target": ["12", "7", "6", "5", "6", "5", "4"], "time": [2157, 2801, 3665, 4518, 6260, 10070, 10147]}, "edge": {"target": [], "time": []}}}, "displayed_time": "15.92", "trialTime": 17496, "trial_type": "mouselab-mdp", "trial_index": 38, "time_elapsed": 1571662, "internal_node_id": "0.0-6.0-1.0-29.0"}}, {"uniqueid": "w90521557:a54615790", "current_trial": 39, "dateTime": 1693566955683, "trialdata": {"revealed_states": [], "clicked_states": ["7", "10"], "num_clicks_accrued": [0, 0, 0, 0, 0, 0, 0, 0, 0, 0, 0, 0, 0], "stateRewards": ["", 1, 2, 2, -15, -84, 28, -26, 13, 31, 86, 30, -2, 1, -1, -8, 66, -40, -1, -10, -32, 57, -17, 1, 2, -2, 9, -23, 77, 85, 12, -32, -62, -35], "withholdReward": false, "trial_id": "mdp_trial_31", "block": "test", "trialIndex": 32, "score": 99.7, "costs": -4.3, "simulationMode": [null, null, null, null, null], "rewards": [1, 2, 2, 13, 86], "path": ["0", "0", "1", "2", "3", "8", "10"], "rt": [9851, 8, 17, 587, 476], "actions": ["up", "up", "up", "left", "down"], "actionTimes": [12037, 12566, 13107, 14219, 15212], "queries": {"click": {"state": {"target": ["7", "10"], "time": [4358, 7990]}, "edge": {"target": [], "time": []}}, "mouseover": {"state": {"target": ["23", "0", "18", "7", "2", "10", "2", "6", "7"], "time": [2221, 2754, 3180, 4082, 7626, 7726, 8305, 9953, 11539]}, "edge": {"target": [], "time": []}}, "mouseout": {"state": {"target": ["0", "23", "0", "18", "7", "2", "10", "10", "2", "6", "7", "12"], "time": [721, 2569, 2781, 3364, 5777, 7676, 8078, 8271, 8337, 11461, 11574, 17127]}, "edge": {"target": [], "time": []}}}, "displayed_time": "16.19", "trialTime": 17955, "trial_type": "mouselab-mdp", "trial_index": 39, "time_elapsed": 1590624, "internal_node_id": "0.0-6.0-1.0-30.0"}}, {"uniqueid": "w90521557:a54615790", "current_trial": 40, "dateTime": 1693566974219, "trialdata": {"revealed_states": [], "clicked_states": ["11", "9"], "num_clicks_accrued": [0, 0, 0, 0, 0, 0, 0, 0, 0, 0, 0, 0, 0], "stateRewards": ["", -2, 4, -3, -13, 63, -36, 62, 11, 78, 34, -51, 2, -2, 8, -6, -40, -18, 31, 9, 64, 39, 79, 1, 4, -4, 15, -12, 76, 73, -10, -77, 86, -4], "withholdReward": false, "trial_id": "mdp_trial_32", "block": "test", "trialIndex": 33, "score": 72.7, "costs": -4.3, "simulationMode": [null, null, null, null, null], "rewards": [1, 4, -4, -10, 86], "path": ["0", "0", "23", "24", "25", "30", "32"], "rt": [8267, 2188, 143, 711, 202], "actions": ["left", "left", "left", "down", "down"], "actionTimes": [10035, 12764, 13420, 14659, 15371], "queries": {"click": {"state": {"target": ["11", "9"], "time": [3280, 6552]}, "edge": {"target": [], "time": []}}, "mouseover": {"state": {"target": ["0", "1", "8", "11", "9", "8", "4", "5"], "time": [1804, 2644, 2861, 3079, 3619, 7079, 7762, 7958]}, "edge": {"target": [], "time": []}}, "mouseout": {"state": {"target": ["0", "0", "1", "8", "11", "9", "8", "4", "5", "4", "2", "24", "30", "32"], "time": [822, 2459, 2711, 2911, 3487, 7020, 7140, 7799, 9987, 11797, 11860, 12060, 12277, 15439]}, "edge": {"target": [], "time": []}}}, "displayed_time": "15.91", "trialTime": 17443, "trial_type": "mouselab-mdp", "trial_index": 40, "time_elapsed": 1609160, "internal_node_id": "0.0-6.0-1.0-31.0"}}, {"uniqueid": "w90521557:a54615790", "current_trial": 41, "dateTime": 1693567003739, "trialdata": {"revealed_states": [], "clicked_states": ["5", "6", "7", "9", "11", "10"], "num_clicks_accrued": [0, 0, 0, 0, 0, 0, 0, 0, 0, 0, 0, 0, 0], "stateRewards": ["", -1, -2, 4, 9, 10, -75, 39, 16, -43, 88, -19, -1, 1, 2, 4, -31, 10, 73, 12, 41, -64, -81, -2, 2, -6, 1, -81, -1, -26, 3, -59, -3, -20], "withholdReward": false, "trial_id": "mdp_trial_33", "block": "test", "trialIndex": 34, "score": 92.1, "costs": -12.9, "simulationMode": [null, null, null, null, null], "rewards": [-1, -2, 4, 16, 88], "path": ["0", "0", "1", "2", "3", "8", "10"], "rt": [22342, 274, 52, 144, 8], "actions": ["up", "up", "up", "left", "down"], "actionTimes": [23976, 24783, 25359, 26040, 26536], "queries": {"click": {"state": {"target": ["5", "6", "7", "9", "11", "10"], "time": [3692, 7061, 10297, 13644, 16894, 20245]}, "edge": {"target": [], "time": []}}, "mouseover": {"state": {"target": ["0", "1", "2", "5", "6", "4", "7", "3", "9", "11", "10", "24", "31", "24"], "time": [2239, 2977, 3034, 3396, 4552, 7469, 7741, 10906, 11485, 14167, 17582, 20851, 20993, 23667]}, "edge": {"target": [], "time": []}}, "mouseout": {"state": {"target": ["0", "0", "1", "2", "5", "6", "4", "7", "3", "9", "9", "11", "10", "10", "24", "31", "24"], "time": [885, 2927, 3011, 3079, 4256, 7156, 7505, 10402, 11265, 13767, 14083, 17183, 20355, 20714, 20884, 23621, 27269]}, "edge": {"target": [], "time": []}}}, "displayed_time": "27.09", "trialTime": 28447, "trial_type": "mouselab-mdp", "trial_index": 41, "time_elapsed": 1638680, "internal_node_id": "0.0-6.0-1.0-32.0"}}, {"uniqueid": "w90521557:a54615790", "current_trial": 42, "dateTime": 1693567023515, "trialdata": {"revealed_states": [], "clicked_states": ["9", "11", "10"], "num_clicks_accrued": [0, 0, 0, 0, 0, 0, 0, 0, 0, 0, 0, 0, 0], "stateRewards": ["", -1, 1, 3, -8, -23, -15, -14, -11, -23, 58, 68, 1, 3, 5, 12, -17, -41, -7, -10, -4, 82, 10, 1, 4, -4, 11, 73, 55, -55, -1, -86, -86, 54], "withholdReward": false, "trial_id": "mdp_trial_34", "block": "test", "trialIndex": 35, "score": 53.55, "costs": -6.449999999999999, "simulationMode": [null, null, null, null, null], "rewards": [-1, 1, 3, -11, 68], "path": ["0", "0", "1", "2", "3", "8", "11"], "rt": [11749, 407, 156, 503, 177], "actions": ["up", "up", "up", "left", "left"], "actionTimes": [13272, 14198, 14870, 15886, 16606], "queries": {"click": {"state": {"target": ["9", "11", "10"], "time": [3249, 6515, 10018]}, "edge": {"target": [], "time": []}}, "mouseover": {"state": {"target": ["10", "9", "11", "10"], "time": [2659, 3048, 3807, 7134]}, "edge": {"target": [], "time": []}}, "mouseout": {"state": {"target": ["0", "10", "9", "11", "10"], "time": [567, 2705, 3591, 6997, 10410]}, "edge": {"target": [], "time": []}}}, "displayed_time": "17.13", "trialTime": 18630, "trial_type": "mouselab-mdp", "trial_index": 42, "time_elapsed": 1658456, "internal_node_id": "0.0-6.0-1.0-33.0"}}, {"uniqueid": "w90521557:a54615790", "current_trial": 43, "dateTime": 1693567052091, "trialdata": {"revealed_states": [], "clicked_states": ["33", "32", "31", "29", "27", "28"], "num_clicks_accrued": [0, 0, 0, 0, 0, 0, 0, 0, 0, 0, 0, 0, 0], "stateRewards": ["", 2, -3, -2, 14, -4, 85, 46, 15, -28, 41, 31, -1, -1, -1, 5, 62, 79, 57, 12, -73, -64, 86, -1, 1, -3, -5, 68, 11, -32, 8, -80, -21, -56], "withholdReward": false, "trial_id": "mdp_trial_35", "block": "test", "trialIndex": 36, "score": 47.1, "costs": -12.9, "simulationMode": [null, null, null, null, null], "rewards": [-1, 1, -3, -5, 68], "path": ["0", "0", "23", "24", "25", "26", "27"], "rt": [20810, 8, 146, 534, 124], "actions": ["left", "left", "left", "up", "up"], "actionTimes": [22946, 23471, 24145, 25209, 25849], "queries": {"click": {"state": {"target": ["33", "32", "31", "29", "27", "28"], "time": [3332, 6565, 9805, 12987, 16261, 19708]}, "edge": {"target": [], "time": []}}, "mouseover": {"state": {"target": ["23", "31", "30", "33", "32", "31", "25", "29", "27", "28", "24"], "time": [2595, 2757, 2841, 3103, 3801, 7012, 10308, 10635, 13527, 16621, 20276]}, "edge": {"target": [], "time": []}}, "mouseout": {"state": {"target": ["0", "23", "31", "30", "33", "33", "32", "31", "25", "29", "27", "28", "24"], "time": [1350, 2657, 2781, 2907, 3433, 3689, 6859, 10220, 10343, 13273, 16570, 20109, 20365]}, "edge": {"target": [], "time": []}}}, "displayed_time": "26.37", "trialTime": 27473, "trial_type": "mouselab-mdp", "trial_index": 43, "time_elapsed": 1687032, "internal_node_id": "0.0-6.0-1.0-34.0"}}, {"uniqueid": "w90521557:a54615790", "current_trial": 44, "dateTime": 1693567086282, "trialdata": {"revealed_states": [], "clicked_states": ["18", "16", "17", "20", "21", "22", "7"], "num_clicks_accrued": [0, 0, 0, 0, 0, 0, 0, 0, 0, 0, 0, 0, 0], "stateRewards": ["", 2, -1, -1, -9, -81, -30, 55, -6, 78, 25, 62, 2, 4, -1, 9, -85, 1, -19, 1, -60, 12, -34, 1, 4, -1, -13, -24, -16, -83, -8, 16, 43, 9], "withholdReward": false, "trial_id": "mdp_trial_36", "block": "test", "trialIndex": 37, "score": 30.95, "costs": -15.05, "simulationMode": [null, null, null, null, null], "rewards": [2, -1, -1, -9, 55], "path": ["0", "0", "1", "2", "3", "4", "7"], "rt": [24909, 55, 48, 492, 1256], "actions": ["up", "up", "up", "right", "down"], "actionTimes": [27067, 27651, 28235, 29259, 31090], "queries": {"click": {"state": {"target": ["18", "16", "17", "20", "21", "22", "7"], "time": [3342, 6583, 9757, 12973, 16197, 19453, 23290]}, "edge": {"target": [], "time": []}}, "mouseover": {"state": {"target": ["12", "13", "14", "20", "16", "18", "16", "17", "20", "21", "22", "7", "4", "4", "7", "6"], "time": [2393, 2510, 2579, 2661, 2962, 3191, 3693, 7122, 11088, 13511, 16833, 20312, 20409, 23049, 23117, 23655]}, "edge": {"target": [], "time": []}}, "mouseout": {"state": {"target": ["0", "12", "13", "14", "20", "16", "18", "16", "17", "17", "20", "20", "21", "22", "7", "4", "4", "7", "6"], "time": [806, 2460, 2533, 2628, 2715, 3012, 3372, 6927, 9887, 10249, 13081, 13342, 16486, 20071, 20374, 20524, 23072, 23407, 26662]}, "edge": {"target": [], "time": []}}}, "displayed_time": "31.62", "trialTime": 33035, "trial_type": "mouselab-mdp", "trial_index": 44, "time_elapsed": 1721223, "internal_node_id": "0.0-6.0-1.0-35.0"}}, {"uniqueid": "w90521557:a54615790", "current_trial": 45, "dateTime": 1693567104362, "trialdata": {"revealed_states": [], "clicked_states": ["31", "32"], "num_clicks_accrued": [0, 0, 0, 0, 0, 0, 0, 0, 0, 0, 0, 0, 0], "stateRewards": ["", 1, 1, 6, -14, -40, 37, 16, -13, 33, -68, 49, 2, 4, 3, 6, 55, 27, 32, 10, -65, 20, -87, 2, 1, -6, -5, -42, 12, 29, -8, 16, 76, -33], "withholdReward": false, "trial_id": "mdp_trial_37", "block": "test", "trialIndex": 38, "score": 60.7, "costs": -4.3, "simulationMode": [null, null, null, null, null], "rewards": [2, 1, -6, -8, 76], "path": ["0", "0", "23", "24", "25", "30", "32"], "rt": [8979, 162, 53, 458, 122], "actions": ["left", "left", "left", "down", "down"], "actionTimes": [10834, 11505, 12072, 13057, 13713], "queries": {"click": {"state": {"target": ["31", "32"], "time": [3873, 7219]}, "edge": {"target": [], "time": []}}, "mouseover": {"state": {"target": ["28", "24", "31", "32", "33", "33"], "time": [2701, 3090, 3620, 4191, 7587, 8086]}, "edge": {"target": [], "time": []}}, "mouseout": {"state": {"target": ["2", "0", "28", "24", "31", "32", "33", "33", "24", "23"], "time": [595, 1892, 3068, 3123, 4086, 7460, 7850, 14860, 15027, 15094]}, "edge": {"target": [], "time": []}}}, "displayed_time": "15.86", "trialTime": 16985, "trial_type": "mouselab-mdp", "trial_index": 45, "time_elapsed": 1739303, "internal_node_id": "0.0-6.0-1.0-36.0"}}, {"uniqueid": "w90521557:a54615790", "current_trial": 46, "dateTime": 1693567122340, "trialdata": {"revealed_states": [], "clicked_states": ["29"], "num_clicks_accrued": [0, 0, 0, 0, 0, 0, 0, 0, 0, 0, 0, 0, 0], "stateRewards": ["", -2, -3, -6, -7, 9, 16, 65, 5, -41, 20, -25, -1, -4, 1, -11, -49, -4, 71, 1, 39, -62, 52, -2, -3, 7, -9, -28, -70, 84, 8, 24, -58, 82], "withholdReward": false, "trial_id": "mdp_trial_38", "block": "test", "trialIndex": 39, "score": 74.85, "costs": -2.15, "simulationMode": [null, null, null, null, null], "rewards": [-2, -3, 7, -9, 84], "path": ["0", "0", "23", "24", "25", "26", "29"], "rt": [4934, 92, 160, 9, 62], "actions": ["left", "left", "left", "up", "left"], "actionTimes": [6614, 7259, 7948, 8471, 9068], "queries": {"click": {"state": {"target": ["29"], "time": [2992]}, "edge": {"target": [], "time": []}}, "mouseover": {"state": {"target": ["23", "24", "28", "26", "29", "27"], "time": [2289, 2372, 2442, 2557, 2723, 3504]}, "edge": {"target": [], "time": []}}, "mouseout": {"state": {"target": ["0", "23", "24", "28", "26", "29", "27", "26", "28"], "time": [2222, 2342, 2404, 2479, 2640, 3281, 7114, 10090, 10153]}, "edge": {"target": [], "time": []}}}, "displayed_time": "15.68", "trialTime": 16821, "trial_type": "mouselab-mdp", "trial_index": 46, "time_elapsed": 1757280, "internal_node_id": "0.0-6.0-1.0-37.0"}}, {"uniqueid": "w90521557:a54615790", "current_trial": 47, "dateTime": 1693567140423, "trialdata": {"revealed_states": [], "clicked_states": ["33"], "num_clicks_accrued": [0, 0, 0, 0, 0, 0, 0, 0, 0, 0, 0, 0, 0], "stateRewards": ["", 1, -2, -3, 14, -42, -87, -37, -11, -50, 33, -44, -2, 4, -7, 13, 48, -75, -66, 12, 23, -2, 82, 1, -4, 3, 12, 51, -15, -26, -11, -52, -29, 82], "withholdReward": false, "trial_id": "mdp_trial_39", "block": "test", "trialIndex": 40, "score": 68.85, "costs": -2.15, "simulationMode": [null, null, null, null, null], "rewards": [1, -4, 3, -11, 82], "path": ["0", "0", "23", "24", "25", "30", "33"], "rt": [4595, 41, 63, 481, 132], "actions": ["left", "left", "left", "down", "left"], "actionTimes": [6413, 6980, 7590, 8604, 9254], "queries": {"click": {"state": {"target": ["33"], "time": [2728]}, "edge": {"target": [], "time": []}}, "mouseover": {"state": {"target": ["31", "30", "33", "32"], "time": [1965, 2201, 2529, 3136]}, "edge": {"target": [], "time": []}}, "mouseout": {"state": {"target": ["31", "30", "33", "32"], "time": [2177, 2397, 3026, 10979]}, "edge": {"target": [], "time": []}}}, "displayed_time": "15.82", "trialTime": 16900, "trial_type": "mouselab-mdp", "trial_index": 47, "time_elapsed": 1775365, "internal_node_id": "0.0-6.0-1.0-38.0"}}, {"uniqueid": "w90521557:a54615790", "current_trial": 48, "dateTime": 1693567161123, "trialdata": {"revealed_states": [], "clicked_states": ["29", "27", "28"], "num_clicks_accrued": [0, 0, 0, 0, 0, 0, 0, 0, 0, 0, 0, 0, 0], "stateRewards": ["", 2, -4, 1, -12, -59, -53, -74, 16, -88, -66, 66, 1, -2, 8, -9, -14, 22, 25, -1, -39, 47, -14, -1, -1, -2, 1, -4, 52, -26, 15, -7, 46, 43], "withholdReward": false, "trial_id": "mdp_trial_40", "block": "test", "trialIndex": 41, "score": 42.55, "costs": -6.449999999999999, "simulationMode": [null, null, null, null, null], "rewards": [-1, -1, -2, 1, 52], "path": ["0", "0", "23", "24", "25", "26", "28"], "rt": [12799, 117, 35, 532, 78], "actions": ["left", "left", "left", "up", "right"], "actionTimes": [14653, 15292, 15851, 16923, 17539], "queries": {"click": {"state": {"target": ["29", "27", "28"], "time": [2617, 6419, 11062]}, "edge": {"target": [], "time": []}}, "mouseover": {"state": {"target": ["28", "26", "29", "27", "28", "33"], "time": [1894, 2036, 2421, 3250, 6992, 11744]}, "edge": {"target": [], "time": []}}, "mouseout": {"state": {"target": ["0", "28", "26", "29", "27", "28", "33", "30", "31"], "time": [963, 1940, 2187, 2761, 6812, 11436, 18160, 18212, 18467]}, "edge": {"target": [], "time": []}}}, "displayed_time": "18.06", "trialTime": 19476, "trial_type": "mouselab-mdp", "trial_index": 48, "time_elapsed": 1796064, "internal_node_id": "0.0-6.0-1.0-39.0"}}, {"uniqueid": "w90521557:a54615790", "current_trial": 49, "dateTime": 1693567274204, "trialdata": {"rt": 113047, "response": {"Q0": "$-2 to $2", "Q1": "$-16 to $16", "Q2": "$-88 to $88", "Q3": "The cost for clicking on nodes varied between nodes.", "Q4": "Very motivated"}, "question_order": [0, 1, 2, 3, 4], "trial_id": "final_quiz_control", "trial_type": "survey-multi-choice", "trial_index": 49, "time_elapsed": 1909145, "internal_node_id": "0.0-6.0-2.0"}}, {"uniqueid": "w90521557:a54615790", "current_trial": 50, "dateTime": 1693567566998, "trialdata": {"rt": 292753, "response": {"Q0": "At first i was checking the root a was going to take one by one and then i saw that it take more time and it's costing ", "Q1": "I changed my strategy to checking the last node then took the  root with a highest value", "Q2": "I as difficult because i didn't know how many negetive node i will get how much they are going to add or subtract from my final choice"}, "trial_id": "self_report_control", "trial_type": "survey-text", "trial_index": 50, "time_elapsed": 2201941, "internal_node_id": "0.0-6.0-3.0"}}, {"uniqueid": "w90521557:a54615790", "current_trial": 51, "dateTime": 1693567633505, "trialdata": {"rt": 66491, "response": {"Q0": "Neither disagree nor agree", "Q1": "Strongly disagree", "Q2": "Agree", "Q3": "Agree", "Q4": "Disagree", "Q5": "Agree", "Q6": "Strongly disagree"}, "question_order": [0, 1, 2, 3, 4, 5, 6], "trial_id": "self_report_2", "trial_type": "survey-multi-choice", "trial_index": 51, "time_elapsed": 2268448, "internal_node_id": "0.0-6.0-4.0"}}, {"uniqueid": "w90521557:a54615790", "current_trial": 52, "dateTime": 1693567677591, "trialdata": {"rt": 44066, "response": {"gender": "male", "age": "26", "colorblind": "0", "effort": "0"}, "trial_type": "survey-html-form", "trial_index": 52, "time_elapsed": 2312534, "internal_node_id": "0.0-6.0-5.0"}}, {"uniqueid": "w90521557:a54615790", "current_trial": 53, "dateTime": 1693567748085, "trialdata": {"rt": 70472, "response": {"Q0": "no intructions were clean and easy to understand", "Q1": "No", "Q2": ""}, "trial_type": "survey-text", "trial_index": 53, "time_elapsed": 2383028, "internal_node_id": "0.0-6.0-6.0"}}, {"uniqueid": "w90521557:a54615790", "current_trial": 54, "dateTime": 1693567808159, "trialdata": {"rt": 60062, "stimulus": "<h1>Completion Code Instructions (1/2)</h1>\n<br><br><br><br>\nYou have reached the end of the experiment! The completion code consists of two parts: (1) a code with 2 characters (2) a code with 6 characters. On this page, you will receive the second part of the code. The first part of the completion code will be on the next page.\n<br><br>\nThe second part of your completion code is: <b>EWEK22</b>\n<br><br>\nPlease note this down. Then, press 'Finish HIT' in order to find the first part of your completion code. Once the data has been saved, you will receive this code either in this window or in the original browser window where you started the experiment.\n", "response": 0, "trial_type": "html-button-response", "trial_index": 54, "time_elapsed": 2443102, "internal_node_id": "0.0-6.0-7.0"}}, {"uniqueid": "w90521557:a54615790", "current_trial": 55, "dateTime": 1693567809179, "trialdata": {"success": true, "trial_type": "fullscreen", "trial_index": 55, "time_elapsed": 2444122, "internal_node_id": "0.0-7.0"}}], "questiondata": {"params": {"CODE": "C6DMOQA6", "MIN_TIME": 14, "inspectCost": 1, "startTime": "Fri Sep 01 2023 12:49:22 GMT+0200 (South Africa Standard Time)", "bonusRate": 0.002, "variance": "1_2_4_8_44", "branching": "31123"}, "final_score": 2199.4}, "eventdata": [{"eventtype": "initialized", "value": null, "timestamp": 1693565361310, "interval": 0}, {"eventtype": "window_resize", "value": [1366, 708], "timestamp": 1693565361310, "interval": 0}, {"eventtype": "window_resize", "value": [1366, 708], "timestamp": 1693565361867, "interval": 557}, {"eventtype": "window_resize", "value": [1366, 768], "timestamp": 1693565376329, "interval": 14462}, {"eventtype": "window_resize", "value": [1366, 708], "timestamp": 1693567808481, "interval": 2432152}], "useragent": "Mozilla/5.0 (Windows NT 10.0; Win64; x64) AppleWebKit/537.36 (KHTML, like Gecko) Chrome/116.0.0.0 Safari/537.36", "mode": "live", "id": "w90521557:a54615790", "status": "user data saved", "Beginhit": "2023-09-01 10:49:16.268349", "Beginexp": "2023-09-01 10:49:44.192026", "Endhit": "2023-09-01 11:30:16.927042", "psiturkStatus": 3, "browser": "<redacted>", "platform": "windows", "language": "en-US"}