{"condition": 0, "counterbalance": 0, "assignmentId": "a72808572", "workerId": "w31246579", "hitId": "h87584665", "currenttrial": 7, "bonus": 0, "data": [{"uniqueid": "w31246579:a72808572", "current_trial": 0, "dateTime": 1691159411257, "trialdata": {"success": true, "trial_type": "fullscreen", "trial_index": 0, "time_elapsed": 19491, "internal_node_id": "0.0-0.0"}}, {"uniqueid": "w31246579:a72808572", "current_trial": 1, "dateTime": 1691159420933, "trialdata": {"view_history": [{"page_index": 0, "viewing_time": 9663}], "rt": 9664, "trial_id": "exp_instructions_control", "trial_type": "instructions", "trial_index": 1, "time_elapsed": 29167, "internal_node_id": "0.0-1.0"}}, {"uniqueid": "w31246579:a72808572", "current_trial": 2, "dateTime": 1691159433276, "trialdata": {"success": true, "trial_type": "fullscreen", "trial_index": 2, "time_elapsed": 41510, "internal_node_id": "0.0-2.0-0.0"}}, {"uniqueid": "w31246579:a72808572", "current_trial": 3, "dateTime": 1691160036798, "trialdata": {"view_history": [{"page_index": 0, "viewing_time": 537511}, {"page_index": 1, "viewing_time": 32008}, {"page_index": 2, "viewing_time": 29280}, {"page_index": 3, "viewing_time": 4720}], "rt": 603519, "trial_id": "mouselab_instructions_1_control", "trial_type": "instructions", "trial_index": 3, "time_elapsed": 645032, "internal_node_id": "0.0-2.0-1.0"}}, {"uniqueid": "w31246579:a72808572", "current_trial": 4, "dateTime": 1691160078052, "trialdata": {"revealed_states": [], "clicked_states": ["24"], "num_clicks_accrued": [0, 0, 0, 0, 0, 0, 0, 0, 0, 0, 0, 0, 0], "stateRewards": ["", 10, -10, 10, 10, -10, -10, 10, -10, -10, 10, -10, -10, 10, -10, 10, 10, -10, -10, 10, -10, 10, -10, -10, -10, 10, -10, -10, -10, 10, 10, -10, -10, 10], "withholdReward": false, "trial_id": "practice_1", "block": "test", "trialIndex": 0, "score": -7, "costs": -0.5, "simulationMode": [null, null, null, null, null], "rewards": [-10, -10, 10, 10, -10], "path": ["0", "0", "23", "24", "25", "30", "31"], "rt": [4806, 4404, 903, 542, 539], "actions": ["left", "left", "left", "down", "right"], "actionTimes": [11306, 16233, 17645, 18699, 19761], "queries": {"click": {"state": {"target": ["24"], "time": [8125]}, "edge": {"target": [], "time": []}}, "mouseover": {"state": {"target": ["23", "24", "24", "25", "30"], "time": [7364, 7429, 7854, 8746, 9263]}, "edge": {"target": [], "time": []}}, "mouseout": {"state": {"target": ["7", "4", "5", "3", "2", "1", "23", "24", "24", "25", "30", "24", "23", "0", "24", "25", "30", "25", "28", "8", "1", "0", "1", "0"], "time": [1286, 1335, 1500, 3177, 3300, 5371, 7397, 7650, 8696, 9096, 20488, 25939, 26044, 27115, 29516, 29748, 30259, 31991, 32023, 32339, 32388, 32405, 34637, 35920]}, "edge": {"target": [], "time": []}}}, "displayed_time": "20.27", "trialTime": 40477, "trial_type": "mouselab-mdp", "trial_index": 4, "time_elapsed": 686285, "internal_node_id": "0.0-2.0-2.0-0.0"}}, {"uniqueid": "w31246579:a72808572", "current_trial": 5, "dateTime": 1691160122826, "trialdata": {"revealed_states": [], "clicked_states": ["3", "12", "23"], "num_clicks_accrued": [0, 0, 0, 0, 0, 0, 0, 0, 0, 0, 0, 0, 0], "stateRewards": ["", 10, -10, -10, 10, 10, -10, 10, 10, -10, -10, 10, -10, 10, -10, -10, 10, 10, 10, -10, -10, 10, 10, 10, -10, 10, 10, 10, 10, 10, 10, 10, -10, -10], "withholdReward": false, "trial_id": "practice_2", "block": "test", "trialIndex": 1, "score": 32, "costs": -1.5, "simulationMode": [null, null, null, null, null], "rewards": [10, -10, 10, 10, 10], "path": ["0", "0", "23", "24", "25", "26", "28"], "rt": [14612, 10984, 547, 305, 388], "actions": ["left", "left", "left", "up", "right"], "actionTimes": [18817, 30331, 31396, 32221, 33119], "queries": {"click": {"state": {"target": ["3", "12", "23"], "time": [8299, 14281, 16367]}, "edge": {"target": [], "time": []}}, "mouseover": {"state": {"target": ["1", "2", "3", "2", "1", "2", "3", "2", "1", "12", "0", "23", "1"], "time": [5355, 5389, 5827, 6107, 6213, 7288, 7436, 9703, 9866, 10649, 15455, 15734, 17559]}, "edge": {"target": [], "time": []}}, "mouseout": {"state": {"target": ["0", "1", "2", "1", "0", "1", "2", "3", "2", "1", "2", "3", "2", "1", "12", "0", "23", "23", "1", "24", "31", "24", "31", "30", "31", "30", "32", "30", "31", "23"], "time": [2244, 2539, 3242, 3305, 5291, 5371, 5471, 6076, 6193, 6725, 7369, 9499, 9808, 10184, 15433, 15495, 17244, 17443, 21574, 22660, 22843, 26928, 27173, 28118, 28573, 28669, 29315, 34649, 34815, 38189]}, "edge": {"target": [], "time": []}}}, "displayed_time": "33.63", "trialTime": 44281, "trial_type": "mouselab-mdp", "trial_index": 5, "time_elapsed": 731059, "internal_node_id": "0.0-2.0-2.0-1.0"}}, {"uniqueid": "w31246579:a72808572", "current_trial": 6, "dateTime": 1691160144815, "trialdata": {"view_history": [{"page_index": 0, "viewing_time": 19287}, {"page_index": 1, "viewing_time": 2696}], "rt": 21984, "trial_id": "mouselab_instructions_2_control", "trial_type": "instructions", "trial_index": 6, "time_elapsed": 753049, "internal_node_id": "0.0-2.0-3.0"}}], "questiondata": {"params": {"CODE": "C6DMOQA6", "MIN_TIME": 14, "inspectCost": 1, "startTime": "Fri Aug 04 2023 16:29:50 GMT+0200 (South Africa Standard Time)", "bonusRate": 0.002, "variance": "1_2_4_8_44", "branching": "31123"}}, "eventdata": [{"eventtype": "initialized", "value": null, "timestamp": 1691159389490, "interval": 0}, {"eventtype": "window_resize", "value": [1024, 654], "timestamp": 1691159389490, "interval": 0}, {"eventtype": "window_resize", "value": [1024, 654], "timestamp": 1691159389966, "interval": 476}, {"eventtype": "window_resize", "value": [1366, 768], "timestamp": 1691159410491, "interval": 20525}, {"eventtype": "window_resize", "value": [1024, 654], "timestamp": 1691160175254, "interval": 764763}, {"eventtype": "focus", "value": "off", "timestamp": 1691160177177, "interval": 1923}], "useragent": "Mozilla/5.0 (Windows NT 10.0; Win64; x64) AppleWebKit/537.36 (KHTML, like Gecko) Chrome/115.0.0.0 Safari/537.36", "mode": "live", "id": "w31246579:a72808572", "status": "user data saved", "Beginhit": "2023-08-04 14:29:47.282073", "Beginexp": "2023-08-04 14:30:11.75589", "Endhit": null, "psiturkStatus": 6, "browser": "<redacted>", "platform": "windows", "language": "en-GB", "excludeReason": "quizfail"}